timestamp,ppg,threshold,beat,beat_count,inst_bpm,gsr_resistance_ohm,gsr_conductance_us,accel_x,accel_y,accel_z,gyro_x,gyro_y,gyro_z,temp_c,window_bpm,window_temp_c,status_message,SpO2,bmi,age,height,weight,env_temp_c,env_humidity_pct
13.56.08.218,,,0,,,77054.9,12.98,,0.64,0.64,0.6,5.5,-1.4,36.13,102.2,,,,24.2,22.0,157.48,60.0,36.0,71.0
13.56.08.222,0.9,0.2,0,,,76747.5,13.03,-0.41,0.65,0.64,0.4,5.4,-1.6,36.13,,,,,,,,,,
13.56.08.234,121.3,30.3,0,,,72256.7,13.84,-0.41,0.65,0.64,0.1,6.0,-1.5,36.13,,,,,,,,,,
13.56.08.242,147.6,36.9,0,,,77108.3,12.97,-0.41,0.65,0.64,0.7,5.8,-1.6,36.13,,,,,,,,,,
13.56.08.255,226.8,56.7,0,,,73284.2,13.65,-0.41,0.64,0.64,0.9,5.9,-1.1,36.13,,,,,,,,,,
13.56.08.267,265.4,66.4,0,,,74143.4,13.49,-0.41,0.64,0.64,1.1,5.6,-1.0,36.13,,,,,,,,,,
13.56.08.279,342.3,85.6,0,,,72486.4,13.8,-0.41,0.65,0.63,0.8,5.7,-1.2,36.13,,,,,,,,,,
13.56.08.287,382.6,95.6,0,,,76891.3,13.01,-0.41,0.65,0.63,0.8,5.7,-1.4,36.13,,,,,,,,,,
13.56.08.300,359.3,89.8,0,,,73372.4,13.63,-0.41,0.65,0.63,0.7,6.0,-1.4,36.13,,,,,,,,,,
13.56.08.312,398.6,99.6,0,,,73173.9,13.67,-0.41,0.65,0.63,0.6,5.6,-1.4,36.13,,,,,,,,,,
13.56.08.320,445.2,111.3,0,,,76100.7,13.14,-0.41,0.64,0.64,0.7,5.7,-1.4,36.13,,,,,,,,,,
13.56.08.333,380.1,95.0,0,,,77019.6,12.98,-0.41,0.64,0.64,0.8,5.9,-0.9,36.13,,,,,,,,,,
13.56.08.345,326.4,81.6,0,,,74211.1,13.48,-0.41,0.64,0.64,1.0,5.6,-1.1,36.13,,,,,,,,,,
13.56.08.357,361.1,90.3,0,,,71602.9,13.97,-0.41,0.65,0.63,1.4,6.0,-1.0,36.13,,,,,,,,,,
13.56.08.365,302.8,75.7,0,,,76582.9,13.06,-0.41,0.65,0.63,1.0,5.8,-1.0,36.13,,,,,,,,,,
13.56.08.378,208.0,52.0,0,,,72482.5,13.8,-0.41,0.64,0.64,1.1,5.7,-1.2,36.13,,,,,,,,,,
13.56.08.390,194.3,48.6,0,,,73450.8,13.61,-0.41,0.65,0.63,1.0,5.6,-1.2,36.13,,,,,,,,,,
13.56.08.398,171.7,42.9,0,,,73776.8,13.55,-0.41,0.65,0.64,1.0,5.7,-0.9,36.13,,,,,,,,,,
13.56.08.410,89.7,22.4,0,,,73343.5,13.63,-0.41,0.64,0.63,0.9,5.5,-1.0,36.13,,,,,,,,,,
13.56.08.423,39.8,10.0,0,,,73654.6,13.58,-0.41,0.64,0.64,1.5,5.4,-1.0,36.13,,,,,,,,,,
13.56.08.431,32.2,8.0,0,,,75112.7,13.31,-0.41,0.64,0.64,1.9,5.7,-0.8,36.13,,,,,,,,,,
13.56.08.443,53.1,13.3,0,,,73053.5,13.69,-0.41,0.65,0.64,1.7,6.0,-0.6,36.13,,,,,,,,,,
13.56.08.455,66.9,16.7,0,,,72965.2,13.71,-0.41,0.64,0.63,1.9,5.9,-0.7,36.13,,,,,,,,,,
13.56.08.468,66.9,16.7,0,,,74634.5,13.4,-0.4,0.65,0.64,2.0,5.9,-0.8,36.13,,,,,,,,,,
13.56.08.476,55.8,14.0,0,,,76091.2,13.14,-0.41,0.65,0.63,1.9,5.9,-0.3,36.13,,,,,,,,,,
13.56.08.488,61.3,15.3,0,,,73668.8,13.57,-0.4,0.65,0.63,1.6,5.7,-0.5,36.13,,,,,,,,,,
13.56.08.501,43.7,10.9,0,,,73597.4,13.59,-0.41,0.65,0.64,1.3,5.5,-0.9,36.13,,,,,,,,,,
13.56.08.509,80.8,20.2,0,,,75994.3,13.16,-0.41,0.65,0.63,1.4,5.6,-0.8,36.13,,,,,,,,,,
13.56.08.521,7.6,1.9,0,,,74147.6,13.49,-0.41,0.65,0.63,0.9,5.5,-0.8,36.13,,,,,,,,,,
13.56.08.532,46.9,11.7,0,,,72246.9,13.84,-0.41,0.65,0.63,1.1,5.4,-0.8,36.13,,,,,,,,,,
13.56.08.541,2.9,0.7,0,,,70384.2,14.21,-0.41,0.65,0.63,1.1,5.4,-0.9,36.13,,,,,,,,,,
13.56.08.554,-8.2,2.0,0,,,72252.3,13.84,-0.41,0.65,0.63,1.1,5.4,-0.8,36.13,,,,,,,,,,
13.56.08.566,-21.8,5.4,0,,,72396.9,13.81,-0.41,0.65,0.63,1.0,6.0,-1.2,36.13,,,,,,,,,,
13.56.08.574,-4.9,1.2,0,,,72462.7,13.8,-0.41,0.65,0.63,1.4,5.7,-0.6,36.13,,,,,,,,,,
13.56.08.587,-9.6,2.4,0,,,73700.3,13.57,-0.41,0.65,0.63,1.1,5.4,-0.4,36.13,,,,,,,,,,
13.56.08.599,-43.6,10.9,0,,,69006.1,14.49,-0.41,0.64,0.63,1.0,5.7,-0.9,36.13,,,,,,,,,,
13.56.08.607,-37.4,9.4,0,,,74651.4,13.4,-0.41,0.65,0.63,0.7,5.9,-1.0,36.13,,,,,,,,,,
13.56.08.619,7.6,1.9,0,,,73043.2,13.69,-0.41,0.65,0.63,0.9,5.5,-0.9,36.13,,,,,,,,,,
13.56.08.632,-57.0,14.2,0,,,75381.8,13.27,-0.41,0.65,0.63,0.9,5.7,-1.0,36.13,,,,,,,,,,
13.56.08.644,-79.6,19.9,0,,,76252.9,13.11,-0.41,0.65,0.63,0.6,5.5,-1.3,36.13,,,,,,,,,,
13.56.08.652,-108.1,27.0,0,,,71825.5,13.92,-0.41,0.65,0.64,0.2,5.6,-1.5,36.13,,,,,,,,,,
13.56.08.664,,,0,,,72566.2,13.78,,,,,,,36.13,,,,,,,,,,
13.56.08.681,,,0,,,74254.0,13.47,,,,,,,36.13,,36.13,,,,,,,,
13.56.08.689,-98.5,24.6,0,,,73727.3,13.56,-0.41,0.65,0.63,0.6,5.8,-1.3,36.13,,,,,,,,,,
13.56.08.701,-129.5,32.4,0,,,71509.4,13.98,-0.41,0.65,0.63,0.3,5.8,-1.5,36.13,,,,,,,,,,
13.56.08.710,-125.9,31.5,0,,,73218.5,13.66,-0.41,0.65,0.63,0.1,5.7,-1.7,36.13,,,,,,,,,,
13.56.08.722,-109.1,27.3,0,,,74446.9,13.43,-0.41,0.65,0.63,0.1,5.8,-1.9,36.13,,,,,,,,,,
13.56.08.730,-118.3,29.6,0,,,71294.3,14.03,-0.41,0.65,0.64,0.0,6.2,-1.8,36.13,,,,,,,,,,
13.56.08.742,-99.4,24.8,0,,,70973.6,14.09,-0.41,0.65,0.63,0.2,6.0,-1.6,36.13,,,,,,,,,,
13.56.08.750,-107.1,26.8,0,,,70864.4,14.11,-0.41,0.65,0.63,0.2,5.8,-1.5,36.13,,,,,,,,,,
13.56.08.763,-187.0,46.8,0,,,69726.2,14.34,-0.41,0.64,0.63,0.1,6.3,-1.9,36.13,,,,,,,,,,
13.56.08.771,-167.6,41.9,0,,,72519.7,13.79,-0.41,0.65,0.63,0.0,6.2,-2.0,36.13,,,,,,,,,,
13.56.08.783,-183.0,45.8,0,,,74301.3,13.46,-0.41,0.65,0.64,-0.4,6.2,-2.0,36.13,,,,,,,,,,
13.56.08.791,-150.7,37.7,0,,,73611.2,13.58,-0.41,0.65,0.63,-0.5,6.0,-2.1,36.13,,,,,,,,,,
13.56.08.804,-0.6,0.2,1,1.0,101.5,69083.0,14.48,-0.4,0.65,0.63,-0.8,5.8,-2.0,36.13,,,,,,,,,,
13.56.08.812,31.5,7.9,0,1.0,,69585.5,14.37,-0.41,0.65,0.63,-0.6,5.8,-2.3,36.13,,,,,,,,,,
13.56.08.824,144.4,36.1,0,1.0,,70874.5,14.11,-0.4,0.64,0.63,-0.4,6.0,-2.3,36.13,,,,,,,,,,
13.56.08.832,171.1,42.8,0,1.0,,72868.8,13.72,-0.41,0.65,0.64,-0.2,5.8,-2.0,36.13,,,,,,,,,,
13.56.08.845,255.8,64.0,0,1.0,,71484.4,13.99,-0.41,0.65,0.64,0.0,6.0,-1.8,36.13,,,,,,,,,,
13.56.08.853,295.0,73.8,0,1.0,,69484.1,14.39,-0.41,0.65,0.63,0.4,6.1,-1.9,36.13,,,,,,,,,,
13.56.08.865,339.8,85.0,0,1.0,,71128.3,14.06,-0.4,0.64,0.63,0.4,6.0,-1.6,36.13,,,,,,,,,,
13.56.08.873,356.0,89.0,0,1.0,,72206.7,13.85,-0.41,0.64,0.64,1.0,6.2,-1.4,36.13,,,,,,,,,,
13.56.08.886,387.7,96.9,0,1.0,,73128.5,13.67,-0.41,0.64,0.64,1.5,6.1,-0.8,36.13,,,,,,,,,,
13.56.08.894,416.6,104.2,0,1.0,,68449.7,14.61,-0.42,0.65,0.63,1.9,6.5,-0.6,36.13,,,,,,,,,,
13.56.08.906,436.3,109.1,0,1.0,,75575.8,13.23,-0.42,0.66,0.64,1.9,6.0,-0.6,36.13,,,,,,,,,,
13.56.08.918,337.8,84.4,0,1.0,,71320.7,14.02,-0.4,0.65,0.62,0.1,6.8,-1.8,36.13,,,,,,,,,,
13.56.08.927,371.0,92.8,0,1.0,,76268.9,13.11,-0.41,0.65,0.63,-1.0,6.2,-2.0,36.13,,,,,,,,,,
13.56.08.939,324.2,81.0,0,1.0,,75636.9,13.22,-0.41,0.65,0.63,-0.3,5.9,-1.8,36.13,,,,,,,,,,
13.56.08.951,316.1,79.0,0,1.0,,71076.0,14.07,-0.4,0.65,0.63,-0.2,6.3,-2.0,36.13,,,,,,,,,,
13.56.08.959,286.6,71.6,0,1.0,,75167.7,13.3,-0.41,0.65,0.64,-0.8,6.4,-2.2,36.13,,,,,,,,,,
13.56.08.972,212.3,53.1,0,1.0,,75025.5,13.33,-0.41,0.64,0.63,0.1,5.9,-1.6,36.13,,,,,,,,,,
13.56.09.013,-9.1,2.3,0,1.0,,72204.8,13.85,-0.41,0.65,0.64,0.4,6.0,-1.9,36.13,,,,,,,,,,
13.56.09.021,-0.2,0.0,0,1.0,,73852.7,13.54,-0.41,0.64,0.64,0.4,5.6,-1.8,36.13,,,,,,,,,,
13.56.09.033,42.2,10.6,0,1.0,,74420.6,13.44,-0.41,0.64,0.63,0.6,6.0,-1.4,36.13,,,,,,,,,,
13.56.09.045,63.2,15.8,0,1.0,,74489.6,13.42,-0.41,0.65,0.64,0.8,5.8,-1.6,36.13,,,,,,,,,,
13.56.09.054,50.6,12.6,0,1.0,,71590.1,13.97,-0.41,0.64,0.63,1.1,5.9,-1.1,36.13,,,,,,,,,,
13.56.09.066,91.3,22.8,0,1.0,,75219.3,13.29,-0.41,0.64,0.63,1.3,5.9,-0.8,36.13,,,,,,,,,,
13.56.09.078,53.2,13.3,0,1.0,,73644.1,13.58,-0.41,0.65,0.63,1.4,5.8,-0.8,36.13,,,,,,,,,,
13.56.09.086,51.3,12.8,0,1.0,,73418.6,13.62,-0.41,0.65,0.64,1.1,5.8,-1.0,36.13,,,,,,,,,,
13.56.09.099,30.6,7.6,0,1.0,,65853.8,15.19,-0.41,0.65,0.63,0.8,5.8,-1.1,36.13,,,,,,,,,,
13.56.09.111,23.8,6.0,0,1.0,,77329.1,12.93,-0.41,0.65,0.64,1.3,5.6,-1.5,36.13,,,,,,,,,,
13.56.09.119,22.2,5.6,0,1.0,,70157.4,14.25,-0.41,0.65,0.63,1.1,4.9,-1.1,36.13,,,,,,,,,,
13.56.09.131,-2.9,0.7,0,1.0,,74998.3,13.33,-0.41,0.65,0.64,1.0,5.5,-1.1,36.13,,,,,,,,,,
13.56.09.144,3.9,1.0,0,1.0,,75017.0,13.33,-0.41,0.65,0.64,0.7,5.5,-1.3,36.13,,,,,,,,,,
13.56.09.152,-45.1,11.3,0,1.0,,72858.8,13.73,-0.41,0.64,0.64,0.9,5.4,-1.3,36.13,,,,,,,,,,
13.56.09.164,-49.9,12.5,0,1.0,,73537.1,13.6,-0.41,0.65,0.64,1.5,5.4,-1.0,36.13,,,,,,,,,,
13.56.09.176,-34.7,8.7,0,1.0,,71835.8,13.92,-0.41,0.64,0.64,1.9,5.7,-0.8,36.13,,,,,,,,,,
13.56.09.185,-41.1,10.3,0,1.0,,73966.6,13.52,-0.41,0.64,0.63,1.8,5.2,-0.6,36.13,,,,,,,,,,
13.56.09.197,-47.0,11.8,0,1.0,,73382.2,13.63,-0.41,0.65,0.62,2.4,5.5,-0.1,36.13,,,,,,,,,,
13.56.09.209,-43.0,10.8,0,1.0,,69420.5,14.4,-0.41,0.65,0.63,2.6,5.6,0.2,36.13,,,,,,,,,,
13.56.09.217,-53.8,13.4,0,1.0,,72652.7,13.76,-0.41,0.66,0.63,1.8,5.6,-0.3,36.13,,,,,,,,,,
13.56.09.230,-39.7,9.9,0,1.0,,71812.7,13.93,-0.41,0.65,0.64,0.7,6.5,-1.4,36.13,,,,,,,,,,
13.56.09.242,-69.6,17.4,0,1.0,,73652.5,13.58,-0.41,0.65,0.64,-0.7,5.8,-2.0,36.13,,,,,,,,,,
13.56.09.250,-46.4,11.6,0,1.0,,76732.1,13.03,-0.41,0.65,0.63,-0.8,5.8,-2.5,36.13,,,,,,,,,,
13.56.09.263,-115.2,28.8,0,1.0,,74780.9,13.37,-0.42,0.65,0.63,-0.8,6.3,-2.5,36.13,,,,,,,,,,
13.56.09.275,-57.0,14.2,0,1.0,,71683.5,13.95,-0.42,0.64,0.62,-0.5,6.2,-2.1,36.13,,,,,,,,,,
13.56.09.287,-94.2,23.6,0,1.0,,73298.3,13.64,-0.41,0.64,0.62,0.0,6.2,-1.6,36.13,,,,,,,,,,
13.56.09.295,-83.9,21.0,0,1.0,,69291.8,14.43,-0.41,0.64,0.63,0.2,6.3,-1.0,36.13,,,,,,,,,,
13.56.09.308,-126.3,31.6,0,1.0,,74186.2,13.48,-0.41,0.65,0.64,0.7,6.4,-1.3,36.13,,,,,,,,,,
13.56.09.320,-117.0,29.2,0,1.0,,72830.5,13.73,-0.41,0.65,0.64,0.7,6.9,-1.7,36.13,,,,,,,,,,
13.56.09.328,-150.4,37.6,0,1.0,,69294.0,14.43,-0.41,0.65,0.63,-0.4,6.9,-1.8,36.13,,,,,,,,,,
13.56.09.340,-150.0,37.5,0,1.0,,79098.2,12.64,-0.41,0.65,0.63,-0.5,6.6,-2.2,36.13,,,,,,,,,,
13.56.09.353,-120.9,30.2,0,1.0,,76812.5,13.02,-0.41,0.64,0.63,-0.3,6.5,-2.2,36.13,,,,,,,,,,
13.56.09.361,-151.0,37.8,0,1.0,,70394.2,14.21,-0.41,0.64,0.63,-0.2,6.3,-2.2,36.13,,,,,,,,,,
13.56.09.373,-161.6,40.4,0,1.0,,72222.2,13.85,-0.4,0.65,0.64,-0.1,5.7,-2.3,36.13,,,,,,,,,,
13.56.09.385,-183.0,45.8,0,1.0,,72602.2,13.77,-0.41,0.64,0.64,-0.7,5.6,-2.3,36.13,,,,,,,,,,
13.56.09.394,23.3,5.8,1,2.0,101.3,77904.5,12.84,-0.41,0.64,0.63,-0.3,5.7,-1.7,36.13,,,,,,,,,,
13.56.09.406,81.7,20.4,0,2.0,,74228.1,13.47,-0.41,0.64,0.64,1.1,5.4,-1.2,36.13,,,,,,,,,,
13.56.09.418,203.8,51.0,0,2.0,,70881.8,14.11,-0.4,0.64,0.63,1.8,5.7,-0.9,36.13,,,,,,,,,,
13.56.09.426,214.0,53.5,0,2.0,,72727.8,13.75,-0.42,0.64,0.64,2.3,5.0,-0.1,36.13,,,,,,,,,,
13.56.09.439,292.9,73.2,0,2.0,,73863.3,13.54,-0.41,0.65,0.64,2.9,5.0,0.0,36.13,,,,,,,,,,
13.56.09.451,304.3,76.1,0,2.0,,70645.7,14.16,-0.41,0.65,0.63,2.0,5.2,-0.2,36.13,,,,,,,,,,
13.56.09.459,356.5,89.1,0,2.0,,76390.9,13.09,-0.41,0.65,0.63,1.3,5.3,-0.9,36.13,,,,,,,,,,
13.56.09.471,370.1,92.5,0,2.0,,72809.6,13.73,-0.41,0.65,0.64,1.3,5.4,-0.8,36.13,,,,,,,,,,
13.56.09.484,435.6,108.9,0,2.0,,73091.3,13.68,-0.41,0.65,0.62,1.5,5.5,-1.1,36.13,,,,,,,,,,
13.56.09.492,384.3,96.1,0,2.0,,74506.9,13.42,-0.41,0.65,0.62,1.5,5.8,-0.8,36.13,,,,,,,,,,
13.56.09.504,431.8,108.0,0,2.0,,69855.6,14.32,-0.41,0.65,0.62,1.7,6.4,-1.1,36.13,,,,,,,,,,
13.56.09.517,322.7,80.7,0,2.0,,69116.5,14.47,-0.42,0.66,0.64,1.3,4.4,-0.7,36.13,,,,,,,,,,
13.56.09.525,327.7,81.9,0,2.0,,73390.3,13.63,-0.42,0.65,0.64,0.3,5.6,-1.6,36.13,,,,,,,,,,
13.56.09.537,310.5,77.6,0,2.0,,73121.2,13.68,-0.42,0.66,0.64,-0.8,4.0,-1.8,36.13,,,,,,,,,,
13.56.09.550,277.3,69.3,0,2.0,,73461.8,13.61,-0.41,0.65,0.63,-0.4,5.0,-1.8,36.13,,,,,,,,,,
13.56.09.558,217.3,54.3,0,2.0,,72670.7,13.76,-0.4,0.63,0.62,-0.8,6.2,-2.2,36.13,,,,,,,,,,
13.56.09.570,106.2,26.6,0,2.0,,74203.1,13.48,-0.41,0.64,0.64,-0.8,6.5,-2.5,36.13,,,,,,,,,,
13.56.09.582,78.6,19.6,0,2.0,,70748.1,14.13,-0.41,0.64,0.63,-0.2,5.9,-2.3,36.13,,,,,,,,,,
13.56.09.590,-7.6,1.9,0,2.0,,73770.9,13.56,-0.42,0.65,0.65,0.2,6.0,-1.6,36.13,,,,,,,,,,
13.56.09.603,-8.8,2.2,0,2.0,,71598.5,13.97,-0.42,0.65,0.63,0.1,5.7,-1.3,36.13,,,,,,,,,,
13.56.09.615,13.0,3.2,0,2.0,,71678.5,13.95,-0.41,0.65,0.64,-0.2,5.7,-1.4,36.13,,,,,,,,,,
13.56.09.623,40.9,10.2,0,2.0,,71877.4,13.91,-0.41,0.65,0.63,0.2,6.1,-1.3,36.13,,,,,,,,,,
13.56.09.635,53.2,13.3,0,2.0,,72255.0,13.84,-0.41,0.65,0.63,0.0,6.1,-1.4,36.13,,,,,,,,,,
13.56.09.648,80.2,20.0,0,2.0,,69551.3,14.38,-0.41,0.64,0.63,-0.2,6.3,-1.8,36.13,,,,,,,,,,
13.56.09.656,80.9,20.2,0,2.0,,72193.8,13.85,-0.42,0.64,0.63,-0.3,6.2,-2.0,36.13,,,,,,,,,,
13.56.09.668,62.4,15.6,0,2.0,,74124.6,13.49,-0.41,0.64,0.63,-0.2,6.1,-1.9,36.13,,,,,,,,,,
13.56.09.680,44.6,11.2,0,2.0,,71928.4,13.9,-0.41,0.65,0.64,-0.2,5.8,-1.9,36.13,,,,,,,,,,
13.56.09.693,35.8,9.0,0,2.0,,70870.1,14.11,-0.41,0.64,0.64,-0.5,6.3,-2.5,36.13,,,,,,,,,,
13.56.09.701,5.0,1.2,0,2.0,,72639.7,13.77,-0.41,0.65,0.63,-1.0,6.1,-2.2,36.13,,,,,,,,,,
13.56.09.713,15.3,3.8,0,2.0,,70350.2,14.21,-0.41,0.64,0.63,-0.9,6.4,-2.3,36.13,,,,,,,,,,
13.56.09.725,18.8,4.7,0,2.0,,72788.5,13.74,-0.41,0.64,0.63,-0.4,5.9,-2.2,36.13,,,,,,,,,,
13.56.09.734,-28.6,7.2,0,2.0,,75532.0,13.24,-0.4,0.65,0.63,-0.6,6.1,-2.3,36.13,,,,,,,,,,
13.56.09.746,-53.7,13.4,0,2.0,,74980.7,13.34,-0.41,0.64,0.64,-0.5,5.4,-2.1,36.13,,,,,,,,,,
13.56.09.758,-18.3,4.6,0,2.0,,76756.7,13.03,-0.41,0.64,0.64,-0.4,5.3,-2.1,36.13,,,,,,,,,,
13.56.09.766,-29.6,7.4,0,2.0,,72103.7,13.87,-0.41,0.64,0.66,-0.7,4.5,-2.3,36.13,,,,,,,,,,
13.56.09.807,-75.5,18.9,0,2.0,,73230.1,13.66,-0.4,0.64,0.64,0.1,5.7,-1.8,36.13,,,,,,,,,,
13.56.09.820,-43.3,10.8,0,2.0,,73415.4,13.62,-0.41,0.65,0.65,2.8,6.2,0.2,36.13,,,,,,,,,,
13.56.09.828,-75.3,18.8,0,2.0,,71296.8,14.03,-0.42,0.65,0.64,1.8,5.5,-0.4,36.13,,,,,,,,,,
13.56.09.840,-72.9,18.2,0,2.0,,70272.5,14.23,-0.42,0.64,0.64,1.4,5.1,-1.4,36.13,,,,,,,,,,
13.56.09.848,-61.9,15.5,0,2.0,,71306.2,14.02,-0.41,0.64,0.63,2.4,5.7,-0.6,36.13,,,,,,,,,,
13.56.09.861,-95.3,23.8,0,2.0,,78401.1,12.75,-0.41,0.64,0.63,3.0,5.5,0.1,36.13,,,,,,,,,,
13.56.09.869,-113.6,28.4,0,2.0,,76199.5,13.12,-0.41,0.65,0.64,1.8,5.3,-0.2,36.13,,,,,,,,,,
13.56.09.881,-120.8,30.2,0,2.0,,70738.9,14.14,-0.41,0.64,0.63,0.9,5.5,-1.2,36.13,,,,,,,,,,
13.56.09.889,-89.1,22.3,0,2.0,,73352.0,13.63,-0.41,0.65,0.64,2.3,6.1,-0.3,36.13,,,,,,,,,,
13.56.09.902,-99.5,24.9,0,2.0,,72618.7,13.77,-0.41,0.65,0.63,2.7,5.5,-0.3,36.13,,,,,,,,,,
13.56.09.910,-118.7,29.7,0,2.0,,71726.7,13.94,-0.41,0.65,0.63,0.9,6.0,-1.3,36.13,,,,,,,,,,
13.56.09.922,-137.4,34.4,0,2.0,,72950.4,13.71,-0.41,0.65,0.63,0.2,5.8,-1.5,36.13,,,,,,,,,,
13.56.09.930,-144.3,36.1,0,2.0,,73340.8,13.63,-0.41,0.65,0.63,1.0,5.7,-1.4,36.13,,,,,,,,,,
13.56.09.943,-169.7,42.4,0,2.0,,78213.1,12.79,-0.42,0.65,0.63,0.8,5.2,-1.5,36.13,,,,,,,,,,
13.56.09.951,-136.9,34.2,0,2.0,,74499.9,13.42,-0.41,0.64,0.64,-0.6,5.2,-2.2,36.13,,,,,,,,,,
13.56.09.963,-123.7,30.9,0,2.0,,74412.8,13.44,-0.41,0.64,0.64,-1.0,5.8,-2.2,36.13,,,,,,,,,,
13.56.09.971,-146.2,36.6,0,2.0,,73965.6,13.52,-0.41,0.64,0.62,0.3,5.9,-1.5,36.13,,,,,,,,,,
13.56.09.984,86.9,21.7,1,3.0,104.0,76194.5,13.12,-0.41,0.65,0.63,1.1,6.1,-0.9,36.13,,,,,,,,,,
13.56.09.992,74.8,18.7,0,3.0,,71785.6,13.93,-0.41,0.65,0.63,1.2,6.2,-0.8,36.13,,,,,,,,,,
13.56.10.004,186.9,46.7,0,3.0,,72032.0,13.88,-0.41,0.65,0.63,1.0,6.0,-0.9,36.13,,,,,,,,,,
13.56.10.012,232.4,58.1,0,3.0,,72746.1,13.75,-0.41,0.65,0.63,0.6,5.7,-1.2,36.13,,,,,,,,,,
13.56.10.025,266.4,66.6,0,3.0,,75598.4,13.23,-0.42,0.65,0.64,0.1,5.6,-1.7,36.13,,,,,,,,,,
13.56.10.033,320.5,80.1,0,3.0,,72537.3,13.79,-0.41,0.64,0.64,-1.2,5.7,-2.4,36.13,,,,,,,,,,
13.56.10.045,356.4,89.1,0,3.0,,70097.4,14.27,-0.42,0.64,0.64,-1.3,6.2,-2.5,36.13,,,,,,,,,,
13.56.10.057,379.3,94.8,0,3.0,,74016.5,13.51,-0.41,0.64,0.64,-0.6,5.6,-2.1,36.13,,,,,,,,,,
13.56.10.066,394.4,98.6,0,3.0,,75039.2,13.33,-0.41,0.64,0.63,-0.4,6.0,-1.8,36.13,,,,,,,,,,
13.56.10.078,443.1,110.8,0,3.0,,70280.2,14.23,-0.41,0.64,0.63,0.6,6.4,-1.2,36.13,,,,,,,,,,
13.56.10.086,419.8,105.0,0,3.0,,74286.3,13.46,-0.42,0.65,0.63,0.9,6.5,-1.2,36.13,,,,,,,,,,
13.56.10.098,390.6,97.6,0,3.0,,74555.9,13.41,-0.41,0.65,0.63,1.4,6.1,-0.9,36.13,,,,,,,,,,
13.56.10.106,383.1,95.8,0,3.0,,73197.2,13.66,-0.41,0.65,0.63,1.1,6.4,-1.2,36.13,,,,,,,,,,
13.56.10.119,351.0,87.8,0,3.0,,74872.3,13.36,-0.41,0.65,0.63,-0.3,6.1,-1.7,36.13,,,,,,,,,,
13.56.10.127,294.0,73.5,0,3.0,,75664.9,13.22,-0.41,0.64,0.64,-1.1,6.0,-2.6,36.13,,,,,,,,,,
13.56.10.139,245.6,61.4,0,3.0,,73721.8,13.56,-0.41,0.64,0.64,-1.2,5.8,-2.6,36.13,,,,,,,,,,
13.56.10.147,188.7,47.2,0,3.0,,75208.3,13.3,-0.41,0.64,0.64,-1.0,5.9,-2.8,36.13,,,,,,,,,,
13.56.10.160,134.0,33.5,0,3.0,,71723.4,13.94,-0.41,0.64,0.64,-0.6,5.7,-2.4,36.13,,,,,,,,,,
13.56.10.168,90.1,22.5,0,3.0,,70494.6,14.19,-0.41,0.64,0.64,0.0,5.8,-2.1,36.13,,,,,,,,,,
13.56.10.180,23.4,5.8,0,3.0,,76410.3,13.09,-0.41,0.64,0.64,0.5,5.7,-1.3,36.13,,,,,,,,,,
13.56.10.188,14.0,3.5,0,3.0,,71889.5,13.91,-0.41,0.64,0.64,1.4,6.1,-0.9,36.13,,,,,,,,,,
13.56.10.201,52.9,13.2,0,3.0,,72970.3,13.7,-0.41,0.64,0.64,1.5,5.9,-0.8,36.13,,,,,,,,,,
13.56.10.209,10.6,2.6,0,3.0,,71177.1,14.05,-0.41,0.64,0.64,0.9,6.0,-1.2,36.13,,,,,,,,,,
13.56.10.221,73.0,18.2,0,3.0,,70892.3,14.11,-0.41,0.65,0.64,0.6,5.9,-1.3,36.13,,,,,,,,,,
13.56.10.229,102.3,25.6,0,3.0,,73699.9,13.57,-0.41,0.64,0.64,0.7,6.2,-1.5,36.13,,,,,,,,,,
13.56.10.242,69.3,17.3,0,3.0,,72885.3,13.72,-0.41,0.64,0.64,0.4,5.8,-1.4,36.13,,,,,,,,,,
13.56.10.250,88.5,22.1,0,3.0,,73138.8,13.67,-0.41,0.64,0.63,0.9,6.1,-1.4,36.13,,,,,,,,,,
13.56.10.262,76.2,19.0,0,3.0,,73216.2,13.66,-0.41,0.64,0.64,0.7,5.5,-1.0,36.13,,,,,,,,,,
13.56.10.270,39.0,9.8,0,3.0,,77431.8,12.91,-0.41,0.64,0.64,1.1,5.8,-1.1,36.13,,,,,,,,,,
13.56.10.283,35.9,9.0,0,3.0,,76126.5,13.14,-0.41,0.65,0.64,1.5,6.2,-1.0,36.13,,,,,,,,,,
13.56.10.291,37.3,9.3,0,3.0,,76362.3,13.1,-0.41,0.64,0.64,1.2,6.1,-1.1,36.13,,,,,,,,,,
13.56.10.303,11.5,2.9,0,3.0,,68974.6,14.5,-0.41,0.64,0.64,1.3,5.9,-0.4,36.13,,,,,,,,,,
13.56.10.311,-33.7,8.4,0,3.0,,74677.8,13.39,-0.41,0.64,0.63,1.5,6.1,-1.0,36.13,,,,,,,,,,
13.56.10.324,-9.7,2.4,0,3.0,,69484.0,14.39,-0.42,0.65,0.63,1.0,5.8,-1.0,36.13,,,,,,,,,,
13.56.10.332,-27.8,7.0,0,3.0,,71616.0,13.96,-0.41,0.65,0.63,1.0,5.8,-1.1,36.13,,,,,,,,,,
13.56.10.344,-59.6,14.9,0,3.0,,76822.4,13.02,-0.41,0.65,0.63,0.8,6.1,-1.1,36.13,,,,,,,,,,
13.56.10.352,-48.0,12.0,0,3.0,,76341.9,13.1,-0.41,0.65,0.64,1.0,5.8,-1.3,36.13,,,,,,,,,,
13.56.10.365,-53.0,13.2,0,3.0,,75248.3,13.29,-0.42,0.65,0.63,0.9,5.7,-1.4,36.13,,,,,,,,,,
13.56.10.377,-14.1,3.5,0,3.0,,74695.9,13.39,-0.41,0.65,0.64,0.7,5.8,-1.4,36.13,,,,,,,,,,
13.56.10.385,-49.2,12.3,0,3.0,,73837.7,13.54,-0.41,0.64,0.63,-0.1,5.5,-1.1,36.13,,,,,,,,,,
13.56.10.397,-47.8,12.0,0,3.0,,74143.9,13.49,-0.41,0.64,0.63,-0.6,5.5,-1.2,36.13,,,,,,,,,,
13.56.10.406,-70.3,17.6,0,3.0,,75551.6,13.24,-0.41,0.64,0.63,-0.3,5.7,-1.4,36.13,,,,,,,,,,
13.56.10.418,-58.6,14.6,0,3.0,,69921.4,14.3,-0.41,0.65,0.63,1.4,5.6,-1.0,36.13,,,,,,,,,,
13.56.10.426,-77.0,19.2,0,3.0,,73810.2,13.55,-0.42,0.65,0.65,1.3,5.7,-0.7,36.13,,,,,,,,,,
13.56.10.438,-83.4,20.8,0,3.0,,71494.0,13.99,-0.41,0.66,0.63,0.2,5.5,-1.1,36.13,,,,,,,,,,
13.56.10.447,-100.5,25.1,0,3.0,,72342.6,13.82,-0.41,0.66,0.62,-0.9,5.5,-2.1,36.13,,,,,,,,,,
13.56.10.459,-122.6,30.6,0,3.0,,72719.2,13.75,-0.41,0.67,0.62,-2.5,4.8,-2.5,36.13,,,,,,,,,,
13.56.10.467,-132.9,33.2,0,3.0,,73269.4,13.65,-0.42,0.67,0.61,-4.8,4.9,-3.8,36.13,,,,,,,,,,
13.56.10.479,-102.6,25.6,0,3.0,,71874.9,13.91,-0.41,0.53,0.71,-4.0,9.1,-6.5,36.13,,,,,,,,,,
13.56.10.492,-111.8,28.0,0,3.0,,68063.8,14.69,-0.41,0.64,0.69,10.5,7.4,-0.6,36.13,,,,,,,,,,
13.56.10.500,-149.3,37.3,0,3.0,,73348.9,13.63,-0.38,0.69,0.54,9.9,4.5,7.5,36.13,,,,,,,,,,
13.56.10.512,-135.0,33.8,0,3.0,,72125.6,13.86,-0.41,0.66,0.64,-1.6,6.7,-1.6,36.13,,,,,,,,,,
13.56.10.520,-142.2,35.6,0,3.0,,72453.3,13.8,-0.42,0.61,0.65,-7.3,7.4,-7.1,36.13,,,,,,,,,,
13.56.10.533,-130.2,32.6,0,3.0,,74648.5,13.4,-0.42,0.64,0.65,2.7,2.9,1.4,36.13,,,,,,,,,,
13.56.10.541,-137.1,34.3,0,3.0,,73614.7,13.58,-0.41,0.68,0.64,7.9,4.8,3.2,36.13,,,,,,,,,,
13.56.10.553,-179.1,44.8,0,3.0,,73406.5,13.62,-0.4,0.65,0.64,-1.9,7.9,-3.8,36.13,,,,,,,,,,
13.56.10.561,-7.1,1.8,1,4.0,109.5,72801.7,13.74,-0.41,0.64,0.62,-4.2,7.7,-5.2,36.13,,,,,,,,,,
13.56.10.573,61.3,15.3,0,4.0,,73028.9,13.69,-0.42,0.63,0.62,3.4,4.0,0.8,36.13,,,,,,,,,,
13.56.10.610,256.5,64.1,0,4.0,,70838.9,14.12,-0.4,0.64,0.63,4.4,4.6,1.1,36.13,,,,,,,,,,
13.56.10.619,326.8,81.7,0,4.0,,73415.9,13.62,-0.41,0.64,0.63,2.6,5.9,-0.8,36.13,,,,,,,,,,
13.56.10.631,278.0,69.5,0,4.0,,71106.7,14.06,-0.41,0.64,0.63,0.5,6.0,-1.5,36.13,,,,,,,,,,
13.56.10.639,402.6,100.6,0,4.0,,71850.4,13.92,-0.41,0.64,0.63,-0.1,5.8,-1.8,36.13,,,,,,,,,,
13.56.10.651,438.6,109.6,0,4.0,,70193.5,14.25,-0.41,0.65,0.63,1.8,5.9,-0.5,36.13,,,,,,,,,,
13.56.10.664,379.3,94.8,0,4.0,,74257.2,13.47,-0.41,0.65,0.64,2.7,5.6,0.1,36.13,,,,,,,,,,
13.56.10.672,391.5,97.9,0,4.0,,77426.1,12.92,-0.41,0.65,0.65,0.9,5.9,-1.1,36.13,,,,,,,,,,
13.56.10.684,379.4,94.8,0,4.0,,74282.7,13.46,-0.42,0.65,0.64,-0.3,6.1,-2.4,36.13,,,,,,,,,,
13.56.10.692,382.1,95.5,0,4.0,,67092.2,14.9,-0.41,0.64,0.62,-0.1,6.0,-1.9,36.13,,,,,,,,,,
13.56.10.705,340.2,85.0,0,4.0,,73787.6,13.55,-0.41,0.64,0.64,0.4,5.5,-1.4,36.13,,,,,,,,,,
13.56.10.713,268.4,67.1,0,4.0,,72453.7,13.8,-0.41,0.64,0.64,0.4,6.0,-1.6,36.13,,,,,,,,,,
13.56.10.725,211.9,53.0,0,4.0,,73589.6,13.59,-0.41,0.64,0.64,1.0,5.5,-0.5,36.13,,,,,,,,,,
13.56.10.733,180.7,45.2,0,4.0,,75901.7,13.17,-0.42,0.64,0.63,1.8,5.6,-0.6,36.13,,,,,,,,,,
13.56.10.746,149.8,37.4,0,4.0,,73678.2,13.57,-0.41,0.65,0.63,1.4,6.0,-0.7,36.13,,,,,,,,,,
13.56.10.754,95.7,23.9,0,4.0,,75024.8,13.33,-0.42,0.65,0.64,0.2,6.1,-1.6,36.13,,,,,,,,,,
13.56.10.766,9.1,2.3,0,4.0,,74023.4,13.51,-0.41,0.65,0.64,-0.1,5.8,-1.5,36.13,,,,,,,,,,
13.56.10.774,44.7,11.2,0,4.0,,70536.6,14.18,-0.41,0.64,0.63,0.2,5.9,-1.7,36.13,,,,,,,,,,
13.56.10.787,20.8,5.2,0,4.0,,75042.4,13.33,-0.41,0.64,0.64,0.1,5.5,-1.6,36.13,,,,,,,,,,
13.56.10.795,48.5,12.1,0,4.0,,74904.5,13.35,-0.41,0.65,0.64,0.5,5.9,-1.5,36.13,,,,,,,,,,
13.56.10.807,80.0,20.0,0,4.0,,73192.0,13.66,-0.41,0.65,0.64,0.0,5.6,-1.3,36.13,,,,,,,,,,
13.56.10.819,85.6,21.4,0,4.0,,75193.7,13.3,-0.41,0.65,0.64,-0.3,5.9,-2.3,36.13,,,,,,,,,,
13.56.10.828,56.4,14.1,0,4.0,,74927.7,13.35,-0.41,0.65,0.63,-0.2,5.7,-2.1,36.13,,,,,,,,,,
13.56.10.840,52.4,13.1,0,4.0,,72872.0,13.72,-0.41,0.64,0.64,-0.4,5.6,-1.7,36.13,,,,,,,,,,
13.56.10.848,69.1,17.3,0,4.0,,71425.2,14.0,-0.41,0.64,0.63,-0.6,5.8,-2.3,36.13,,,,,,,,,,
13.56.10.860,74.7,18.7,0,4.0,,71820.2,13.92,-0.42,0.64,0.64,-0.8,5.3,-2.0,36.13,,,,,,,,,,
13.56.10.873,13.8,3.4,0,4.0,,75903.1,13.17,-0.41,0.64,0.64,0.2,5.7,-1.9,36.13,,,,,,,,,,
13.56.10.881,47.7,11.9,0,4.0,,72314.2,13.83,-0.41,0.64,0.64,0.2,5.8,-2.1,36.13,,,,,,,,,,
13.56.10.893,-20.7,5.2,0,4.0,,74492.8,13.42,-0.42,0.64,0.63,-0.2,5.8,-1.9,36.13,,,,,,,,,,
13.56.10.901,-3.5,0.9,0,4.0,,71862.6,13.92,-0.41,0.64,0.64,0.4,5.7,-1.2,36.13,,,,,,,,,,
13.56.10.914,0.1,0.0,0,4.0,,72587.8,13.78,-0.41,0.64,0.64,1.2,6.0,-0.9,36.13,,,,,,,,,,
13.56.10.922,-36.5,9.1,0,4.0,,75021.5,13.33,-0.41,0.64,0.64,1.6,6.1,-0.5,36.13,,,,,,,,,,
13.56.10.934,-38.1,9.5,0,4.0,,74735.9,13.38,-0.4,0.64,0.64,1.9,6.0,-0.5,36.13,,,,,,,,,,
13.56.10.942,-34.8,8.7,0,4.0,,72765.1,13.74,-0.41,0.65,0.64,1.9,5.8,-0.4,36.13,,,,,,,,,,
13.56.10.954,-46.1,11.5,0,4.0,,76239.5,13.12,-0.41,0.64,0.64,2.0,6.0,-0.7,36.13,,,,,,,,,,
13.56.10.963,-57.2,14.3,0,4.0,,71558.2,13.97,-0.41,0.64,0.64,1.5,6.0,-1.1,36.13,,,,,,,,,,
13.56.10.975,-78.6,19.6,0,4.0,,71364.1,14.01,-0.41,0.65,0.63,1.1,5.6,-1.0,36.13,,,,,,,,,,
13.56.10.983,-66.9,16.7,0,4.0,,73072.7,13.69,-0.41,0.65,0.64,0.9,5.5,-1.1,36.13,,,,,,,,,,
13.56.10.995,-76.4,19.1,0,4.0,,75015.1,13.33,-0.41,0.65,0.64,0.7,5.5,-1.3,36.13,,,,,,,,,,
13.56.11.004,-67.5,16.9,0,4.0,,78034.6,12.81,-0.42,0.65,0.63,0.4,5.4,-1.5,36.13,,,,,,,,,,
13.56.11.016,-84.6,21.2,0,4.0,,69767.6,14.33,-0.41,0.65,0.63,0.5,5.5,-1.3,36.13,,,,,,,,,,
13.56.11.024,-86.6,21.6,0,4.0,,73326.3,13.64,-0.41,0.64,0.63,0.0,6.0,-1.5,36.13,,,,,,,,,,
13.56.11.037,-123.8,31.0,0,4.0,,76081.0,13.14,-0.41,0.64,0.62,-0.3,5.5,-1.6,36.13,,,,,,,,,,
13.56.11.045,-76.4,19.1,0,4.0,,73633.2,13.58,-0.42,0.64,0.64,0.3,5.5,-1.6,36.13,,,,,,,,,,
13.56.11.057,-134.3,33.6,0,4.0,,71703.3,13.95,-0.42,0.64,0.65,1.5,6.1,-0.8,36.13,,,,,,,,,,
13.56.11.065,-92.4,23.1,0,4.0,,72783.9,13.74,-0.41,0.63,0.65,3.8,7.3,-1.2,36.13,,,,,,,,,,
13.56.11.077,-133.2,33.3,0,4.0,,72947.9,13.71,-0.41,0.65,0.61,1.8,5.7,-0.1,36.13,,,,,,,,,,
13.56.11.086,-117.3,29.3,0,4.0,,76428.5,13.08,-0.41,0.64,0.62,-0.4,6.3,-1.5,36.13,,,,,,,,,,
13.56.11.098,-115.8,29.0,0,4.0,,76436.4,13.08,-0.41,0.64,0.64,-0.5,5.6,-2.1,36.13,,,,,,,,,,
13.56.11.106,-149.0,37.2,0,4.0,,71508.0,13.98,-0.41,0.65,0.64,0.3,5.0,-1.2,36.13,,,,,,,,,,
13.56.11.118,-149.6,37.4,0,4.0,,77339.4,12.93,-0.41,0.65,0.64,0.9,5.7,-1.4,36.13,,,,,,,,,,
13.56.11.127,-147.0,36.8,0,4.0,,72133.1,13.86,-0.41,0.65,0.64,-1.0,6.5,-2.7,36.13,,,,,,,,,,
13.56.11.139,-160.0,40.0,0,4.0,,73990.5,13.52,-0.41,0.64,0.63,-0.6,6.0,-2.4,36.13,,,,,,,,,,
13.56.11.147,16.8,4.2,1,5.0,105.4,74094.3,13.5,-0.41,0.64,0.62,0.6,5.9,-1.7,36.13,,,,,,,,,,
13.56.11.163,76.6,19.2,0,5.0,,71777.3,13.93,-0.42,0.65,0.64,0.1,5.5,-1.3,36.13,,,,,,,,,,
13.56.11.172,211.9,53.0,0,5.0,,75186.9,13.3,-0.42,0.65,0.64,0.5,6.1,-1.4,36.13,,,,,,,,,,
13.56.11.184,186.8,46.7,0,5.0,,70009.4,14.28,-0.42,0.64,0.64,0.6,6.2,-1.2,36.13,,,,,,,,,,
13.56.11.192,269.0,67.2,0,5.0,,74217.6,13.47,-0.41,0.64,0.63,0.9,6.5,-1.4,36.13,,,,,,,,,,
13.56.11.204,292.1,73.0,0,5.0,,74961.3,13.34,-0.41,0.64,0.63,0.9,6.3,-1.6,36.13,,,,,,,,,,
13.56.11.213,378.0,94.5,0,5.0,,74677.3,13.39,-0.41,0.64,0.63,0.8,6.3,-1.4,36.13,,,,,,,,,,
13.56.11.225,355.3,88.8,0,5.0,,76511.4,13.07,-0.41,0.64,0.64,0.7,5.8,-1.1,36.13,,,,,,,,,,
13.56.11.233,423.7,105.9,0,5.0,,73108.2,13.68,-0.42,0.65,0.64,1.1,5.6,-1.2,36.13,,,,,,,,,,
13.56.11.245,405.8,101.4,0,5.0,,68584.5,14.58,-0.41,0.65,0.63,1.0,6.3,-1.3,36.13,,,,,,,,,,
13.56.11.254,405.5,101.4,0,5.0,,76859.3,13.01,-0.41,0.65,0.63,0.2,6.9,-2.1,36.13,,,,,,,,,,
13.56.11.266,411.0,102.8,0,5.0,,72625.3,13.77,-0.41,0.65,0.63,0.1,6.0,-1.8,36.13,,,,,,,,,,
13.56.11.274,363.0,90.8,0,5.0,,72248.4,13.84,-0.41,0.65,0.63,0.2,5.7,-2.1,36.13,,,,,,,,,,
13.56.11.286,315.2,78.8,0,5.0,,71197.1,14.05,-0.42,0.64,0.64,-0.1,5.9,-2.4,36.13,,,,,,,,,,
13.56.11.295,345.1,86.3,0,5.0,,70188.5,14.25,-0.42,0.64,0.65,0.2,5.5,-1.8,36.13,,,,,,,,,,
13.56.11.307,252.7,63.2,0,5.0,,69405.8,14.41,-0.41,0.64,0.65,1.3,5.3,-1.2,36.13,,,,,,,,,,
13.56.11.315,222.5,55.6,0,5.0,,73614.5,13.58,-0.41,0.64,0.63,0.7,5.9,-1.6,36.13,,,,,,,,,,
13.56.11.327,171.2,42.8,0,5.0,,75651.8,13.22,-0.41,0.64,0.64,0.2,5.7,-1.4,36.13,,,,,,,,,,
13.56.11.335,109.4,27.4,0,5.0,,72176.7,13.85,-0.41,0.64,0.64,0.1,5.7,-1.4,36.13,,,,,,,,,,
13.56.11.348,24.6,6.2,0,5.0,,74067.1,13.5,-0.41,0.64,0.64,1.3,6.1,-1.0,36.13,,,,,,,,,,
13.56.11.356,-17.4,4.4,0,5.0,,76941.1,13.0,-0.41,0.64,0.64,1.5,5.7,-1.1,36.13,,,,,,,,,,
13.56.11.368,11.9,3.0,0,5.0,,73489.8,13.61,-0.42,0.65,0.64,1.3,5.8,-1.1,36.13,,,,,,,,,,
13.56.11.376,66.7,16.7,0,5.0,,71022.0,14.08,-0.41,0.64,0.63,0.8,6.1,-1.8,36.13,,,,,,,,,,
13.56.11.413,54.4,13.6,0,5.0,,73724.2,13.56,-0.42,0.64,0.63,0.3,6.0,-1.7,36.13,,,,,,,,,,
13.56.11.426,68.7,17.2,0,5.0,,71572.2,13.97,-0.41,0.66,0.63,1.6,6.3,-0.6,36.13,,,,,,,,,,
13.56.11.434,48.6,12.2,0,5.0,,74338.2,13.45,-0.41,0.65,0.62,1.0,6.6,-1.5,36.13,,,,,,,,,,
13.56.11.446,18.7,4.7,0,5.0,,71204.9,14.04,-0.42,0.65,0.64,0.7,5.7,-1.4,36.13,,,,,,,,,,
13.56.11.454,-13.1,3.3,0,5.0,,69749.8,14.34,-0.42,0.65,0.64,1.3,5.5,-1.0,36.13,,,,,,,,,,
13.56.11.467,-12.4,3.1,0,5.0,,75477.0,13.25,-0.41,0.65,0.64,0.9,5.6,-1.3,36.13,,,,,,,,,,
13.56.11.475,-7.9,2.0,0,5.0,,73659.2,13.58,-0.41,0.64,0.64,0.1,5.5,-1.8,36.13,,,,,,,,,,
13.56.11.487,7.4,1.8,0,5.0,,74576.9,13.41,-0.41,0.64,0.64,-0.4,5.7,-1.9,36.13,,,,,,,,,,
13.56.11.495,-31.5,7.9,0,5.0,,71610.7,13.96,-0.41,0.64,0.64,1.0,5.0,-0.7,36.13,,,,,,,,,,
13.56.11.508,-36.6,9.2,0,5.0,,69816.2,14.32,-0.4,0.64,0.63,1.3,6.5,-1.7,36.13,,,,,,,,,,
13.56.11.516,-41.9,10.5,0,5.0,,75254.5,13.29,-0.42,0.65,0.64,0.5,5.3,-0.9,36.13,,,,,,,,,,
13.56.11.528,-54.2,13.6,0,5.0,,75482.5,13.25,-0.41,0.64,0.62,1.5,5.8,-1.1,36.13,,,,,,,,,,
13.56.11.536,-48.2,12.0,0,5.0,,71231.3,14.04,-0.42,0.64,0.63,0.5,5.9,-1.2,36.13,,,,,,,,,,
13.56.11.549,-80.9,20.2,0,5.0,,75731.8,13.2,-0.42,0.65,0.64,0.7,5.2,-0.8,36.13,,,,,,,,,,
13.56.11.561,-64.9,16.2,0,5.0,,73508.0,13.6,-0.41,0.64,0.64,0.9,5.5,-1.3,36.13,,,,,,,,,,
13.56.11.569,-23.8,6.0,0,5.0,,72819.3,13.73,-0.41,0.64,0.63,0.0,5.9,-1.9,36.13,,,,,,,,,,
13.56.11.581,-97.0,24.2,0,5.0,,71326.9,14.02,-0.41,0.63,0.63,0.3,6.3,-2.0,36.13,,,,,,,,,,
13.56.11.589,-63.2,15.8,0,5.0,,74584.3,13.41,-0.41,0.64,0.63,0.4,6.1,-1.1,36.13,,,,,,,,,,
13.56.11.602,-81.5,20.4,0,5.0,,74390.9,13.44,-0.41,0.65,0.62,1.6,6.0,-0.9,36.13,,,,,,,,,,
13.56.11.610,-105.6,26.4,0,5.0,,74258.5,13.47,-0.41,0.65,0.63,0.7,5.5,-0.4,36.13,,,,,,,,,,
13.56.11.622,-105.2,26.3,0,5.0,,68246.9,14.65,-0.42,0.65,0.64,-0.2,5.6,-1.5,36.13,,,,,,,,,,
13.56.11.630,-118.1,29.5,0,5.0,,72197.9,13.85,-0.42,0.65,0.63,-0.6,5.7,-1.7,36.13,,,,,,,,,,
13.56.11.643,-109.1,27.3,0,5.0,,73487.4,13.61,-0.41,0.64,0.64,-0.3,5.7,-1.9,36.13,,,,,,,,,,
13.56.11.651,-134.7,33.7,0,5.0,,73445.0,13.62,-0.41,0.63,0.63,0.0,6.0,-2.4,36.13,,,,,,,,,,
13.56.11.663,-140.2,35.0,0,5.0,,69838.1,14.32,-0.41,0.63,0.63,-0.4,5.6,-1.8,36.13,,,,,,,,,,
13.56.11.671,-160.3,40.1,0,5.0,,74235.1,13.47,-0.42,0.64,0.64,1.0,4.9,-0.9,36.13,,,,,,,,,,
13.56.11.684,-137.8,34.4,0,5.0,,75464.2,13.25,-0.41,0.64,0.64,1.6,5.7,-1.0,36.13,,,,,,,,,,
13.56.11.692,-116.0,29.0,0,5.0,,69189.0,14.45,-0.41,0.65,0.64,1.1,5.5,-1.2,36.13,,,,,,,,,,
13.56.11.704,-178.8,44.7,0,5.0,,73470.2,13.61,-0.41,0.65,0.64,1.0,5.5,-0.6,36.13,,,,,,,,,,
13.56.11.713,-137.7,34.4,0,5.0,,70906.7,14.1,-0.41,0.64,0.64,1.5,6.1,-1.0,36.13,,,,,,,,,,
13.56.11.725,-117.1,29.3,0,5.0,,73457.1,13.61,-0.41,0.63,0.63,1.1,6.1,-1.3,36.13,,,,,,,,,,
13.56.11.733,29.9,7.5,1,6.0,104.3,70719.3,14.14,-0.41,0.64,0.63,1.5,5.6,-0.7,36.13,,,,,,,,,,
13.56.11.745,67.0,16.8,0,6.0,,73212.9,13.66,-0.41,0.63,0.63,2.2,6.1,-0.6,36.13,,,,,,,,,,
13.56.11.753,129.8,32.4,0,6.0,,73126.8,13.67,-0.42,0.65,0.64,2.0,5.8,-0.5,36.13,,,,,,,,,,
13.56.11.766,189.4,47.4,0,6.0,,77104.0,12.97,-0.42,0.65,0.64,1.6,5.4,-0.6,36.13,,,,,,,,,,
13.56.11.774,274.3,68.6,0,6.0,,75660.7,13.22,-0.42,0.65,0.63,1.6,5.9,-0.8,36.13,,,,,,,,,,
13.56.11.786,339.8,85.0,0,6.0,,76850.3,13.01,-0.42,0.65,0.63,1.2,5.6,-0.7,36.13,,,,,,,,,,
13.56.11.794,345.1,86.3,0,6.0,,71302.4,14.02,-0.42,0.64,0.62,1.3,5.5,-1.0,36.13,,,,,,,,,,
13.56.11.807,396.4,99.1,0,6.0,,68866.8,14.52,-0.41,0.64,0.63,1.4,5.5,-0.8,36.13,,,,,,,,,,
13.56.11.815,389.7,97.4,0,6.0,,70097.3,14.27,-0.41,0.65,0.63,1.2,5.4,-0.4,36.13,,,,,,,,,,
13.56.11.827,356.4,89.1,0,6.0,,71053.8,14.07,-0.41,0.65,0.63,0.8,5.7,-0.8,36.13,,,,,,,,,,
13.56.11.835,397.2,99.3,0,6.0,,73327.5,13.64,-0.41,0.65,0.63,-0.4,6.0,-1.9,36.13,,,,,,,,,,
13.56.11.848,416.5,104.1,0,6.0,,76852.0,13.01,-0.42,0.65,0.64,-0.5,5.2,-1.6,36.13,,,,,,,,,,
13.56.11.856,397.4,99.4,0,6.0,,73004.5,13.7,-0.41,0.65,0.65,-0.4,5.3,-1.6,36.13,,,,,,,,,,
13.56.11.868,377.7,94.4,0,6.0,,74098.9,13.5,-0.41,0.65,0.64,-0.5,5.8,-2.2,36.13,,,,,,,,,,
13.56.11.876,400.6,100.2,0,6.0,,75117.0,13.31,-0.41,0.64,0.63,-0.6,6.5,-2.4,36.13,,,,,,,,,,
13.56.11.889,289.8,72.4,0,6.0,,72090.3,13.87,-0.41,0.63,0.62,-0.1,6.0,-1.4,36.13,,,,,,,,,,
13.56.11.897,254.0,63.5,0,6.0,,73430.7,13.62,-0.41,0.64,0.62,1.1,5.3,-0.7,36.13,,,,,,,,,,
13.56.11.909,147.7,36.9,0,6.0,,70708.8,14.14,-0.42,0.66,0.64,0.5,5.6,-0.6,36.13,,,,,,,,,,
13.56.11.917,128.8,32.2,0,6.0,,68578.9,14.58,-0.42,0.65,0.64,0.1,5.7,-1.6,36.13,,,,,,,,,,
13.56.11.930,11.9,3.0,0,6.0,,73701.0,13.57,-0.41,0.64,0.64,-0.7,6.6,-2.7,36.13,,,,,,,,,,
13.56.11.938,15.4,3.8,0,6.0,,73265.6,13.65,-0.42,0.65,0.64,-1.0,5.5,-1.9,36.13,,,,,,,,,,
13.56.11.950,34.9,8.7,0,6.0,,73538.8,13.6,-0.4,0.64,0.64,-0.2,6.0,-1.9,36.13,,,,,,,,,,
13.56.11.958,30.8,7.7,0,6.0,,75426.6,13.26,-0.41,0.64,0.63,-0.7,6.3,-2.4,36.13,,,,,,,,,,
13.56.11.970,27.7,6.9,0,6.0,,76303.2,13.11,-0.41,0.65,0.64,-0.3,5.6,-1.4,36.13,,,,,,,,,,
13.56.11.979,86.2,21.6,0,6.0,,72973.0,13.7,-0.41,0.64,0.63,1.2,6.2,-1.0,36.13,,,,,,,,,,
13.56.11.991,64.9,16.2,0,6.0,,71062.7,14.07,-0.41,0.64,0.63,0.9,6.4,-1.6,36.13,,,,,,,,,,
13.56.11.999,73.3,18.3,0,6.0,,71430.7,14.0,-0.4,0.62,0.61,0.6,6.9,-2.4,36.13,,,,,,,,,,
13.56.12.011,24.0,6.0,0,6.0,,69575.2,14.37,-0.43,0.66,0.65,0.2,5.1,-0.5,36.13,,,,,,,,,,
13.56.12.020,55.4,13.8,0,6.0,,76803.7,13.02,-0.41,0.66,0.63,2.6,3.8,0.7,36.13,,,,,,,,,,
13.56.12.032,58.3,14.6,0,6.0,,70696.1,14.15,-0.38,0.59,0.61,-0.1,9.7,-4.6,36.13,,,,,,,,,,
13.56.12.041,40.0,10.0,0,6.0,,73448.6,13.61,-0.46,0.69,0.68,-2.0,2.8,-0.1,36.13,,,,,,,,,,
13.56.12.052,0.6,0.2,0,6.0,,69484.7,14.39,-0.39,0.64,0.61,4.0,5.7,0.3,36.13,,,,,,,,,,
13.56.12.061,-0.3,0.1,0,6.0,,73592.8,13.59,-0.41,0.64,0.63,0.6,8.2,-3.0,36.13,,,,,,,,,,
13.56.12.073,-33.1,8.3,0,6.0,,72467.3,13.8,-0.41,0.65,0.64,-1.2,4.5,-1.2,36.13,,,,,,,,,,
13.56.12.081,-30.5,7.6,0,6.0,,69586.0,14.37,-0.4,0.64,0.62,3.1,6.2,-0.5,36.13,,,,,,,,,,
13.56.12.093,-47.8,12.0,0,6.0,,70963.5,14.09,-0.41,0.66,0.64,2.4,5.5,0.7,36.13,,,,,,,,,,
13.56.12.102,-38.9,9.7,0,6.0,,71139.9,14.06,-0.41,0.64,0.64,0.5,6.5,-2.0,36.13,,,,,,,,,,
13.56.12.114,-60.1,15.0,0,6.0,,73873.7,13.54,-0.42,0.64,0.63,0.2,5.4,-1.4,36.13,,,,,,,,,,
13.56.12.122,-61.6,15.4,0,6.0,,74618.3,13.4,-0.42,0.64,0.63,2.0,6.3,-0.7,36.13,,,,,,,,,,
13.56.12.134,-71.4,17.8,0,6.0,,73795.5,13.55,-0.42,0.64,0.63,1.2,5.7,-1.0,36.13,,,,,,,,,,
13.56.12.143,-54.5,13.6,0,6.0,,73040.4,13.69,-0.41,0.64,0.64,0.6,6.0,-1.3,36.13,,,,,,,,,,
13.56.12.155,-68.6,17.2,0,6.0,,73757.7,13.56,-0.42,0.65,0.63,1.4,5.9,-0.8,36.13,,,,,,,,,,
13.56.12.163,-82.8,20.7,0,6.0,,71113.6,14.06,-0.41,0.65,0.64,1.8,6.0,-0.2,36.13,,,,,,,,,,
13.56.12.175,-102.6,25.6,0,6.0,,73434.6,13.62,-0.41,0.65,0.63,1.0,6.1,-0.7,36.13,,,,,,,,,,
13.56.12.188,-85.3,21.3,0,6.0,,72711.9,13.75,-0.41,0.65,0.64,0.1,5.8,-1.6,36.13,,,,,,,,,,
13.56.12.225,-90.9,22.7,0,6.0,,72630.6,13.77,-0.41,0.65,0.64,-0.1,6.3,-1.9,36.13,,,,,,,,,,
13.56.12.233,-102.1,25.5,0,6.0,,73490.6,13.61,-0.41,0.64,0.63,0.1,6.2,-1.9,36.13,,,,,,,,,,
13.56.12.245,-116.2,29.0,0,6.0,,70159.1,14.25,-0.42,0.65,0.64,0.6,5.7,-1.3,36.13,,,,,,,,,,
13.56.12.253,-134.8,33.7,0,6.0,,69937.8,14.3,-0.42,0.65,0.64,0.8,5.7,-0.9,36.13,,,,,,,,,,
13.56.12.266,-118.2,29.6,0,6.0,,74778.5,13.37,-0.41,0.65,0.64,0.4,6.2,-1.4,36.13,,,,,,,,,,
13.56.12.274,-157.0,39.2,0,6.0,,71855.4,13.92,-0.41,0.65,0.63,0.2,6.0,-1.6,36.13,,,,,,,,,,
13.56.12.286,-174.3,43.6,0,6.0,,74669.7,13.39,-0.41,0.64,0.63,0.2,5.4,-1.2,36.13,,,,,,,,,,
13.56.12.294,-161.0,40.2,0,6.0,,72794.2,13.74,-0.41,0.65,0.64,0.4,5.7,-1.7,36.13,,,,,,,,,,
13.56.12.306,-153.2,38.3,0,6.0,,72949.3,13.71,-0.41,0.64,0.64,0.0,5.6,-1.5,36.13,,,,,,,,,,
13.56.12.319,11.8,3.0,1,7.0,107.1,75937.8,13.17,-0.41,0.65,0.64,-0.3,5.6,-1.7,36.13,,,,,,,,,,
13.56.12.327,70.8,17.7,0,7.0,,73186.1,13.66,-0.42,0.65,0.64,0.0,5.5,-1.5,36.13,,,,,,,,,,
13.56.12.339,198.8,49.7,0,7.0,,71797.1,13.93,-0.41,0.65,0.64,0.0,5.1,-1.3,36.13,,,,,,,,,,
13.56.12.347,178.3,44.6,0,7.0,,72050.2,13.88,-0.42,0.64,0.63,0.1,5.1,-1.1,36.13,,,,,,,,,,
13.56.12.360,278.5,69.6,0,7.0,,74384.2,13.44,-0.41,0.64,0.64,0.6,5.4,-1.0,36.13,,,,,,,,,,
13.56.12.368,321.9,80.5,0,7.0,,69932.8,14.3,-0.41,0.64,0.63,1.2,5.5,-0.5,36.13,,,,,,,,,,
13.56.12.380,371.8,93.0,0,7.0,,71337.8,14.02,-0.41,0.64,0.63,1.1,5.2,-0.4,36.13,,,,,,,,,,
13.56.12.388,351.2,87.8,0,7.0,,69992.7,14.29,-0.41,0.64,0.63,0.9,5.3,-0.6,36.13,,,,,,,,,,
13.56.12.401,387.6,96.9,0,7.0,,71525.9,13.98,-0.41,0.64,0.63,0.5,5.9,-1.3,36.13,,,,,,,,,,
13.56.12.413,423.5,105.9,0,7.0,,72599.6,13.77,-0.41,0.64,0.64,0.5,5.4,-1.2,36.13,,,,,,,,,,
13.56.12.421,405.1,101.3,0,7.0,,72163.6,13.86,-0.41,0.63,0.63,-0.1,6.0,-2.4,36.13,,,,,,,,,,
13.56.12.433,444.5,111.1,0,7.0,,70119.3,14.26,-0.42,0.64,0.64,-0.3,4.9,-1.3,36.13,,,,,,,,,,
13.56.12.442,406.3,101.6,0,7.0,,73173.8,13.67,-0.42,0.65,0.64,1.2,5.2,-0.5,36.13,,,,,,,,,,
13.56.12.454,362.3,90.6,0,7.0,,73766.8,13.56,-0.4,0.65,0.62,1.8,6.2,-0.4,36.13,,,,,,,,,,
13.56.12.462,328.3,82.1,0,7.0,,73381.1,13.63,-0.4,0.65,0.63,1.5,6.9,-0.9,36.13,,,,,,,,,,
13.56.12.475,270.7,67.7,0,7.0,,76062.4,13.15,-0.41,0.65,0.63,1.7,6.4,-0.4,36.13,,,,,,,,,,
13.56.12.483,232.2,58.0,0,7.0,,74480.4,13.43,-0.41,0.66,0.63,1.4,5.7,-0.9,36.13,,,,,,,,,,
13.56.12.495,158.2,39.6,0,7.0,,72248.2,13.84,-0.42,0.65,0.64,-0.4,5.8,-2.7,36.13,,,,,,,,,,
13.56.12.507,69.4,17.4,0,7.0,,80022.4,12.5,-0.42,0.64,0.63,-1.6,5.2,-2.9,36.13,,,,,,,,,,
13.56.12.515,32.2,8.0,0,7.0,,70053.7,14.27,-0.42,0.63,0.63,-0.8,5.4,-2.6,36.13,,,,,,,,,,
13.56.12.528,4.4,1.1,0,7.0,,71017.6,14.08,-0.41,0.64,0.64,-0.3,5.5,-1.9,36.13,,,,,,,,,,
13.56.12.536,42.3,10.6,0,7.0,,72220.4,13.85,-0.41,0.64,0.63,0.6,6.0,-1.5,36.13,,,,,,,,,,
13.56.12.548,60.0,15.0,0,7.0,,69071.2,14.48,-0.41,0.64,0.64,1.5,6.2,-0.6,36.13,,,,,,,,,,
13.56.12.556,47.2,11.8,0,7.0,,76345.4,13.1,-0.41,0.65,0.64,2.1,5.9,-0.4,36.13,,,,,,,,,,
13.56.12.569,88.9,22.2,0,7.0,,70567.1,14.17,-0.41,0.65,0.63,1.7,5.9,-0.6,36.13,,,,,,,,,,
13.56.12.581,77.9,19.5,0,7.0,,71126.0,14.06,-0.41,0.65,0.64,0.8,6.3,-1.3,36.13,,,,,,,,,,
13.56.12.593,44.8,11.2,0,7.0,,72979.5,13.7,-0.42,0.64,0.63,0.0,5.9,-1.5,36.13,,,,,,,,,,
13.56.12.601,40.6,10.2,0,7.0,,73763.7,13.56,-0.41,0.64,0.63,-0.3,5.5,-2.1,36.13,,,,,,,,,,
13.56.12.614,26.3,6.6,0,7.0,,70451.2,14.19,-0.41,0.64,0.63,-0.9,5.5,-2.1,36.13,,,,,,,,,,
13.56.12.622,28.8,7.2,0,7.0,,70723.5,14.14,-0.41,0.64,0.64,-0.3,5.7,-2.0,36.13,,,,,,,,,,
13.56.12.634,17.9,4.5,0,7.0,,73239.1,13.65,-0.41,0.64,0.63,0.5,5.6,-1.6,36.13,,,,,,,,,,
13.56.12.646,-27.5,6.9,0,7.0,,73080.2,13.68,-0.41,0.64,0.64,1.3,5.9,-1.1,36.13,,,,,,,,,,
13.56.12.655,2.7,0.7,0,7.0,,75865.4,13.18,-0.41,0.64,0.63,1.7,6.1,-0.8,36.13,,,,,,,,,,
13.56.12.667,-20.6,5.2,0,7.0,,73668.5,13.57,-0.41,0.64,0.63,1.5,6.1,-0.6,36.13,,,,,,,,,,
13.56.12.675,0.9,0.2,0,7.0,,73720.0,13.56,-0.41,0.65,0.63,1.3,5.6,-0.5,36.13,,,,,,,,,,
13.56.12.687,-60.6,15.2,0,7.0,,73853.6,13.54,-0.41,0.64,0.64,1.2,5.6,-1.1,36.13,,,,,,,,,,
13.56.12.696,-61.3,15.3,0,7.0,,73228.9,13.66,-0.41,0.64,0.64,0.8,5.3,-1.2,36.13,,,,,,,,,,
13.56.12.708,-53.3,13.3,0,7.0,,70521.9,14.18,-0.41,0.64,0.64,1.0,5.4,-0.9,36.13,,,,,,,,,,
13.56.12.716,-73.1,18.3,0,7.0,,73217.6,13.66,-0.41,0.64,0.64,1.3,5.4,-0.8,36.13,,,,,,,,,,
13.56.12.728,-35.8,9.0,0,7.0,,72188.4,13.85,-0.41,0.64,0.64,1.9,5.6,-0.7,36.13,,,,,,,,,,
13.56.12.737,-29.1,7.3,0,7.0,,70037.1,14.28,-0.41,0.64,0.64,2.5,5.2,-0.2,36.13,,,,,,,,,,
13.56.12.749,-63.2,15.8,0,7.0,,73217.9,13.66,-0.41,0.64,0.64,2.5,5.1,0.4,36.13,,,,,,,,,,
13.56.12.757,-77.9,19.5,0,7.0,,70724.9,14.14,-0.41,0.64,0.64,3.0,4.9,0.5,36.13,,,,,,,,,,
13.56.12.769,-94.3,23.6,0,7.0,,74940.6,13.34,-0.41,0.63,0.63,2.9,5.6,0.5,36.13,,,,,,,,,,
13.56.12.778,-86.6,21.6,0,7.0,,71980.7,13.89,-0.41,0.65,0.65,3.8,4.5,0.6,36.13,,,,,,,,,,
13.56.12.790,-94.0,23.5,0,7.0,,75261.7,13.29,-0.41,0.65,0.65,2.8,3.8,0.5,36.13,,,,,,,,,,
13.56.12.798,-74.9,18.7,0,7.0,,71530.9,13.98,-0.41,0.65,0.63,1.9,4.6,0.1,36.13,,,,,,,,,,
13.56.12.810,-97.4,24.4,0,7.0,,73663.9,13.58,-0.4,0.65,0.63,2.8,4.1,0.4,36.13,,,,,,,,,,
13.56.12.818,-165.9,41.5,0,7.0,,72723.7,13.75,-0.4,0.66,0.64,2.8,3.4,0.5,36.13,,,,,,,,,,
13.56.12.831,-116.4,29.1,0,7.0,,71268.7,14.03,-0.41,0.65,0.64,1.6,3.7,0.5,36.13,,,,,,,,,,
13.56.12.839,-131.0,32.8,0,7.0,,72528.7,13.79,-0.41,0.65,0.63,2.0,3.8,0.4,36.13,,,,,,,,,,
13.56.12.851,-131.3,32.8,0,7.0,,73089.1,13.68,-0.41,0.65,0.63,2.6,3.4,0.6,36.13,,,,,,,,,,
13.56.12.859,-135.0,33.8,0,7.0,,73485.1,13.61,-0.41,0.65,0.64,2.7,3.7,1.5,36.13,,,,,,,,,,
13.56.12.872,-140.1,35.0,0,7.0,,69929.3,14.3,-0.4,0.64,0.63,2.1,3.9,0.9,36.13,,,,,,,,,,
13.56.12.884,-173.1,43.3,0,7.0,,74089.0,13.5,-0.41,0.64,0.63,1.7,3.6,1.4,36.13,,,,,,,,,,
13.56.12.896,-173.9,43.5,0,7.0,,72960.6,13.71,-0.41,0.65,0.63,2.7,4.5,1.7,36.13,,,,,,,,,,
13.56.12.905,57.9,14.5,1,8.0,106.3,73456.2,13.61,-0.41,0.66,0.61,2.0,4.3,1.3,36.13,,,,,,,,,,
13.56.12.917,101.3,25.3,0,8.0,,71238.1,14.04,-0.42,0.66,0.62,1.3,4.9,0.7,36.13,,,,,,,,,,
13.56.12.925,167.7,41.9,0,8.0,,70056.4,14.27,-0.41,0.66,0.63,1.3,4.5,0.0,36.13,,,,,,,,,,
13.56.12.938,193.2,48.3,0,8.0,,71096.9,14.07,-0.4,0.66,0.63,0.9,4.2,-0.7,36.13,,,,,,,,,,
13.56.12.946,291.8,73.0,0,8.0,,74764.5,13.38,-0.4,0.66,0.63,0.3,4.6,-0.9,36.13,,,,,,,,,,
13.56.12.958,346.4,86.6,0,8.0,,67924.3,14.72,-0.4,0.66,0.63,-0.2,4.6,-1.5,36.13,,,,,,,,,,
13.56.12.966,372.4,93.1,0,8.0,,72179.3,13.85,-0.4,0.65,0.64,-0.8,4.7,-1.9,36.13,,,,,,,,,,
13.56.12.978,384.7,96.2,0,8.0,,75549.8,13.24,-0.4,0.65,0.64,0.1,4.4,-1.0,36.13,,,,,,,,,,
13.56.12.986,387.3,96.8,0,8.0,,72338.3,13.82,-0.4,0.64,0.64,0.7,4.7,-0.6,36.13,,,,,,,,,,
13.56.13.028,387.7,96.9,0,8.0,,72862.8,13.72,-0.4,0.64,0.63,1.1,3.5,0.0,36.13,,,,,,,,,,
13.56.13.036,376.2,94.0,0,8.0,,70262.8,14.23,-0.39,0.65,0.63,2.1,4.0,2.7,36.13,,,,,,,,,,
13.56.13.048,331.2,82.8,0,8.0,,74002.0,13.51,-0.39,0.66,0.65,2.3,3.8,3.1,36.13,,,,,,,,,,
13.56.13.056,277.0,69.2,0,8.0,,73827.3,13.55,-0.38,0.64,0.64,2.0,3.3,3.1,36.13,,,,,,,,,,
13.56.13.068,168.3,42.1,0,8.0,,71793.2,13.93,-0.39,0.64,0.63,3.0,4.1,3.2,36.13,,,,,,,,,,
13.56.13.077,172.3,43.1,0,8.0,,72011.7,13.89,-0.4,0.65,0.64,4.3,5.5,3.9,36.13,,,,,,,,,,
13.56.13.089,77.9,19.5,0,8.0,,71374.6,14.01,-0.42,0.64,0.61,4.9,5.0,4.0,36.13,,,,,,,,,,
13.56.13.097,54.5,13.6,0,8.0,,75868.6,13.18,-0.43,0.64,0.61,5.9,4.7,4.1,36.13,,,,,,,,,,
13.56.13.109,-12.1,3.0,0,8.0,,76318.9,13.1,-0.42,0.64,0.6,7.8,5.7,4.3,36.13,,,,,,,,,,
13.56.13.118,9.9,2.5,0,8.0,,74336.7,13.45,-0.42,0.64,0.6,9.6,7.3,4.1,36.13,,,,,,,,,,
13.56.13.130,46.7,11.7,0,8.0,,74557.2,13.41,-0.41,0.67,0.61,6.6,4.7,3.8,36.13,,,,,,,,,,
13.56.13.138,40.4,10.1,0,8.0,,72637.4,13.77,-0.38,0.66,0.63,1.0,3.6,1.4,36.13,,,,,,,,,,
13.56.13.150,70.2,17.6,0,8.0,,73162.4,13.67,-0.37,0.66,0.65,0.6,3.9,-0.9,36.13,,,,,,,,,,
13.56.13.163,93.2,23.3,0,8.0,,75688.9,13.21,-0.39,0.66,0.65,0.9,2.6,-2.5,36.13,,,,,,,,,,
13.56.13.171,48.5,12.1,0,8.0,,69119.0,14.47,-0.39,0.67,0.63,-0.3,0.8,-4.2,36.13,,,,,,,,,,
13.56.13.183,69.2,17.3,0,8.0,,71567.6,13.97,-0.4,0.69,0.61,-1.3,-1.6,-5.2,36.13,,,,,,,,,,
13.56.13.195,42.7,10.7,0,8.0,,71832.0,13.92,-0.42,0.69,0.61,-3.1,-2.2,-8.0,36.13,,,,,,,,,,
13.56.13.208,30.3,7.6,0,8.0,,72191.8,13.85,-0.41,0.69,0.61,-6.8,-3.2,-9.8,36.13,,,,,,,,,,
13.56.13.216,21.8,5.4,0,8.0,,74711.6,13.38,-0.4,0.69,0.62,-10.1,-3.1,-10.4,36.13,,,,,,,,,,
13.56.13.228,22.7,5.7,0,8.0,,73809.4,13.55,-0.4,0.68,0.62,-12.6,-2.6,-11.9,36.13,104.4,,,,,,,,,
13.56.13.241,-35.7,8.9,0,8.0,,73883.4,13.53,-0.41,0.67,0.67,-19.8,-7.9,-14.4,36.13,,,,,,,,,,
13.56.13.253,-32.7,8.2,0,8.0,,74538.2,13.42,-0.38,0.67,0.61,-18.1,-5.1,-15.5,36.13,,,,,,,,,,
13.56.13.265,-23.2,5.8,0,8.0,,73992.7,13.51,-0.41,0.66,0.66,-19.6,-7.6,-15.5,36.13,,,,,,,,,,
13.56.13.273,-32.1,8.0,0,8.0,,70921.9,14.1,-0.38,0.66,0.65,-20.5,-6.1,-16.9,36.13,,,,,,,,,,
13.56.13.286,-36.4,9.1,0,8.0,,73927.8,13.53,-0.4,0.64,0.65,-21.6,-4.5,-16.8,36.13,,,,,,,,,,
13.56.13.298,-45.3,11.3,0,8.0,,69532.6,14.38,-0.4,0.64,0.66,-21.1,-4.2,-15.0,36.13,,,,,,,,,,
13.56.13.310,-52.1,13.0,0,8.0,,73605.6,13.59,-0.39,0.63,0.67,-19.2,-1.0,-13.8,36.13,,,,,,,,,,
13.56.13.318,-49.8,12.4,0,8.0,,73266.8,13.65,-0.39,0.63,0.68,-19.5,1.5,-12.2,36.13,,,,,,,,,,
13.56.13.331,-89.4,22.4,0,8.0,,71829.4,13.92,-0.4,0.61,0.68,-19.2,4.4,-10.5,36.13,,,,,,,,,,
13.56.13.343,-75.3,18.8,0,8.0,,73144.6,13.67,-0.39,0.6,0.68,-17.4,8.5,-8.7,36.13,,,,,,,,,,
13.56.13.355,-67.7,16.9,0,8.0,,69187.9,14.45,-0.38,0.59,0.68,-15.2,15.5,-7.8,36.13,,,,,,,,,,
13.56.13.363,-113.1,28.3,0,8.0,,75476.8,13.25,-0.4,0.57,0.68,-12.3,17.3,-4.7,36.13,,,,,,,,,,
13.56.13.376,-132.0,33.0,0,8.0,,73203.7,13.66,-0.39,0.56,0.68,-6.9,19.0,-0.4,36.13,,,,,,,,,,
13.56.13.388,-96.6,24.2,0,8.0,,75326.4,13.28,-0.4,0.56,0.69,-0.7,21.7,4.2,36.13,,,,,,,,,,
13.56.13.396,-126.7,31.7,0,8.0,,68298.4,14.64,-0.4,0.56,0.69,6.0,23.0,6.7,36.13,,,,,,,,,,
13.56.13.409,-132.1,33.0,0,8.0,,70644.9,14.16,-0.4,0.56,0.69,10.6,23.5,9.9,36.13,,,,,,,,,,
13.56.13.421,-93.4,23.4,0,8.0,,73369.3,13.63,-0.41,0.56,0.67,13.5,25.1,10.6,36.13,,,,,,,,,,
13.56.13.433,-117.6,29.4,0,8.0,,73196.5,13.66,-0.42,0.56,0.66,20.3,24.4,14.8,36.13,,,,,,,,,,
13.56.13.441,-169.1,42.3,0,8.0,,68649.4,14.57,-0.41,0.58,0.65,28.2,23.3,19.6,36.13,,,,,,,,,,
13.56.13.453,-122.9,30.7,0,8.0,,72205.6,13.85,-0.4,0.62,0.65,31.5,20.2,24.5,36.13,,,,,,,,,,
13.56.13.466,-141.4,35.4,0,8.0,,71193.1,14.05,-0.4,0.65,0.67,31.2,22.1,24.7,36.13,,,,,,,,,,
13.56.13.474,-157.7,39.4,0,8.0,,74959.8,13.34,-0.39,0.65,0.68,30.1,21.4,25.2,36.13,,,,,,,,,,
13.56.13.486,24.2,6.0,1,9.0,102.8,75586.7,13.23,-0.36,0.63,0.66,31.0,18.9,24.6,36.13,,,,,,,,,,
13.56.13.498,94.3,23.6,0,9.0,,76756.2,13.03,-0.38,0.67,0.66,31.8,19.6,21.5,36.13,,,,,,,,,,
13.56.13.507,145.6,36.4,0,9.0,,72442.2,13.8,-0.39,0.69,0.62,34.1,17.6,18.1,36.13,,,,,,,,,,
13.56.13.519,216.3,54.1,0,9.0,,72673.0,13.76,-0.39,0.71,0.6,31.9,15.1,14.6,36.13,,,,,,,,,,
13.56.13.531,297.8,74.4,0,9.0,,70230.7,14.24,-0.4,0.75,0.57,24.2,8.4,10.2,36.13,,,,,,,,,,
13.56.13.544,389.3,97.3,0,9.0,,77830.6,12.85,-0.38,0.74,0.61,17.3,14.4,3.8,36.13,,,,,,,,,,
13.56.13.552,351.8,88.0,0,9.0,,76231.1,13.12,-0.37,0.69,0.58,10.9,19.0,0.7,36.13,,,,,,,,,,
13.56.13.564,366.2,91.6,0,9.0,,70690.7,14.15,-0.38,0.7,0.61,5.9,15.8,-0.6,36.13,,,,,,,,,,
13.56.13.576,444.1,111.0,0,9.0,,74627.1,13.4,-0.4,0.69,0.6,5.8,16.5,-2.0,36.13,,,,,,,,,,
13.56.13.585,434.4,108.6,0,9.0,,77561.1,12.89,-0.4,0.69,0.61,2.8,18.9,-5.1,36.13,,,,,,,,,,
13.56.13.597,396.1,99.0,0,9.0,,70436.7,14.2,-0.42,0.69,0.62,-0.3,22.1,-7.8,36.13,,,,,,,,,,
13.56.13.609,400.6,100.2,0,9.0,,70688.8,14.15,-0.41,0.66,0.6,-4.5,25.1,-10.9,36.13,,,,,,,,,,
13.56.13.618,375.3,93.8,0,9.0,,73300.0,13.64,-0.43,0.65,0.63,-6.2,26.4,-10.7,36.13,,,,,,,,,,
13.56.13.630,307.9,77.0,0,9.0,,72792.2,13.74,-0.44,0.6,0.61,-3.3,32.5,-10.0,36.13,,,,,,,,,,
13.56.13.642,280.3,70.1,0,9.0,,73431.2,13.62,-0.47,0.61,0.59,4.0,35.5,-6.0,36.13,,,,,,,,,,
13.56.13.654,187.6,46.9,0,9.0,,76862.3,13.01,-0.48,0.61,0.6,15.3,31.5,2.1,36.13,,,,,,,,,,
13.56.13.663,170.4,42.6,0,9.0,,73318.6,13.64,-0.46,0.63,0.58,21.8,35.9,8.9,36.13,,,,,,,,,,
13.56.13.675,89.6,22.4,0,9.0,,72193.7,13.85,-0.46,0.63,0.58,27.0,42.2,12.7,36.13,,,,,,,,,,
13.56.13.687,5.5,1.4,0,9.0,,73165.3,13.67,-0.46,0.64,0.57,30.9,40.2,18.7,36.13,,,,,,,,,,
13.56.13.695,-10.7,2.7,0,9.0,,73044.1,13.69,-0.46,0.66,0.58,30.9,37.9,20.9,36.13,,,,,,,,,,
13.56.13.707,32.3,8.1,0,9.0,,72956.8,13.71,-0.44,0.69,0.57,33.7,37.5,21.4,36.13,,,,,,,,,,
13.56.13.720,59.4,14.8,0,9.0,,71809.7,13.93,-0.44,0.71,0.57,37.7,40.6,21.3,36.13,,,,,,,,,,
13.56.13.728,73.5,18.4,0,9.0,,72008.4,13.89,-0.43,0.74,0.56,41.5,50.7,17.5,36.13,,,,,,,,,,
13.56.13.740,120.5,30.1,0,9.0,,72073.3,13.87,-0.47,0.72,0.54,44.2,61.7,9.6,36.13,,,,,,,,,,
13.56.13.753,65.5,16.4,0,9.0,,72017.5,13.89,-0.41,0.75,0.49,43.7,71.7,6.1,36.13,,,,,,,,,,
13.56.13.765,57.6,14.4,0,9.0,,74622.2,13.4,-0.51,0.8,0.52,42.2,76.3,1.9,36.13,,,,,,,,,,
13.56.13.773,65.5,16.4,0,9.0,,71240.6,14.04,-0.47,0.79,0.47,36.8,76.7,-5.4,36.13,,,,,,,,,,
13.56.13.785,28.1,7.0,0,9.0,,71460.8,13.99,-0.56,0.8,0.43,31.1,82.3,-15.6,36.13,,,,,,,,,,
13.56.13.826,-8.7,2.2,0,9.0,,74813.7,13.37,-0.61,0.75,0.46,31.5,83.4,-32.3,36.19,,,,,,,,,,
13.56.13.835,-36.2,9.0,0,9.0,,72597.6,13.77,-0.67,0.77,0.48,50.0,62.7,-42.5,36.19,,,,,,,,,,
13.56.13.847,-47.3,11.8,0,9.0,,71436.0,14.0,-0.74,0.77,0.48,55.8,57.5,-45.1,36.19,,,,,,,,,,
13.56.13.855,-20.7,5.2,0,9.0,,74267.5,13.46,-0.69,0.78,0.4,58.5,52.4,-48.8,36.19,,,,,,,,,,
13.56.13.867,-22.6,5.6,0,9.0,,79963.8,12.51,-0.72,0.71,0.38,57.5,51.0,-53.8,36.19,,,,,,,,,,
13.56.13.875,-37.3,9.3,0,9.0,,74331.5,13.45,-0.78,0.68,0.4,57.9,48.8,-55.1,36.19,,,,,,,,,,
13.56.13.888,-18.4,4.6,0,9.0,,72454.6,13.8,-0.77,0.7,0.39,61.5,48.6,-50.8,36.19,,,,,,,,,,
13.56.13.896,-68.0,17.0,0,9.0,,74839.8,13.36,-0.77,0.7,0.36,66.9,44.3,-47.9,36.19,,,,,,,,,,
13.56.13.908,-65.9,16.5,0,9.0,,76408.9,13.09,-0.8,0.7,0.35,65.6,41.2,-52.0,36.19,,,,,,,,,,
13.56.13.921,-69.9,17.5,0,9.0,,69913.1,14.3,-0.81,0.71,0.33,60.0,38.0,-58.6,36.19,,,,,,,,,,
13.56.13.929,-84.8,21.2,0,9.0,,74307.9,13.46,-0.81,0.7,0.32,53.2,36.5,-64.6,36.19,,,,,,,,,,
13.56.13.941,-81.6,20.4,0,9.0,,73869.7,13.54,-0.82,0.69,0.29,48.9,37.4,-68.0,36.19,,,,,,,,,,
13.56.13.949,-101.8,25.4,0,9.0,,75007.2,13.33,-0.88,0.7,0.28,44.0,36.7,-67.5,36.19,,,,,,,,,,
13.56.13.962,-85.8,21.4,0,9.0,,69865.1,14.31,-0.91,0.71,0.28,35.1,34.0,-63.3,36.19,,,,,,,,,,
13.56.13.970,-90.8,22.7,0,9.0,,71552.1,13.98,-0.9,0.7,0.29,22.8,26.6,-58.1,36.19,,,,,,,,,,
13.56.13.982,-125.7,31.4,0,9.0,,72974.0,13.7,-0.87,0.69,0.29,12.8,22.5,-52.8,36.19,,,,,,,,,,
13.56.13.990,-99.4,24.8,0,9.0,,74190.9,13.48,-0.86,0.68,0.27,4.9,20.6,-51.1,36.19,,,,,,,,,,
13.56.14.003,-132.3,33.1,0,9.0,,70925.6,14.1,-0.86,0.66,0.29,-3.0,18.2,-53.2,36.19,,,,,,,,,,
13.56.14.011,-84.3,21.1,0,9.0,,74390.7,13.44,-0.83,0.64,0.29,-10.0,20.6,-60.5,36.19,,,,,,,,,,
13.56.14.023,-125.8,31.4,0,9.0,,72455.5,13.8,-0.83,0.61,0.28,-13.7,24.2,-67.6,36.19,,,,,,,,,,
13.56.14.031,-105.4,26.4,0,9.0,,70718.0,14.14,-0.82,0.61,0.26,-12.1,27.1,-70.6,36.19,,,,,,,,,,
13.56.14.044,-126.7,31.7,0,9.0,,76449.5,13.08,-0.83,0.6,0.26,-7.1,30.0,-69.8,36.19,,,,,,,,,,
13.56.14.052,-135.2,33.8,0,9.0,,73576.5,13.59,-0.84,0.59,0.25,-3.5,30.9,-67.6,36.19,,,,,,,,,,
13.56.14.064,-183.2,45.8,0,9.0,,74280.9,13.46,-0.84,0.58,0.25,-3.4,31.0,-64.6,36.19,,,,,,,,,,
13.56.14.076,14.5,3.6,1,10.0,100.4,75912.9,13.17,-0.84,0.56,0.23,-6.2,30.4,-61.8,36.19,,,,,,,,,,
13.56.14.085,124.2,31.0,0,10.0,,73048.9,13.69,-0.83,0.55,0.21,-9.4,30.1,-59.3,36.19,,,,,,,,,,
13.56.14.097,209.0,52.2,0,10.0,,72891.0,13.72,-0.82,0.53,0.21,-12.7,29.7,-58.1,36.19,,,,,,,,,,
13.56.14.105,224.3,56.1,0,10.0,,74271.2,13.46,-0.79,0.51,0.19,-17.8,30.1,-58.9,36.19,,,,,,,,,,
13.56.14.117,290.0,72.5,0,10.0,,72964.8,13.71,-0.77,0.49,0.17,-23.6,31.5,-61.5,36.19,,,,,,,,,,
13.56.14.126,309.2,77.3,0,10.0,,73114.1,13.68,-0.75,0.48,0.17,-28.7,35.0,-65.6,36.19,,,,,,,,,,
13.56.14.138,376.9,94.2,0,10.0,,74778.6,13.37,-0.73,0.46,0.18,-34.6,38.4,-69.7,36.19,,,,,,,,,,
13.56.14.146,402.2,100.6,0,10.0,,73486.9,13.61,-0.74,0.46,0.19,-40.9,42.1,-72.9,36.19,,,,,,,,,,
13.56.14.158,415.2,103.8,0,10.0,,71875.6,13.91,-0.76,0.43,0.2,-46.5,43.2,-75.7,36.19,,,,,,,,,,
13.56.14.167,433.9,108.5,0,10.0,,70513.3,14.18,-0.77,0.41,0.2,-51.4,43.5,-77.3,36.19,,,,,,,,,,
13.56.14.179,421.6,105.4,0,10.0,,70140.8,14.26,-0.79,0.38,0.19,-52.4,42.7,-78.1,36.19,,,,,,,,,,
13.56.14.191,398.4,99.6,0,10.0,,72865.6,13.72,-0.79,0.35,0.18,-49.8,42.0,-79.1,36.19,,,,,,,,,,
13.56.14.199,374.2,93.6,0,10.0,,72115.8,13.87,-0.79,0.33,0.18,-45.6,40.2,-79.7,36.19,,,,,,,,,,
13.56.14.212,343.4,85.8,0,10.0,,69156.0,14.46,-0.78,0.33,0.18,-39.0,38.5,-79.4,36.19,,,,,,,,,,
13.56.14.220,292.8,73.2,0,10.0,,72712.2,13.75,-0.78,0.3,0.17,-30.9,37.8,-78.9,36.19,,,,,,,,,,
13.56.14.232,222.7,55.7,0,10.0,,75871.7,13.18,-0.77,0.3,0.18,-19.9,36.9,-75.8,36.19,,,,,,,,,,
13.56.14.240,181.6,45.4,0,10.0,,72145.4,13.86,-0.78,0.3,0.19,-7.0,36.0,-71.2,36.19,,,,,,,,,,
13.56.14.253,116.9,29.2,0,10.0,,72668.4,13.76,-0.78,0.31,0.2,5.6,35.0,-65.0,36.19,,,,,,,,,,
13.56.14.261,66.1,16.5,0,10.0,,72367.4,13.82,-0.79,0.3,0.2,18.2,34.0,-59.7,36.19,,,,,,,,,,
13.56.14.273,10.7,2.7,0,10.0,,77005.9,12.99,-0.79,0.31,0.21,29.4,32.9,-54.7,36.19,,,,,,,,,,
13.56.14.285,12.0,3.0,0,10.0,,73333.3,13.64,-0.8,0.31,0.21,40.9,30.3,-51.0,36.19,,,,,,,,,,
13.56.14.294,69.9,17.5,0,10.0,,71834.0,13.92,-0.81,0.32,0.22,51.8,26.9,-49.2,36.19,,,,,,,,,,
13.56.14.306,68.4,17.1,0,10.0,,73597.1,13.59,-0.82,0.32,0.21,61.4,23.8,-48.5,36.19,,,,,,,,,,
13.56.14.314,56.1,14.0,0,10.0,,72454.4,13.8,-0.81,0.33,0.2,69.3,21.9,-48.6,36.19,,,,,,,,,,
13.56.14.326,78.2,19.6,0,10.0,,68395.5,14.62,-0.81,0.33,0.18,75.7,21.3,-48.4,36.19,,,,,,,,,,
13.56.14.334,8.6,2.2,0,10.0,,71966.3,13.9,-0.82,0.36,0.2,81.6,20.8,-48.4,36.19,,,,,,,,,,
13.56.14.347,85.4,21.4,0,10.0,,72395.9,13.81,-0.84,0.39,0.2,85.1,19.9,-48.4,36.19,,,,,,,,,,
13.56.14.359,46.5,11.6,0,10.0,,70276.5,14.23,-0.85,0.41,0.21,85.9,18.2,-49.4,36.19,,,,,,,,,,
13.56.14.367,39.8,10.0,0,10.0,,72255.1,13.84,-0.86,0.45,0.23,83.4,15.5,-50.1,36.19,,,,,,,,,,
13.56.14.380,23.7,5.9,0,10.0,,71298.0,14.03,-0.85,0.46,0.24,78.9,11.5,-50.3,36.19,,,,,,,,,,
13.56.14.388,12.9,3.2,0,10.0,,70701.2,14.14,-0.85,0.47,0.26,73.2,9.5,-50.6,36.19,,,,,,,,,,
13.56.14.400,2.0,0.5,0,10.0,,72484.5,13.8,-0.85,0.47,0.25,66.9,8.7,-50.8,36.19,,,,,,,,,,
13.56.14.409,-19.9,5.0,0,10.0,,73472.9,13.61,-0.84,0.47,0.26,60.8,8.7,-50.1,36.19,,,,,,,,,,
13.56.14.421,-71.2,17.8,0,10.0,,75139.7,13.31,-0.84,0.47,0.26,55.6,9.6,-49.3,36.19,,,,,,,,,,
13.56.14.429,-45.3,11.3,0,10.0,,72180.9,13.85,-0.85,0.47,0.28,51.0,10.7,-48.6,36.19,,,,,,,,,,
13.56.14.441,-34.1,8.5,0,10.0,,75171.3,13.3,-0.85,0.47,0.28,45.2,11.0,-49.4,36.19,,,,,,,,,,
13.56.14.453,-47.1,11.8,0,10.0,,71836.5,13.92,-0.86,0.47,0.29,38.6,10.7,-51.2,36.19,,,,,,,,,,
13.56.14.461,-44.0,11.0,0,10.0,,66415.0,15.06,-0.85,0.47,0.29,32.2,10.8,-53.7,36.19,,,,,,,,,,
13.56.14.474,-47.4,11.8,0,10.0,,75834.0,13.19,-0.86,0.46,0.3,25.7,10.9,-56.1,36.19,,,,,,,,,,
13.56.14.482,-22.6,5.6,0,10.0,,75500.7,13.24,-0.87,0.47,0.31,19.6,11.8,-56.7,36.19,,,,,,,,,,
13.56.14.494,-62.1,15.5,0,10.0,,70068.6,14.27,-0.88,0.46,0.3,14.5,12.9,-56.3,36.19,,,,,,,,,,
13.56.14.507,-70.7,17.7,0,10.0,,74562.2,13.41,-0.9,0.44,0.31,10.4,14.1,-54.8,36.19,,,,,,,,,,
13.56.14.515,-63.3,15.8,0,10.0,,73921.7,13.53,-0.9,0.45,0.31,7.0,13.2,-53.6,36.19,,,,,,,,,,
13.56.14.527,-84.0,21.0,0,10.0,,72204.5,13.85,-0.91,0.46,0.31,3.9,11.0,-51.0,36.19,,,,,,,,,,
13.56.14.535,-51.0,12.8,0,10.0,,74789.5,13.37,-0.91,0.45,0.3,0.7,10.7,-49.6,36.19,,,,,,,,,,
13.56.14.548,-101.9,25.5,0,10.0,,72356.2,13.82,-0.92,0.44,0.31,-1.6,9.7,-47.0,36.19,,,,,,,,,,
13.56.14.556,-113.8,28.4,0,10.0,,74048.3,13.5,-0.91,0.43,0.29,-1.5,7.7,-44.4,36.19,,,,,,,,,,
13.56.14.568,-122.7,30.7,0,10.0,,73129.0,13.67,-0.91,0.42,0.28,-0.5,6.7,-41.3,36.19,,,,,,,,,,
13.56.14.576,-133.2,33.3,0,10.0,,74501.5,13.42,-0.91,0.43,0.27,1.1,5.9,-38.2,36.19,,,,,,,,,,
13.56.14.589,-101.9,25.5,0,10.0,,71158.1,14.05,-0.91,0.43,0.26,2.6,4.9,-35.6,36.19,,,,,,,,,,
13.56.14.597,-101.5,25.4,0,10.0,,75081.5,13.32,-0.91,0.44,0.24,4.8,4.4,-32.9,36.19,,,,,,,,,,
13.56.14.638,-189.3,47.3,0,10.0,,74263.0,13.47,-0.9,0.45,0.22,6.8,4.2,-29.1,36.19,,,,,,,,,,
13.56.14.646,-139.4,34.8,0,10.0,,75599.0,13.23,-0.89,0.49,0.2,2.9,3.0,-10.2,36.19,,,,,,,,,,
13.56.14.658,15.4,3.8,1,11.0,102.5,72515.8,13.79,-0.89,0.5,0.19,0.2,3.3,-5.5,36.19,,,,,,,,,,
13.56.14.666,75.6,18.9,0,11.0,,75437.4,13.26,-0.9,0.49,0.18,-4.3,3.7,-2.1,36.19,,,,,,,,,,
13.56.14.679,135.7,33.9,0,11.0,,72392.2,13.81,-0.89,0.48,0.17,-7.9,3.9,0.7,36.19,,,,,,,,,,
13.56.14.687,177.4,44.4,0,11.0,,71707.1,13.95,-0.9,0.47,0.15,-10.5,4.5,3.9,36.19,,,,,,,,,,
13.56.14.699,272.5,68.1,0,11.0,,70927.2,14.1,-0.9,0.45,0.14,-12.8,4.2,6.3,36.19,,,,,,,,,,
13.56.14.707,310.8,77.7,0,11.0,,73689.6,13.57,-0.9,0.44,0.13,-14.7,4.3,8.9,36.19,,,,,,,,,,
13.56.14.720,318.1,79.5,0,11.0,,74271.6,13.46,-0.9,0.43,0.1,-16.3,3.8,10.6,36.19,,,,,,,,,,
13.56.14.728,403.1,100.8,0,11.0,,66903.6,14.95,-0.91,0.42,0.09,-18.9,4.3,11.4,36.19,,,,,,,,,,
13.56.14.740,354.9,88.7,0,11.0,,76575.5,13.06,-0.92,0.4,0.08,-21.4,3.0,11.8,36.19,,,,,,,,,,
13.56.14.748,402.7,100.7,0,11.0,,73544.5,13.6,-0.92,0.39,0.07,-23.4,4.1,12.4,36.19,,,,,,,,,,
13.56.14.761,380.2,95.0,0,11.0,,74384.1,13.44,-0.92,0.37,0.05,-25.0,2.9,12.9,36.19,,,,,,,,,,
13.56.14.769,424.0,106.0,0,11.0,,70846.9,14.11,-0.91,0.36,0.04,-26.7,2.7,13.5,36.19,,,,,,,,,,
13.56.14.781,379.2,94.8,0,11.0,,73093.1,13.68,-0.92,0.34,0.03,-27.5,3.2,14.0,36.19,,,,,,,,,,
13.56.14.793,339.4,84.8,0,11.0,,73723.5,13.56,-0.93,0.31,0.02,-27.4,5.0,14.0,36.19,,,,,,,,,,
13.56.14.802,325.7,81.4,0,11.0,,70770.8,14.13,-0.94,0.3,0.02,-27.6,6.4,13.7,36.19,,,,,,,,,,
13.56.14.814,233.4,58.4,0,11.0,,77996.5,12.82,-0.94,0.28,0.01,-27.2,7.3,13.5,36.19,,,,,,,,,,
13.56.14.822,208.9,52.2,0,11.0,,71196.1,14.05,-0.97,0.26,0.02,-26.8,8.1,13.6,36.19,,,,,,,,,,
13.56.14.834,144.1,36.0,0,11.0,,73005.7,13.7,-0.96,0.23,0.02,-24.8,7.3,13.4,36.19,,,,,,,,,,
13.56.14.842,84.9,21.2,0,11.0,,74683.1,13.39,-0.95,0.22,0.01,-23.4,7.5,12.5,36.19,,,,,,,,,,
13.56.14.855,36.4,9.1,0,11.0,,72395.6,13.81,-0.95,0.2,0.0,-21.4,7.7,12.2,36.19,,,,,,,,,,
13.56.14.867,3.2,0.8,0,11.0,,70748.1,14.13,-0.96,0.19,-0.01,-17.9,8.9,11.8,36.19,,,,,,,,,,
13.56.14.875,5.9,1.5,0,11.0,,71987.2,13.89,-0.95,0.18,0.0,-16.4,10.3,11.1,36.19,,,,,,,,,,
13.56.14.887,51.7,12.9,0,11.0,,71637.3,13.96,-0.95,0.17,0.0,-14.7,12.4,11.3,36.19,,,,,,,,,,
13.56.14.896,56.4,14.1,0,11.0,,71661.6,13.95,-0.95,0.16,0.0,-14.1,14.2,12.7,36.19,,,,,,,,,,
13.56.14.908,62.0,15.5,0,11.0,,72960.6,13.71,-0.95,0.15,0.0,-10.9,14.6,14.9,36.19,,,,,,,,,,
13.56.14.920,64.5,16.1,0,11.0,,74144.1,13.49,-0.95,0.15,0.01,-12.7,17.5,17.1,36.19,,,,,,,,,,
13.56.14.929,92.7,23.2,0,11.0,,73794.9,13.55,-0.97,0.15,0.02,-12.8,19.8,18.2,36.19,,,,,,,,,,
13.56.14.941,43.7,10.9,0,11.0,,71156.4,14.05,-0.98,0.14,0.03,-14.0,19.5,17.9,36.19,,,,,,,,,,
13.56.14.949,65.8,16.4,0,11.0,,73537.7,13.6,-0.97,0.12,0.03,-13.8,21.9,16.4,36.19,,,,,,,,,,
13.56.14.961,52.2,13.0,0,11.0,,71142.1,14.06,-0.98,0.12,0.04,-10.4,22.5,14.7,36.19,,,,,,,,,,
13.56.14.974,5.1,1.3,0,11.0,,75440.8,13.26,-0.97,0.11,0.04,-8.8,22.7,12.4,36.19,,,,,,,,,,
13.56.14.982,0.3,0.1,0,11.0,,74205.7,13.48,-0.98,0.11,0.05,-9.3,24.0,9.1,36.19,,,,,,,,,,
13.56.14.994,3.4,0.8,0,11.0,,74036.9,13.51,-0.98,0.12,0.05,-8.8,24.2,7.8,36.19,,,,,,,,,,
13.56.15.002,-9.7,2.4,0,11.0,,70776.6,14.13,-0.99,0.12,0.06,-6.3,24.3,7.4,36.19,,,,,,,,,,
13.56.15.015,-32.6,8.2,0,11.0,,74844.2,13.36,-0.99,0.12,0.06,-5.3,23.4,7.5,36.19,,,,,,,,,,
13.56.15.023,-34.2,8.6,0,11.0,,75045.1,13.33,-0.99,0.12,0.08,-4.9,22.1,6.9,36.19,,,,,,,,,,
13.56.15.035,-53.7,13.4,0,11.0,,71713.2,13.94,-1.0,0.13,0.08,-5.6,21.1,5.7,36.19,,,,,,,,,,
13.56.15.043,-64.8,16.2,0,11.0,,71353.2,14.01,-0.99,0.13,0.08,-5.2,19.9,4.2,36.19,,,,,,,,,,
13.56.15.056,-34.6,8.6,0,11.0,,73054.8,13.69,-0.99,0.13,0.08,-4.6,19.5,2.2,36.19,,,,,,,,,,
13.56.15.068,-46.9,11.7,0,11.0,,71925.6,13.9,-0.98,0.13,0.09,-4.0,19.2,0.2,36.19,,,,,,,,,,
13.56.15.076,-61.6,15.4,0,11.0,,73289.6,13.64,-0.99,0.14,0.1,-2.1,20.1,-0.9,36.19,,,,,,,,,,
13.56.15.088,-88.8,22.2,0,11.0,,71947.5,13.9,-0.98,0.15,0.09,-0.5,20.4,-1.9,36.19,,,,,,,,,,
13.56.15.097,-71.7,17.9,0,11.0,,72955.3,13.71,-0.99,0.16,0.1,0.1,21.0,-3.1,36.19,,,,,,,,,,
13.56.15.109,-75.6,18.9,0,11.0,,69924.7,14.3,-1.0,0.16,0.1,0.0,20.8,-4.4,36.19,,,,,,,,,,
13.56.15.121,-104.7,26.2,0,11.0,,72538.7,13.79,-1.0,0.17,0.11,-0.9,19.7,-5.4,36.19,,,,,,,,,,
13.56.15.129,-73.1,18.3,0,11.0,,71721.0,13.94,-1.0,0.18,0.11,-2.1,17.9,-7.2,36.19,,,,,,,,,,
13.56.15.142,-92.5,23.1,0,11.0,,72246.5,13.84,-1.0,0.19,0.12,-3.2,15.9,-8.9,36.19,,,,,,,,,,
13.56.15.150,-110.9,27.7,0,11.0,,73846.2,13.54,-1.01,0.19,0.12,-4.8,14.9,-11.3,36.19,,,,,,,,,,
13.56.15.162,-138.2,34.6,0,11.0,,71359.1,14.01,-1.0,0.19,0.11,-6.0,13.7,-12.3,36.19,,,,,,,,,,
13.56.15.170,-114.5,28.6,0,11.0,,77823.9,12.85,-1.0,0.19,0.12,-4.3,12.0,-12.7,36.19,,,,,,,,,,
13.56.15.183,-137.3,34.3,0,11.0,,76635.6,13.05,-0.99,0.19,0.11,-3.9,12.2,-13.0,36.19,,,,,,,,,,
13.56.15.195,-184.9,46.2,0,11.0,,76355.8,13.1,-0.99,0.2,0.11,-3.4,11.2,-13.0,36.19,,,,,,,,,,
13.56.15.203,-148.2,37.0,0,11.0,,69713.2,14.34,-0.99,0.2,0.1,-2.2,11.6,-13.3,36.19,,,,,,,,,,
13.56.15.215,-166.2,41.6,0,11.0,,73445.5,13.62,-0.99,0.21,0.11,-0.7,10.7,-12.8,36.19,,,,,,,,,,
13.56.15.223,-143.9,36.0,0,11.0,,69139.4,14.46,-1.0,0.21,0.11,0.4,6.7,-12.5,36.19,,,,,,,,,,
13.56.15.236,-127.5,31.9,0,11.0,,69833.2,14.32,-1.0,0.22,0.11,-2.6,6.2,-14.7,36.19,,,,,,,,,,
13.56.15.244,55.3,13.8,1,12.0,111.1,69594.2,14.37,-0.99,0.21,0.09,-5.4,6.3,-15.7,36.19,,,,,,,,,,
13.56.15.256,157.2,39.3,0,12.0,,74220.7,13.47,-0.98,0.2,0.08,-3.1,6.4,-14.6,36.19,,,,,,,,,,
13.56.15.264,184.1,46.0,0,12.0,,70950.6,14.09,-0.98,0.2,0.08,2.2,5.7,-12.4,36.19,,,,,,,,,,
13.56.15.277,269.1,67.3,0,12.0,,70299.7,14.22,-0.99,0.2,0.07,4.5,5.5,-11.9,36.19,,,,,,,,,,
13.56.15.285,277.1,69.3,0,12.0,,71443.9,14.0,-0.99,0.21,0.08,5.5,5.4,-11.9,36.19,,,,,,,,,,
13.56.15.297,339.3,84.8,0,12.0,,73936.1,13.53,-0.98,0.2,0.08,6.7,7.9,-11.1,36.19,,,,,,,,,,
13.56.15.305,347.8,87.0,0,12.0,,72179.8,13.85,-0.98,0.2,0.08,10.9,6.6,-8.8,36.19,,,,,,,,,,
13.56.15.318,379.6,94.9,0,12.0,,75503.3,13.24,-0.98,0.21,0.08,13.1,7.1,-6.8,36.19,,,,,,,,,,
13.56.15.326,373.8,93.4,0,12.0,,74391.4,13.44,-0.99,0.22,0.08,13.4,7.1,-5.3,36.19,,,,,,,,,,
13.56.15.338,373.8,93.4,0,12.0,,73848.3,13.54,-1.0,0.23,0.08,12.2,6.5,-4.6,36.19,,,,,,,,,,
13.56.15.346,418.7,104.7,0,12.0,,76634.4,13.05,-0.99,0.23,0.09,11.0,6.0,-3.9,36.19,,,,,,,,,,
13.56.15.359,383.9,96.0,0,12.0,,74350.5,13.45,-1.0,0.22,0.08,10.6,5.1,-2.6,36.19,,,,,,,,,,
13.56.15.367,389.0,97.2,0,12.0,,70332.3,14.22,-1.0,0.21,0.08,10.0,3.7,-1.6,36.19,,,,,,,,,,
13.56.15.379,357.3,89.3,0,12.0,,72461.2,13.8,-0.99,0.22,0.07,9.2,2.8,-1.6,36.19,,,,,,,,,,
13.56.15.387,291.5,72.9,0,12.0,,75508.1,13.24,-1.0,0.21,0.07,8.9,1.9,-2.2,36.19,,,,,,,,,,
13.56.15.400,232.1,58.0,0,12.0,,76539.7,13.07,-0.99,0.21,0.06,7.5,1.4,-3.2,36.19,,,,,,,,,,
13.56.15.408,185.6,46.4,0,12.0,,70733.0,14.14,-0.99,0.21,0.07,7.1,1.1,-3.2,36.19,,,,,,,,,,
13.56.15.445,-5.7,1.4,0,12.0,,73061.0,13.69,-0.98,0.21,0.05,7.2,1.0,-2.8,36.19,,,,,,,,,,
13.56.15.457,19.1,4.8,0,12.0,,78178.2,12.79,-0.97,0.19,0.06,10.1,3.7,-0.7,36.19,,,,,,,,,,
13.56.15.465,38.4,9.6,0,12.0,,68127.1,14.68,-0.96,0.19,0.05,10.6,4.3,-0.3,36.19,,,,,,,,,,
13.56.15.478,98.7,24.7,0,12.0,,70425.1,14.2,-0.96,0.19,0.06,11.1,5.5,0.3,36.19,,,,,,,,,,
13.56.15.486,80.0,20.0,0,12.0,,68547.2,14.59,-0.95,0.19,0.05,11.9,5.7,1.0,36.19,,,,,,,,,,
13.56.15.498,66.1,16.5,0,12.0,,74787.0,13.37,-0.97,0.19,0.06,12.1,5.9,1.0,36.19,,,,,,,,,,
13.56.15.506,64.6,16.2,0,12.0,,69855.7,14.32,-0.97,0.2,0.06,12.2,5.1,0.8,36.19,,,,,,,,,,
13.56.15.518,51.7,12.9,0,12.0,,72550.7,13.78,-0.93,0.2,0.05,29.7,-9.5,3.4,36.19,,,,,,,,,,
13.56.15.531,41.7,10.4,0,12.0,,76683.2,13.04,-0.93,0.18,0.03,20.3,4.9,2.5,36.19,,,,,,,,,,
13.56.15.539,50.1,12.5,0,12.0,,72098.5,13.87,-0.97,0.2,0.06,12.3,4.1,-0.8,36.19,,,,,,,,,,
13.56.15.551,-3.8,1.0,0,12.0,,71498.9,13.99,-0.97,0.2,0.06,9.7,8.3,-4.1,36.19,,,,,,,,,,
13.56.15.563,7.3,1.8,0,12.0,,74147.1,13.49,-0.98,0.21,0.05,11.7,5.3,-1.5,36.19,,,,,,,,,,
13.56.15.571,-8.5,2.1,0,12.0,,73052.2,13.69,-0.97,0.2,0.05,13.5,5.4,-2.1,36.19,,,,,,,,,,
13.56.15.584,-7.2,1.8,0,12.0,,75155.9,13.31,-0.98,0.2,0.05,11.2,5.2,-3.7,36.19,,,,,,,,,,
13.56.15.596,-1.7,0.4,0,12.0,,78379.3,12.76,-0.97,0.2,0.06,11.5,6.0,-4.2,36.19,,,,,,,,,,
13.56.15.604,-33.0,8.2,0,12.0,,72572.3,13.78,-0.98,0.19,0.05,12.9,6.1,-3.8,36.19,,,,,,,,,,
13.56.15.617,-57.5,14.4,0,12.0,,71295.3,14.03,-0.98,0.2,0.06,13.9,6.2,-4.9,36.19,,,,,,,,,,
13.56.15.629,-38.0,9.5,0,12.0,,78968.4,12.66,-0.98,0.21,0.06,12.6,6.6,-5.7,36.19,,,,,,,,,,
13.56.15.637,2.6,0.6,0,12.0,,75492.5,13.25,-0.99,0.21,0.07,12.5,6.2,-5.7,36.19,,,,,,,,,,
13.56.15.650,-78.2,19.6,0,12.0,,76566.7,13.06,-0.99,0.21,0.07,13.0,5.1,-4.9,36.19,,,,,,,,,,
13.56.15.662,-84.5,21.1,0,12.0,,73793.1,13.55,-1.0,0.21,0.07,12.9,4.5,-4.5,36.19,,,,,,,,,,
13.56.15.674,-67.7,16.9,0,12.0,,69002.2,14.49,-0.99,0.21,0.07,12.0,4.6,-5.4,36.19,,,,,,,,,,
13.56.15.682,-62.3,15.6,0,12.0,,71471.1,13.99,-0.99,0.21,0.07,11.8,4.4,-5.7,36.19,,,,,,,,,,
13.56.15.695,-57.6,14.4,0,12.0,,71770.1,13.93,-0.99,0.21,0.08,12.4,4.7,-5.2,36.19,,,,,,,,,,
13.56.15.707,-139.1,34.8,0,12.0,,76333.8,13.1,-0.99,0.2,0.08,13.0,4.7,-4.7,36.19,,,,,,,,,,
13.56.15.715,-106.8,26.7,0,12.0,,72491.9,13.79,-0.99,0.21,0.09,10.7,4.3,-4.0,36.19,,,,,,,,,,
13.56.15.727,-107.5,26.9,0,12.0,,73397.8,13.62,-1.0,0.22,0.08,14.6,1.6,-1.7,36.19,,,,,,,,,,
13.56.15.740,-115.2,28.8,0,12.0,,70509.4,14.18,-0.98,0.2,0.07,16.1,4.1,-2.2,36.19,,,,,,,,,,
13.56.15.748,-126.4,31.6,0,12.0,,75085.3,13.32,-0.99,0.2,0.08,14.2,3.7,-3.2,36.19,,,,,,,,,,
13.56.15.760,-115.0,28.8,0,12.0,,75800.0,13.19,-0.99,0.2,0.08,14.3,4.5,-3.4,36.19,,,,,,,,,,
13.56.15.772,-129.6,32.4,0,12.0,,73085.8,13.68,-0.99,0.2,0.08,15.9,3.6,-2.3,36.19,,,,,,,,,,
13.56.15.781,-130.0,32.5,0,12.0,,73059.4,13.69,-0.98,0.2,0.08,17.2,3.3,-2.0,36.19,,,,,,,,,,
13.56.15.793,-164.6,41.2,0,12.0,,73877.0,13.54,-0.99,0.2,0.07,17.1,1.6,-2.3,36.19,,,,,,,,,,
13.56.15.805,-141.3,35.3,0,12.0,,73130.2,13.67,-0.98,0.21,0.08,16.8,2.2,-2.9,36.19,,,,,,,,,,
13.56.15.813,-127.0,31.8,0,12.0,,74907.2,13.35,-0.98,0.21,0.08,17.6,2.0,-1.9,36.19,,,,,,,,,,
13.56.15.826,31.6,7.9,1,13.0,104.4,73750.6,13.56,-0.98,0.21,0.08,17.5,2.1,-1.5,36.19,,,,,,,,,,
13.56.15.838,111.9,28.0,0,13.0,,73478.7,13.61,-0.98,0.22,0.08,16.7,2.7,-1.8,36.19,,,,,,,,,,
13.56.15.846,148.9,37.2,0,13.0,,72531.8,13.79,-0.98,0.22,0.07,15.4,1.8,-2.2,36.19,,,,,,,,,,
13.56.15.858,243.0,60.8,0,13.0,,73400.8,13.62,-0.98,0.22,0.07,14.8,1.6,-3.0,36.19,,,,,,,,,,
13.56.15.871,313.8,78.4,0,13.0,,72353.7,13.82,-0.98,0.23,0.07,12.8,1.6,-4.0,36.19,,,,,,,,,,
13.56.15.883,364.3,91.1,0,13.0,,73627.4,13.58,-0.98,0.23,0.07,9.1,2.1,-4.9,36.19,,,,,,,,,,
13.56.15.891,345.9,86.5,0,13.0,,71914.7,13.91,-0.98,0.23,0.08,6.6,2.5,-5.8,36.19,,,,,,,,,,
13.56.15.903,361.8,90.4,0,13.0,,71905.1,13.91,-0.98,0.23,0.08,4.2,2.2,-5.9,36.19,,,,,,,,,,
13.56.15.916,360.4,90.1,0,13.0,,73571.0,13.59,-0.98,0.22,0.08,2.4,2.5,-6.5,36.19,,,,,,,,,,
13.56.15.928,382.6,95.6,0,13.0,,74621.8,13.4,-0.98,0.21,0.07,2.3,1.6,-6.5,36.19,,,,,,,,,,
13.56.15.936,379.8,95.0,0,13.0,,67769.3,14.76,-0.98,0.21,0.08,3.2,1.0,-6.2,36.19,,,,,,,,,,
13.56.15.949,376.1,94.0,0,13.0,,71971.4,13.89,-0.97,0.21,0.08,4.2,0.9,-5.1,36.19,,,,,,,,,,
13.56.15.961,352.9,88.2,0,13.0,,71977.6,13.89,-0.97,0.21,0.08,5.7,1.1,-4.5,36.19,,,,,,,,,,
13.56.15.973,309.6,77.4,0,13.0,,73559.1,13.59,-0.97,0.21,0.07,7.8,1.5,-2.9,36.19,,,,,,,,,,
13.56.15.981,227.6,56.9,0,13.0,,73950.9,13.52,-0.97,0.22,0.08,9.4,1.6,-1.2,36.19,,,,,,,,,,
13.56.15.994,179.7,44.9,0,13.0,,77256.8,12.94,-0.98,0.22,0.08,10.2,1.5,-0.1,36.19,,,,,,,,,,
13.56.16.006,116.6,29.2,0,13.0,,71369.9,14.01,-0.98,0.22,0.08,10.4,1.4,0.1,36.19,,,,,,,,,,
13.56.16.018,41.3,10.3,0,13.0,,76798.3,13.02,-0.98,0.22,0.08,10.1,0.7,0.7,36.19,,,,,,,,,,
13.56.16.026,16.1,4.0,0,13.0,,68320.5,14.64,-0.98,0.22,0.08,10.0,1.0,0.9,36.19,,,,,,,,,,
13.56.16.039,38.8,9.7,0,13.0,,69382.0,14.41,-0.98,0.22,0.08,9.5,0.4,1.0,36.19,,,,,,,,,,
13.56.16.051,105.5,26.4,0,13.0,,70112.7,14.26,-0.98,0.22,0.08,8.9,0.5,0.6,36.19,,,,,,,,,,
13.56.16.063,33.1,8.3,0,13.0,,75790.6,13.19,-0.97,0.22,0.08,7.7,0.6,0.8,36.19,,,,,,,,,,
13.56.16.071,74.5,18.6,0,13.0,,73828.6,13.54,-0.97,0.23,0.08,6.5,1.1,1.0,36.19,,,,,,,,,,
13.56.16.084,63.6,15.9,0,13.0,,75643.0,13.22,-0.98,0.22,0.08,5.9,1.5,1.0,36.19,,,,,,,,,,
13.56.16.096,72.0,18.0,0,13.0,,76504.3,13.07,-0.98,0.23,0.08,5.5,1.6,0.9,36.19,,,,,,,,,,
13.56.16.104,50.0,12.5,0,13.0,,72616.2,13.77,-0.98,0.22,0.08,5.1,1.0,1.2,36.19,,,,,,,,,,
13.56.16.117,30.2,7.6,0,13.0,,73075.2,13.68,-0.98,0.22,0.09,4.3,1.1,1.1,36.19,,,,,,,,,,
13.56.16.125,42.8,10.7,0,13.0,,72848.8,13.73,-0.98,0.22,0.09,4.1,1.1,0.9,36.19,,,,,,,,,,
13.56.16.137,7.1,1.8,0,13.0,,73705.1,13.57,-0.98,0.21,0.09,5.1,0.8,1.5,36.19,,,,,,,,,,
13.56.16.145,16.4,4.1,0,13.0,,75292.9,13.28,-0.97,0.21,0.09,5.3,0.7,2.1,36.19,,,,,,,,,,
13.56.16.158,-27.7,6.9,0,13.0,,72600.2,13.77,-0.98,0.21,0.1,5.1,0.2,2.7,36.19,,,,,,,,,,
13.56.16.166,-55.4,13.8,0,13.0,,74845.5,13.36,-0.98,0.21,0.1,5.7,-0.2,3.2,36.19,,,,,,,,,,
13.56.16.178,-53.8,13.4,0,13.0,,73650.4,13.58,-0.98,0.2,0.09,6.3,-1.0,4.1,36.19,,,,,,,,,,
13.56.16.186,-54.5,13.6,0,13.0,,76136.1,13.13,-0.99,0.19,0.09,8.0,-1.0,4.4,36.19,,,,,,,,,,
13.56.16.198,-22.4,5.6,0,13.0,,70566.3,14.17,-0.98,0.19,0.09,10.4,-0.4,5.4,36.19,,,,,,,,,,
13.56.16.207,-27.4,6.8,0,13.0,,74271.9,13.46,-0.98,0.19,0.09,14.6,-0.7,6.8,36.19,,,,,,,,,,
13.56.16.219,-20.6,5.2,0,13.0,,68662.9,14.56,-0.99,0.2,0.1,17.0,-1.2,7.6,36.19,,,,,,,,,,
13.56.16.256,-76.0,19.0,0,13.0,,70938.4,14.1,-0.99,0.2,0.11,17.9,-1.2,7.4,36.13,,,,,,,,,,
13.56.16.268,-51.2,12.8,0,13.0,,71520.8,13.98,-0.97,0.18,0.08,27.3,-0.3,9.7,36.13,,,,,,,,,,
13.56.16.276,-49.1,12.3,0,13.0,,72774.5,13.74,-0.96,0.17,0.08,34.9,1.5,12.0,36.13,,,,,,,,,,
13.56.16.289,-103.5,25.9,0,13.0,,75936.6,13.17,-0.96,0.16,0.07,46.3,3.9,15.6,36.13,,,,,,,,,,
13.56.16.297,-94.2,23.6,0,13.0,,72362.6,13.82,-0.95,0.17,0.06,57.7,6.6,19.6,36.13,,,,,,,,,,
13.56.16.309,-71.0,17.8,0,13.0,,70156.8,14.25,-0.96,0.19,0.07,66.5,8.7,23.6,36.13,,,,,,,,,,
13.56.16.317,-91.6,22.9,0,13.0,,76139.4,13.13,-0.97,0.2,0.07,73.9,9.8,26.6,36.13,,,,,,,,,,
13.56.16.330,-103.8,26.0,0,13.0,,70370.9,14.21,-0.97,0.22,0.07,79.4,11.4,29.3,36.13,,,,,,,,,,
13.56.16.342,-137.7,34.4,0,13.0,,75038.9,13.33,-0.96,0.22,0.05,86.7,11.4,31.6,36.13,,,,,,,,,,
13.56.16.350,-116.5,29.1,0,13.0,,68882.4,14.52,-0.96,0.25,0.07,89.3,12.4,32.9,36.13,,,,,,,,,,
13.56.16.362,-153.2,38.3,0,13.0,,71096.4,14.07,-0.98,0.28,0.07,90.6,12.5,33.0,36.13,,,,,,,,,,
13.56.16.374,-169.9,42.5,0,13.0,,71950.2,13.9,-0.97,0.31,0.06,86.9,10.4,31.3,36.13,,,,,,,,,,
13.56.16.383,-126.9,31.7,0,13.0,,71011.2,14.08,-0.98,0.34,0.08,78.5,8.3,28.6,36.13,,,,,,,,,,
13.56.16.395,-149.1,37.3,0,13.0,,74752.1,13.38,-0.97,0.36,0.09,66.8,6.0,24.7,36.13,,,,,,,,,,
13.56.16.407,9.2,2.3,1,14.0,100.3,68836.6,14.53,-0.96,0.35,0.08,54.4,4.2,19.8,36.13,,,,,,,,,,
13.56.16.416,105.9,26.5,0,14.0,,72846.8,13.73,-0.96,0.36,0.07,43.1,3.0,15.6,36.13,,,,,,,,,,
13.56.16.428,139.8,35.0,0,14.0,,72287.6,13.83,-0.96,0.35,0.05,35.1,2.0,11.9,36.13,,,,,,,,,,
13.56.16.436,203.6,50.9,0,14.0,,73108.3,13.68,-0.97,0.35,0.05,27.9,0.9,9.1,36.13,,,,,,,,,,
13.56.16.448,287.2,71.8,0,14.0,,72236.0,13.84,-0.96,0.35,0.05,20.8,-0.7,6.7,36.13,,,,,,,,,,
13.56.16.456,259.1,64.8,0,14.0,,73036.9,13.69,-0.96,0.36,0.03,13.8,-2.9,4.6,36.13,,,,,,,,,,
13.56.16.469,329.4,82.4,0,14.0,,70892.0,14.11,-0.96,0.36,0.04,7.5,-4.1,2.8,36.13,,,,,,,,,,
13.56.16.481,411.9,103.0,0,14.0,,72285.7,13.83,-0.95,0.35,0.03,1.7,-5.9,1.4,36.13,,,,,,,,,,
13.56.16.489,386.3,96.6,0,14.0,,73021.3,13.69,-0.94,0.35,0.03,-2.3,-6.5,0.7,36.13,,,,,,,,,,
13.56.16.502,410.2,102.6,0,14.0,,73907.1,13.53,-0.94,0.32,0.02,-3.5,-5.9,-0.5,36.13,,,,,,,,,,
13.56.16.510,421.3,105.3,0,14.0,,77001.2,12.99,-0.92,0.32,0.01,-3.2,-5.6,0.5,36.13,,,,,,,,,,
13.56.16.522,368.8,92.2,0,14.0,,73366.6,13.63,-0.92,0.31,0.02,-0.1,-4.6,1.2,36.13,,,,,,,,,,
13.56.16.530,364.8,91.2,0,14.0,,76776.0,13.02,-0.92,0.32,0.03,2.8,-3.9,2.3,36.13,,,,,,,,,,
13.56.16.543,295.3,73.8,0,14.0,,72106.7,13.87,-0.92,0.32,0.03,5.1,-3.0,3.1,36.13,,,,,,,,,,
13.56.16.551,345.2,86.3,0,14.0,,71583.9,13.97,-0.92,0.33,0.05,7.0,-1.7,3.8,36.13,,,,,,,,,,
13.56.16.563,297.6,74.4,0,14.0,,70925.7,14.1,-0.92,0.34,0.06,7.3,-1.0,4.7,36.13,,,,,,,,,,
13.56.16.571,244.2,61.0,0,14.0,,71519.5,13.98,-0.93,0.34,0.07,6.8,-0.9,5.0,36.13,,,,,,,,,,
13.56.16.583,151.3,37.8,0,14.0,,70277.2,14.23,-0.93,0.35,0.08,6.6,-1.2,5.6,36.13,,,,,,,,,,
13.56.16.596,116.2,29.0,0,14.0,,67190.8,14.88,-0.93,0.35,0.09,6.3,-1.6,6.2,36.13,,,,,,,,,,
13.56.16.604,31.5,7.9,0,14.0,,71935.8,13.9,-0.93,0.35,0.09,5.0,-2.1,7.1,36.13,,,,,,,,,,
13.56.16.616,18.0,4.5,0,14.0,,75139.9,13.31,-0.93,0.35,0.09,4.7,-2.7,7.9,36.13,,,,,,,,,,
13.56.16.625,59.5,14.9,0,14.0,,76279.7,13.11,-0.93,0.34,0.09,3.3,-3.2,8.9,36.13,,,,,,,,,,
13.56.16.637,63.5,15.9,0,14.0,,74034.9,13.51,-0.93,0.33,0.08,2.9,-3.9,9.4,36.13,,,,,,,,,,
13.56.16.645,69.3,17.3,0,14.0,,70373.9,14.21,-0.92,0.33,0.08,3.6,-4.3,9.8,36.13,,,,,,,,,,
13.56.16.657,80.5,20.1,0,14.0,,70543.7,14.18,-0.92,0.32,0.08,5.1,-4.3,10.2,36.13,,,,,,,,,,
13.56.16.665,83.9,21.0,0,14.0,,72634.5,13.77,-0.93,0.32,0.07,7.0,-3.5,10.3,36.13,,,,,,,,,,
13.56.16.678,100.8,25.2,0,14.0,,73022.5,13.69,-0.93,0.32,0.07,8.0,-3.6,9.5,36.13,,,,,,,,,,
13.56.16.686,53.5,13.4,0,14.0,,73729.2,13.56,-0.94,0.32,0.07,9.6,-3.5,9.2,36.13,,,,,,,,,,
13.56.16.698,68.0,17.0,0,14.0,,69951.9,14.3,-0.95,0.33,0.07,10.8,-3.1,8.7,36.13,,,,,,,,,,
13.56.16.706,16.3,4.1,0,14.0,,71646.4,13.96,-0.95,0.33,0.07,11.6,-3.0,7.9,36.13,,,,,,,,,,
13.56.16.719,3.0,0.8,0,14.0,,71910.2,13.91,-0.95,0.34,0.07,12.5,-3.5,6.7,36.13,,,,,,,,,,
13.56.16.727,2.2,0.6,0,14.0,,73369.7,13.63,-0.96,0.34,0.07,13.3,-3.5,5.9,36.13,,,,,,,,,,
13.56.16.739,8.9,2.2,0,14.0,,74043.7,13.51,-0.96,0.35,0.08,13.5,-3.8,5.5,36.13,,,,,,,,,,
13.56.16.752,9.2,2.3,0,14.0,,74598.1,13.41,-0.96,0.35,0.08,13.9,-4.9,6.5,36.13,,,,,,,,,,
13.56.16.760,-29.4,7.4,0,14.0,,74813.2,13.37,-0.95,0.36,0.08,13.3,-4.8,6.9,36.13,,,,,,,,,,
13.56.16.772,-52.0,13.0,0,14.0,,72730.7,13.75,-0.95,0.36,0.07,12.0,-5.1,7.4,36.13,,,,,,,,,,
13.56.16.780,-14.1,3.5,0,14.0,,71672.7,13.95,-0.95,0.36,0.07,10.7,-5.2,8.0,36.13,,,,,,,,,,
13.56.16.793,-49.1,12.3,0,14.0,,75048.9,13.32,-0.96,0.35,0.07,9.0,-5.0,7.5,36.13,,,,,,,,,,
13.56.16.801,-54.2,13.6,0,14.0,,73241.7,13.65,-0.96,0.35,0.07,6.7,-5.7,7.1,36.13,,,,,,,,,,
13.56.16.813,-60.6,15.2,0,14.0,,71179.2,14.05,-0.96,0.33,0.06,5.8,-5.6,6.4,36.13,,,,,,,,,,
13.56.16.821,-64.0,16.0,0,14.0,,76478.6,13.08,-0.95,0.33,0.07,5.4,-5.8,6.0,36.13,,,,,,,,,,
13.56.16.833,-41.8,10.4,0,14.0,,73880.1,13.54,-0.94,0.33,0.06,6.1,-5.9,5.2,36.13,,,,,,,,,,
13.56.16.842,-100.4,25.1,0,14.0,,70499.0,14.18,-0.93,0.32,0.07,4.8,-5.6,3.9,36.13,,,,,,,,,,
13.56.16.854,-90.5,22.6,0,14.0,,75239.6,13.29,-0.93,0.32,0.06,4.4,-4.4,3.2,36.13,,,,,,,,,,
13.56.16.862,-60.9,15.2,0,14.0,,72331.0,13.83,-0.92,0.32,0.06,5.1,-4.0,3.7,36.13,,,,,,,,,,
13.56.16.874,-88.7,22.2,0,14.0,,72776.0,13.74,-0.92,0.32,0.07,5.4,-2.8,3.2,36.13,,,,,,,,,,
13.56.16.882,-78.9,19.7,0,14.0,,71406.3,14.0,-0.92,0.32,0.07,3.7,-1.7,2.3,36.13,,,,,,,,,,
13.56.16.895,-120.4,30.1,0,14.0,,75624.6,13.22,-0.92,0.32,0.07,2.7,-0.4,0.8,36.13,,,,,,,,,,
13.56.16.903,-67.1,16.8,0,14.0,,72486.7,13.8,-0.93,0.32,0.07,0.9,-0.6,0.0,36.13,,,,,,,,,,
13.56.16.915,-131.8,33.0,0,14.0,,73084.1,13.68,-0.92,0.32,0.07,0.0,0.2,-1.8,36.13,,,,,,,,,,
13.56.16.928,-147.1,36.8,0,14.0,,74411.0,13.44,-0.93,0.32,0.08,-1.5,1.3,-3.8,36.13,,,,,,,,,,
13.56.16.936,-123.0,30.8,0,14.0,,70952.9,14.09,-0.92,0.32,0.09,-2.4,1.2,-4.3,36.13,,,,,,,,,,
13.56.16.948,-129.3,32.3,0,14.0,,71636.2,13.96,-0.92,0.32,0.09,-3.0,2.3,-5.0,36.13,,,,,,,,,,
13.56.16.956,-121.6,30.4,0,14.0,,72492.9,13.79,-0.91,0.32,0.09,-3.0,2.8,-4.8,36.13,,,,,,,,,,
13.56.16.969,-160.9,40.2,0,14.0,,68817.3,14.53,-0.91,0.32,0.09,-2.6,2.7,-4.1,36.13,,,,,,,,,,
13.56.16.977,-141.5,35.4,0,14.0,,78495.3,12.74,-0.91,0.32,0.1,-1.5,3.2,-3.5,36.13,,,,,,,,,,
13.56.16.989,34.8,8.7,1,15.0,100.8,71778.1,13.93,-0.91,0.32,0.1,-1.1,3.3,-2.7,36.13,,,,,,,,,,
13.56.16.997,75.3,18.8,0,15.0,,71417.1,14.0,-0.9,0.31,0.11,0.1,3.1,-2.1,36.13,,,,,,,,,,
13.56.17.009,123.7,30.9,0,15.0,,73094.8,13.68,-0.9,0.31,0.11,2.1,3.0,-1.3,36.13,,,,,,,,,,
13.56.17.018,213.9,53.5,0,15.0,,74053.0,13.5,-0.89,0.31,0.1,3.9,2.9,-0.9,36.13,,,,,,,,,,
13.56.17.030,228.2,57.0,0,15.0,,72410.9,13.81,-0.89,0.3,0.09,6.1,3.7,0.0,36.13,,,,,,,,,,
13.56.17.067,385.0,96.2,0,15.0,,73229.2,13.66,-0.88,0.3,0.1,8.5,3.4,0.5,36.13,,,,,,,,,,
13.56.17.075,426.8,106.7,0,15.0,,73058.2,13.69,-0.87,0.32,0.09,14.7,4.7,0.5,36.13,,,,,,,,,,
13.56.17.087,367.4,91.8,0,15.0,,73215.4,13.66,-0.87,0.33,0.09,15.2,5.2,-0.3,36.13,,,,,,,,,,
13.56.17.096,451.5,112.9,0,15.0,,73906.8,13.53,-0.87,0.33,0.08,15.8,6.0,-0.7,36.13,,,,,,,,,,
13.56.17.108,406.3,101.6,0,15.0,,78402.8,12.75,-0.87,0.34,0.08,15.4,6.2,-1.4,36.13,,,,,,,,,,
13.56.17.116,366.9,91.7,0,15.0,,76712.3,13.04,-0.87,0.35,0.07,14.4,7.0,-2.4,36.13,,,,,,,,,,
13.56.17.128,355.5,88.9,0,15.0,,74155.1,13.49,-0.87,0.36,0.07,13.9,7.0,-3.6,36.13,,,,,,,,,,
13.56.17.141,304.7,76.2,0,15.0,,73723.1,13.56,-0.88,0.35,0.07,13.2,7.3,-4.4,36.13,,,,,,,,,,
13.56.17.149,294.4,73.6,0,15.0,,71227.7,14.04,-0.88,0.36,0.05,13.5,7.3,-5.5,36.13,,,,,,,,,,
13.56.17.161,165.8,41.4,0,15.0,,69175.5,14.46,-0.89,0.36,0.05,13.6,7.8,-6.4,36.13,,,,,,,,,,
13.56.17.169,139.7,34.9,0,15.0,,74133.9,13.49,-0.9,0.38,0.05,13.8,8.4,-7.6,36.13,,,,,,,,,,
13.56.17.182,49.3,12.3,0,15.0,,74443.7,13.43,-0.92,0.39,0.05,13.5,8.8,-8.7,36.13,,,,,,,,,,
13.56.17.190,-1.7,0.4,0,15.0,,73113.0,13.68,-0.92,0.39,0.05,12.4,9.1,-10.4,36.13,,,,,,,,,,
13.56.17.202,17.2,4.3,0,15.0,,66724.6,14.99,-0.92,0.39,0.04,11.6,8.7,-11.5,36.13,,,,,,,,,,
13.56.17.214,40.3,10.1,0,15.0,,71508.2,13.98,-0.94,0.39,0.05,11.3,9.1,-12.3,36.13,,,,,,,,,,
13.56.17.223,88.2,22.0,0,15.0,,73207.8,13.66,-0.96,0.4,0.05,11.3,8.4,-12.6,36.13,,,,,,,,,,
13.56.17.235,56.1,14.0,0,15.0,,69538.2,14.38,-0.96,0.41,0.05,11.4,7.7,-12.8,36.13,,,,,,,,,,
13.56.17.243,77.8,19.4,0,15.0,,74899.1,13.35,-0.96,0.42,0.05,10.6,7.2,-12.6,36.13,,,,,,,,,,
13.56.17.255,55.8,14.0,0,15.0,,72911.7,13.72,-0.97,0.42,0.06,10.3,7.0,-12.8,36.13,,,,,,,,,,
13.56.17.267,68.4,17.1,0,15.0,,70450.7,14.19,-0.97,0.42,0.06,9.7,6.6,-12.4,36.13,,,,,,,,,,
13.56.17.276,62.3,15.6,0,15.0,,69532.7,14.38,-0.97,0.42,0.06,9.6,6.3,-11.0,36.13,,,,,,,,,,
13.56.17.288,28.0,7.0,0,15.0,,72853.8,13.73,-0.97,0.41,0.05,9.5,6.5,-9.5,36.13,,,,,,,,,,
13.56.17.296,37.3,9.3,0,15.0,,73975.1,13.52,-0.96,0.42,0.05,10.2,6.8,-7.8,36.13,,,,,,,,,,
13.56.17.309,-32.9,8.2,0,15.0,,69577.2,14.37,-0.97,0.42,0.05,10.9,6.6,-4.7,36.13,,,,,,,,,,
13.56.17.317,-10.1,2.5,0,15.0,,71974.3,13.89,,0.38,0.04,4.9,,-2.0,36.13,,,,,,,,,,
13.56.17.512,-127.7,31.9,0,15.0,,73804.6,13.55,-0.91,0.38,0.04,0.5,4.9,-2.0,36.13,,,,,,,,,,
13.56.17.517,-147.7,36.9,0,15.0,,70146.5,14.26,-0.91,0.38,0.04,1.5,5.4,-0.6,36.13,,,,,,,,,,
13.56.17.526,-113.2,28.3,0,15.0,,74867.5,13.36,-0.91,0.38,0.04,1.5,6.0,0.3,36.13,,,,,,,,,,
13.56.17.538,-142.8,35.7,0,15.0,,72782.7,13.74,-0.91,0.39,0.05,0.9,7.1,1.4,36.13,,,,,,,,,,
13.56.17.550,-179.1,44.8,0,15.0,,72429.5,13.81,-0.92,0.39,0.04,1.3,7.0,1.5,36.13,,,,,,,,,,
13.56.17.558,-146.4,36.6,0,15.0,,74853.4,13.36,-0.92,0.38,0.04,1.6,6.5,3.0,36.13,,,,,,,,,,
13.56.17.571,11.4,2.8,1,16.0,98.3,75359.2,13.27,-0.92,0.39,0.04,1.9,6.6,3.7,36.13,,,,,,,,,,
13.56.17.583,41.0,10.2,0,16.0,,70196.3,14.25,-0.91,0.39,0.04,1.8,6.2,4.8,36.13,,,,,,,,,,
13.56.17.591,131.9,33.0,0,16.0,,75284.0,13.28,-0.92,0.4,0.04,1.3,6.5,6.1,36.13,,,,,,,,,,
13.56.17.604,214.3,53.6,0,16.0,,76049.5,13.15,-0.92,0.39,0.04,1.2,7.1,7.0,36.13,,,,,,,,,,
13.56.17.616,262.7,65.7,0,16.0,,71161.8,14.05,-0.92,0.39,0.03,1.2,7.7,8.2,36.13,,,,,,,,,,
13.56.17.625,287.5,71.9,0,16.0,,74159.0,13.48,-0.91,0.4,0.04,1.2,7.6,9.0,36.13,,,,,,,,,,
13.56.17.637,330.8,82.7,0,16.0,,72264.7,13.84,-0.92,0.39,0.04,1.9,7.9,10.7,36.13,,,,,,,,,,
13.56.17.649,359.9,90.0,0,16.0,,72648.0,13.77,-0.92,0.39,0.04,2.4,8.3,11.9,36.13,,,,,,,,,,
13.56.17.657,430.0,107.5,0,16.0,,73302.6,13.64,-0.92,0.39,0.05,3.6,8.7,12.8,36.13,,,,,,,,,,
13.56.17.669,404.6,101.2,0,16.0,,68831.8,14.53,-0.93,0.38,0.04,3.9,8.7,13.3,36.13,,,,,,,,,,
13.56.17.682,420.2,105.0,0,16.0,,68661.5,14.56,-0.93,0.39,0.05,4.9,8.8,13.9,36.13,,,,,,,,,,
13.56.17.690,399.0,99.8,0,16.0,,68936.1,14.51,-0.93,0.38,0.04,5.4,8.2,13.8,36.13,,,,,,,,,,
13.56.17.702,392.8,98.2,0,16.0,,75535.5,13.24,-0.93,0.39,0.05,4.7,7.8,13.9,36.13,,,,,,,,,,
13.56.17.714,321.2,80.3,0,16.0,,73536.9,13.6,-0.93,0.38,0.05,4.4,7.4,13.6,36.13,,,,,,,,,,
13.56.17.722,339.4,84.8,0,16.0,,71921.6,13.9,-0.93,0.38,0.05,4.6,6.8,13.9,36.13,,,,,,,,,,
13.56.17.734,248.9,62.2,0,16.0,,75915.0,13.17,-0.93,0.39,0.05,3.6,7.5,14.2,36.13,,,,,,,,,,
13.56.17.747,168.7,42.2,0,16.0,,74054.2,13.5,-0.94,0.39,0.05,3.9,6.4,15.0,36.13,,,,,,,,,,
13.56.17.755,120.1,30.0,0,16.0,,74732.2,13.38,-0.93,0.39,0.06,4.2,7.1,15.8,36.13,,,,,,,,,,
13.56.17.767,67.2,16.8,0,16.0,,76130.5,13.14,-0.93,0.39,0.06,1.5,7.2,14.4,36.13,,,,,,,,,,
13.56.17.780,-22.0,5.5,0,16.0,,66618.4,15.01,-0.93,0.37,0.04,1.7,5.9,14.6,36.13,,,,,,,,,,
13.56.17.788,44.9,11.2,0,16.0,,72261.2,13.84,-0.93,0.37,0.05,6.7,5.1,16.5,36.13,,,,,,,,,,
13.56.17.800,70.0,17.5,0,16.0,,75172.3,13.3,-0.93,0.37,0.05,8.2,6.4,17.1,36.13,,,,,,,,,,
13.56.17.813,86.1,21.5,0,16.0,,74790.2,13.37,-0.92,0.37,0.05,8.7,7.2,18.3,36.13,,,,,,,,,,
13.56.17.821,86.7,21.7,0,16.0,,70684.9,14.15,-0.92,0.37,0.05,8.7,6.7,19.6,36.13,,,,,,,,,,
13.56.17.833,64.8,16.2,0,16.0,,71792.3,13.93,-0.92,0.38,0.05,9.3,6.7,19.9,36.13,,,,,,,,,,
13.56.17.874,22.7,5.7,0,16.0,,73093.9,13.68,-0.92,0.39,0.04,8.5,8.3,16.7,36.13,,,,,,,,,,
13.56.17.882,86.5,21.6,0,16.0,,73622.9,13.58,-0.92,0.39,0.05,6.3,8.2,15.9,36.13,,,,,,,,,,
13.56.17.894,32.5,8.1,0,16.0,,73769.4,13.56,-0.92,0.4,0.05,5.7,7.7,15.0,36.13,,,,,,,,,,
13.56.17.907,-1.9,0.5,0,16.0,,72568.7,13.78,-0.92,0.4,0.06,5.0,8.0,13.5,36.13,,,,,,,,,,
13.56.17.915,-26.7,6.7,0,16.0,,71741.8,13.94,-0.92,0.41,0.06,4.8,8.3,13.6,36.13,,,,,,,,,,
13.56.17.927,15.5,3.9,0,16.0,,72104.0,13.87,-0.91,0.41,0.06,5.1,7.3,14.0,36.13,,,,,,,,,,
13.56.17.940,-21.0,5.2,0,16.0,,77793.4,12.85,-0.91,0.43,0.06,5.6,6.8,14.5,36.13,,,,,,,,,,
13.56.17.948,-38.6,9.6,0,16.0,,70757.0,14.13,-0.91,0.42,0.06,5.5,7.0,13.8,36.13,,,,,,,,,,
13.56.17.960,-28.5,7.1,0,16.0,,71808.5,13.93,-0.92,0.43,0.05,5.3,6.2,13.4,36.13,,,,,,,,,,
13.56.17.972,-17.8,4.4,0,16.0,,75067.3,13.32,-0.91,0.44,0.06,6.2,5.3,13.3,36.13,,,,,,,,,,
13.56.17.981,-48.5,12.1,0,16.0,,72458.3,13.8,-0.91,0.44,0.06,5.4,4.9,12.7,36.13,,,,,,,,,,
13.56.17.993,-53.6,13.4,0,16.0,,71965.1,13.9,-0.91,0.45,0.06,4.7,4.4,12.5,36.13,,,,,,,,,,
13.56.18.005,-78.0,19.5,0,16.0,,71469.3,13.99,-0.91,0.45,0.06,5.2,3.2,12.7,36.13,,,,,,,,,,
13.56.18.013,-67.4,16.8,0,16.0,,74931.4,13.35,-0.91,0.46,0.06,4.9,2.6,12.0,36.13,,,,,,,,,,
13.56.18.026,-65.8,16.4,0,16.0,,73788.1,13.55,-0.9,0.45,0.07,4.2,1.7,11.4,36.13,,,,,,,,,,
13.56.18.038,-83.0,20.8,0,16.0,,75353.0,13.27,-0.89,0.45,0.07,4.1,1.5,11.4,36.13,,,,,,,,,,
13.56.18.046,-127.6,31.9,0,16.0,,72027.1,13.88,-0.89,0.45,0.07,4.6,1.6,11.6,36.13,,,,,,,,,,
13.56.18.058,-118.5,29.6,0,16.0,,77066.3,12.98,-0.89,0.44,0.07,5.2,1.5,12.2,36.13,,,,,,,,,,
13.56.18.071,-122.5,30.6,0,16.0,,71841.6,13.92,-0.88,0.44,0.07,5.7,1.7,12.5,36.13,,,,,,,,,,
13.56.18.079,-119.1,29.8,0,16.0,,72376.3,13.82,-0.88,0.44,0.07,6.9,2.8,13.4,36.13,,,,,,,,,,
13.56.18.091,-134.0,33.5,0,16.0,,76731.8,13.03,-0.88,0.44,0.09,7.6,2.8,13.8,36.13,,,,,,,,,,
13.56.18.099,-164.0,41.0,0,16.0,,73059.3,13.69,-0.88,0.44,0.09,7.9,3.0,13.9,36.13,,,,,,,,,,
13.56.18.112,-146.9,36.7,0,16.0,,72746.4,13.75,-0.88,0.44,0.08,8.7,2.8,13.5,36.13,,,,,,,,,,
13.56.18.124,-155.5,38.9,0,16.0,,69368.4,14.42,-0.88,0.43,0.08,8.6,2.8,13.0,36.13,,,,,,,,,,
13.56.18.132,-156.2,39.0,0,16.0,,72513.7,13.79,-0.88,0.44,0.08,8.5,2.2,11.9,36.13,,,,,,,,,,
13.56.18.144,-187.1,46.8,0,16.0,,75802.9,13.19,-0.88,0.43,0.09,8.8,1.6,11.6,36.13,,,,,,,,,,
13.56.18.157,2.2,0.6,1,17.0,103.8,70805.1,14.12,-0.87,0.43,0.09,8.7,1.1,10.7,36.13,,,,,,,,,,
13.56.18.165,37.8,9.4,0,17.0,,67951.1,14.72,-0.88,0.44,0.07,8.9,1.2,9.4,36.13,,,,,,,,,,
13.56.18.177,155.1,38.8,0,17.0,,72875.5,13.72,-0.87,0.44,0.07,9.1,1.1,8.0,36.13,,,,,,,,,,
13.56.18.185,183.0,45.8,0,17.0,,68545.9,14.59,-0.87,0.44,0.06,9.4,1.1,7.1,36.13,,,,,,,,,,
13.56.18.198,272.2,68.0,0,17.0,,74416.9,13.44,-0.86,0.44,0.06,10.2,0.7,6.5,36.13,,,,,,,,,,
13.56.18.210,282.8,70.7,0,17.0,,74510.5,13.42,-0.86,0.44,0.06,11.1,0.4,5.9,36.13,,,,,,,,,,
13.56.18.218,361.7,90.4,0,17.0,,77538.2,12.9,-0.85,0.43,0.06,11.3,0.3,4.9,36.13,,,,,,,,,,
13.56.18.230,403.2,100.8,0,17.0,,74386.7,13.44,-0.84,0.43,0.05,11.5,0.8,4.0,36.13,106.3,,,,,,,,,
13.56.18.243,353.8,88.4,0,17.0,,74156.3,13.49,-0.83,0.43,0.05,11.6,1.2,3.5,36.13,,,,,,,,,,
13.56.18.251,376.3,94.1,0,17.0,,71180.3,14.05,-0.82,0.43,0.04,13.1,1.6,3.0,36.13,,,,,,,,,,
13.56.18.263,397.9,99.5,0,17.0,,68960.7,14.5,-0.82,0.43,0.04,13.5,2.7,1.9,36.13,,,,,,,,,,
13.56.18.275,404.5,101.1,0,17.0,,71729.8,13.94,-0.81,0.43,0.03,13.7,3.9,0.5,36.13,,,,,,,,,,
13.56.18.284,359.9,90.0,0,17.0,,74006.4,13.51,-0.82,0.44,0.03,13.9,5.0,-0.8,36.13,,,,,,,,,,
13.56.18.296,323.8,81.0,0,17.0,,75249.4,13.29,-0.82,0.44,0.03,14.0,5.9,-2.8,36.13,,,,,,,,,,
13.56.18.308,289.3,72.3,0,17.0,,73972.1,13.52,-0.82,0.45,0.03,13.9,6.5,-5.2,36.13,,,,,,,,,,
13.56.18.316,250.0,62.5,0,17.0,,73390.2,13.63,-0.83,0.45,0.02,13.7,6.7,-7.4,36.13,,,,,,,,,,
13.56.18.329,207.9,52.0,0,17.0,,75920.1,13.17,-0.84,0.47,0.02,12.9,6.7,-9.3,36.13,,,,,,,,,,
13.56.18.341,77.5,19.4,0,17.0,,72529.7,13.79,-0.84,0.47,0.01,12.1,7.0,-10.9,36.13,,,,,,,,,,
13.56.18.349,60.6,15.2,0,17.0,,75046.1,13.33,-0.84,0.48,0.0,12.5,7.4,-11.7,36.13,,,,,,,,,,
13.56.18.361,17.8,4.4,0,17.0,,71205.2,14.04,-0.86,0.48,-0.01,13.0,7.6,-12.7,36.13,,,,,,,,,,
13.56.18.374,25.2,6.3,0,17.0,,74841.2,13.36,-0.86,0.51,-0.01,12.7,7.9,-13.7,36.13,,,,,,,,,,
13.56.18.382,40.7,10.2,0,17.0,,71959.5,13.9,-0.87,0.51,0.0,12.1,8.2,-15.1,36.13,,,,,,,,,,
13.56.18.394,62.7,15.7,0,17.0,,72423.5,13.81,-0.88,0.53,0.01,10.9,7.5,-16.2,36.13,,,,,,,,,,
13.56.18.407,76.0,19.0,0,17.0,,73872.1,13.54,-0.88,0.54,-0.01,9.3,7.5,-17.0,36.13,,,,,,,,,,
13.56.18.415,60.1,15.0,0,17.0,,75214.3,13.3,-0.89,0.54,-0.01,7.5,7.0,-17.4,36.13,,,,,,,,,,
13.56.18.427,103.8,26.0,0,17.0,,74242.0,13.47,-0.89,0.54,0.0,6.6,6.9,-16.9,36.13,,,,,,,,,,
13.56.18.435,54.8,13.7,0,17.0,,74106.1,13.49,-0.89,0.55,0.0,6.8,6.2,-15.6,36.13,,,,,,,,,,
13.56.18.447,45.8,11.4,0,17.0,,72842.6,13.73,-0.89,0.54,0.01,6.7,6.5,-13.3,36.13,,,,,,,,,,
13.56.18.456,26.4,6.6,0,17.0,,73695.8,13.57,-0.88,0.53,0.01,6.0,6.5,-11.1,36.13,,,,,,,,,,
13.56.18.468,4.3,1.1,0,17.0,,70124.9,14.26,-0.88,0.52,0.0,6.7,6.6,-8.7,36.13,,,,,,,,,,
13.56.18.476,11.4,2.8,0,17.0,,74214.8,13.47,-0.87,0.52,0.02,8.4,6.0,-6.0,36.13,,,,,,,,,,
13.56.18.489,1.1,0.3,0,17.0,,73103.4,13.68,-0.87,0.52,0.02,8.1,6.2,-4.4,36.13,,,,,,,,,,
13.56.18.497,-10.2,2.6,0,17.0,,69856.5,14.32,-0.87,0.51,0.01,7.5,6.4,-4.1,36.13,,,,,,,,,,
13.56.18.509,-36.8,9.2,0,17.0,,69992.8,14.29,-0.87,0.51,0.02,6.9,6.7,-3.6,36.13,,,,,,,,,,
13.56.18.517,-17.1,4.3,0,17.0,,77155.2,12.96,-0.87,0.51,0.03,6.9,6.6,-3.6,36.13,,,,,,,,,,
13.56.18.529,-65.0,16.2,0,17.0,,74493.2,13.42,-0.86,0.5,0.02,6.6,6.9,-3.9,36.13,,,,,,,,,,
13.56.18.538,-47.2,11.8,0,17.0,,73916.6,13.53,-0.87,0.5,0.02,6.4,6.4,-4.6,36.13,,,,,,,,,,
13.56.18.550,-54.5,13.6,0,17.0,,70765.7,14.13,-0.87,0.5,0.02,6.1,5.3,-4.5,36.13,,,,,,,,,,
13.56.18.558,-59.1,14.8,0,17.0,,76548.2,13.06,-0.87,0.51,0.02,5.9,5.1,-5.5,36.13,,,,,,,,,,
13.56.18.570,-69.5,17.4,0,17.0,,70714.9,14.14,-0.88,0.51,0.02,5.9,4.9,-5.9,36.13,,,,,,,,,,
13.56.18.578,-67.2,16.8,0,17.0,,72955.4,13.71,-0.89,0.52,0.02,6.5,4.3,-6.0,36.13,,,,,,,,,,
13.56.18.591,-68.6,17.2,0,17.0,,73127.8,13.67,-0.9,0.52,0.01,5.9,3.5,-6.1,36.13,,,,,,,,,,
13.56.18.603,-80.1,20.0,0,17.0,,66776.8,14.98,-0.89,0.53,0.01,3.8,2.7,-6.7,36.13,,,,,,,,,,
13.56.18.611,-90.2,22.6,0,17.0,,72119.5,13.87,-0.89,0.54,0.02,0.8,3.8,-7.0,36.13,,,,,,,,,,
13.56.18.624,-124.2,31.0,0,17.0,,74530.9,13.42,-0.9,0.54,0.0,0.3,4.0,-6.5,36.13,,,,,,,,,,
13.56.18.632,-88.1,22.0,0,17.0,,74213.5,13.47,-0.9,0.54,0.01,0.8,2.5,-4.5,36.13,,,,,,,,,,
13.56.18.644,-117.3,29.3,0,17.0,,71988.1,13.89,-0.9,0.56,0.01,-2.8,1.4,-5.0,36.13,,,,,,,,,,
13.56.18.681,-137.0,34.2,0,17.0,,72026.8,13.88,-0.9,0.55,0.01,-7.8,2.0,-5.3,36.19,,,,,,,,,,
13.56.18.689,-121.4,30.4,0,17.0,,72394.7,13.81,-0.9,0.51,0.02,-8.2,2.5,1.2,36.19,,,,,,,,,,
13.56.18.702,,,0,17.0,,72886.3,13.72,,,,,,,36.19,,,,,,,,,,
13.56.18.718,,,0,17.0,,71786.2,13.93,,,,,,,36.19,,36.15,,,,,,,,
13.56.18.726,-172.1,43.0,0,17.0,,73656.7,13.58,-0.88,0.47,0.03,-10.1,1.3,5.5,36.19,,,,,,,,,,
13.56.18.738,40.2,10.0,1,18.0,101.0,73998.4,13.51,-0.88,0.46,0.04,-9.0,1.7,6.0,36.19,,,,,,,,,,
13.56.18.747,52.2,13.0,0,18.0,,74739.3,13.38,-0.87,0.45,0.04,-7.2,1.7,7.1,36.19,,,,,,,,,,
13.56.18.759,111.0,27.8,0,18.0,,74447.9,13.43,-0.87,0.45,0.04,-6.2,2.1,7.0,36.19,,,,,,,,,,
13.56.18.767,204.0,51.0,0,18.0,,76200.6,13.12,-0.87,0.44,0.05,-5.9,2.3,6.9,36.19,,,,,,,,,,
13.56.18.779,302.3,75.6,0,18.0,,71582.1,13.97,-0.87,0.44,0.05,-5.3,2.2,6.4,36.19,,,,,,,,,,
13.56.18.792,298.0,74.5,0,18.0,,73290.7,13.64,-0.87,0.44,0.05,-4.1,2.5,5.8,36.19,,,,,,,,,,
13.56.18.800,322.2,80.6,0,18.0,,71220.0,14.04,-0.87,0.43,0.04,-3.5,1.8,5.3,36.19,,,,,,,,,,
13.56.18.812,396.7,99.2,0,18.0,,72054.6,13.88,-0.87,0.44,0.05,-3.4,1.5,4.2,36.19,,,,,,,,,,
13.56.18.820,416.6,104.2,0,18.0,,72461.3,13.8,-0.87,0.43,0.04,-2.3,1.6,3.9,36.19,,,,,,,,,,
13.56.18.833,406.8,101.7,0,18.0,,71576.5,13.97,-0.87,0.43,0.04,-1.4,1.2,3.4,36.19,,,,,,,,,,
13.56.18.841,382.3,95.6,0,18.0,,75151.5,13.31,-0.86,0.43,0.04,-0.6,1.5,2.9,36.19,,,,,,,,,,
13.56.18.853,384.7,96.2,0,18.0,,73029.2,13.69,-0.87,0.43,0.04,0.4,1.7,2.4,36.19,,,,,,,,,,
13.56.18.861,405.6,101.4,0,18.0,,72872.6,13.72,-0.87,0.43,0.03,1.1,1.8,2.0,36.19,,,,,,,,,,
13.56.18.873,354.3,88.6,0,18.0,,74183.2,13.48,-0.87,0.43,0.03,1.7,2.1,2.1,36.19,,,,,,,,,,
13.56.18.882,311.1,77.8,0,18.0,,74056.8,13.5,-0.87,0.43,0.03,2.5,1.9,1.6,36.19,,,,,,,,,,
13.56.18.894,273.9,68.5,0,18.0,,72586.3,13.78,-0.88,0.44,0.03,3.6,1.8,1.5,36.19,,,,,,,,,,
13.56.18.902,218.3,54.6,0,18.0,,72771.9,13.74,-0.88,0.44,0.03,3.8,1.5,0.8,36.19,,,,,,,,,,
13.56.18.914,170.1,42.5,0,18.0,,78100.1,12.8,-0.88,0.44,0.02,3.6,1.4,0.0,36.19,,,,,,,,,,
13.56.18.923,103.5,25.9,0,18.0,,71715.3,13.94,-0.87,0.43,0.03,3.5,1.7,-0.4,36.19,,,,,,,,,,
13.56.18.935,7.3,1.8,0,18.0,,72191.6,13.85,-0.87,0.43,0.03,4.8,1.6,-0.2,36.19,,,,,,,,,,
13.56.18.943,25.1,6.3,0,18.0,,70683.3,14.15,-0.88,0.43,0.02,5.3,1.5,-0.6,36.19,,,,,,,,,,
13.56.18.956,47.7,11.9,0,18.0,,75175.3,13.3,-0.87,0.43,0.02,6.0,1.8,-0.8,36.19,,,,,,,,,,
13.56.18.964,20.9,5.2,0,18.0,,69909.6,14.3,-0.87,0.43,0.01,6.8,2.2,-1.0,36.19,,,,,,,,,,
13.56.18.976,44.0,11.0,0,18.0,,73541.5,13.6,-0.87,0.43,0.02,7.8,2.9,-1.5,36.19,,,,,,,,,,
13.56.18.984,74.5,18.6,0,18.0,,70212.9,14.24,-0.87,0.43,0.01,8.8,3.4,-1.9,36.19,,,,,,,,,,
13.56.18.997,86.4,21.6,0,18.0,,76950.2,13.0,-0.88,0.44,0.03,10.0,3.6,-2.2,36.19,,,,,,,,,,
13.56.19.009,81.7,20.4,0,18.0,,68475.3,14.6,-0.88,0.44,0.02,10.6,3.9,-2.6,36.19,,,,,,,,,,
13.56.19.017,68.8,17.2,0,18.0,,70944.5,14.1,-0.88,0.45,0.02,10.8,4.3,-2.9,36.19,,,,,,,,,,
13.56.19.029,56.7,14.2,0,18.0,,72292.0,13.83,-0.88,0.45,0.02,10.6,4.6,-3.5,36.19,,,,,,,,,,
13.56.19.038,33.1,8.3,0,18.0,,75604.4,13.23,-0.88,0.45,0.03,11.1,5.1,-3.4,36.19,,,,,,,,,,
13.56.19.050,54.8,13.7,0,18.0,,68774.4,14.54,-0.88,0.45,0.03,11.6,4.9,-4.1,36.19,,,,,,,,,,
13.56.19.058,6.9,1.7,0,18.0,,72623.7,13.77,-0.88,0.46,0.03,11.3,5.0,-4.6,36.19,,,,,,,,,,
13.56.19.070,-4.7,1.2,0,18.0,,70886.5,14.11,-0.89,0.46,0.04,10.3,5.3,-5.7,36.19,,,,,,,,,,
13.56.19.078,-43.8,11.0,0,18.0,,73554.4,13.6,-0.89,0.46,0.04,9.7,5.5,-6.0,36.19,,,,,,,,,,
13.56.19.091,-1.8,0.4,0,18.0,,72880.3,13.72,-0.89,0.47,0.05,8.9,5.4,-6.7,36.19,,,,,,,,,,
13.56.19.099,-2.5,0.6,0,18.0,,72551.4,13.78,-0.9,0.46,0.04,8.9,5.1,-6.5,36.19,,,,,,,,,,
13.56.19.111,-35.8,9.0,0,18.0,,72316.4,13.83,-0.9,0.47,0.05,8.0,4.8,-6.6,36.19,,,,,,,,,,
13.56.19.119,-17.1,4.3,0,18.0,,72197.6,13.85,-0.9,0.47,0.06,6.6,4.2,-7.1,36.19,,,,,,,,,,
13.56.19.132,-76.8,19.2,0,18.0,,70206.4,14.24,-0.9,0.47,0.05,6.5,4.0,-7.4,36.19,,,,,,,,,,
13.56.19.140,-45.1,11.3,0,18.0,,67566.7,14.8,-0.9,0.46,0.06,6.2,3.3,-7.1,36.19,,,,,,,,,,
13.56.19.152,-84.4,21.1,0,18.0,,71846.0,13.92,-0.9,0.46,0.06,6.4,2.7,-6.2,36.19,,,,,,,,,,
13.56.19.160,-62.2,15.6,0,18.0,,73376.8,13.63,-0.91,0.46,0.06,6.9,2.3,-6.1,36.19,,,,,,,,,,
13.56.19.173,-108.0,27.0,0,18.0,,74184.7,13.48,-0.91,0.46,0.07,7.8,1.5,-5.9,36.19,,,,,,,,,,
13.56.19.181,-54.1,13.5,0,18.0,,71333.4,14.02,-0.9,0.45,0.07,8.3,1.3,-5.7,36.19,,,,,,,,,,
13.56.19.193,-103.2,25.8,0,18.0,,74873.6,13.36,-0.91,0.46,0.06,9.3,0.7,-5.4,36.19,,,,,,,,,,
13.56.19.201,-65.9,16.5,0,18.0,,69162.9,14.46,-0.91,0.45,0.07,11.1,0.2,-4.6,36.19,,,,,,,,,,
13.56.19.213,-68.8,17.2,0,18.0,,73678.5,13.57,-0.9,0.46,0.06,11.8,-0.4,-4.3,36.19,,,,,,,,,,
13.56.19.226,-111.8,28.0,0,18.0,,75132.2,13.31,-0.91,0.46,0.06,12.4,-0.9,-4.3,36.19,,,,,,,,,,
13.56.19.238,-134.4,33.6,0,18.0,,72501.7,13.79,-0.9,0.46,0.06,12.9,-1.5,-3.8,36.19,,,,,,,,,,
13.56.19.246,-99.6,24.9,0,18.0,,72379.4,13.82,-0.9,0.46,0.06,13.4,-1.9,-3.9,36.19,,,,,,,,,,
13.56.19.259,-145.2,36.3,0,18.0,,73158.4,13.67,-0.9,0.46,0.06,13.4,-3.1,-3.4,36.19,,,,,,,,,,
13.56.19.271,-142.6,35.6,0,18.0,,71380.6,14.01,-0.9,0.46,0.05,14.0,-3.5,-3.4,36.19,,,,,,,,,,
13.56.19.279,-148.0,37.0,0,18.0,,76295.4,13.11,-0.89,0.46,0.05,14.4,-4.0,-3.2,36.19,,,,,,,,,,
13.56.19.291,-139.3,34.8,0,18.0,,71382.7,14.01,-0.89,0.46,0.05,15.0,-4.4,-3.2,36.19,,,,,,,,,,
13.56.19.304,-163.4,40.8,0,18.0,,71521.4,13.98,-0.89,0.47,0.05,15.0,-4.6,-2.6,36.19,,,,,,,,,,
13.56.19.316,-151.3,37.8,0,18.0,,74788.2,13.37,-0.88,0.46,0.04,14.9,-4.5,-2.9,36.19,,,,,,,,,,
13.56.19.324,4.4,1.1,1,19.0,98.7,73128.5,13.67,-0.88,0.47,0.04,14.4,-4.4,-2.7,36.19,,,,,,,,,,
13.56.19.336,120.9,30.2,0,19.0,,73148.0,13.67,-0.88,0.46,0.04,14.1,-4.3,-2.9,36.19,,,,,,,,,,
13.56.19.349,140.4,35.1,0,19.0,,71098.1,14.07,-0.87,0.47,0.03,14.2,-4.2,-2.8,36.19,,,,,,,,,,
13.56.19.357,224.6,56.2,0,19.0,,70477.5,14.19,-0.87,0.46,0.04,14.0,-4.5,-2.5,36.19,,,,,,,,,,
13.56.19.369,242.6,60.6,0,19.0,,72619.4,13.77,-0.86,0.46,0.02,14.3,-4.1,-2.4,36.19,,,,,,,,,,
13.56.19.382,343.3,85.8,0,19.0,,69960.7,14.29,-0.87,0.47,0.03,14.6,-3.9,-2.1,36.19,,,,,,,,,,
13.56.19.394,348.0,87.0,0,19.0,,74174.4,13.48,-0.87,0.47,0.02,15.0,-3.6,-5.0,36.13,,,,,,,,,,
13.56.19.585,42.1,10.5,0,19.0,,71636.1,13.96,-0.87,0.48,0.03,4.6,3.2,-5.0,36.13,,,,,,,,,,
13.56.19.586,37.7,9.4,0,19.0,,71024.4,14.08,-0.87,0.48,0.03,4.6,3.2,-5.0,36.13,,,,,,,,,,
13.56.19.587,71.3,17.8,0,19.0,,75954.2,13.17,-0.87,0.48,0.03,4.6,3.2,-5.0,36.13,,,,,,,,,,
13.56.19.588,70.1,17.5,0,19.0,,74318.7,13.46,-0.86,0.49,0.02,4.6,3.0,-5.2,36.13,,,,,,,,,,
13.56.19.598,57.8,14.4,0,19.0,,70420.5,14.2,-0.86,0.48,0.03,3.6,3.6,-5.3,36.13,,,,,,,,,,
13.56.19.607,36.5,9.1,0,19.0,,70274.8,14.23,-0.86,0.49,0.02,3.1,3.8,-5.8,36.13,,,,,,,,,,
13.56.19.619,42.2,10.6,0,19.0,,70321.2,14.22,-0.86,0.48,0.02,2.6,4.3,-6.1,36.13,,,,,,,,,,
13.56.19.631,43.0,10.8,0,19.0,,74572.1,13.41,-0.86,0.48,0.02,2.4,5.2,-5.9,36.13,,,,,,,,,,
13.56.19.640,18.9,4.7,0,19.0,,71420.6,14.0,-0.86,0.48,0.02,2.2,5.2,-5.5,36.13,,,,,,,,,,
13.56.19.652,18.9,4.7,0,19.0,,74530.3,13.42,-0.87,0.49,0.02,1.1,5.6,-5.4,36.13,,,,,,,,,,
13.56.19.664,-37.9,9.5,0,19.0,,70712.2,14.14,-0.86,0.48,0.02,0.5,5.6,-5.6,36.13,,,,,,,,,,
13.56.19.672,-18.7,4.7,0,19.0,,73962.0,13.52,-0.86,0.48,0.02,0.3,6.0,-5.1,36.13,,,,,,,,,,
13.56.19.685,-1.5,0.4,0,19.0,,77472.4,12.91,-0.86,0.48,0.02,0.3,5.8,-5.4,36.13,,,,,,,,,,
13.56.19.697,-48.4,12.1,0,19.0,,72562.4,13.78,-0.86,0.48,0.01,-0.2,6.6,-5.2,36.13,,,,,,,,,,
13.56.19.705,-71.2,17.8,0,19.0,,71199.9,14.04,-0.86,0.48,0.01,-0.6,7.1,-5.0,36.13,,,,,,,,,,
13.56.19.718,-40.1,10.0,0,19.0,,71427.4,14.0,-0.86,0.48,0.02,-0.6,7.5,-4.6,36.13,,,,,,,,,,
13.56.19.730,-25.2,6.3,0,19.0,,74448.1,13.43,-0.86,0.48,0.01,-1.4,8.1,-4.2,36.13,,,,,,,,,,
13.56.19.738,-53.0,13.2,0,19.0,,70624.2,14.16,-0.86,0.47,0.02,-1.5,8.6,-4.1,36.13,,,,,,,,,,
13.56.19.750,-62.8,15.7,0,19.0,,73352.9,13.63,-0.87,0.47,0.01,-1.3,8.7,-3.9,36.13,,,,,,,,,,
13.56.19.763,-93.6,23.4,0,19.0,,77530.3,12.9,-0.87,0.47,0.0,-1.0,8.9,-3.6,36.13,,,,,,,,,,
13.56.19.771,-75.1,18.8,0,19.0,,76428.8,13.08,-0.88,0.47,0.01,-1.0,9.3,-3.3,36.13,,,,,,,,,,
13.56.19.783,-87.1,21.8,0,19.0,,75053.5,13.32,-0.88,0.47,0.01,-0.5,9.8,-3.1,36.13,,,,,,,,,,
13.56.19.795,-106.3,26.6,0,19.0,,73372.2,13.63,-0.88,0.47,0.01,-0.3,10.0,-2.5,36.13,,,,,,,,,,
13.56.19.804,-84.7,21.2,0,19.0,,71492.5,13.99,-0.88,0.47,0.01,0.0,10.1,-2.0,36.13,,,,,,,,,,
13.56.19.816,-110.8,27.7,0,19.0,,72635.9,13.77,-0.89,0.48,0.01,-0.1,10.5,-1.3,36.13,,,,,,,,,,
13.56.19.828,-128.9,32.2,0,19.0,,67940.3,14.72,-0.9,0.47,0.01,0.0,10.6,-0.6,36.13,,,,,,,,,,
13.56.19.841,-135.2,33.8,0,19.0,,71040.2,14.08,-0.9,0.47,0.02,-0.2,10.9,-0.4,36.13,,,,,,,,,,
13.56.19.849,-93.5,23.4,0,19.0,,76452.7,13.08,-0.9,0.47,0.02,0.1,10.7,0.0,36.13,,,,,,,,,,
13.56.19.861,-167.7,41.9,0,19.0,,78583.3,12.73,-0.9,0.47,0.02,-0.6,10.3,1.0,36.13,,,,,,,,,,
13.56.19.873,-132.0,33.0,0,19.0,,72409.3,13.81,-0.91,0.46,0.03,-0.7,10.3,1.3,36.13,,,,,,,,,,
13.56.19.885,-150.3,37.6,0,19.0,,65696.1,15.22,-0.91,0.46,0.03,-0.9,10.4,1.9,36.13,,,,,,,,,,
13.56.19.893,-187.6,46.9,0,19.0,,72401.9,13.81,-0.91,0.46,0.03,-0.2,10.5,2.5,36.13,,,,,,,,,,
13.56.19.906,2.7,0.7,1,20.0,97.7,76125.2,13.14,-0.91,0.45,0.04,-0.5,10.3,3.1,36.13,,,,,,,,,,
13.56.19.918,93.8,23.4,0,20.0,,74892.4,13.35,-0.91,0.45,0.05,-1.2,10.0,3.1,36.13,,,,,,,,,,
13.56.19.931,137.5,34.4,0,20.0,,76078.8,13.14,-0.9,0.45,0.05,-1.6,9.9,2.9,36.13,,,,,,,,,,
13.56.19.939,223.4,55.8,0,20.0,,72648.2,13.76,-0.91,0.44,0.04,-1.3,10.0,2.7,36.13,,,,,,,,,,
13.56.19.951,269.1,67.3,0,20.0,,72961.1,13.71,-0.9,0.44,0.05,-2.0,10.0,2.8,36.13,,,,,,,,,,
13.56.19.963,307.5,76.9,0,20.0,,70975.2,14.09,-0.9,0.44,0.05,-2.0,10.4,2.0,36.13,,,,,,,,,,
13.56.19.976,375.1,93.8,0,20.0,,74106.3,13.49,-0.9,0.43,0.06,-1.7,9.8,1.4,36.13,,,,,,,,,,
13.56.19.984,418.1,104.5,0,20.0,,72244.5,13.84,-0.9,0.43,0.05,-2.3,9.6,1.2,36.13,,,,,,,,,,
13.56.19.996,430.1,107.5,0,20.0,,73340.4,13.64,-0.9,0.43,0.06,-2.4,9.4,0.7,36.13,,,,,,,,,,
13.56.20.009,413.5,103.4,0,20.0,,73663.8,13.58,-0.9,0.43,0.06,-2.5,9.3,0.4,36.13,,,,,,,,,,
13.56.20.021,384.6,96.2,0,20.0,,72123.5,13.87,-0.9,0.42,0.06,-2.4,8.8,-0.2,36.13,,,,,,,,,,
13.56.20.033,338.3,84.6,0,20.0,,76272.8,13.11,-0.89,0.42,0.06,-1.8,8.4,-0.9,36.13,,,,,,,,,,
13.56.20.041,342.5,85.6,0,20.0,,74271.8,13.46,-0.89,0.42,0.06,-0.5,8.0,-1.2,36.13,,,,,,,,,,
13.56.20.053,305.2,76.3,0,20.0,,72355.1,13.82,-0.89,0.42,0.06,0.5,7.2,-1.4,36.13,,,,,,,,,,
13.56.20.066,287.0,71.8,0,20.0,,71028.2,14.08,-0.89,0.42,0.06,1.5,7.0,-2.2,36.13,,,,,,,,,,
13.56.20.078,152.5,38.1,0,20.0,,70414.1,14.2,-0.88,0.42,0.05,1.8,6.3,-3.0,36.13,,,,,,,,,,
13.56.20.086,144.2,36.0,0,20.0,,71034.3,14.08,-0.88,0.43,0.05,2.6,6.4,-3.9,36.13,,,,,,,,,,
13.56.20.098,77.3,19.3,0,20.0,,71864.9,13.92,-0.88,0.43,0.05,3.3,6.4,-4.4,36.13,,,,,,,,,,
13.56.20.111,20.2,5.0,0,20.0,,71137.9,14.06,-0.88,0.43,0.05,3.9,6.0,-5.1,36.13,,,,,,,,,,
13.56.20.123,12.9,3.2,0,20.0,,69906.6,14.3,-0.88,0.44,0.04,4.2,6.1,-5.7,36.13,,,,,,,,,,
13.56.20.131,62.4,15.6,0,20.0,,75531.9,13.24,-0.87,0.44,0.03,4.5,6.2,-5.7,36.13,,,,,,,,,,
13.56.20.144,69.1,17.3,0,20.0,,72076.8,13.87,-0.87,0.45,0.02,4.3,6.5,-6.4,36.13,,,,,,,,,,
13.56.20.156,66.6,16.6,0,20.0,,74513.1,13.42,-0.88,0.45,0.02,4.2,6.8,-6.8,36.13,,,,,,,,,,
13.56.20.164,64.2,16.0,0,20.0,,72018.7,13.89,-0.87,0.45,0.02,3.7,7.6,-7.5,36.13,,,,,,,,,,
13.56.20.176,74.6,18.6,0,20.0,,69283.1,14.43,-0.88,0.47,0.01,3.1,7.7,-7.8,36.13,,,,,,,,,,
13.56.20.189,36.0,9.0,0,20.0,,69051.9,14.48,-0.88,0.47,0.01,2.5,8.2,-8.2,36.13,,,,,,,,,,
13.56.20.201,21.5,5.4,0,20.0,,70444.4,14.2,-0.88,0.47,0.0,2.2,8.3,-8.3,36.13,,,,,,,,,,
13.56.20.209,40.2,10.0,0,20.0,,74234.5,13.47,-0.89,0.47,0.01,1.9,8.4,-7.5,36.13,,,,,,,,,,
13.56.20.221,1.9,0.5,0,20.0,,72848.7,13.73,-0.89,0.47,0.0,1.8,8.2,-6.9,36.13,,,,,,,,,,
13.56.20.234,-12.6,3.2,0,20.0,,74840.3,13.36,-0.89,0.48,0.01,1.3,8.1,-6.3,36.13,,,,,,,,,,
13.56.20.242,4.9,1.2,0,20.0,,72595.8,13.77,-0.89,0.48,0.0,1.1,8.3,-5.7,36.13,,,,,,,,,,
13.56.20.254,-17.5,4.4,0,20.0,,71683.9,13.95,-0.89,0.48,0.0,1.3,8.2,-4.6,36.13,,,,,,,,,,
13.56.20.295,-22.3,5.6,0,20.0,,74615.1,13.4,-0.89,0.47,0.0,3.0,8.6,-0.5,36.13,,,,,,,,,,
13.56.20.307,-79.6,19.9,0,20.0,,74278.3,13.46,-0.89,0.47,0.0,3.3,8.9,0.6,36.13,,,,,,,,,,
13.56.20.316,-28.3,7.1,0,20.0,,73432.9,13.62,-0.89,0.47,0.0,2.9,9.1,1.9,36.13,,,,,,,,,,
13.56.20.328,-52.6,13.2,0,20.0,,74526.0,13.42,-0.89,0.48,0.01,2.5,9.0,2.4,36.13,,,,,,,,,,
13.56.20.340,-60.6,15.2,0,20.0,,70359.4,14.21,-0.89,0.47,0.01,1.9,9.4,3.0,36.13,,,,,,,,,,
13.56.20.348,-99.0,24.8,0,20.0,,72293.3,13.83,-0.89,0.46,0.01,1.0,9.4,3.0,36.13,,,,,,,,,,
13.56.20.360,-99.2,24.8,0,20.0,,75009.8,13.33,-0.89,0.46,0.02,0.3,9.7,3.3,36.13,,,,,,,,,,
13.56.20.373,-103.1,25.8,0,20.0,,72812.2,13.73,-0.89,0.45,0.02,0.4,9.5,3.3,36.13,,,,,,,,,,
13.56.20.381,-144.9,36.2,0,20.0,,75280.9,13.28,-0.89,0.45,0.03,-0.1,9.6,3.4,36.13,,,,,,,,,,
13.56.20.393,-124.8,31.2,0,20.0,,74649.4,13.4,-0.89,0.44,0.02,-0.2,9.5,3.4,36.13,,,,,,,,,,
13.56.20.406,-121.5,30.4,0,20.0,,75514.4,13.24,-0.89,0.44,0.02,0.2,9.0,3.6,36.13,,,,,,,,,,
13.56.20.414,-144.0,36.0,0,20.0,,76449.4,13.08,-0.9,0.44,0.02,1.1,8.9,4.1,36.13,,,,,,,,,,
13.56.20.426,-133.2,33.3,0,20.0,,71271.4,14.03,-0.9,0.44,0.03,1.5,8.7,3.9,36.13,,,,,,,,,,
13.56.20.439,-155.2,38.8,0,20.0,,78654.6,12.71,-0.9,0.43,0.03,1.9,8.3,3.7,36.13,,,,,,,,,,
13.56.20.446,-106.7,26.7,0,20.0,,73001.3,13.7,-0.9,0.43,0.03,2.5,7.6,4.1,36.13,,,,,,,,,,
13.56.20.459,-153.5,38.4,0,20.0,,73581.7,13.59,-0.9,0.43,0.02,3.3,7.5,4.1,36.13,,,,,,,,,,
13.56.20.471,-143.0,35.8,0,20.0,,75771.7,13.2,-0.9,0.42,0.02,4.1,7.1,4.3,36.13,,,,,,,,,,
13.56.20.479,-127.9,32.0,0,20.0,,73420.5,13.62,-0.9,0.42,0.01,5.3,6.7,4.5,36.13,,,,,,,,,,
13.56.20.492,78.2,19.6,1,21.0,104.3,73881.0,13.54,-0.9,0.42,0.01,6.3,7.2,4.4,36.13,,,,,,,,,,
13.56.20.504,115.8,29.0,0,21.0,,75774.9,13.2,-0.9,0.42,0.01,7.4,7.2,4.2,36.13,,,,,,,,,,
13.56.20.516,192.3,48.1,0,21.0,,69045.4,14.48,-0.9,0.42,0.01,8.4,7.4,4.3,36.13,,,,,,,,,,
13.56.20.525,253.0,63.2,0,21.0,,74998.8,13.33,-0.9,0.42,0.01,8.7,7.6,4.2,36.13,,,,,,,,,,
13.56.20.537,307.8,77.0,0,21.0,,72634.9,13.77,-0.89,0.42,0.01,8.4,7.6,4.0,36.13,,,,,,,,,,
13.56.20.549,326.9,81.7,0,21.0,,73642.2,13.58,-0.9,0.42,0.01,7.9,7.8,3.7,36.13,,,,,,,,,,
13.56.20.557,341.8,85.4,0,21.0,,75019.3,13.33,-0.89,0.42,0.01,7.6,8.2,3.1,36.13,,,,,,,,,,
13.56.20.570,406.1,101.5,0,21.0,,69625.2,14.36,-0.89,0.41,0.01,7.1,8.7,2.5,36.13,,,,,,,,,,
13.56.20.582,460.9,115.2,0,21.0,,68307.9,14.64,-0.89,0.41,0.02,6.6,9.0,1.7,36.13,,,,,,,,,,
13.56.20.590,406.9,101.7,0,21.0,,77054.1,12.98,-0.89,0.41,0.02,6.2,8.9,1.0,36.13,,,,,,,,,,
13.56.20.602,395.7,98.9,0,21.0,,74382.3,13.44,-0.89,0.41,0.02,5.8,8.7,0.4,36.13,,,,,,,,,,
13.56.20.615,356.4,89.1,0,21.0,,68990.4,14.49,-0.88,0.41,0.02,5.3,8.8,-0.5,36.13,,,,,,,,,,
13.56.20.623,326.9,81.7,0,21.0,,78135.5,12.8,-0.88,0.41,0.02,4.9,8.7,-1.4,36.13,,,,,,,,,,
13.56.20.635,293.9,73.5,0,21.0,,72753.5,13.75,-0.88,0.41,0.01,4.9,8.4,-2.5,36.13,,,,,,,,,,
13.56.20.647,227.1,56.8,0,21.0,,73330.9,13.64,-0.88,0.41,0.02,4.8,8.5,-3.4,36.13,,,,,,,,,,
13.56.20.655,189.8,47.4,0,21.0,,74917.3,13.35,-0.88,0.41,0.02,5.1,8.5,-4.5,36.13,,,,,,,,,,
13.56.20.668,145.6,36.4,0,21.0,,73580.0,13.59,-0.88,0.42,0.02,5.4,8.1,-5.4,36.13,,,,,,,,,,
13.56.20.680,39.3,9.8,0,21.0,,68448.8,14.61,-0.89,0.42,0.02,5.7,8.2,-6.2,36.13,,,,,,,,,,
13.56.20.688,-3.7,0.9,0,21.0,,67799.1,14.75,-0.89,0.42,0.01,7.2,7.4,-6.3,36.13,,,,,,,,,,
13.56.20.701,49.7,12.4,0,21.0,,79187.9,12.63,-0.89,0.42,0.01,8.7,7.4,-5.9,36.13,,,,,,,,,,
13.56.20.713,38.6,9.6,0,21.0,,75228.8,13.29,-0.89,0.43,0.0,10.5,7.3,-5.6,36.13,,,,,,,,,,
13.56.20.725,56.3,14.1,0,21.0,,73658.7,13.58,-0.89,0.43,0.0,11.0,6.8,-5.4,36.13,,,,,,,,,,
13.56.20.733,58.5,14.6,0,21.0,,70996.6,14.09,-0.89,0.44,0.0,11.3,6.6,-5.6,36.13,,,,,,,,,,
13.56.20.746,45.6,11.4,0,21.0,,73042.9,13.69,-0.89,0.45,-0.01,11.4,7.0,-5.0,36.13,,,,,,,,,,
13.56.20.758,83.7,20.9,0,21.0,,69969.1,14.29,-0.89,0.46,-0.02,11.4,6.9,-5.2,36.13,,,,,,,,,,
13.56.20.770,49.6,12.4,0,21.0,,74719.7,13.38,-0.89,0.45,-0.02,10.5,7.5,-5.1,36.13,,,,,,,,,,
13.56.20.783,44.8,11.2,0,21.0,,70679.1,14.15,-0.9,0.46,-0.02,10.1,8.1,-5.9,36.13,,,,,,,,,,
13.56.20.791,50.2,12.6,0,21.0,,71471.2,13.99,-0.89,0.47,-0.03,9.3,8.6,-5.8,36.13,,,,,,,,,,
13.56.20.803,-31.8,8.0,0,21.0,,76531.0,13.07,-0.9,0.46,-0.02,9.5,8.4,-6.1,36.13,,,,,,,,,,
13.56.20.811,-5.4,1.4,0,21.0,,71925.6,13.9,-0.89,0.47,-0.02,8.3,8.6,-5.9,36.13,,,,,,,,,,
13.56.20.823,-12.2,3.0,0,21.0,,73445.6,13.62,-0.9,0.47,-0.02,7.0,9.0,-6.0,36.13,,,,,,,,,,
13.56.20.832,-7.6,1.9,0,21.0,,71349.8,14.02,-0.9,0.47,-0.02,5.7,9.1,-5.6,36.13,,,,,,,,,,
13.56.20.844,-2.9,0.7,0,21.0,,72290.8,13.83,-0.9,0.47,-0.02,4.6,9.0,-5.3,36.13,,,,,,,,,,
13.56.20.852,6.5,1.6,0,21.0,,70719.5,14.14,-0.9,0.47,-0.02,4.0,9.2,-5.0,36.13,,,,,,,,,,
13.56.20.865,-17.2,4.3,0,21.0,,78418.8,12.75,-0.9,0.47,-0.02,3.1,9.1,-4.6,36.13,,,,,,,,,,
13.56.20.873,-37.9,9.5,0,21.0,,70459.3,14.19,-0.9,0.46,-0.02,2.5,9.5,-4.1,36.13,,,,,,,,,,
13.56.20.885,-36.5,9.1,0,21.0,,73937.9,13.52,-0.9,0.46,-0.03,2.3,9.8,-3.8,36.13,,,,,,,,,,
13.56.20.893,-65.5,16.4,0,21.0,,74428.7,13.44,-0.9,0.47,-0.02,1.8,10.2,-3.5,36.13,,,,,,,,,,
13.56.20.906,-70.6,17.6,0,21.0,,73737.7,13.56,-0.9,0.46,-0.01,1.6,10.1,-3.0,36.13,,,,,,,,,,
13.56.20.918,-72.5,18.1,0,21.0,,72589.8,13.78,-0.9,0.46,-0.01,1.0,10.1,-2.7,36.13,,,,,,,,,,
13.56.20.926,-79.9,20.0,0,21.0,,73055.0,13.69,-0.9,0.46,-0.01,0.5,10.0,-2.1,36.13,,,,,,,,,,
13.56.20.938,-88.1,22.0,0,21.0,,74441.4,13.43,-0.9,0.45,-0.01,0.4,9.4,-1.8,36.13,,,,,,,,,,
13.56.20.947,-83.0,20.8,0,21.0,,69525.2,14.38,-0.9,0.45,-0.02,0.2,9.2,-1.8,36.13,,,,,,,,,,
13.56.20.959,-87.7,21.9,0,21.0,,69558.9,14.38,-0.9,0.45,-0.01,0.4,8.8,-2.1,36.13,,,,,,,,,,
13.56.20.967,-91.5,22.9,0,21.0,,71480.4,13.99,-0.9,0.45,-0.01,0.3,8.9,-1.7,36.13,,,,,,,,,,
13.56.20.979,-107.7,26.9,0,21.0,,72014.5,13.89,-0.91,0.45,-0.01,0.3,8.9,-1.4,36.13,,,,,,,,,,
13.56.20.987,-129.9,32.5,0,21.0,,71571.6,13.97,-0.91,0.46,-0.01,0.2,8.7,-1.4,36.13,,,,,,,,,,
13.56.21.000,-65.2,16.3,0,21.0,,72810.9,13.73,-0.9,0.46,-0.01,0.0,8.7,-1.4,36.13,,,,,,,,,,
13.56.21.008,-123.3,30.8,0,21.0,,72186.2,13.85,-0.9,0.46,-0.02,0.1,8.5,-0.9,36.13,,,,,,,,,,
13.56.21.020,-139.3,34.8,0,21.0,,72125.9,13.86,-0.9,0.46,-0.02,0.5,9.0,-0.4,36.13,,,,,,,,,,
13.56.21.033,-132.9,33.2,0,21.0,,71318.5,14.02,-0.9,0.46,-0.02,1.0,8.4,0.5,36.13,,,,,,,,,,
13.56.21.041,-171.0,42.8,0,21.0,,73270.5,13.65,-0.91,0.46,-0.01,1.1,8.7,0.7,36.13,,,,,,,,,,
13.56.21.053,-185.8,46.4,0,21.0,,73042.3,13.69,-0.91,0.46,-0.01,1.2,8.1,1.1,36.13,,,,,,,,,,
13.56.21.061,-139.8,35.0,0,21.0,,74821.5,13.37,-0.91,0.46,-0.02,0.7,8.1,1.4,36.13,,,,,,,,,,
13.56.21.098,228.3,57.1,1,22.0,106.6,71191.0,14.05,-0.91,0.47,-0.01,0.3,7.8,1.5,36.13,,,,,,,,,,
13.56.21.110,252.8,63.2,0,22.0,,72390.1,13.81,-0.91,0.46,-0.01,-1.4,6.3,1.7,36.13,,,,,,,,,,
13.56.21.118,268.3,67.1,0,22.0,,69025.3,14.49,-0.9,0.47,-0.02,-1.4,6.2,1.9,36.13,,,,,,,,,,
13.56.21.131,352.4,88.1,0,22.0,,75641.9,13.22,-0.9,0.47,-0.02,-1.8,5.8,1.7,36.13,,,,,,,,,,
13.56.21.139,377.9,94.5,0,22.0,,74584.7,13.41,-0.9,0.47,-0.02,-2.3,5.6,1.9,36.13,,,,,,,,,,
13.56.21.151,438.0,109.5,0,22.0,,76454.4,13.08,-0.9,0.47,-0.02,-2.8,5.6,2.4,36.13,,,,,,,,,,
13.56.21.159,391.2,97.8,0,22.0,,74593.5,13.41,-0.9,0.47,-0.02,-2.9,5.1,2.7,36.13,,,,,,,,,,
13.56.21.172,439.0,109.8,0,22.0,,73576.7,13.59,-0.9,0.47,-0.02,-2.9,5.1,3.2,36.13,,,,,,,,,,
13.56.21.184,457.9,114.5,0,22.0,,73595.1,13.59,-0.89,0.47,-0.02,-2.8,4.7,3.6,36.13,,,,,,,,,,
13.56.21.192,426.7,106.7,0,22.0,,74901.5,13.35,-0.89,0.46,-0.02,-3.6,4.5,3.0,36.13,,,,,,,,,,
13.56.21.205,382.9,95.7,0,22.0,,71658.5,13.96,-0.89,0.46,-0.03,-3.6,4.3,3.0,36.13,,,,,,,,,,
13.56.21.213,315.8,79.0,0,22.0,,74044.4,13.51,-0.89,0.46,-0.03,-3.4,4.3,2.9,36.13,,,,,,,,,,
13.56.21.225,245.2,61.3,0,22.0,,75271.9,13.29,-0.89,0.46,-0.02,-3.3,4.3,3.0,36.13,,,,,,,,,,
13.56.21.233,238.3,59.6,0,22.0,,72073.9,13.87,-0.89,0.46,-0.02,-3.5,4.2,2.9,36.13,,,,,,,,,,
13.56.21.246,168.4,42.1,0,22.0,,72124.8,13.86,-0.89,0.46,-0.03,-3.5,3.9,3.0,36.13,,,,,,,,,,
13.56.21.254,116.7,29.2,0,22.0,,67795.6,14.75,-0.89,0.46,-0.02,-3.4,3.4,3.2,36.13,,,,,,,,,,
13.56.21.266,25.4,6.4,0,22.0,,74028.4,13.51,-0.89,0.46,-0.03,-3.3,3.1,3.1,36.13,,,,,,,,,,
13.56.21.274,9.7,2.4,0,22.0,,76498.9,13.07,-0.89,0.46,-0.03,-2.7,2.5,2.8,36.13,,,,,,,,,,
13.56.21.287,57.2,14.3,0,22.0,,73314.6,13.64,-0.89,0.46,-0.04,-2.4,1.7,2.8,36.13,,,,,,,,,,
13.56.21.295,20.4,5.1,0,22.0,,72744.6,13.75,-0.89,0.46,-0.04,-2.3,1.7,2.6,36.13,,,,,,,,,,
13.56.21.307,41.5,10.4,0,22.0,,70479.3,14.19,-0.88,0.46,-0.04,-1.9,1.8,3.0,36.13,,,,,,,,,,
13.56.21.319,73.8,18.4,0,22.0,,75636.2,13.22,-0.88,0.46,-0.04,-1.5,1.7,3.4,36.13,,,,,,,,,,
13.56.21.328,62.9,15.7,0,22.0,,75379.5,13.27,-0.88,0.47,-0.04,-1.2,2.3,3.3,36.13,,,,,,,,,,
13.56.21.340,78.1,19.5,0,22.0,,75963.3,13.16,-0.88,0.47,-0.04,-1.1,2.5,3.1,36.13,,,,,,,,,,
13.56.21.348,65.1,16.3,0,22.0,,75482.0,13.25,-0.88,0.47,-0.04,-1.2,2.9,3.2,36.13,,,,,,,,,,
13.56.21.360,59.1,14.8,0,22.0,,74842.9,13.36,-0.88,0.47,-0.04,-1.3,3.4,3.1,36.13,,,,,,,,,,
13.56.21.369,44.1,11.0,0,22.0,,70456.2,14.19,-0.88,0.48,-0.04,-1.6,3.6,2.9,36.13,,,,,,,,,,
13.56.21.381,24.8,6.2,0,22.0,,69755.1,14.34,-0.88,0.47,-0.05,-1.9,3.1,3.3,36.13,,,,,,,,,,
13.56.21.389,-20.9,5.2,0,22.0,,73311.1,13.64,-0.88,0.47,-0.03,-1.7,2.8,3.4,36.13,,,,,,,,,,
13.56.21.401,-2.2,0.6,0,22.0,,73393.4,13.63,-0.88,0.47,-0.03,-2.1,2.6,3.8,36.13,,,,,,,,,,
13.56.21.410,-42.5,10.6,0,22.0,,68007.4,14.7,-0.87,0.47,-0.03,-2.2,2.7,3.5,36.13,,,,,,,,,,
13.56.21.422,-41.9,10.5,0,22.0,,74641.1,13.4,-0.88,0.47,-0.03,-2.0,2.3,3.7,36.13,,,,,,,,,,
13.56.21.430,-17.9,4.5,0,22.0,,76809.4,13.02,-0.87,0.47,-0.03,-1.9,2.1,3.7,36.13,,,,,,,,,,
13.56.21.442,-31.2,7.8,0,22.0,,75648.4,13.22,-0.87,0.46,-0.03,,,,36.13,,,,,,,,,,
13.56.21.632,-117.3,29.3,0,22.0,,74316.4,13.46,-0.88,0.5,-0.04,4.7,4.6,3.7,36.13,,,,,,,,,,
13.56.21.633,-167.9,42.0,0,22.0,,71367.6,14.01,-0.88,0.5,-0.04,4.7,0.6,4.1,36.13,,,,,,,,,,
13.56.21.639,-169.4,42.4,0,22.0,,70631.1,14.16,-0.88,0.5,-0.03,4.9,-0.2,4.6,36.13,,,,,,,,,,
13.56.21.651,18.5,4.6,1,23.0,98.7,72822.5,13.73,-0.88,0.5,-0.03,5.3,-0.2,5.3,36.13,,,,,,,,,,
13.56.21.659,99.5,24.9,0,23.0,,76172.8,13.13,-0.88,0.5,-0.03,6.5,-0.4,6.1,36.13,,,,,,,,,,
13.56.21.672,177.4,44.4,0,23.0,,75396.1,13.26,-0.89,0.5,-0.02,9.0,-0.8,7.2,36.13,,,,,,,,,,
13.56.21.684,214.9,53.7,0,23.0,,68849.7,14.52,-0.89,0.5,-0.01,12.2,-1.7,8.4,36.13,,,,,,,,,,
13.56.21.696,306.5,76.6,0,23.0,,71199.7,14.04,-0.88,0.51,-0.01,13.8,-1.5,10.1,36.13,,,,,,,,,,
13.56.21.704,351.7,87.9,0,23.0,,67278.3,14.86,-0.88,0.51,-0.02,16.9,-2.3,12.8,36.13,,,,,,,,,,
13.56.21.717,388.3,97.1,0,23.0,,70239.2,14.24,-0.89,0.52,0.0,20.2,-2.5,15.8,36.13,,,,,,,,,,
13.56.21.729,366.9,91.7,0,23.0,,72190.0,13.85,-0.9,0.52,0.01,23.0,-3.1,17.6,36.13,,,,,,,,,,
13.56.21.741,429.5,107.4,0,23.0,,70711.6,14.14,-0.9,0.51,0.01,25.9,-4.1,19.4,36.13,,,,,,,,,,
13.56.21.749,406.9,101.7,0,23.0,,73977.7,13.52,-0.89,0.52,0.02,29.8,-6.7,22.0,36.13,,,,,,,,,,
13.56.21.762,377.6,94.4,0,23.0,,73950.3,13.52,-0.89,0.52,0.02,34.1,-9.0,24.1,36.13,,,,,,,,,,
13.56.21.774,402.0,100.5,0,23.0,,73733.3,13.56,-0.88,0.52,0.01,38.4,-9.3,25.8,36.13,,,,,,,,,,
13.56.21.786,335.1,83.8,0,23.0,,76483.5,13.07,-0.87,0.52,0.01,43.0,-10.3,27.7,36.13,,,,,,,,,,
13.56.21.799,341.5,85.4,0,23.0,,73902.8,13.53,-0.86,0.52,0.0,46.6,-11.3,29.9,36.13,,,,,,,,,,
13.56.21.807,260.9,65.2,0,23.0,,72749.0,13.75,-0.85,0.52,-0.01,49.6,-11.4,31.2,36.13,,,,,,,,,,
13.56.21.819,188.0,47.0,0,23.0,,72683.7,13.76,-0.84,0.52,-0.02,53.5,-11.4,33.3,36.13,,,,,,,,,,
13.56.21.827,123.5,30.9,0,23.0,,74406.4,13.44,-0.84,0.53,-0.02,57.5,-11.3,34.7,36.13,,,,,,,,,,
13.56.21.839,79.5,19.9,0,23.0,,74002.8,13.51,-0.83,0.53,-0.04,60.5,-10.7,36.0,36.13,,,,,,,,,,
13.56.21.852,-3.5,0.9,0,23.0,,75507.6,13.24,-0.84,0.49,-0.03,66.0,-11.0,39.5,36.13,,,,,,,,,,
13.56.21.860,36.1,9.0,0,23.0,,68560.7,14.59,-0.83,0.5,-0.05,67.7,-9.3,41.5,36.13,,,,,,,,,,
13.56.21.872,5.1,1.3,0,23.0,,76214.0,13.12,-0.82,0.5,-0.05,74.4,-8.5,42.5,36.13,,,,,,,,,,
13.56.21.909,92.5,23.1,0,23.0,,69849.6,14.32,-0.82,0.5,-0.09,81.9,-8.6,42.9,36.13,,,,,,,,,,
13.56.21.918,94.6,23.6,0,23.0,,73945.7,13.52,-0.82,0.58,-0.11,177.3,-15.5,50.8,36.13,,,,,,,,,,
13.56.21.930,93.8,23.4,0,23.0,,74791.6,13.37,-0.78,0.56,-0.19,153.0,-5.9,54.9,36.13,,,,,,,,,,
13.56.21.942,47.2,11.8,0,23.0,,74158.5,13.48,-0.79,0.62,-0.18,142.7,-4.7,35.5,36.13,,,,,,,,,,
13.56.21.950,16.6,4.2,0,23.0,,73463.6,13.61,-0.68,0.63,-0.2,124.8,9.6,42.4,36.13,,,,,,,,,,
13.56.21.963,-8.2,2.0,0,23.0,,73782.0,13.55,-0.74,0.62,-0.19,131.6,21.8,63.7,36.13,,,,,,,,,,
13.56.21.971,-5.4,1.4,0,23.0,,71206.9,14.04,-0.81,0.64,-0.17,148.8,21.4,76.3,36.13,,,,,,,,,,
13.56.21.983,-24.2,6.0,0,23.0,,73425.7,13.62,-0.82,0.7,-0.15,135.8,18.5,74.2,36.13,,,,,,,,,,
13.56.21.995,5.3,1.3,0,23.0,,74300.0,13.46,-0.85,0.89,-0.08,92.8,6.1,61.3,36.13,,,,,,,,,,
13.56.22.003,-22.2,5.6,0,23.0,,74612.0,13.4,-0.75,0.79,-0.21,44.6,-11.5,51.6,36.13,,,,,,,,,,
13.56.22.016,-30.3,7.6,0,23.0,,73511.1,13.6,-0.74,0.63,-0.24,7.4,-20.6,39.2,36.13,,,,,,,,,,
13.56.22.024,-59.3,14.8,0,23.0,,75222.5,13.29,-0.66,0.46,-0.31,-14.0,-21.1,13.5,36.13,,,,,,,,,,
13.56.22.036,-42.0,10.5,0,23.0,,75456.7,13.25,-0.66,0.39,-0.42,-33.1,-23.6,-25.7,36.13,,,,,,,,,,
13.56.22.048,-27.9,7.0,0,23.0,,74415.9,13.44,-0.65,0.5,-0.55,1.0,-99.0,-56.3,36.13,,,,,,,,,,
13.56.22.057,-32.7,8.2,0,23.0,,73919.0,13.53,-0.63,0.77,-0.15,-10.4,30.7,-48.6,36.13,,,,,,,,,,
13.56.22.069,-81.2,20.3,0,23.0,,70075.7,14.27,-0.87,0.79,-0.12,-24.7,77.1,12.5,36.13,,,,,,,,,,
13.56.22.081,-84.1,21.0,0,23.0,,70341.8,14.22,-0.87,0.73,-0.16,9.3,41.8,33.3,36.13,,,,,,,,,,
13.56.22.094,-33.3,8.3,0,23.0,,76206.1,13.12,-0.82,0.67,-0.2,36.6,10.6,40.7,36.13,,,,,,,,,,
13.56.22.102,-81.0,20.2,0,23.0,,73217.6,13.66,-0.83,1.03,-0.09,122.4,-45.3,84.9,36.13,,,,,,,,,,
13.56.22.114,-74.4,18.6,0,23.0,,75085.7,13.32,-0.79,0.47,-0.16,127.2,-21.3,58.7,36.13,,,,,,,,,,
13.56.22.126,-91.7,22.9,0,23.0,,76742.7,13.03,-0.63,0.52,-0.28,95.6,-14.1,32.3,36.13,,,,,,,,,,
13.56.22.135,-122.7,30.7,0,23.0,,72722.3,13.75,-0.69,0.55,-0.21,129.0,-15.2,22.3,36.13,,,,,,,,,,
13.56.22.147,-118.1,29.5,0,23.0,,75893.3,13.18,-0.61,0.58,-0.25,164.8,-15.6,24.8,36.13,,,,,,,,,,
13.56.22.155,-144.9,36.2,0,23.0,,72355.4,13.82,-0.57,0.61,-0.27,147.7,2.3,33.5,36.13,,,,,,,,,,
13.56.22.167,-127.7,31.9,0,23.0,,70046.3,14.28,-0.59,0.6,-0.23,142.1,10.3,31.1,36.13,,,,,,,,,,
13.56.22.180,-149.0,37.2,0,23.0,,74329.9,13.45,-0.62,0.52,-0.25,158.0,16.9,33.4,36.13,,,,,,,,,,
13.56.22.188,-142.7,35.7,0,23.0,,75878.9,13.18,-0.69,0.55,-0.2,165.4,26.4,31.3,36.13,,,,,,,,,,
13.56.22.200,-181.0,45.2,0,23.0,,76225.6,13.12,-0.67,0.6,-0.29,173.3,19.3,28.8,36.13,,,,,,,,,,
13.56.22.208,-127.4,31.8,0,23.0,,73393.8,13.63,-0.67,0.6,-0.35,190.7,-25.8,18.1,36.13,,,,,,,,,,
13.56.22.220,-147.2,36.8,0,23.0,,72080.7,13.87,-0.73,0.62,-0.2,184.0,-54.9,8.4,36.13,,,,,,,,,,
13.56.22.229,-162.5,40.6,0,23.0,,70888.9,14.11,-0.66,0.62,-0.34,166.6,-16.8,-2.7,36.13,,,,,,,,,,
13.56.22.241,69.4,17.4,1,24.0,101.1,70975.2,14.09,-0.67,0.64,-0.39,176.7,-8.0,14.3,36.13,,,,,,,,,,
13.56.22.249,96.0,24.0,0,24.0,,73715.1,13.57,-0.67,0.66,-0.41,179.3,19.8,19.2,36.13,,,,,,,,,,
13.56.22.262,217.6,54.4,0,24.0,,79644.6,12.56,-0.55,0.66,-0.52,170.2,32.8,25.3,36.13,,,,,,,,,,
13.56.22.274,239.1,59.8,0,24.0,,74163.6,13.48,-0.62,0.61,-0.64,163.6,51.9,26.6,36.13,,,,,,,,,,
13.56.22.282,323.8,81.0,0,24.0,,73824.4,13.55,-0.72,0.66,-0.5,136.2,47.8,34.0,36.13,,,,,,,,,,
13.56.22.294,298.7,74.7,0,24.0,,74303.6,13.46,-0.67,0.76,-0.59,119.5,44.8,40.5,36.13,,,,,,,,,,
13.56.22.302,355.4,88.8,0,24.0,,72580.4,13.78,-0.71,0.68,-0.64,96.3,39.7,37.3,36.13,,,,,,,,,,
13.56.22.315,362.1,90.5,0,24.0,,74857.0,13.36,-0.7,0.63,-0.65,80.7,23.5,30.7,36.13,,,,,,,,,,
13.56.22.323,413.6,103.4,0,24.0,,72402.5,13.81,-0.71,0.57,-0.57,62.9,33.4,22.1,36.13,,,,,,,,,,
13.56.22.335,431.0,107.8,0,24.0,,76464.4,13.08,-0.62,0.63,-0.64,47.5,41.7,20.7,36.13,,,,,,,,,,
13.56.22.347,461.6,115.4,0,24.0,,71749.6,13.94,-0.62,0.6,-0.66,43.1,41.7,17.3,36.13,,,,,,,,,,
13.56.22.356,388.3,97.1,0,24.0,,72004.0,13.89,-0.6,0.6,-0.68,37.0,40.6,15.8,36.13,,,,,,,,,,
13.56.22.368,364.9,91.2,0,24.0,,73667.3,13.57,-0.57,0.6,-0.68,31.3,41.8,14.2,36.13,,,,,,,,,,
13.56.22.376,348.4,87.1,0,24.0,,72729.2,13.75,-0.55,0.57,-0.71,37.6,44.2,16.9,36.13,,,,,,,,,,
13.56.22.389,274.0,68.5,0,24.0,,75042.2,13.33,-0.56,0.58,-0.69,44.9,47.6,20.9,36.13,,,,,,,,,,
13.56.22.397,223.3,55.8,0,24.0,,74612.9,13.4,-0.57,0.58,-0.69,44.7,49.2,21.7,36.13,,,,,,,,,,
13.56.22.409,135.2,33.8,0,24.0,,73279.6,13.65,-0.59,0.55,-0.7,47.7,43.8,18.1,36.13,,,,,,,,,,
13.56.22.418,96.1,24.0,0,24.0,,73342.7,13.63,-0.57,0.54,-0.71,51.7,37.0,14.0,36.13,,,,,,,,,,
13.56.22.429,43.7,10.9,0,24.0,,72804.6,13.74,-0.54,0.52,-0.72,65.0,24.5,15.6,36.13,,,,,,,,,,
13.56.22.442,22.6,5.6,0,24.0,,73191.0,13.66,-0.54,0.49,-0.72,75.0,20.5,13.7,36.13,,,,,,,,,,
13.56.22.450,4.2,1.0,0,24.0,,68857.2,14.52,-0.54,0.47,-0.74,80.3,8.0,12.1,36.13,,,,,,,,,,
13.56.22.462,51.6,12.9,0,24.0,,69005.3,14.49,-0.54,0.46,-0.75,91.1,-7.3,8.7,36.13,,,,,,,,,,
13.56.22.470,11.3,2.8,0,24.0,,68441.7,14.61,-0.54,0.41,-0.75,98.7,-5.2,6.9,36.13,,,,,,,,,,
13.56.22.483,99.0,24.8,0,24.0,,73851.6,13.54,-0.54,0.42,-0.8,103.7,1.1,4.5,36.13,,,,,,,,,,
13.56.22.491,56.1,14.0,0,24.0,,74899.5,13.35,-0.53,0.42,-0.78,109.8,-2.0,-0.3,36.13,,,,,,,,,,
13.56.22.503,69.4,17.4,0,24.0,,70979.9,14.09,-0.53,0.42,-0.73,97.7,3.1,-3.7,36.13,,,,,,,,,,
13.56.22.511,37.7,9.4,0,24.0,,73777.2,13.55,-0.56,0.39,-0.69,74.8,18.7,-6.6,36.13,,,,,,,,,,
13.56.22.524,20.6,5.2,0,24.0,,76421.9,13.09,-0.56,0.38,-0.71,60.8,20.6,-9.4,36.13,,,,,,,,,,
13.56.22.532,5.0,1.2,0,24.0,,74547.8,13.41,-0.58,0.36,-0.69,46.3,22.3,-11.5,36.13,,,,,,,,,,
13.56.22.545,8.1,2.0,0,24.0,,71557.2,13.97,-0.6,0.36,-0.66,32.3,30.6,-12.9,36.13,,,,,,,,,,
13.56.22.557,34.8,8.7,0,24.0,,69258.5,14.44,-0.6,0.34,-0.63,17.1,30.3,-18.1,36.13,,,,,,,,,,
13.56.22.565,-16.1,4.0,0,24.0,,73254.6,13.65,-0.6,0.4,-0.62,11.8,24.5,-16.0,36.13,,,,,,,,,,
13.56.22.577,10.5,2.6,0,24.0,,73787.0,13.55,-0.63,0.41,-0.57,6.3,30.5,-13.7,36.13,,,,,,,,,,
13.56.22.585,-33.3,8.3,0,24.0,,72694.6,13.76,-0.68,0.42,-0.59,-5.4,37.0,-13.8,36.13,,,,,,,,,,
13.56.22.598,4.3,1.1,0,24.0,,70853.9,14.11,-0.59,0.43,-0.59,-14.6,34.0,-14.6,36.13,,,,,,,,,,
13.56.22.606,-30.4,7.6,0,24.0,,75515.7,13.24,-0.56,0.44,-0.67,-3.7,17.5,-15.6,36.13,,,,,,,,,,
13.56.22.618,-62.3,15.6,0,24.0,,75653.0,13.22,-0.55,0.38,-0.65,3.4,20.8,-11.7,36.13,,,,,,,,,,
13.56.22.626,-38.4,9.6,0,24.0,,74233.1,13.47,-0.56,0.37,-0.61,10.6,32.5,-6.5,36.13,,,,,,,,,,
13.56.22.638,-54.5,13.6,0,24.0,,69372.7,14.41,-0.58,0.37,-0.61,15.7,32.2,-3.3,36.13,,,,,,,,,,
13.56.22.646,-90.4,22.6,0,24.0,,71286.9,14.03,-0.59,0.39,-0.64,8.4,36.1,-3.0,36.13,,,,,,,,,,
13.56.22.659,-78.8,19.7,0,24.0,,74932.8,13.35,-0.59,0.37,-0.65,-3.6,38.1,-3.3,36.13,,,,,,,,,,
13.56.22.671,-94.2,23.6,0,24.0,,73107.1,13.68,-0.57,0.36,-0.7,-12.8,39.7,-3.7,36.13,,,,,,,,,,
13.56.22.679,-95.3,23.8,0,24.0,,70463.1,14.19,-0.57,0.37,-0.72,-17.6,44.4,-3.2,36.13,,,,,,,,,,
13.56.22.716,-108.1,27.0,0,24.0,,72713.4,13.75,-0.57,0.35,-0.74,-24.5,51.0,-6.6,36.19,,,,,,,,,,
13.56.22.729,-113.3,28.3,0,24.0,,74979.9,13.34,-0.57,0.38,-0.77,-37.0,61.6,-19.8,36.19,,,,,,,,,,
13.56.22.737,-112.2,28.0,0,24.0,,71297.6,14.03,-0.52,0.36,-0.77,-40.5,51.5,-26.3,36.19,,,,,,,,,,
13.56.22.749,-124.9,31.2,0,24.0,,76987.7,12.99,-0.53,0.36,-0.78,-37.6,51.3,-35.4,36.19,,,,,,,,,,
13.56.22.757,-105.5,26.4,0,24.0,,72439.1,13.8,-0.53,0.38,-0.79,-39.1,50.6,-39.9,36.19,,,,,,,,,,
13.56.22.770,-121.7,30.4,0,24.0,,72436.8,13.81,-0.56,0.38,-0.77,-41.5,47.8,-46.1,36.19,,,,,,,,,,
13.56.22.782,-127.7,31.9,0,24.0,,73823.3,13.55,-0.55,0.38,-0.78,-47.0,54.1,-47.8,36.19,,,,,,,,,,
13.56.22.790,-172.9,43.2,0,24.0,,73867.3,13.54,-0.53,0.37,-0.78,-52.7,54.2,-52.4,36.19,,,,,,,,,,
13.56.22.802,-137.3,34.3,0,24.0,,71918.8,13.9,-0.5,0.38,-0.79,-51.6,51.4,-57.5,36.19,,,,,,,,,,
13.56.22.811,-153.9,38.5,0,24.0,,69841.6,14.32,-0.2,0.25,-0.93,-68.5,56.1,-85.8,36.19,,,,,,,,,,
13.56.22.823,101.2,25.3,1,25.0,103.2,73097.6,13.68,-0.5,0.47,-0.77,-72.0,48.3,-74.7,36.19,,,,,,,,,,
13.56.22.831,147.1,36.8,0,25.0,,74373.5,13.45,-0.49,0.45,-0.72,-69.0,45.9,-54.5,36.19,,,,,,,,,,
13.56.22.843,197.2,49.3,0,25.0,,73054.5,13.69,-0.57,0.48,-0.65,-65.8,26.5,-52.2,36.19,,,,,,,,,,
13.56.22.856,237.7,59.4,0,25.0,,69982.5,14.29,-0.61,0.48,-0.64,-70.5,13.3,-50.6,36.19,,,,,,,,,,
13.56.22.864,284.8,71.2,0,25.0,,71402.7,14.01,-0.44,0.43,-0.89,-53.0,22.4,-50.1,36.19,,,,,,,,,,
13.56.22.876,332.2,83.0,0,25.0,,75601.6,13.23,-0.49,0.48,-0.79,-71.5,38.3,-48.2,36.19,,,,,,,,,,
13.56.22.884,359.2,89.8,0,25.0,,72277.9,13.84,-0.51,0.53,-0.77,-71.8,49.7,-47.3,36.19,,,,,,,,,,
13.56.22.896,409.6,102.4,0,25.0,,70885.7,14.11,-0.49,0.52,-0.79,-82.6,60.9,-57.6,36.19,,,,,,,,,,
13.56.22.905,378.5,94.6,0,25.0,,72428.6,13.81,-1.16,-0.72,-0.33,-197.1,49.7,-52.2,36.19,,,,,,,,,,
13.56.22.917,415.9,104.0,0,25.0,,70634.0,14.16,-0.66,0.13,-0.63,206.3,15.6,10.0,36.19,,,,,,,,,,
13.56.22.929,402.6,100.6,0,25.0,,72807.1,13.73,-0.47,0.19,-0.53,211.8,15.1,5.7,36.19,,,,,,,,,,
13.56.22.937,389.1,97.3,0,25.0,,72980.5,13.7,-0.5,0.36,-0.71,177.7,3.6,-14.9,36.19,,,,,,,,,,
13.56.22.950,334.0,83.5,0,25.0,,75197.5,13.3,-0.5,0.49,-0.89,100.3,21.5,-7.7,36.19,,,,,,,,,,
13.56.22.958,329.0,82.2,0,25.0,,72414.3,13.81,-0.46,0.36,-0.77,44.5,22.4,-31.9,36.19,,,,,,,,,,
13.56.22.970,264.0,66.0,0,25.0,,71860.4,13.92,-0.53,0.34,-0.74,36.1,33.8,-29.8,36.19,,,,,,,,,,
13.56.22.979,249.4,62.4,0,25.0,,68063.9,14.69,-0.51,0.37,-0.74,45.3,34.3,-20.0,36.19,,,,,,,,,,
13.56.22.991,212.7,53.2,0,25.0,,77227.3,12.95,-0.51,0.36,-0.75,34.2,32.0,-19.4,36.19,,,,,,,,,,
13.56.23.003,77.9,19.5,0,25.0,,74711.1,13.38,-0.53,0.34,-0.76,29.2,30.6,-15.1,36.19,,,,,,,,,,
13.56.23.011,19.1,4.8,0,25.0,,75258.7,13.29,-0.53,0.34,-0.77,25.0,30.6,-15.0,36.19,,,,,,,,,,
13.56.23.024,40.0,10.0,0,25.0,,73669.5,13.57,-0.54,0.36,-0.75,17.5,26.8,-17.8,36.19,,,,,,,,,,
13.56.23.032,28.4,7.1,0,25.0,,72691.3,13.76,-0.52,0.35,-0.77,12.9,18.8,-20.8,36.19,,,,,,,,,,
13.56.23.044,28.0,7.0,0,25.0,,72263.3,13.84,-0.51,0.34,-0.78,10.2,13.3,-23.3,36.19,,,,,,,,,,
13.56.23.052,33.6,8.4,0,25.0,,69648.3,14.36,-0.51,0.35,-0.8,8.5,10.5,-22.8,36.19,,,,,,,,,,
13.56.23.064,103.3,25.8,0,25.0,,66845.7,14.96,-0.51,0.35,-0.81,7.1,11.2,-21.1,36.19,,,,,,,,,,
13.56.23.077,72.7,18.2,0,25.0,,72930.2,13.71,-0.48,0.32,-0.83,8.5,11.0,-21.2,36.19,,,,,,,,,,
13.56.23.085,54.5,13.6,0,25.0,,73882.8,13.53,-0.47,0.31,-0.86,14.1,14.1,-17.4,36.19,,,,,,,,,,
13.56.23.097,98.8,24.7,0,25.0,,71940.8,13.9,-0.45,0.33,-0.86,23.8,15.9,-13.3,36.19,,,,,,,,,,
13.56.23.106,61.9,15.5,0,25.0,,73891.1,13.53,-0.49,0.37,-0.85,35.2,14.8,-9.6,36.19,,,,,,,,,,
13.56.23.118,30.4,7.6,0,25.0,,71482.7,13.99,-0.5,0.38,-0.86,31.9,14.6,-3.5,36.19,,,,,,,,,,
13.56.23.130,-11.8,3.0,0,25.0,,74633.8,13.4,-0.51,0.34,-0.88,31.5,19.3,1.5,36.19,,,,,,,,,,
13.56.23.138,-21.5,5.4,0,25.0,,72735.9,13.75,-0.51,0.32,-0.88,32.8,21.7,4.8,36.19,,,,,,,,,,
13.56.23.151,-45.6,11.4,0,25.0,,74572.8,13.41,-0.47,0.27,-0.91,38.0,25.6,5.2,36.19,,,,,,,,,,
13.56.23.163,-24.3,6.1,0,25.0,,73639.9,13.58,-0.43,0.24,-1.02,45.0,36.2,7.6,36.19,,,,,,,,,,
13.56.23.171,-34.9,8.7,0,25.0,,68171.7,14.67,-0.55,0.29,-0.84,47.0,37.7,6.6,36.19,,,,,,,,,,
13.56.23.183,-32.0,8.0,0,25.0,,71316.1,14.02,-0.44,0.22,-0.96,47.2,46.4,3.3,36.19,,,,,,,,,,
13.56.23.191,-48.3,12.1,0,25.0,,73088.2,13.68,-0.51,0.27,-0.86,44.0,47.4,2.2,36.19,,,,,,,,,,
