timestamp,ppg,threshold,beat,beat_count,inst_bpm,gsr_resistance_ohm,gsr_conductance_us,accel_x,accel_y,accel_z,gyro_x,gyro_y,gyro_z,temp_c,window_bpm,window_temp_c,status_message,SpO2,bmi,age,height,weight,env_temp_c,env_humidity_pct
13.33.04.149,,,0,,,,,,0.73,0.44,0.5,6.4,-1.1,35.75,106.2,,,99.0,24.2,22.0,157.48,60.0,29.23,32.0
13.33.04.153,17.2,4.3,0,,,92068.5,10.86,-0.5,0.74,0.44,0.5,6.5,-1.4,35.75,,,,,,,,,,
13.33.04.161,69.2,17.3,0,,,90435.5,11.06,-0.5,0.73,0.44,0.6,6.4,-1.4,35.75,,,,,,,,,,
13.33.04.174,116.8,29.2,0,,,92199.7,10.85,-0.5,0.73,0.44,0.6,6.5,-1.3,35.75,,,,,,,,,,
13.33.04.183,156.0,39.0,0,,,90809.2,11.01,-0.5,0.74,0.43,0.7,6.4,-1.5,35.75,,,,,,,,,,
13.33.04.194,219.4,54.8,0,,,91121.7,10.97,-0.5,0.73,0.44,0.3,6.4,-1.6,35.75,,,,,,,,,,
13.33.04.202,259.8,65.0,0,,,90519.2,11.05,-0.5,0.73,0.44,0.3,6.4,-1.4,35.75,,,,,,,,,,
13.33.04.214,263.0,65.8,0,,,92121.0,10.86,-0.5,0.74,0.44,0.5,6.5,-1.2,35.75,,,,,,,,,,
13.33.04.227,310.2,77.6,0,,,90841.4,11.01,-0.51,0.74,0.43,0.6,6.6,-1.1,35.75,,,,,,,,,,
13.33.04.235,305.5,76.4,0,,,90769.3,11.02,-0.51,0.74,0.43,0.6,6.2,-1.3,35.75,,,,,,,,,,
13.33.04.247,310.3,77.6,0,,,91833.6,10.89,-0.51,0.73,0.43,0.4,5.9,-1.2,35.75,,,,,,,,,,
13.33.04.255,285.3,71.3,0,,,92167.8,10.85,-0.51,0.73,0.44,0.4,6.1,-1.3,35.75,,,,,,,,,,
13.33.04.268,279.2,69.8,0,,,91146.5,10.97,-0.5,0.73,0.43,0.7,6.2,-1.2,35.75,,,,,,,,,,
13.33.04.276,291.8,73.0,0,,,90198.2,11.09,-0.5,0.73,0.44,0.9,6.3,-1.4,35.75,,,,,,,,,,
13.33.04.288,255.2,63.8,0,,,92009.1,10.87,-0.5,0.73,0.43,0.6,6.4,-1.0,35.75,,,,,,,,,,
13.33.04.296,216.8,54.2,0,,,90518.1,11.05,-0.5,0.73,0.44,0.8,6.4,-1.4,35.75,,,,,,,,,,
13.33.04.309,168.2,42.0,0,,,90870.2,11.0,-0.5,0.73,0.43,0.5,6.7,-1.8,35.75,,,,,,,,,,
13.33.04.317,157.7,39.4,0,,,90988.8,10.99,-0.5,0.74,0.44,0.3,6.7,-2.0,35.75,,,,,,,,,,
13.33.04.329,102.0,25.5,0,,,90831.2,11.01,-0.5,0.73,0.43,0.1,6.3,-2.0,35.75,,,,,,,,,,
13.33.04.337,67.4,16.8,0,,,90944.4,11.0,-0.51,0.73,0.44,0.4,6.5,-1.8,35.75,,,,,,,,,,
13.33.04.350,1.2,0.3,0,,,91474.6,10.93,-0.51,0.73,0.43,0.2,6.3,-1.6,35.75,,,,,,,,,,
13.33.04.358,15.2,3.8,0,,,90725.9,11.02,-0.51,0.73,0.44,0.5,6.4,-1.3,35.75,,,,,,,,,,
13.33.04.370,36.6,9.2,0,,,90693.8,11.03,-0.5,0.73,0.43,0.6,6.6,-1.4,35.75,,,,,,,,,,
13.33.04.378,37.6,9.4,0,,,91300.9,10.95,-0.51,0.73,0.43,0.7,6.4,-1.1,35.75,,,,,,,,,,
13.33.04.391,47.3,11.8,0,,,91830.6,10.89,-0.5,0.73,0.43,0.8,6.3,-1.1,35.75,,,,,,,,,,
13.33.04.399,60.1,15.0,0,,,90949.8,11.0,-0.51,0.73,0.44,0.8,6.4,-1.0,35.75,,,,,,,,,,
13.33.04.411,60.9,15.2,0,,,90923.9,11.0,-0.51,0.73,0.43,0.7,6.3,-1.1,35.75,,,,,,,,,,
13.33.04.423,56.4,14.1,0,,,91795.5,10.89,-0.5,0.73,0.44,0.9,6.1,-1.2,35.75,,,,,,,,,,
13.33.04.432,49.9,12.5,0,,,91124.0,10.97,-0.5,0.74,0.43,0.8,6.2,-1.3,35.75,,,,,,,,,,
13.33.04.444,38.5,9.6,0,,,90432.8,11.06,-0.51,0.73,0.44,0.6,6.3,-1.6,35.75,,,,,,,,,,
13.33.04.452,16.9,4.2,0,,,89755.5,11.14,-0.51,0.73,0.44,0.5,6.1,-1.5,35.75,,,,,,,,,,
13.33.04.464,3.9,1.0,0,,,90434.9,11.06,-0.51,0.73,0.43,0.3,6.2,-1.8,35.75,,,,,,,,,,
13.33.04.473,-10.4,2.6,0,,,90487.5,11.05,-0.51,0.73,0.44,0.1,6.2,-1.8,35.75,,,,,,,,,,
13.33.04.485,-8.0,2.0,0,,,90511.4,11.05,-0.5,0.73,0.43,0.5,6.2,-1.3,35.75,,,,,,,,,,
13.33.04.493,-17.5,4.4,0,,,90961.5,10.99,-0.51,0.73,0.43,0.6,5.9,-1.0,35.75,,,,,,,,,,
13.33.04.505,-21.3,5.3,0,,,89254.6,11.2,-0.51,0.73,0.43,0.7,5.8,-1.1,35.75,,,,,,,,,,
13.33.04.514,-20.1,5.0,0,,,91307.4,10.95,-0.5,0.73,0.43,0.7,6.1,-1.3,35.75,,,,,,,,,,
13.33.04.526,-29.7,7.4,0,,,90722.6,11.02,-0.51,0.74,0.44,0.7,5.5,-1.3,35.75,,,,,,,,,,
13.33.04.534,-32.8,8.2,0,,,91573.1,10.92,-0.51,0.73,0.43,0.8,5.8,-1.5,35.75,,,,,,,,,,
13.33.04.546,-38.0,9.5,0,,,91889.9,10.88,-0.5,0.73,0.43,0.9,5.5,-1.1,35.75,,,,,,,,,,
13.33.04.554,-29.0,7.2,0,,,90280.0,11.08,-0.5,0.73,0.43,0.9,5.6,-1.1,35.75,,,,,,,,,,
13.33.04.567,-56.0,14.0,0,,,90549.3,11.04,-0.5,0.73,0.43,1.0,5.3,-1.2,35.75,,,,,,,,,,
13.33.04.575,-56.8,14.2,0,,,91163.2,10.97,-0.5,0.73,0.43,0.8,4.9,-0.8,35.75,,,,,,,,,,
13.33.04.587,-59.4,14.8,0,,,90971.7,10.99,-0.5,0.73,0.44,0.9,5.3,-1.1,35.75,,,,,,,,,,
13.33.04.595,-69.8,17.4,0,,,90165.2,11.09,-0.5,0.73,0.43,1.4,5.4,-1.0,35.75,,,,,,,,,,
13.33.04.608,-61.7,15.4,0,,,90786.7,11.01,-0.5,0.74,0.44,1.1,5.1,-1.0,35.75,,,,,,,,,,
13.33.04.616,-69.0,17.2,0,,,91233.4,10.96,-0.5,0.74,0.43,0.5,5.1,-1.0,35.75,,,,,,,,,,
13.33.04.628,-77.5,19.4,0,,,90087.0,11.1,-0.5,0.73,0.43,0.7,5.6,-1.4,35.75,,,,,,,,,,
13.33.04.637,-94.2,23.6,0,,,89970.5,11.11,-0.5,0.74,0.43,0.5,5.3,-1.2,35.75,,,,,,,,,,
13.33.04.649,-88.1,22.0,0,,,89930.8,11.12,-0.5,0.74,0.44,0.6,5.0,-1.2,35.75,,,,,,,,,,
13.33.04.661,-109.0,27.2,0,,,89516.9,11.17,-0.5,0.74,0.43,0.8,4.7,-1.0,35.75,,,,,,,,,,
13.33.04.669,-106.7,26.7,0,,,90532.7,11.05,-0.51,0.74,0.43,0.4,4.8,-1.0,35.75,,,,,,,,,,
13.33.04.682,-105.4,26.4,0,,,91180.6,10.97,-0.5,0.73,0.43,0.5,4.7,-1.1,35.75,,,,,,,,,,
13.33.04.690,-110.8,27.7,0,,,90929.7,11.0,-0.51,0.73,0.43,0.4,5.2,-1.1,35.75,,,,,,,,,,
13.33.04.702,-125.2,31.3,0,,,89283.1,11.2,-0.51,0.73,0.43,0.4,4.9,-1.3,35.75,,,,,,,,,,
13.33.04.710,-134.0,33.5,0,,,89465.8,11.18,-0.51,0.74,0.43,0.5,4.9,-0.9,35.75,,,,,,,,,,
13.33.04.747,146.9,36.7,1,1.0,107.2,89934.4,11.12,-0.51,0.73,0.44,0.7,4.6,-0.8,35.75,,,,,,,,,,
13.33.04.759,183.2,45.8,0,1.0,,90659.6,11.03,-0.51,0.73,0.44,0.6,5.1,-1.2,35.75,,,,,,,,,,
13.33.04.768,214.0,53.5,0,1.0,,90156.3,11.09,-0.5,0.73,0.43,0.8,4.9,-1.1,35.75,,,,,,,,,,
13.33.04.780,250.8,62.7,0,1.0,,89428.9,11.18,-0.5,0.73,0.44,0.7,5.0,-0.5,35.75,,,,,,,,,,
13.33.04.788,282.3,70.6,0,1.0,,90026.8,11.11,-0.5,0.74,0.43,1.0,4.9,-0.7,35.75,,,,,,,,,,
13.33.04.800,305.6,76.4,0,1.0,,90419.0,11.06,-0.5,0.73,0.43,0.6,5.1,-1.0,35.75,,,,,,,,,,
13.33.04.809,313.2,78.3,0,1.0,,90754.2,11.02,-0.51,0.74,0.43,0.5,5.3,-0.7,35.75,,,,,,,,,,
13.33.04.821,301.7,75.4,0,1.0,,89052.8,11.23,-0.5,0.73,0.44,0.5,5.3,-0.4,35.75,,,,,,,,,,
13.33.04.829,324.4,81.1,0,1.0,,91644.2,10.91,-0.51,0.73,0.43,0.7,5.1,-0.7,35.75,,,,,,,,,,
13.33.04.841,272.3,68.1,0,1.0,,90096.9,11.1,-0.5,0.74,0.43,0.3,4.9,-0.9,35.75,,,,,,,,,,
13.33.04.849,267.0,66.8,0,1.0,,91896.3,10.88,-0.5,0.73,0.43,0.6,4.9,-1.1,35.75,,,,,,,,,,
13.33.04.862,254.8,63.7,0,1.0,,91666.5,10.91,-0.5,0.74,0.44,0.4,5.1,-0.9,35.75,,,,,,,,,,
13.33.04.870,233.9,58.5,0,1.0,,90008.1,11.11,-0.5,0.74,0.43,0.7,5.1,-0.8,35.75,,,,,,,,,,
13.33.04.882,176.0,44.0,0,1.0,,91496.0,10.93,-0.5,0.74,0.43,0.6,5.6,-0.9,35.75,,,,,,,,,,
13.33.04.891,139.8,35.0,0,1.0,,91444.3,10.94,-0.49,0.74,0.43,0.2,5.5,-0.7,35.75,,,,,,,,,,
13.33.04.903,81.4,20.4,0,1.0,,90418.9,11.06,-0.5,0.75,0.44,-0.1,5.5,-0.9,35.75,,,,,,,,,,
13.33.04.911,39.8,10.0,0,1.0,,91018.2,10.99,-0.51,0.75,0.44,-0.6,4.8,-0.5,35.75,,,,,,,,,,
13.33.04.923,-2.8,0.7,0,1.0,,91224.7,10.96,-0.51,0.75,0.44,-0.9,4.8,-0.2,35.75,,,,,,,,,,
13.33.04.932,22.4,5.6,0,1.0,,91249.9,10.96,-0.51,0.76,0.43,-1.8,4.5,0.3,35.75,,,,,,,,,,
13.33.04.944,34.5,8.6,0,1.0,,90195.5,11.09,-0.52,0.76,0.44,-2.5,4.4,0.7,35.75,,,,,,,,,,
13.33.04.953,48.1,12.0,0,1.0,,91515.3,10.93,-0.55,0.77,0.46,-2.4,3.0,1.8,35.75,,,,,,,,,,
13.33.04.964,48.3,12.1,0,1.0,,90942.5,11.0,-0.52,0.75,0.44,-3.0,4.1,2.4,35.75,,,,,,,,,,
13.33.04.977,53.1,13.3,0,1.0,,90860.5,11.01,-0.51,0.75,0.44,-3.7,3.7,1.2,35.75,,,,,,,,,,
13.33.04.985,65.0,16.2,0,1.0,,88109.7,11.35,-0.5,0.73,0.43,-4.6,3.6,0.8,35.75,,,,,,,,,,
13.33.04.993,60.4,15.1,0,1.0,,92282.6,10.84,-0.5,0.72,0.44,-4.3,3.3,1.6,35.75,,,,,,,,,,
13.33.05.009,35.4,8.8,0,1.0,,89674.7,11.15,-0.5,0.71,0.44,-2.8,4.1,1.6,35.75,,,,,,,,,,
13.33.05.017,30.9,7.7,0,1.0,,91435.1,10.94,-0.51,0.72,0.44,-2.0,4.1,1.7,35.75,,,,,,,,,,
13.33.05.030,8.6,2.2,0,1.0,,91441.9,10.94,-0.5,0.72,0.44,-1.6,3.9,2.4,35.75,,,,,,,,,,
13.33.05.038,-0.9,0.2,0,1.0,,90657.1,11.03,-0.5,0.74,0.45,-0.7,3.9,3.7,35.75,,,,,,,,,,
13.33.05.050,-2.8,0.7,0,1.0,,90903.8,11.0,-0.5,0.74,0.45,-0.7,4.5,4.2,35.75,,,,,,,,,,
13.33.05.058,-11.1,2.8,0,1.0,,90285.2,11.08,-0.5,0.74,0.45,-1.1,4.0,3.3,35.75,,,,,,,,,,
13.33.05.071,-11.0,2.8,0,1.0,,91060.0,10.98,-0.5,0.74,0.45,-0.9,4.3,3.1,35.75,,,,,,,,,,
13.33.05.079,-24.0,6.0,0,1.0,,90847.6,11.01,-0.5,0.74,0.45,-0.8,3.9,2.8,35.75,,,,,,,,,,
13.33.05.091,-36.8,9.2,0,1.0,,89407.0,11.18,-0.5,0.74,0.44,-1.4,3.9,2.7,35.75,,,,,,,,,,
13.33.05.099,-29.9,7.5,0,1.0,,90582.3,11.04,-0.49,0.74,0.44,-2.5,3.6,2.2,35.75,,,,,,,,,,
13.33.05.112,-46.6,11.6,0,1.0,,90276.9,11.08,-0.5,0.73,0.45,-3.2,3.2,0.7,35.75,,,,,,,,,,
13.33.05.120,-48.9,12.2,0,1.0,,90946.0,11.0,-0.49,0.73,0.45,-3.0,3.4,1.2,35.75,,,,,,,,,,
13.33.05.132,-34.9,8.7,0,1.0,,92065.8,10.86,-0.5,0.73,0.45,-3.0,3.5,1.5,35.75,,,,,,,,,,
13.33.05.140,-48.9,12.2,0,1.0,,91356.4,10.95,-0.49,0.72,0.45,-2.1,3.6,1.2,35.75,,,,,,,,,,
13.33.05.154,-55.2,13.8,0,1.0,,90230.1,11.08,-0.48,0.72,0.46,-1.8,3.7,1.4,35.75,,,,,,,,,,
13.33.05.161,-64.5,16.1,0,1.0,,90817.3,11.01,-0.48,0.72,0.45,-1.6,4.0,2.1,35.75,,,,,,,,,,
13.33.05.173,-80.8,20.2,0,1.0,,89360.4,11.19,-0.48,0.72,0.45,-0.6,3.9,1.7,35.75,,,,,,,,,,
13.33.05.181,-72.3,18.1,0,1.0,,91140.3,10.97,-0.48,0.73,0.45,-0.6,4.1,1.5,35.75,,,,,,,,,,
13.33.05.194,-84.4,21.1,0,1.0,,90647.3,11.03,-0.48,0.72,0.45,0.6,4.3,2.4,35.75,,,,,,,,,,
13.33.05.202,-81.9,20.5,0,1.0,,89361.3,11.19,-0.48,0.74,0.45,1.0,4.0,2.7,35.75,,,,,,,,,,
13.33.05.214,-95.8,24.0,0,1.0,,92926.5,10.76,-0.48,0.75,0.45,0.6,3.9,3.0,35.75,,,,,,,,,,
13.33.05.222,-90.5,22.6,0,1.0,,92095.5,10.86,-0.49,0.75,0.45,0.4,4.4,2.9,35.75,,,,,,,,,,
13.33.05.236,-98.7,24.7,0,1.0,,89761.5,11.14,-0.48,0.75,0.45,-0.8,3.4,2.1,35.75,,,,,,,,,,
13.33.05.243,-108.2,27.0,0,1.0,,90426.3,11.06,-0.48,0.74,0.45,-1.5,3.6,0.6,35.75,,,,,,,,,,
13.33.05.255,-112.3,28.1,0,1.0,,90564.5,11.04,-0.49,0.74,0.45,-1.7,3.6,0.0,35.75,,,,,,,,,,
13.33.05.263,-118.4,29.6,0,1.0,,92492.7,10.81,-0.48,0.74,0.45,-1.6,3.3,1.0,35.75,,,,,,,,,,
13.33.05.276,-109.6,27.4,0,1.0,,91155.8,10.97,-0.48,0.74,0.46,-1.7,4.2,1.4,35.75,,,,,,,,,,
13.33.05.284,-117.7,29.4,0,1.0,,89939.0,11.12,-0.47,0.73,0.44,-1.6,4.4,1.2,35.75,,,,,,,,,,
13.33.05.296,25.1,6.3,1,2.0,105.3,90610.3,11.04,-0.48,0.74,0.45,-1.4,3.4,1.1,35.75,,,,,,,,,,
13.33.05.305,77.9,19.5,0,2.0,,91023.3,10.99,-0.47,0.73,0.46,-1.1,4.2,1.2,35.75,,,,,,,,,,
13.33.05.316,123.1,30.8,0,2.0,,89853.2,11.13,-0.49,0.74,0.46,-0.7,4.0,1.9,35.75,,,,,,,,,,
13.33.05.325,188.4,47.1,0,2.0,,91942.4,10.88,-0.48,0.74,0.45,-0.3,4.3,3.0,35.75,,,,,,,,,,
13.33.05.337,230.1,57.5,0,2.0,,90640.2,11.03,-0.47,0.73,0.45,-0.4,5.1,1.8,35.75,,,,,,,,,,
13.33.05.345,233.5,58.4,0,2.0,,90742.7,11.02,-0.48,0.74,0.45,-0.4,4.8,2.3,35.75,,,,,,,,,,
13.33.05.357,270.3,67.6,0,2.0,,91257.4,10.96,-0.47,0.75,0.45,-0.3,4.4,3.1,35.75,,,,,,,,,,
13.33.05.366,317.2,79.3,0,2.0,,89566.1,11.16,-0.48,0.76,0.46,-1.4,4.7,2.3,35.75,,,,,,,,,,
13.33.05.378,288.6,72.2,0,2.0,,89297.4,11.2,-0.47,0.75,0.45,-2.5,4.5,2.1,35.75,,,,,,,,,,
13.33.05.386,300.5,75.1,0,2.0,,90851.5,11.01,-0.47,0.75,0.46,-2.9,4.5,2.2,35.75,,,,,,,,,,
13.33.05.398,329.5,82.4,0,2.0,,90753.7,11.02,-0.47,0.75,0.45,-2.8,5.0,2.5,35.75,,,,,,,,,,
13.33.05.407,281.0,70.2,0,2.0,,90877.6,11.0,-0.48,0.75,0.46,-3.7,4.5,2.2,35.75,,,,,,,,,,
13.33.05.419,304.4,76.1,0,2.0,,90589.9,11.04,-0.48,0.75,0.46,-4.2,4.3,2.0,35.75,,,,,,,,,,
13.33.05.427,275.2,68.8,0,2.0,,91147.2,10.97,-0.48,0.75,0.46,-3.8,4.4,4.3,35.75,,,,,,,,,,
13.33.05.439,226.5,56.6,0,2.0,,89890.9,11.12,-0.48,0.75,0.47,-2.3,4.7,6.4,35.75,,,,,,,,,,
13.33.05.452,182.8,45.7,0,2.0,,90990.1,10.99,-0.46,0.75,0.45,-3.1,5.5,6.2,35.75,,,,,,,,,,
13.33.05.460,141.2,35.3,0,2.0,,90200.2,11.09,-0.48,0.78,0.47,-4.8,4.3,6.9,35.75,,,,,,,,,,
13.33.05.472,89.9,22.5,0,2.0,,90229.3,11.08,-0.49,0.78,0.47,-5.6,4.0,7.4,35.75,,,,,,,,,,
13.33.05.480,48.3,12.1,0,2.0,,90301.6,11.07,-0.49,0.79,0.48,-6.5,4.8,7.7,35.75,,,,,,,,,,
13.33.05.493,8.9,2.2,0,2.0,,90439.0,11.06,-0.48,0.78,0.48,-8.2,3.8,6.8,35.75,,,,,,,,,,
13.33.05.501,10.6,2.6,0,2.0,,89455.9,11.18,-0.48,0.77,0.47,-9.7,3.0,5.9,35.75,,,,,,,,,,
13.33.05.513,40.5,10.1,0,2.0,,90416.8,11.06,-0.47,0.75,0.47,-10.9,2.9,5.4,35.75,,,,,,,,,,
13.33.05.550,57.1,14.3,0,2.0,,91118.7,10.97,-0.46,0.74,0.46,-10.8,3.1,6.3,35.75,,,,,,,,,,
13.33.05.558,47.8,12.0,0,2.0,,90320.2,11.07,-0.48,0.81,0.49,-8.5,4.4,15.3,35.75,,,,,,,,,,
13.33.05.571,48.2,12.0,0,2.0,,89935.4,11.12,-0.49,0.81,0.47,-10.0,3.5,15.0,35.75,,,,,,,,,,
13.33.05.579,43.1,10.8,0,2.0,,90578.9,11.04,-0.45,0.78,0.47,-10.9,4.2,14.8,35.75,,,,,,,,,,
13.33.05.591,19.0,4.8,0,2.0,,89746.4,11.14,-0.47,0.8,0.49,-11.2,5.0,14.5,35.75,,,,,,,,,,
13.33.05.603,-4.7,1.2,0,2.0,,90633.1,11.03,-0.45,0.78,0.47,-13.2,4.2,13.9,35.75,,,,,,,,,,
13.33.05.616,-11.3,2.8,0,2.0,,91630.7,10.91,-0.46,0.79,0.48,-14.7,4.4,12.8,35.75,,,,,,,,,,
13.33.05.624,-10.2,2.6,0,2.0,,91430.3,10.94,-0.43,0.77,0.46,-16.5,4.9,11.3,35.75,,,,,,,,,,
13.33.05.636,-13.9,3.5,0,2.0,,92076.1,10.86,-0.4,0.72,0.46,-17.1,5.8,10.7,35.75,,,,,,,,,,
13.33.05.644,-21.8,5.4,0,2.0,,90384.1,11.06,-0.44,0.75,0.49,-13.9,4.0,12.9,35.75,,,,,,,,,,
13.33.05.658,-27.1,6.8,0,2.0,,90794.0,11.01,-0.43,0.75,0.47,-12.4,4.4,16.0,35.75,,,,,,,,,,
13.33.05.665,-13.7,3.4,0,2.0,,90861.5,11.01,-0.42,0.72,0.49,-11.0,5.5,13.9,35.75,,,,,,,,,,
13.33.05.677,-40.4,10.1,0,2.0,,90091.1,11.1,-0.45,0.75,0.51,-12.3,2.7,12.4,35.75,,,,,,,,,,
13.33.05.685,-40.8,10.2,0,2.0,,89718.7,11.15,-0.42,0.74,0.48,-12.0,5.6,14.0,35.75,,,,,,,,,,
13.33.05.697,-45.4,11.4,0,2.0,,90094.6,11.1,-0.41,0.72,0.48,-10.3,7.5,14.7,35.75,,,,,,,,,,
13.33.05.706,-48.9,12.2,0,2.0,,92674.6,10.79,-0.36,0.69,0.45,-11.9,7.9,12.5,35.75,,,,,,,,,,
13.33.05.718,-43.1,10.8,0,2.0,,91874.0,10.88,-0.42,0.73,0.49,-10.8,7.2,11.8,35.75,,,,,,,,,,
13.33.05.730,-63.2,15.8,0,2.0,,89888.3,11.12,-0.4,0.73,0.48,-11.1,6.2,12.2,35.75,,,,,,,,,,
13.33.05.739,-67.1,16.8,0,2.0,,90838.6,11.01,-0.42,0.74,0.49,-10.6,8.2,11.7,35.75,,,,,,,,,,
13.33.05.751,-74.3,18.6,0,2.0,,90572.0,11.04,-0.4,0.73,0.48,-13.9,8.3,10.8,35.75,,,,,,,,,,
13.33.05.759,-75.1,18.8,0,2.0,,90247.6,11.08,-0.4,0.72,0.5,-12.1,7.9,7.5,35.75,,,,,,,,,,
13.33.05.771,-81.7,20.4,0,2.0,,90692.6,11.03,-0.4,0.69,0.49,-13.0,4.1,6.5,35.75,,,,,,,,,,
13.33.05.779,-102.3,25.6,0,2.0,,90834.6,11.01,-0.38,0.7,0.5,-10.1,6.2,9.1,35.75,,,,,,,,,,
13.33.05.792,-90.0,22.5,0,2.0,,92606.4,10.8,-0.39,0.74,0.51,-6.0,6.3,14.4,35.75,,,,,,,,,,
13.33.05.800,-91.2,22.8,0,2.0,,91256.2,10.96,-0.4,0.81,0.5,-1.6,9.5,20.4,35.75,,,,,,,,,,
13.33.05.812,-95.8,24.0,0,2.0,,91224.5,10.96,-0.36,0.81,0.48,-3.2,10.1,21.8,35.75,,,,,,,,,,
13.33.05.820,-106.8,26.7,0,2.0,,91061.9,10.98,-0.4,0.82,0.5,-6.8,8.4,17.8,35.75,,,,,,,,,,
13.33.05.833,-101.1,25.3,0,2.0,,91872.5,10.88,-0.36,0.74,0.47,-12.5,9.3,9.0,35.75,,,,,,,,,,
13.33.05.841,-114.3,28.6,0,2.0,,90269.3,11.08,-0.36,0.67,0.48,-16.9,11.2,-0.3,35.75,,,,,,,,,,
13.33.05.854,-122.2,30.6,0,2.0,,90358.9,11.07,-0.37,0.65,0.49,-18.6,11.2,-5.3,35.75,,,,,,,,,,
13.33.05.865,10.1,2.5,1,3.0,99.5,90618.6,11.04,-0.4,0.65,0.52,-18.7,11.3,-6.4,35.75,,,,,,,,,,
13.33.05.874,59.5,14.9,0,3.0,,91655.8,10.91,-0.4,0.65,0.54,-17.4,10.0,-6.2,35.75,,,,,,,,,,
13.33.05.886,127.7,31.9,0,3.0,,90542.7,11.04,-0.41,0.65,0.56,-14.0,9.0,-5.3,35.75,,,,,,,,,,
13.33.05.894,161.3,40.3,0,3.0,,89655.5,11.15,-0.4,0.64,0.57,-7.8,9.5,-2.8,35.75,,,,,,,,,,
13.33.05.906,180.2,45.0,0,3.0,,91080.7,10.98,-0.39,0.65,0.56,-1.1,9.5,0.7,35.75,,,,,,,,,,
13.33.05.915,260.7,65.2,0,3.0,,91452.6,10.93,-0.38,0.67,0.55,3.0,11.0,3.5,35.75,,,,,,,,,,
13.33.05.927,288.3,72.1,0,3.0,,89722.0,11.15,-0.38,0.69,0.54,5.8,10.9,4.3,35.75,,,,,,,,,,
13.33.05.935,297.8,74.4,0,3.0,,91178.8,10.97,-0.39,0.69,0.52,6.0,12.9,4.0,35.75,,,,,,,,,,
13.33.05.947,320.2,80.0,0,3.0,,91276.9,10.96,-0.4,0.74,0.53,4.6,11.4,2.5,35.75,,,,,,,,,,
13.33.05.957,294.8,73.7,0,3.0,,90782.8,11.02,-0.42,0.76,0.53,0.7,11.4,0.8,35.75,,,,,,,,,,
13.33.05.968,295.1,73.8,0,3.0,,91392.0,10.94,-0.46,0.81,0.55,-4.8,10.2,-1.3,35.75,,,,,,,,,,
13.33.05.980,281.5,70.4,0,3.0,,91680.2,10.91,-0.48,0.82,0.57,-10.6,7.0,-5.0,35.75,,,,,,,,,,
13.33.05.988,306.2,76.6,0,3.0,,90973.7,10.99,-0.5,0.78,0.58,-14.9,5.7,-11.3,35.75,,,,,,,,,,
13.33.06.002,243.8,61.0,0,3.0,,91514.2,10.93,-0.5,0.69,0.56,-17.3,4.0,-17.0,35.75,,,,,,,,,,
13.33.06.009,227.2,56.8,0,3.0,,90247.1,11.08,-0.5,0.65,0.57,-13.9,1.5,-16.4,35.75,,,,,,,,,,
13.33.06.021,189.5,47.4,0,3.0,,89800.2,11.14,-0.44,0.58,0.55,-8.1,2.6,-11.7,35.75,,,,,,,,,,
13.33.06.029,162.5,40.6,0,3.0,,91951.5,10.88,-0.46,0.59,0.56,-4.1,1.8,-7.5,35.75,,,,,,,,,,
13.33.06.042,100.5,25.1,0,3.0,,90307.5,11.07,-0.45,0.63,0.55,1.1,3.1,-3.0,35.75,,,,,,,,,,
13.33.06.050,51.2,12.8,0,3.0,,90700.6,11.03,-0.45,0.66,0.55,5.8,2.3,0.3,35.75,,,,,,,,,,
13.33.06.062,-1.7,0.4,0,3.0,,90048.5,11.11,-0.44,0.69,0.55,10.0,4.4,3.3,35.75,,,,,,,,,,
13.33.06.070,15.5,3.9,0,3.0,,89945.0,11.12,-0.44,0.73,0.53,12.5,5.5,6.1,35.75,,,,,,,,,,
13.33.06.083,36.1,9.0,0,3.0,,90965.9,10.99,-0.43,0.75,0.53,11.5,4.7,5.2,35.75,,,,,,,,,,
13.33.06.091,47.1,11.8,0,3.0,,90669.8,11.03,-0.42,0.76,0.52,7.8,4.2,1.5,35.75,,,,,,,,,,
13.33.06.103,55.2,13.8,0,3.0,,90761.9,11.02,-0.41,0.78,0.51,3.7,2.7,-1.3,35.75,,,,,,,,,,
13.33.06.115,54.8,13.7,0,3.0,,90790.1,11.01,-0.42,0.79,0.51,4.1,3.4,0.3,35.75,,,,,,,,,,
13.33.06.124,60.3,15.1,0,3.0,,92323.1,10.83,-0.42,0.79,0.5,2.9,4.0,1.3,35.75,,,,,,,,,,
13.33.06.136,45.4,11.4,0,3.0,,91848.5,10.89,-0.41,0.77,0.5,-0.6,3.3,-1.9,35.75,,,,,,,,,,
13.33.06.148,39.6,9.9,0,3.0,,91934.2,10.88,-0.41,0.74,0.51,-4.3,2.7,-5.9,35.75,,,,,,,,,,
13.33.06.156,14.6,3.6,0,3.0,,89247.8,11.2,-0.41,0.72,0.52,-5.9,2.9,-7.3,35.75,,,,,,,,,,
13.33.06.169,10.2,2.6,0,3.0,,91321.7,10.95,-0.42,0.71,0.53,-6.0,3.5,-7.6,35.75,,,,,,,,,,
13.33.06.181,-2.7,0.7,0,3.0,,89433.1,11.18,-0.41,0.69,0.53,-5.6,3.1,-8.0,35.75,,,,,,,,,,
13.33.06.193,-15.6,3.9,0,3.0,,90208.3,11.09,-0.4,0.67,0.53,-3.2,3.8,-6.7,35.75,,,,,,,,,,
13.33.06.205,-19.8,5.0,0,3.0,,92101.6,10.86,-0.38,0.66,0.53,0.5,4.2,-4.2,35.75,,,,,,,,,,
13.33.06.214,-21.3,5.3,0,3.0,,91926.9,10.88,-0.37,0.66,0.53,4.5,5.2,-0.9,35.75,,,,,,,,,,
13.33.06.226,-24.9,6.2,0,3.0,,91529.3,10.93,-0.37,0.7,0.53,7.0,7.1,1.6,35.75,,,,,,,,,,
13.33.06.234,-28.8,7.2,0,3.0,,91328.4,10.95,-0.37,0.73,0.52,8.6,7.7,2.1,35.75,,,,,,,,,,
13.33.06.246,-34.1,8.5,0,3.0,,91016.4,10.99,-0.36,0.75,0.51,8.1,8.7,1.6,35.75,,,,,,,,,,
13.33.06.256,-46.6,11.6,0,3.0,,91127.8,10.97,-0.36,0.76,0.5,6.2,9.5,-0.5,35.75,,,,,,,,,,
13.33.06.263,-34.4,8.6,0,3.0,,91639.7,10.91,-0.36,0.74,0.49,3.8,10.4,-4.2,35.75,,,,,,,,,,
13.33.06.276,-60.0,15.0,0,3.0,,89592.4,11.16,-0.36,0.71,0.51,1.4,10.7,-7.8,35.75,,,,,,,,,,
13.33.06.287,-53.7,13.4,0,3.0,,91006.5,10.99,-0.36,0.7,0.53,1.0,10.4,-9.1,35.75,,,,,,,,,,
13.33.06.296,-57.8,14.4,0,3.0,,90164.3,11.09,-0.38,0.69,0.54,2.3,10.3,-8.8,35.75,,,,,,,,,,
13.33.06.308,-67.8,17.0,0,3.0,,90472.9,11.05,-0.4,0.71,0.56,2.8,8.5,-8.4,35.75,,,,,,,,,,
13.33.06.316,-66.6,16.6,0,3.0,,90609.9,11.04,-0.43,0.75,0.57,3.5,7.3,-7.8,35.75,,,,,,,,,,
13.33.06.353,-86.5,21.6,0,3.0,,90809.7,11.01,-0.47,0.8,0.57,5.4,6.6,-5.2,35.75,,,,,,,,,,
13.33.06.365,-98.0,24.5,0,3.0,,90302.7,11.07,-0.46,0.74,0.5,5.2,5.1,-3.5,35.75,,,,,,,,,,
13.33.06.373,-95.0,23.8,0,3.0,,88916.9,11.25,-0.44,0.72,0.5,4.3,5.5,-3.5,35.75,,,,,,,,,,
13.33.06.386,-107.2,26.8,0,3.0,,90838.7,11.01,-0.42,0.71,0.5,3.2,5.7,-3.2,35.75,,,,,,,,,,
13.33.06.394,-110.1,27.5,0,3.0,,90394.0,11.06,-0.41,0.7,0.5,1.9,6.2,-3.6,35.75,,,,,,,,,,
13.33.06.406,-98.9,24.7,0,3.0,,90513.1,11.05,-0.4,0.69,0.5,1.2,6.5,-4.3,35.75,,,,,,,,,,
13.33.06.414,-118.1,29.5,0,3.0,,91311.5,10.95,-0.4,0.68,0.51,1.2,7.2,-4.9,35.75,,,,,,,,,,
13.33.06.427,-130.0,32.5,0,3.0,,90935.5,11.0,-0.39,0.67,0.52,2.5,7.1,-4.6,35.75,,,,,,,,,,
13.33.06.435,14.7,3.7,1,4.0,106.0,90859.8,11.01,-0.4,0.67,0.53,4.5,8.1,-3.8,35.75,,,,,,,,,,
13.33.06.447,74.4,18.6,0,4.0,,90639.9,11.03,-0.4,0.69,0.52,6.4,7.8,-2.1,35.75,,,,,,,,,,
13.33.06.455,102.0,25.5,0,4.0,,90722.6,11.02,-0.4,0.72,0.52,8.8,7.6,0.5,35.75,,,,,,,,,,
13.33.06.468,156.4,39.1,0,4.0,,89926.5,11.12,-0.41,0.76,0.52,10.4,7.9,3.6,35.75,,,,,,,,,,
13.33.06.476,216.4,54.1,0,4.0,,90863.6,11.01,-0.41,0.8,0.5,11.4,8.1,5.4,35.75,,,,,,,,,,
13.33.06.488,251.8,63.0,0,4.0,,90023.9,11.11,-0.42,0.83,0.48,9.9,8.7,5.1,35.75,,,,,,,,,,
13.33.06.496,268.2,67.0,0,4.0,,90294.4,11.07,-0.43,0.85,0.48,7.2,9.2,3.4,35.75,,,,,,,,,,
13.33.06.509,301.8,75.4,0,4.0,,89691.9,11.15,-0.43,0.85,0.47,3.3,9.1,1.5,35.75,,,,,,,,,,
13.33.06.517,316.8,79.2,0,4.0,,91169.7,10.97,-0.43,0.84,0.48,-0.7,9.2,-0.7,35.75,,,,,,,,,,
13.33.06.530,324.9,81.2,0,4.0,,92322.0,10.83,-0.44,0.83,0.49,-5.6,9.4,-3.1,35.75,,,,,,,,,,
13.33.06.537,300.2,75.0,0,4.0,,91179.0,10.97,-0.44,0.8,0.49,-9.6,9.2,-5.0,35.75,,,,,,,,,,
13.33.06.550,273.8,68.4,0,4.0,,88564.3,11.29,-0.44,0.76,0.51,-11.7,9.0,-6.9,35.75,,,,,,,,,,
13.33.06.558,271.0,67.8,0,4.0,,90999.0,10.99,-0.44,0.73,0.51,-12.2,9.1,-7.6,35.75,,,,,,,,,,
13.33.06.570,268.4,67.1,0,4.0,,90514.0,11.05,-0.43,0.7,0.53,-11.6,9.1,-7.6,35.75,,,,,,,,,,
13.33.06.582,221.1,55.3,0,4.0,,90927.1,11.0,-0.43,0.68,0.54,-10.5,9.5,-7.1,35.75,,,,,,,,,,
13.33.06.592,170.6,42.6,0,4.0,,91767.8,10.9,-0.44,0.67,0.54,-9.3,9.8,-7.1,35.75,,,,,,,,,,
13.33.06.603,140.9,35.2,0,4.0,,90959.3,10.99,-0.44,0.67,0.56,-8.1,9.6,-6.9,35.75,,,,,,,,,,
13.33.06.611,103.5,25.9,0,4.0,,91449.0,10.94,-0.45,0.66,0.56,-6.3,9.8,-6.9,35.75,,,,,,,,,,
13.33.06.623,39.0,9.8,0,4.0,,91084.9,10.98,-0.46,0.66,0.56,-4.6,9.0,-7.1,35.75,,,,,,,,,,
13.33.06.632,5.4,1.4,0,4.0,,89817.0,11.13,-0.46,0.66,0.55,-2.5,8.1,-6.8,35.75,,,,,,,,,,
13.33.06.644,26.2,6.6,0,4.0,,91455.5,10.93,-0.46,0.66,0.55,0.0,7.8,-5.2,35.75,,,,,,,,,,
13.33.06.652,32.9,8.2,0,4.0,,91405.4,10.94,-0.46,0.67,0.54,2.5,7.9,-2.7,35.75,,,,,,,,,,
13.33.06.664,55.1,13.8,0,4.0,,90782.7,11.02,-0.47,0.68,0.53,4.6,8.0,-1.4,35.75,,,,,,,,,,
13.33.06.673,51.9,13.0,0,4.0,,91510.6,10.93,-0.46,0.7,0.52,4.9,7.3,-1.0,35.75,,,,,,,,,,
13.33.06.685,55.6,13.9,0,4.0,,91413.9,10.94,-0.46,0.71,0.52,4.5,7.2,-1.1,35.75,,,,,,,,,,
13.33.06.693,60.2,15.0,0,4.0,,90666.4,11.03,-0.45,0.72,0.51,4.0,7.0,-1.2,35.75,,,,,,,,,,
13.33.06.705,50.4,12.6,0,4.0,,90140.3,11.09,-0.45,0.73,0.51,3.5,7.0,-1.5,35.75,,,,,,,,,,
13.33.06.713,47.2,11.8,0,4.0,,90284.0,11.08,-0.44,0.73,0.51,2.7,6.7,-2.1,35.75,,,,,,,,,,
13.33.06.726,32.5,8.1,0,4.0,,91768.7,10.9,-0.44,0.73,0.52,1.7,7.0,-2.7,35.75,,,,,,,,,,
13.33.06.734,14.2,3.6,0,4.0,,90463.7,11.05,-0.44,0.73,0.51,1.0,7.2,-2.7,35.75,,,,,,,,,,
13.33.06.746,5.1,1.3,0,4.0,,91255.9,10.96,-0.43,0.74,0.52,0.6,7.4,-3.1,35.75,,,,,,,,,,
13.33.06.754,-3.7,0.9,0,4.0,,90299.5,11.07,-0.43,0.73,0.52,0.2,7.5,-3.2,35.75,,,,,,,,,,
13.33.06.767,-19.2,4.8,0,4.0,,90563.3,11.04,-0.43,0.73,0.52,-0.4,8.2,-3.5,35.75,,,,,,,,,,
13.33.06.776,-23.9,6.0,0,4.0,,91448.2,10.94,-0.43,0.73,0.51,-0.6,7.9,-3.8,35.75,,,,,,,,,,
13.33.06.787,-22.1,5.5,0,4.0,,91344.5,10.95,-0.43,0.72,0.51,-0.2,8.2,-3.6,35.75,,,,,,,,,,
13.33.06.799,-32.4,8.1,0,4.0,,90627.8,11.03,-0.43,0.72,0.51,0.3,9.1,-2.8,35.75,,,,,,,,,,
13.33.06.812,-44.3,11.1,0,4.0,,91891.2,10.88,-0.43,0.72,0.51,0.8,9.4,-2.8,35.75,,,,,,,,,,
13.33.06.820,-30.7,7.7,0,4.0,,90189.0,11.09,-0.43,0.73,0.51,1.0,9.4,-1.8,35.75,,,,,,,,,,
13.33.06.832,-43.2,10.8,0,4.0,,90118.4,11.1,-0.43,0.73,0.51,1.5,9.6,-1.2,35.75,,,,,,,,,,
13.33.06.841,-44.8,11.2,0,4.0,,90739.7,11.02,-0.44,0.74,0.51,1.4,9.4,-1.3,35.75,,,,,,,,,,
13.33.06.853,-58.6,14.6,0,4.0,,91446.1,10.94,-0.43,0.74,0.51,0.3,9.7,-1.4,35.75,,,,,,,,,,
13.33.06.861,-62.1,15.5,0,4.0,,92544.1,10.81,-0.43,0.74,0.5,0.2,9.6,-2.0,35.75,,,,,,,,,,
13.33.06.873,-63.4,15.8,0,4.0,,89538.0,11.17,-0.44,0.73,0.5,-0.7,9.5,-2.2,35.75,,,,,,,,,,
13.33.06.881,-62.2,15.6,0,4.0,,90832.1,11.01,-0.43,0.73,0.51,-1.4,9.7,-2.4,35.75,,,,,,,,,,
13.33.06.894,-71.9,18.0,0,4.0,,91833.8,10.89,-0.44,0.73,0.51,-1.8,9.3,-2.7,35.75,,,,,,,,,,
13.33.06.903,-80.8,20.2,0,4.0,,90943.7,11.0,-0.44,0.72,0.52,-1.8,8.8,-2.8,35.75,,,,,,,,,,
13.33.06.914,-96.4,24.1,0,4.0,,90242.0,11.08,-0.44,0.72,0.52,-1.5,9.0,-3.0,35.75,,,,,,,,,,
13.33.06.922,-89.4,22.4,0,4.0,,90634.9,11.03,-0.44,0.72,0.52,-0.9,8.9,-2.5,35.75,,,,,,,,,,
13.33.06.935,-99.6,24.9,0,4.0,,90694.6,11.03,-0.44,0.71,0.53,-0.1,8.8,-1.9,35.75,,,,,,,,,,
13.33.06.943,-87.6,21.9,0,4.0,,91960.3,10.87,-0.45,0.72,0.52,0.4,9.1,-1.8,35.75,,,,,,,,,,
13.33.06.955,-101.6,25.4,0,4.0,,91963.2,10.87,-0.44,0.72,0.51,1.0,8.7,-1.3,35.75,,,,,,,,,,
13.33.06.963,-112.9,28.2,0,4.0,,90171.1,11.09,-0.44,0.72,0.52,1.5,8.4,-0.7,35.75,,,,,,,,,,
13.33.06.976,-113.0,28.2,0,4.0,,92291.6,10.84,-0.44,0.72,0.51,1.3,8.4,-0.6,35.75,,,,,,,,,,
13.33.06.985,-130.4,32.6,0,4.0,,90398.4,11.06,-0.45,0.73,0.51,1.2,8.8,-0.4,35.75,,,,,,,,,,
13.33.06.996,-133.5,33.4,0,4.0,,91073.9,10.98,-0.44,0.73,0.5,0.4,8.2,-0.9,35.75,,,,,,,,,,
13.33.07.004,7.7,1.9,1,5.0,105.6,91111.6,10.98,-0.44,0.73,0.51,0.1,8.3,-1.0,35.75,,,,,,,,,,
13.33.07.017,81.0,20.2,0,5.0,,90269.2,11.08,-0.45,0.73,0.52,-0.1,8.3,-1.6,35.75,,,,,,,,,,
13.33.07.029,138.9,34.7,0,5.0,,91509.0,10.93,-0.45,0.72,0.51,-0.7,8.1,-2.1,35.75,,,,,,,,,,
13.33.07.037,148.6,37.2,0,5.0,,89626.3,11.16,-0.45,0.72,0.51,-1.1,8.0,-2.6,35.75,,,,,,,,,,
13.33.07.049,223.8,56.0,0,5.0,,91156.6,10.97,-0.45,0.72,0.51,-1.0,8.1,-2.3,35.75,,,,,,,,,,
13.33.07.058,241.3,60.3,0,5.0,,91427.1,10.94,-0.45,0.72,0.5,-1.1,8.3,-2.6,35.75,,,,,,,,,,
13.33.07.070,301.2,75.3,0,5.0,,91323.8,10.95,-0.45,0.72,0.51,-1.3,8.2,-2.8,35.75,,,,,,,,,,
13.33.07.083,303.4,75.8,0,5.0,,91990.8,10.87,-0.45,0.71,0.52,-1.4,8.3,-2.8,35.75,,,,,,,,,,
13.33.07.090,296.5,74.1,0,5.0,,90753.3,11.02,-0.45,0.71,0.51,-1.0,8.3,-2.8,35.75,,,,,,,,,,
13.33.07.099,311.0,77.8,0,5.0,,89108.4,11.22,-0.46,0.71,0.51,-0.8,8.5,-2.4,35.75,,,,,,,,,,
13.33.07.111,344.1,86.0,0,5.0,,92117.4,10.86,-0.46,0.71,0.52,-0.6,8.4,-2.5,35.75,,,,,,,,,,
13.33.07.119,307.2,76.8,0,5.0,,90577.8,11.04,-0.46,0.71,0.52,-0.6,8.7,-2.5,35.75,,,,,,,,,,
13.33.07.156,206.0,51.5,0,5.0,,90440.5,11.06,-0.46,0.71,0.51,-0.4,8.8,-2.5,35.75,,,,,,,,,,
13.33.07.169,165.8,41.4,0,5.0,,90058.3,11.1,-0.46,0.72,0.52,-0.5,9.3,-2.2,35.75,,,,,,,,,,
13.33.07.180,108.7,27.2,0,5.0,,89691.5,11.15,-0.46,0.71,0.52,-0.2,9.5,-2.5,35.75,,,,,,,,,,
13.33.07.189,73.7,18.4,0,5.0,,89407.0,11.18,-0.46,0.72,0.52,-0.3,9.7,-2.4,35.75,,,,,,,,,,
13.33.07.202,1.9,0.5,0,5.0,,90937.4,11.0,-0.46,0.71,0.52,-0.5,10.2,-2.6,35.75,,,,,,,,,,
13.33.07.209,15.5,3.9,0,5.0,,91678.3,10.91,-0.46,0.72,0.51,-0.9,9.7,-3.1,35.75,,,,,,,,,,
13.33.07.222,30.7,7.7,0,5.0,,90414.6,11.06,-0.46,0.72,0.51,-1.2,9.8,-3.4,35.75,,,,,,,,,,
13.33.07.230,39.5,9.9,0,5.0,,91102.1,10.98,-0.45,0.71,0.51,-0.8,10.5,-3.5,35.75,,,,,,,,,,
13.33.07.243,49.8,12.4,0,5.0,,92147.1,10.85,-0.46,0.71,0.51,-1.1,10.5,-3.3,35.75,,,,,,,,,,
13.33.07.250,55.5,13.9,0,5.0,,90892.2,11.0,-0.46,0.71,0.51,-0.3,10.4,-3.4,35.75,,,,,,,,,,
13.33.07.262,58.0,14.5,0,5.0,,89994.8,11.11,-0.46,0.71,0.51,0.3,11.2,-3.4,35.75,,,,,,,,,,
13.33.07.271,70.9,17.7,0,5.0,,90977.7,10.99,-0.46,0.71,0.5,0.6,11.2,-3.0,35.75,,,,,,,,,,
13.33.07.283,43.1,10.8,0,5.0,,90195.2,11.09,-0.46,0.72,0.51,0.3,11.0,-3.0,35.75,,,,,,,,,,
13.33.07.291,45.0,11.2,0,5.0,,91201.1,10.96,-0.45,0.72,0.51,-0.1,11.2,-3.3,35.75,,,,,,,,,,
13.33.07.303,23.9,6.0,0,5.0,,90061.7,11.1,-0.46,0.72,0.5,-0.2,11.5,-3.7,35.75,,,,,,,,,,
13.33.07.316,5.2,1.3,0,5.0,,89532.6,11.17,-0.46,0.71,0.51,-0.5,11.3,-3.4,35.75,,,,,,,,,,
13.33.07.324,-7.6,1.9,0,5.0,,91615.3,10.92,-0.46,0.71,0.5,-0.4,11.6,-3.5,35.75,,,,,,,,,,
13.33.07.336,-10.0,2.5,0,5.0,,90954.2,10.99,-0.47,0.71,0.5,-0.6,11.4,-3.4,35.75,,,,,,,,,,
13.33.07.344,-13.6,3.4,0,5.0,,91288.0,10.95,-0.46,0.71,0.51,-0.5,11.8,-3.1,35.75,,,,,,,,,,
13.33.07.357,-14.2,3.6,0,5.0,,90209.4,11.09,-0.47,0.71,0.5,-0.6,11.4,-3.8,35.75,,,,,,,,,,
13.33.07.365,-22.1,5.5,0,5.0,,89556.9,11.17,-0.47,0.71,0.5,-0.6,11.6,-3.7,35.75,,,,,,,,,,
13.33.07.377,-35.2,8.8,0,5.0,,91534.4,10.92,-0.47,0.7,0.5,-0.6,11.8,-3.6,35.75,,,,,,,,,,
13.33.07.389,-46.2,11.6,0,5.0,,91617.4,10.91,-0.47,0.71,0.51,-0.3,11.9,-3.3,35.75,,,,,,,,,,
13.33.07.403,-51.4,12.8,0,5.0,,90071.5,11.1,-0.47,0.71,0.51,0.2,12.3,-3.4,35.75,,,,,,,,,,
13.33.07.410,-45.4,11.4,0,5.0,,91708.1,10.9,-0.47,0.71,0.51,0.0,12.1,-3.1,35.75,,,,,,,,,,
13.33.07.422,-52.4,13.1,0,5.0,,90899.5,11.0,-0.47,0.71,0.5,-0.5,12.2,-3.5,35.75,,,,,,,,,,
13.33.07.431,-59.3,14.8,0,5.0,,90649.0,11.03,-0.47,0.71,0.5,-0.6,12.6,-3.9,35.75,,,,,,,,,,
13.33.07.443,-64.4,16.1,0,5.0,,90106.4,11.1,-0.47,0.71,0.5,-0.9,12.9,-3.7,35.75,,,,,,,,,,
13.33.07.451,-62.0,15.5,0,5.0,,91290.9,10.95,-0.47,0.71,0.51,-0.7,12.7,-3.5,35.75,,,,,,,,,,
13.33.07.463,-79.2,19.8,0,5.0,,91220.6,10.96,-0.48,0.71,0.5,-0.8,12.8,-3.8,35.75,,,,,,,,,,
13.33.07.471,-78.9,19.7,0,5.0,,91172.5,10.97,-0.48,0.71,0.5,-0.9,13.1,-4.1,35.75,,,,,,,,,,
13.33.07.484,-82.1,20.5,0,5.0,,88986.5,11.24,-0.48,0.71,0.5,-1.4,13.2,-4.3,35.75,,,,,,,,,,
13.33.07.496,-87.5,21.9,0,5.0,,90423.2,11.06,-0.48,0.71,0.5,-1.6,13.7,-4.2,35.75,,,,,,,,,,
13.33.07.504,-95.4,23.8,0,5.0,,90892.2,11.0,-0.48,0.7,0.5,-1.3,13.6,-4.3,35.75,,,,,,,,,,
13.33.07.516,-97.4,24.4,0,5.0,,90876.7,11.0,-0.49,0.7,0.5,-1.1,14.2,-4.3,35.75,,,,,,,,,,
13.33.07.525,-114.0,28.5,0,5.0,,89565.2,11.17,-0.48,0.7,0.5,-0.6,14.5,-4.2,35.75,,,,,,,,,,
13.33.07.537,-116.7,29.2,0,5.0,,91164.1,10.97,-0.49,0.7,0.5,-0.6,14.9,-4.0,35.75,,,,,,,,,,
13.33.07.545,-116.8,29.2,0,5.0,,91611.1,10.92,-0.49,0.71,0.5,-0.5,14.9,-3.9,35.75,,,,,,,,,,
13.33.07.557,-123.4,30.8,0,5.0,,89329.2,11.19,-0.49,0.71,0.5,-0.9,15.0,-4.0,35.75,,,,,,,,,,
13.33.07.566,-128.8,32.2,0,5.0,,90886.1,11.0,-0.49,0.71,0.5,-0.4,15.3,-4.4,35.75,,,,,,,,,,
13.33.07.578,24.8,6.2,1,6.0,106.6,89953.9,11.12,-0.49,0.71,0.49,-0.4,15.4,-4.8,35.75,,,,,,,,,,
13.33.07.586,65.8,16.4,0,6.0,,90881.4,11.0,-0.49,0.7,0.5,-0.6,15.3,-4.5,35.75,,,,,,,,,,
13.33.07.598,121.0,30.2,0,6.0,,89885.8,11.13,-0.49,0.7,0.49,-1.0,15.1,-5.3,35.75,,,,,,,,,,
13.33.07.611,179.7,44.9,0,6.0,,90792.6,11.01,-0.49,0.7,0.49,-1.3,14.5,-5.9,35.75,,,,,,,,,,
13.33.07.620,229.2,57.3,0,6.0,,90761.3,11.02,-0.49,0.71,0.49,-1.6,13.7,-5.6,35.75,,,,,,,,,,
13.33.07.631,248.4,62.1,0,6.0,,92207.6,10.85,-0.49,0.7,0.49,-1.4,13.5,-5.5,35.75,,,,,,,,,,
13.33.07.639,283.8,71.0,0,6.0,,91682.8,10.91,-0.49,0.7,0.5,-1.7,13.3,-5.9,35.75,,,,,,,,,,
13.33.07.652,311.1,77.8,0,6.0,,92115.4,10.86,-0.5,0.7,0.49,-2.1,12.5,-6.0,35.75,,,,,,,,,,
13.33.07.660,304.0,76.0,0,6.0,,90098.0,11.1,-0.5,0.7,0.49,-2.5,12.5,-6.3,35.75,,,,,,,,,,
13.33.07.672,317.9,79.5,0,6.0,,89212.3,11.21,-0.5,0.7,0.49,-2.1,12.4,-6.1,35.75,,,,,,,,,,
13.33.07.685,304.3,76.1,0,6.0,,89659.8,11.15,-0.5,0.7,0.49,-1.8,12.6,-5.9,35.75,,,,,,,,,,
13.33.07.693,354.0,88.5,0,6.0,,90007.6,11.11,-0.5,0.7,0.49,-1.7,12.6,-5.9,35.75,,,,,,,,,,
13.33.07.705,260.9,65.2,0,6.0,,90834.4,11.01,-0.5,0.7,0.48,-1.5,12.5,-6.1,35.75,,,,,,,,,,
13.33.07.713,264.1,66.0,0,6.0,,92116.2,10.86,-0.51,0.7,0.48,-1.9,12.6,-6.1,35.75,,,,,,,,,,
13.33.07.726,242.5,60.6,0,6.0,,90717.1,11.02,-0.5,0.7,0.49,-1.9,12.7,-6.7,35.75,,,,,,,,,,
13.33.07.734,193.7,48.4,0,6.0,,91115.1,10.98,-0.51,0.7,0.49,-2.3,13.0,-6.8,35.75,,,,,,,,,,
13.33.07.746,121.1,30.3,0,6.0,,91485.3,10.93,-0.51,0.7,0.49,-2.7,12.8,-7.0,35.75,,,,,,,,,,
13.33.07.754,95.8,24.0,0,6.0,,90384.7,11.06,-0.51,0.7,0.5,-3.2,12.8,-7.5,35.75,,,,,,,,,,
13.33.07.766,41.4,10.4,0,6.0,,90872.1,11.0,-0.51,0.7,0.5,-3.1,12.9,-7.5,35.75,,,,,,,,,,
13.33.07.779,13.8,3.4,0,6.0,,89882.4,11.13,-0.51,0.69,0.49,-3.3,12.9,-7.5,35.75,,,,,,,,,,
13.33.07.787,21.7,5.4,0,6.0,,89107.9,11.22,-0.52,0.69,0.49,-3.4,12.6,-7.6,35.75,,,,,,,,,,
13.33.07.799,37.3,9.3,0,6.0,,90970.5,10.99,-0.52,0.69,0.49,-3.0,12.5,-7.6,35.75,,,,,,,,,,
13.33.07.807,48.1,12.0,0,6.0,,90812.2,11.01,-0.51,0.69,0.49,-2.8,12.4,-7.5,35.75,,,,,,,,,,
13.33.07.820,50.3,12.6,0,6.0,,90911.6,11.0,-0.51,0.69,0.49,-3.0,12.1,-7.4,35.75,,,,,,,,,,
13.33.07.828,66.1,16.5,0,6.0,,91598.1,10.92,-0.52,0.69,0.48,-3.0,12.1,-7.8,35.75,,,,,,,,,,
13.33.07.840,48.3,12.1,0,6.0,,91916.9,10.88,-0.52,0.7,0.49,-2.9,11.8,-7.6,35.75,,,,,,,,,,
13.33.07.848,38.8,9.7,0,6.0,,90705.9,11.02,-0.52,0.69,0.49,-3.3,11.4,-8.0,35.75,,,,,,,,,,
13.33.07.861,49.1,12.3,0,6.0,,90011.3,11.11,-0.52,0.68,0.49,-3.3,11.4,-8.3,35.75,,,,,,,,,,
13.33.07.873,17.2,4.3,0,6.0,,90145.1,11.09,-0.52,0.68,0.49,-3.4,11.0,-8.0,35.75,,,,,,,,,,
13.33.07.881,6.8,1.7,0,6.0,,89470.4,11.18,-0.52,0.68,0.49,-3.4,10.1,-7.3,35.75,,,,,,,,,,
13.33.07.893,-2.8,0.7,0,6.0,,92099.0,10.86,-0.53,0.68,0.49,-3.2,10.6,-7.1,35.75,,,,,,,,,,
13.33.07.902,-11.4,2.8,0,6.0,,89878.1,11.13,-0.53,0.68,0.49,-2.9,9.8,-6.7,35.75,,,,,,,,,,
13.33.07.914,-10.2,2.6,0,6.0,,90879.0,11.0,-0.53,0.68,0.49,-2.5,9.6,-6.2,35.75,,,,,,,,,,
13.33.07.922,-13.2,3.3,0,6.0,,89437.6,11.18,-0.54,0.68,0.49,-2.3,9.4,-5.9,35.75,,,,,,,,,,
13.33.07.959,-37.8,9.4,0,6.0,,90931.3,11.0,-0.53,0.67,0.49,-2.0,8.6,-5.3,35.75,,,,,,,,,,
13.33.07.972,-42.1,10.5,0,6.0,,90522.0,11.05,-0.53,0.67,0.49,-1.1,8.2,-3.5,35.75,,,,,,,,,,
13.33.07.983,-44.5,11.1,0,6.0,,89474.3,11.18,-0.53,0.67,0.49,-1.5,7.4,-3.6,35.75,,,,,,,,,,
13.33.07.992,-65.2,16.3,0,6.0,,89975.3,11.11,-0.53,0.67,0.49,-1.8,6.9,-3.1,35.75,,,,,,,,,,
13.33.08.004,-60.2,15.0,0,6.0,,90039.4,11.11,-0.53,0.67,0.49,-1.5,6.9,-2.9,35.75,,,,,,,,,,
13.33.08.016,-59.5,14.9,0,6.0,,91033.6,10.98,-0.53,0.68,0.49,-1.7,6.6,-3.0,35.75,,,,,,,,,,
13.33.08.024,-62.3,15.6,0,6.0,,91304.3,10.95,-0.54,0.68,0.5,-1.7,6.6,-3.5,35.75,,,,,,,,,,
13.33.08.037,-78.8,19.7,0,6.0,,91005.1,10.99,-0.53,0.67,0.49,-1.4,6.4,-3.4,35.75,,,,,,,,,,
13.33.08.045,-74.7,18.7,0,6.0,,90730.6,11.02,-0.53,0.68,0.49,-1.0,6.6,-3.2,35.75,,,,,,,,,,
13.33.08.057,-79.7,19.9,0,6.0,,90991.4,10.99,-0.53,0.68,0.49,-0.5,6.6,-3.1,35.75,,,,,,,,,,
13.33.08.065,-88.8,22.2,0,6.0,,90030.0,11.11,-0.53,0.67,0.48,-0.3,6.2,-3.0,35.75,,,,,,,,,,
13.33.08.078,-88.1,22.0,0,6.0,,90874.0,11.0,-0.53,0.67,0.48,-0.5,6.4,-3.1,35.75,,,,,,,,,,
13.33.08.086,-91.4,22.8,0,6.0,,90611.3,11.04,-0.54,0.68,0.48,-0.5,6.1,-2.4,35.75,,,,,,,,,,
13.33.08.098,-113.0,28.2,0,6.0,,90582.0,11.04,-0.54,0.67,0.49,-0.6,5.9,-2.0,35.75,,,,,,,,,,
13.33.08.107,-100.8,25.2,0,6.0,,90894.7,11.0,-0.54,0.67,0.49,-0.9,5.7,-2.4,35.75,,,,,,,,,,
13.33.08.119,-108.4,27.1,0,6.0,,89683.3,11.15,-0.54,0.67,0.49,-0.8,5.3,-2.0,35.75,,,,,,,,,,
13.33.08.127,-105.2,26.3,0,6.0,,89602.9,11.16,-0.54,0.67,0.5,-0.3,5.3,-0.9,35.75,,,,,,,,,,
13.33.08.139,-122.5,30.6,0,6.0,,91363.2,10.95,-0.54,0.66,0.49,0.2,4.4,0.0,35.75,,,,,,,,,,
13.33.08.147,13.9,3.5,1,7.0,103.2,90300.2,11.07,-0.54,0.66,0.49,0.6,4.3,0.9,35.75,,,,,,,,,,
13.33.08.160,88.4,22.1,0,7.0,,91323.7,10.95,-0.54,0.66,0.5,1.0,4.0,1.1,35.75,,,,,,,,,,
13.33.08.168,119.4,29.8,0,7.0,,90641.7,11.03,-0.54,0.66,0.5,1.2,2.9,1.4,35.75,,,,,,,,,,
13.33.08.180,171.5,42.9,0,7.0,,90698.1,11.03,-0.54,0.66,0.5,1.5,2.2,1.9,35.75,,,,,,,,,,
13.33.08.188,204.1,51.0,0,7.0,,91784.9,10.9,-0.53,0.67,0.49,2.2,1.3,2.6,35.75,,,,,,,,,,
13.33.08.202,253.1,63.3,0,7.0,,90784.3,11.02,-0.53,0.67,0.5,2.8,0.4,3.2,35.75,,,,,,,,,,
13.33.08.209,264.7,66.2,0,7.0,,90279.2,11.08,-0.53,0.67,0.5,3.2,-1.2,3.8,35.75,,,,,,,,,,
13.33.08.221,297.7,74.4,0,7.0,,90371.3,11.07,-0.52,0.67,0.48,3.4,-2.3,4.2,35.75,,,,,,,,,,
13.33.08.233,278.8,69.7,0,7.0,,91220.0,10.96,-0.52,0.67,0.49,3.3,-3.4,5.0,35.75,,,,,,,,,,
13.33.08.242,317.7,79.4,0,7.0,,89601.3,11.16,-0.53,0.67,0.48,3.3,-4.3,6.1,35.75,,,,,,,,,,
13.33.08.254,308.2,77.0,0,7.0,,90112.3,11.1,-0.53,0.66,0.49,2.9,-5.5,7.0,35.75,,,,,,,,,,
13.33.08.262,279.5,69.9,0,7.0,,89623.2,11.16,-0.53,0.66,0.5,2.9,-7.2,8.3,35.75,,,,,,,,,,
13.33.08.275,257.2,64.3,0,7.0,,90180.7,11.09,-0.53,0.67,0.5,2.8,-8.5,9.4,35.75,,,,,,,,,,
13.33.08.283,260.5,65.1,0,7.0,,90571.2,11.04,-0.54,0.66,0.51,3.8,-10.0,10.3,35.75,,,,,,,,,,
13.33.08.295,214.0,53.5,0,7.0,,90412.7,11.06,-0.54,0.67,0.5,4.7,-11.5,10.9,35.75,,,,,,,,,,
13.33.08.304,178.0,44.5,0,7.0,,89669.3,11.15,-0.53,0.67,0.5,6.0,-12.3,11.3,35.75,,,,,,,,,,
13.33.08.315,132.3,33.1,0,7.0,,90780.1,11.02,-0.53,0.68,0.49,7.4,-13.1,11.4,35.75,,,,,,,,,,
13.33.08.323,85.6,21.4,0,7.0,,90995.8,10.99,-0.52,0.68,0.49,8.8,-12.9,11.8,35.75,,,,,,,,,,
13.33.08.336,32.3,8.1,0,7.0,,90855.5,11.01,-0.51,0.69,0.49,10.3,-13.0,12.0,35.75,,,,,,,,,,
13.33.08.348,5.6,1.4,0,7.0,,91830.6,10.89,-0.5,0.7,0.48,10.9,-13.0,11.9,35.75,,,,,,,,,,
13.33.08.357,24.9,6.2,0,7.0,,91255.3,10.96,-0.5,0.71,0.49,10.2,-12.9,11.2,35.75,,,,,,,,,,
13.33.08.369,44.4,11.1,0,7.0,,90443.6,11.06,-0.49,0.71,0.5,9.1,-13.3,9.7,35.75,,,,,,,,,,
13.33.08.377,49.9,12.5,0,7.0,,93270.7,10.72,-0.49,0.71,0.49,7.3,-12.8,7.9,35.75,,,,,,,,,,
13.33.08.389,53.2,13.3,0,7.0,,89645.7,11.16,-0.48,0.71,0.5,6.3,-12.7,6.9,35.75,,,,,,,,,,
13.33.08.397,60.8,15.2,0,7.0,,89996.2,11.11,-0.48,0.71,0.5,5.7,-12.5,5.8,35.75,,,,,,,,,,
13.33.08.414,49.4,12.4,0,7.0,,90433.6,11.06,-0.47,0.72,0.52,4.8,-11.0,4.4,35.75,,,,,,,,,,
13.33.08.422,53.8,13.4,0,7.0,,89288.5,11.2,-0.47,0.72,0.52,3.9,-10.4,3.5,35.75,,,,,,,,,,
13.33.08.434,25.9,6.5,0,7.0,,91933.6,10.88,-0.46,0.71,0.52,3.5,-9.3,3.0,35.75,,,,,,,,,,
13.33.08.442,23.6,5.9,0,7.0,,89832.5,11.13,-0.46,0.72,0.52,3.1,-8.5,2.9,35.75,,,,,,,,,,
13.33.08.455,-5.6,1.4,0,7.0,,90035.8,11.11,-0.46,0.71,0.52,3.1,-6.9,3.5,35.75,,,,,,,,,,
13.33.08.463,-12.2,3.0,0,7.0,,90709.8,11.02,-0.46,0.7,0.52,2.4,-5.7,2.8,35.75,,,,,,,,,,
13.33.08.475,-5.1,1.3,0,7.0,,90995.0,10.99,-0.46,0.7,0.53,1.9,-4.8,2.7,35.75,,,,,,,,,,
13.33.08.483,-13.4,3.4,0,7.0,,89790.5,11.14,-0.45,0.7,0.53,1.8,-3.3,2.3,35.75,,,,,,,,,,
13.33.08.496,-24.7,6.2,0,7.0,,89889.5,11.12,-0.46,0.7,0.53,2.2,-2.6,2.6,35.75,,,,,,,,,,
13.33.08.504,-25.8,6.4,0,7.0,,90804.4,11.01,-0.46,0.7,0.53,2.9,-1.2,3.0,35.75,,,,,,,,,,
13.33.08.516,-32.2,8.0,0,7.0,,90746.6,11.02,-0.46,0.71,0.52,2.9,-0.8,2.8,35.75,,,,,,,,,,
13.33.08.524,-39.9,10.0,0,7.0,,91759.4,10.9,-0.46,0.71,0.52,2.7,0.1,2.6,35.75,,,,,,,,,,
13.33.08.537,-41.4,10.4,0,7.0,,90960.6,10.99,-0.46,0.7,0.52,3.2,0.6,2.7,35.75,,,,,,,,,,
13.33.08.545,-44.8,11.2,0,7.0,,90979.3,10.99,-0.46,0.71,0.52,3.6,1.1,3.4,35.75,,,,,,,,,,
13.33.08.557,-58.6,14.6,0,7.0,,91027.9,10.99,-0.46,0.71,0.51,4.0,1.9,4.0,35.75,,,,,,,,,,
13.33.08.565,-56.2,14.0,0,7.0,,90800.8,11.01,-0.46,0.71,0.51,3.7,1.9,3.7,35.75,,,,,,,,,,
13.33.08.577,-61.4,15.4,0,7.0,,89816.4,11.13,-0.46,0.71,0.5,2.5,2.4,2.8,35.75,,,,,,,,,,
13.33.08.586,-62.8,15.7,0,7.0,,90796.7,11.01,-0.46,0.72,0.51,1.9,2.6,2.0,35.75,,,,,,,,,,
13.33.08.598,-78.9,19.7,0,7.0,,90422.5,11.06,-0.47,0.71,0.5,1.1,3.0,1.9,35.75,,,,,,,,,,
13.33.08.606,-81.1,20.3,0,7.0,,89640.2,11.16,-0.47,0.72,0.51,0.8,3.7,1.4,35.75,,,,,,,,,,
13.33.08.618,-77.0,19.2,0,7.0,,90796.9,11.01,-0.46,0.72,0.51,0.6,4.7,1.1,35.75,,,,,,,,,,
13.33.08.627,-86.0,21.5,0,7.0,,89890.4,11.12,-0.46,0.72,0.52,0.0,5.1,0.3,35.75,,,,,,,,,,
13.33.08.640,-91.5,22.9,0,7.0,,91423.4,10.94,-0.45,0.73,0.52,0.0,5.2,-0.9,35.75,,,,,,,,,,
13.33.08.647,-102.5,25.6,0,7.0,,90347.1,11.07,-0.45,0.72,0.52,0.2,6.4,-2.4,35.75,,,,,,,,,,
13.33.08.659,-93.6,23.4,0,7.0,,91540.2,10.92,-0.44,0.72,0.52,0.4,6.7,-3.1,35.75,,,,,,,,,,
13.33.08.668,-102.4,25.6,0,7.0,,90183.6,11.09,-0.44,0.71,0.52,1.1,7.7,-3.5,35.75,,,,,,,,,,
13.33.08.680,-107.7,26.9,0,7.0,,90959.3,10.99,-0.45,0.72,0.53,1.9,8.8,-3.1,35.75,,,,,,,,,,
13.33.08.689,-109.4,27.4,0,7.0,,90617.4,11.04,-0.44,0.72,0.53,2.2,9.4,-2.9,35.75,,,,,,,,,,
13.33.08.700,-121.9,30.5,0,7.0,,90088.3,11.1,-0.45,0.72,0.53,2.3,9.2,-3.0,35.75,,,,,,,,,,
13.33.08.709,-128.2,32.0,0,7.0,,90546.5,11.04,-0.46,0.73,0.54,1.8,9.0,-3.2,35.75,,,,,,,,,,
13.33.08.721,40.5,10.1,1,8.0,97.2,90750.3,11.02,-0.47,0.74,0.55,2.4,8.6,-2.6,35.75,,,,,,,,,,
13.33.08.729,83.9,21.0,0,8.0,,90894.3,11.0,-0.48,0.76,0.57,4.3,7.2,-2.0,35.75,,,,,,,,,,
13.33.08.767,251.1,62.8,0,8.0,,89601.2,11.16,-0.48,0.76,0.58,7.3,6.3,-1.4,35.75,,,,,,,,,,
13.33.08.778,270.7,67.7,0,8.0,,91113.8,10.98,-0.4,0.69,0.44,14.9,7.4,4.2,35.75,,,,,,,,,,
13.33.08.786,286.4,71.6,0,8.0,,90703.6,11.02,-0.4,0.67,0.4,14.4,10.2,4.8,35.75,,,,,,,,,,
13.33.08.799,337.7,84.4,0,8.0,,90883.8,11.0,-0.41,0.65,0.38,13.0,13.9,4.5,35.75,,,,,,,,,,
13.33.08.807,310.8,77.7,0,8.0,,90077.2,11.1,-0.43,0.67,0.38,8.2,20.4,2.6,35.75,,,,,,,,,,
13.33.08.819,334.8,83.7,0,8.0,,89647.5,11.15,-0.46,0.72,0.41,-0.6,21.8,-1.7,35.75,,,,,,,,,,
13.33.08.832,309.4,77.4,0,8.0,,90026.0,11.11,-0.48,0.77,0.46,-14.7,21.6,-11.5,35.75,,,,,,,,,,
13.33.08.844,266.6,66.6,0,8.0,,91359.6,10.95,-0.48,0.77,0.51,-23.5,18.0,-18.4,35.75,,,,,,,,,,
13.33.08.852,247.6,61.9,0,8.0,,88872.3,11.25,-0.49,0.75,0.56,-25.8,16.1,-21.4,35.75,,,,,,,,,,
13.33.08.864,224.0,56.0,0,8.0,,90419.6,11.06,-0.47,0.68,0.57,-23.6,15.3,-21.7,35.75,,,,,,,,,,
13.33.08.872,199.1,49.8,0,8.0,,91645.3,10.91,-0.46,0.66,0.57,-19.3,15.5,-15.9,35.75,,,,,,,,,,
13.33.08.885,145.6,36.4,0,8.0,,90477.5,11.05,-0.47,0.65,0.56,-12.2,15.6,-8.9,35.75,,,,,,,,,,
13.33.08.897,75.1,18.8,0,8.0,,90668.5,11.03,-0.48,0.66,0.53,-6.4,12.8,-3.2,35.75,,,,,,,,,,
13.33.08.905,38.4,9.6,0,8.0,,89723.1,11.15,-0.49,0.67,0.52,-3.7,9.9,-1.1,35.75,,,,,,,,,,
13.33.08.917,2.0,0.5,0,8.0,,91082.8,10.98,-0.5,0.66,0.5,-2.2,6.7,-2.0,35.75,,,,,,,,,,
13.33.08.926,19.2,4.8,0,8.0,,91019.3,10.99,-0.45,0.62,0.49,-3.6,4.7,-0.8,35.75,,,,,,,,,,
13.33.08.938,34.1,8.5,0,8.0,,90279.7,11.08,-0.55,0.69,0.53,3.2,3.3,-0.5,35.75,,,,,,,,,,
13.33.08.946,52.5,13.1,0,8.0,,90359.1,11.07,-0.48,0.66,0.5,3.6,0.2,-0.1,35.75,,,,,,,,,,
13.33.08.958,59.0,14.8,0,8.0,,90127.5,11.1,-0.51,0.66,0.54,1.5,-2.9,-4.0,35.75,,,,,,,,,,
13.33.08.967,54.2,13.6,0,8.0,,91761.7,10.9,-0.49,0.66,0.52,0.5,-6.8,-4.3,35.75,,,,,,,,,,
13.33.08.979,55.6,13.9,0,8.0,,91925.5,10.88,-0.49,0.67,0.53,1.7,-8.5,-2.5,35.75,,,,,,,,,,
13.33.08.987,49.2,12.3,0,8.0,,91204.7,10.96,-0.49,0.68,0.53,2.0,-10.6,-1.7,35.75,,,,,,,,,,
13.33.08.999,35.6,8.9,0,8.0,,91284.9,10.95,-0.48,0.68,0.53,1.3,-15.1,-1.4,35.75,,,,,,,,,,
13.33.09.008,31.8,8.0,0,8.0,,90586.8,11.04,-0.49,0.71,0.53,1.1,-17.9,-0.4,35.75,,,,,,,,,,
13.33.09.021,14.4,3.6,0,8.0,,90777.7,11.02,-0.48,0.7,0.52,3.5,-18.2,2.0,35.75,,,,,,,,,,
13.33.09.028,-0.7,0.2,0,8.0,,91696.6,10.91,-0.49,0.69,0.52,5.4,-21.1,3.8,35.75,,,,,,,,,,
13.33.09.040,3.1,0.8,0,8.0,,89307.5,11.2,-0.48,0.71,0.52,7.1,-22.1,4.6,35.75,,,,,,,,,,
13.33.09.049,-17.1,4.3,0,8.0,,90197.9,11.09,-0.48,0.72,0.51,7.8,-22.5,4.8,35.75,,,,,,,,,,
13.33.09.061,-19.9,5.0,0,8.0,,90294.1,11.07,-0.48,0.72,0.51,7.3,-23.6,4.0,35.75,,,,,,,,,,
13.33.09.073,-23.7,5.9,0,8.0,,90425.0,11.06,-0.48,0.71,0.5,6.6,-23.1,2.5,35.75,,,,,,,,,,
13.33.09.081,-19.7,4.9,0,8.0,,91341.3,10.95,-0.48,0.71,0.5,6.0,-20.3,1.6,35.75,,,,,,,,,,
13.33.09.094,-42.2,10.6,0,8.0,,91013.2,10.99,-0.48,0.72,0.5,4.8,-16.5,0.8,35.75,,,,,,,,,,
13.33.09.102,-43.4,10.8,0,8.0,,91040.2,10.98,-0.47,0.71,0.5,3.2,-11.5,-0.7,35.75,,,,,,,,,,
13.33.09.114,-50.1,12.5,0,8.0,,91278.4,10.96,-0.47,0.73,0.51,0.8,-5.1,-2.6,35.75,,,,,,,,,,
13.33.09.122,-52.8,13.2,0,8.0,,91080.1,10.98,-0.46,0.73,0.51,-2.0,0.5,-5.3,35.75,,,,,,,,,,
13.33.09.135,-53.9,13.5,0,8.0,,89963.4,11.12,-0.46,0.73,0.52,-4.6,4.8,-8.7,35.75,,,,,,,,,,
13.33.09.143,-50.5,12.6,0,8.0,,91056.5,10.98,-0.46,0.71,0.52,-5.8,5.7,-10.6,35.75,,,,,,,,,,
13.33.09.155,-63.9,16.0,0,8.0,,89458.3,11.18,-0.46,0.69,0.53,-2.6,6.5,-8.0,35.75,104.2,,,,,,,,,
13.33.09.163,-69.1,17.3,0,8.0,,90939.5,11.0,-0.45,0.68,0.53,3.5,9.3,-3.3,35.75,,,,,,,,,,
13.33.09.176,-77.5,19.4,0,8.0,,90816.2,11.01,-0.44,0.68,0.53,9.2,10.0,1.2,35.75,,,,,,,,,,
13.33.09.184,-76.7,19.2,0,8.0,,90293.6,11.07,-0.44,0.7,0.52,12.6,10.0,2.4,35.75,,,,,,,,,,
13.33.09.196,-92.5,23.1,0,8.0,,90771.9,11.02,-0.43,0.72,0.52,12.7,8.0,1.9,35.75,,,,,,,,,,
13.33.09.204,-87.1,21.8,0,8.0,,89333.1,11.19,-0.42,0.74,0.53,12.8,7.2,0.5,35.75,,,,,,,,,,
13.33.09.218,-94.0,23.5,0,8.0,,91620.0,10.91,-0.41,0.76,0.52,11.6,6.2,-0.5,35.75,,,,,,,,,,
13.33.09.225,-105.5,26.4,0,8.0,,90793.5,11.01,-0.4,0.77,0.52,9.1,4.3,-2.4,35.75,,,,,,,,,,
13.33.09.237,-92.8,23.2,0,8.0,,91565.4,10.92,-0.4,0.78,0.51,5.7,4.0,-5.3,35.75,,,,,,,,,,
13.33.09.249,-106.9,26.7,0,8.0,,89009.8,11.23,-0.4,0.77,0.52,0.9,2.7,-8.2,35.75,,,,,,,,,,
13.33.09.259,-133.3,33.3,0,8.0,,89863.1,11.13,-0.4,0.75,0.52,-2.2,1.9,-10.1,35.75,,,,,,,,,,
13.33.09.270,-109.2,27.3,0,8.0,,90853.8,11.01,-0.41,0.74,0.53,-4.4,1.4,-10.5,35.75,,,,,,,,,,
13.33.09.278,-114.5,28.6,0,8.0,,90791.1,11.01,-0.42,0.73,0.54,-5.4,0.1,-9.4,35.75,,,,,,,,,,
13.33.09.290,34.2,8.6,1,9.0,110.4,89137.6,11.22,-0.42,0.72,0.54,-6.2,0.9,-9.3,35.75,,,,,,,,,,
13.33.09.298,70.3,17.6,0,9.0,,90430.8,11.06,-0.43,0.7,0.55,-7.2,0.9,-8.4,35.75,,,,,,,,,,
13.33.09.311,155.0,38.8,0,9.0,,90062.6,11.1,-0.43,0.7,0.55,-5.9,1.4,-6.7,35.75,,,,,,,,,,
13.33.09.319,175.8,44.0,0,9.0,,91432.4,10.94,-0.43,0.7,0.56,-3.6,4.1,-4.1,35.75,,,,,,,,,,
13.33.09.331,226.9,56.7,0,9.0,,91660.4,10.91,-0.44,0.69,0.55,-1.9,4.8,-2.4,35.75,,,,,,,,,,
13.33.09.344,266.3,66.6,0,9.0,,92085.6,10.86,-0.43,0.69,0.55,-0.4,6.0,-0.7,35.75,,,,,,,,,,
13.33.09.352,291.2,72.8,0,9.0,,90517.0,11.05,-0.44,0.69,0.55,1.2,7.5,1.1,35.75,,,,,,,,,,
13.33.09.364,304.6,76.2,0,9.0,,90600.9,11.04,-0.43,0.69,0.54,3.3,7.9,3.4,35.75,,,,,,,,,,
13.33.09.372,302.7,75.7,0,9.0,,89712.8,11.15,-0.44,0.7,0.53,5.0,9.0,5.2,35.75,,,,,,,,,,
13.33.09.386,279.5,69.9,0,9.0,,92476.5,10.81,-0.44,0.71,0.53,5.5,9.7,6.3,35.75,,,,,,,,,,
13.33.09.393,325.9,81.5,0,9.0,,91894.9,10.88,-0.44,0.72,0.53,4.8,9.0,5.4,35.75,,,,,,,,,,
13.33.09.405,284.3,71.1,0,9.0,,89880.2,11.13,-0.44,0.73,0.53,3.5,9.6,4.3,35.75,,,,,,,,,,
13.33.09.413,291.7,72.9,0,9.0,,91311.7,10.95,-0.44,0.73,0.52,2.0,9.4,3.2,35.75,,,,,,,,,,
13.33.09.425,236.3,59.1,0,9.0,,92378.6,10.83,-0.43,0.73,0.51,0.7,9.7,1.8,35.75,,,,,,,,,,
13.33.09.434,219.7,54.9,0,9.0,,89788.0,11.14,-0.44,0.73,0.51,-1.0,9.4,0.4,35.75,,,,,,,,,,
13.33.09.446,166.2,41.6,0,9.0,,89879.7,11.13,-0.45,0.72,0.52,-2.5,8.6,-0.6,35.75,,,,,,,,,,
13.33.09.454,145.4,36.4,0,9.0,,90829.2,11.01,-0.45,0.72,0.52,-3.3,8.4,-1.4,35.75,,,,,,,,,,
13.33.09.466,76.6,19.2,0,9.0,,90644.6,11.03,-0.46,0.71,0.51,-3.1,8.1,-1.0,35.75,,,,,,,,,,
13.33.09.479,14.8,3.7,0,9.0,,90877.0,11.0,-0.46,0.7,0.52,-2.5,7.5,-0.4,35.75,,,,,,,,,,
13.33.09.487,3.2,0.8,0,9.0,,92124.7,10.85,-0.47,0.69,0.52,-2.1,6.8,0.4,35.75,,,,,,,,,,
13.33.09.499,27.2,6.8,0,9.0,,90836.1,11.01,-0.47,0.69,0.52,-1.7,5.9,0.4,35.75,,,,,,,,,,
13.33.09.508,31.3,7.8,0,9.0,,90427.1,11.06,-0.47,0.69,0.52,-1.4,5.9,1.0,35.75,,,,,,,,,,
13.33.09.520,42.9,10.7,0,9.0,,90780.4,11.02,-0.47,0.69,0.52,-0.1,5.7,1.1,35.75,,,,,,,,,,
13.33.09.528,67.5,16.9,0,9.0,,90736.4,11.02,-0.47,0.69,0.52,0.5,6.0,1.9,35.75,,,,,,,,,,
13.33.09.564,46.1,11.5,0,9.0,,90704.5,11.02,-0.47,0.69,0.54,1.1,6.0,2.1,35.75,,,,,,,,,,
13.33.09.577,28.6,7.2,0,9.0,,90287.4,11.08,-0.45,0.69,0.54,4.3,6.0,3.0,35.75,,,,,,,,,,
13.33.09.589,13.4,3.4,0,9.0,,90359.7,11.07,-0.45,0.7,0.52,4.6,5.9,3.5,35.75,,,,,,,,,,
13.33.09.598,1.2,0.3,0,9.0,,90383.3,11.06,-0.45,0.71,0.53,5.1,5.8,3.3,35.75,,,,,,,,,,
13.33.09.610,-4.8,1.2,0,9.0,,90363.0,11.07,-0.44,0.71,0.53,5.2,5.6,3.1,35.75,,,,,,,,,,
13.33.09.618,-9.5,2.4,0,9.0,,91310.3,10.95,-0.44,0.72,0.52,5.3,5.6,2.9,35.75,,,,,,,,,,
13.33.09.630,-21.3,5.3,0,9.0,,90080.6,11.1,-0.44,0.72,0.52,4.7,5.4,2.5,35.75,,,,,,,,,,
13.33.09.643,-15.2,3.8,0,9.0,,90160.7,11.09,-0.44,0.73,0.52,3.5,5.4,1.6,35.75,,,,,,,,,,
13.33.09.651,-23.6,5.9,0,9.0,,91380.3,10.94,-0.44,0.73,0.52,3.1,4.7,1.5,35.75,,,,,,,,,,
13.33.09.663,-35.9,9.0,0,9.0,,90574.4,11.04,-0.43,0.73,0.52,2.3,4.8,0.8,35.75,,,,,,,,,,
13.33.09.671,-31.7,7.9,0,9.0,,90152.1,11.09,-0.43,0.73,0.52,1.3,4.5,0.0,35.75,,,,,,,,,,
13.33.09.684,-33.8,8.4,0,9.0,,91181.7,10.97,-0.44,0.73,0.52,0.7,4.2,-0.7,35.75,,,,,,,,,,
13.33.09.692,-46.8,11.7,0,9.0,,93253.1,10.72,-0.44,0.73,0.52,0.4,3.9,-0.7,35.75,,,,,,,,,,
13.33.09.704,-50.4,12.6,0,9.0,,91205.0,10.96,-0.43,0.72,0.52,0.4,4.1,-0.6,35.75,,,,,,,,,,
13.33.09.712,-64.6,16.2,0,9.0,,90522.6,11.05,-0.44,0.72,0.52,0.8,3.9,-0.7,35.75,,,,,,,,,,
13.33.09.725,-50.6,12.6,0,9.0,,91389.9,10.94,-0.44,0.72,0.52,0.7,4.0,-0.4,35.75,,,,,,,,,,
13.33.09.733,-82.3,20.6,0,9.0,,91960.6,10.87,-0.43,0.72,0.52,1.0,4.3,0.0,35.75,,,,,,,,,,
13.33.09.745,-77.6,19.4,0,9.0,,89598.5,11.16,-0.43,0.72,0.53,0.6,4.6,0.1,35.75,,,,,,,,,,
13.33.09.754,-76.1,19.0,0,9.0,,91196.6,10.97,-0.43,0.73,0.53,0.7,4.7,0.1,35.75,,,,,,,,,,
13.33.09.766,-94.6,23.6,0,9.0,,91037.3,10.98,-0.44,0.72,0.52,0.6,5.4,-0.3,35.75,,,,,,,,,,
13.33.09.774,-76.1,19.0,0,9.0,,91451.0,10.93,-0.43,0.72,0.53,0.0,5.5,-0.5,35.75,,,,,,,,,,
13.33.09.786,-80.3,20.1,0,9.0,,89581.1,11.16,-0.43,0.72,0.53,-0.3,5.8,-0.8,35.75,,,,,,,,,,
13.33.09.794,-98.2,24.6,0,9.0,,90194.6,11.09,-0.43,0.72,0.52,-0.5,6.5,-1.4,35.75,,,,,,,,,,
13.33.09.806,-105.5,26.4,0,9.0,,90711.7,11.02,-0.44,0.72,0.53,-0.6,6.3,-1.2,35.75,,,,,,,,,,
13.33.09.815,-108.6,27.2,0,9.0,,91154.2,10.97,-0.43,0.72,0.53,-1.1,6.8,-1.6,35.75,,,,,,,,,,
13.33.09.827,-112.7,28.2,0,9.0,,89966.9,11.12,-0.44,0.72,0.52,-1.0,6.8,-2.1,35.75,,,,,,,,,,
13.33.09.835,-114.7,28.7,0,9.0,,91226.9,10.96,-0.44,0.72,0.53,-1.1,7.1,-1.6,35.75,,,,,,,,,,
13.33.09.847,-127.7,31.9,0,9.0,,90523.3,11.05,-0.44,0.72,0.53,-1.1,7.0,-1.6,35.75,,,,,,,,,,
13.33.09.856,11.7,2.9,1,10.0,104.0,89891.5,11.12,-0.43,0.72,0.53,-1.1,7.1,-1.8,35.75,,,,,,,,,,
13.33.09.868,83.4,20.8,0,10.0,,91975.7,10.87,-0.44,0.72,0.53,-1.3,7.1,-2.3,35.75,,,,,,,,,,
13.33.09.876,99.8,25.0,0,10.0,,90931.0,11.0,-0.44,0.71,0.53,-1.6,6.8,-2.2,35.75,,,,,,,,,,
13.33.09.888,160.3,40.1,0,10.0,,91187.1,10.97,-0.44,0.71,0.53,-1.7,6.4,-2.3,35.75,,,,,,,,,,
13.33.09.897,202.1,50.5,0,10.0,,91780.7,10.9,-0.45,0.71,0.53,-1.3,6.2,-2.2,35.75,,,,,,,,,,
13.33.09.909,243.1,60.8,0,10.0,,90739.2,11.02,-0.44,0.71,0.53,-0.9,6.2,-2.0,35.75,,,,,,,,,,
13.33.09.921,286.5,71.6,0,10.0,,90681.8,11.03,-0.44,0.71,0.52,-0.6,6.2,-2.4,35.75,,,,,,,,,,
13.33.09.929,283.1,70.8,0,10.0,,91183.7,10.97,-0.44,0.7,0.53,-0.1,6.0,-1.5,35.75,,,,,,,,,,
13.33.09.942,321.2,80.3,0,10.0,,90708.7,11.02,-0.44,0.7,0.53,0.2,5.9,-1.1,35.75,,,,,,,,,,
13.33.09.950,322.5,80.6,0,10.0,,90763.0,11.02,-0.44,0.71,0.53,0.6,5.7,-1.0,35.75,,,,,,,,,,
13.33.09.962,328.6,82.2,0,10.0,,91368.3,10.94,-0.44,0.71,0.52,0.8,6.0,-0.9,35.75,,,,,,,,,,
13.33.09.970,298.7,74.7,0,10.0,,90898.6,11.0,-0.44,0.71,0.52,0.8,5.5,-0.4,35.75,,,,,,,,,,
13.33.09.983,300.8,75.2,0,10.0,,90312.7,11.07,-0.44,0.71,0.52,1.3,6.0,-0.4,35.75,,,,,,,,,,
13.33.09.991,266.6,66.6,0,10.0,,89817.4,11.13,-0.45,0.71,0.52,1.0,6.1,-0.5,35.75,,,,,,,,,,
13.33.10.003,236.4,59.1,0,10.0,,89681.9,11.15,-0.44,0.71,0.53,0.9,5.5,-0.7,35.75,,,,,,,,,,
13.33.10.011,196.2,49.0,0,10.0,,90672.8,11.03,-0.44,0.72,0.52,0.7,5.6,-1.0,35.75,,,,,,,,,,
13.33.10.024,135.6,33.9,0,10.0,,90400.2,11.06,-0.45,0.72,0.53,0.4,5.4,-1.2,35.75,,,,,,,,,,
13.33.10.032,96.2,24.0,0,10.0,,89323.9,11.2,-0.44,0.72,0.53,0.6,5.4,-1.2,35.75,,,,,,,,,,
13.33.10.044,39.7,9.9,0,10.0,,90617.1,11.04,-0.44,0.71,0.53,0.5,5.4,-1.4,35.75,,,,,,,,,,
13.33.10.052,2.4,0.6,0,10.0,,91766.1,10.9,-0.44,0.71,0.53,0.4,5.2,-1.4,35.75,,,,,,,,,,
13.33.10.065,23.8,6.0,0,10.0,,90411.0,11.06,-0.44,0.71,0.53,0.6,5.3,-1.4,35.75,,,,,,,,,,
13.33.10.074,25.6,6.4,0,10.0,,90601.3,11.04,-0.44,0.71,0.53,1.2,5.0,-0.7,35.75,,,,,,,,,,
13.33.10.085,42.7,10.7,0,10.0,,90491.8,11.05,-0.44,0.71,0.52,1.4,5.7,-0.1,35.75,,,,,,,,,,
13.33.10.093,61.7,15.4,0,10.0,,92178.6,10.85,-0.44,0.72,0.53,1.5,5.4,-0.2,35.75,,,,,,,,,,
13.33.10.107,57.9,14.5,0,10.0,,90843.1,11.01,-0.44,0.71,0.52,1.9,5.4,-0.2,35.75,,,,,,,,,,
13.33.10.114,54.3,13.6,0,10.0,,90298.0,11.07,-0.43,0.72,0.52,2.0,5.9,0.2,35.75,,,,,,,,,,
13.33.10.126,40.9,10.2,0,10.0,,90939.1,11.0,-0.44,0.72,0.52,2.0,6.0,0.3,35.75,,,,,,,,,,
13.33.10.134,55.6,13.9,0,10.0,,90523.6,11.05,-0.43,0.72,0.53,1.9,6.2,0.2,35.75,,,,,,,,,,
13.33.10.147,28.8,7.2,0,10.0,,89047.7,11.23,-0.43,0.73,0.52,1.6,6.5,-0.4,35.75,,,,,,,,,,
13.33.10.155,16.8,4.2,0,10.0,,90346.2,11.07,-0.43,0.72,0.52,0.9,6.6,-0.7,35.75,,,,,,,,,,
13.33.10.167,-1.7,0.4,0,10.0,,90502.4,11.05,-0.43,0.73,0.53,0.7,6.5,-0.7,35.75,,,,,,,,,,
13.33.10.175,,,0,10.0,,,,,,,,,,,,,,,,,,,,
13.33.10.192,,,0,10.0,,,,,,,,,,,,35.75,,,,,,,,
13.33.10.204,-19.1,4.8,0,10.0,,90103.2,11.1,-0.44,0.72,0.52,-0.2,6.3,-1.1,35.75,,,,,,,,,,
13.33.10.216,-23.2,5.8,0,10.0,,89886.2,11.13,-0.44,0.72,0.52,-0.5,6.5,-0.9,35.75,,,,,,,,,,
13.33.10.224,-36.2,9.0,0,10.0,,90534.7,11.05,-0.44,0.72,0.53,-0.6,6.5,-1.0,35.75,,,,,,,,,,
13.33.10.238,-37.4,9.4,0,10.0,,90894.2,11.0,-0.44,0.71,0.52,-0.5,5.9,-1.2,35.75,,,,,,,,,,
13.33.10.245,-28.1,7.0,0,10.0,,91500.3,10.93,-0.44,0.72,0.53,0.1,6.3,-1.1,35.75,,,,,,,,,,
13.33.10.257,-43.7,10.9,0,10.0,,90424.4,11.06,-0.44,0.72,0.52,0.0,6.0,-0.7,35.75,,,,,,,,,,
13.33.10.269,-51.0,12.8,0,10.0,,91511.8,10.93,-0.44,0.71,0.53,0.7,6.1,-0.4,35.75,,,,,,,,,,
13.33.10.278,-61.6,15.4,0,10.0,,90299.2,11.07,-0.44,0.71,0.52,0.9,6.1,-0.4,35.75,,,,,,,,,,
13.33.10.290,-66.7,16.7,0,10.0,,88327.8,11.32,-0.44,0.72,0.52,1.0,6.3,0.0,35.75,,,,,,,,,,
13.33.10.298,-63.6,15.9,0,10.0,,91752.9,10.9,-0.44,0.72,0.52,0.8,6.2,0.0,35.75,,,,,,,,,,
13.33.10.310,-64.2,16.0,0,10.0,,91631.7,10.91,-0.43,0.72,0.52,0.5,6.1,-0.2,35.75,,,,,,,,,,
13.33.10.319,-74.5,18.6,0,10.0,,89656.5,11.15,-0.43,0.72,0.52,0.0,6.1,-0.3,35.75,,,,,,,,,,
13.33.10.331,-78.5,19.6,0,10.0,,91290.6,10.95,-0.43,0.71,0.52,0.4,6.4,-0.1,35.75,,,,,,,,,,
13.33.10.339,-96.9,24.2,0,10.0,,91057.7,10.98,-0.44,0.72,0.52,0.7,6.4,0.1,35.75,,,,,,,,,,
13.33.10.377,-102.9,25.7,0,10.0,,90433.1,11.06,-0.44,0.72,0.53,0.5,6.2,0.1,35.75,,,,,,,,,,
13.33.10.388,-107.5,26.9,0,10.0,,91373.1,10.94,-0.44,0.71,0.53,-0.5,6.1,-1.3,35.75,,,,,,,,,,
13.33.10.396,-111.4,27.8,0,10.0,,90488.3,11.05,-0.44,0.71,0.53,-0.1,6.0,-1.1,35.75,,,,,,,,,,
13.33.10.409,-127.7,31.9,0,10.0,,91103.6,10.98,-0.44,0.71,0.53,-0.4,6.3,-1.5,35.75,,,,,,,,,,
13.33.10.417,-131.7,32.9,0,10.0,,90769.3,11.02,-0.43,0.71,0.53,-0.4,6.2,-1.7,35.75,,,,,,,,,,
13.33.10.429,22.9,5.7,1,11.0,106.3,91268.4,10.96,-0.44,0.72,0.53,0.1,5.9,-1.3,35.75,,,,,,,,,,
13.33.10.437,77.5,19.4,0,11.0,,90052.7,11.1,-0.44,0.71,0.53,0.4,6.1,-0.8,35.75,,,,,,,,,,
13.33.10.450,130.8,32.7,0,11.0,,91479.4,10.93,-0.44,0.71,0.53,0.4,5.7,-0.8,35.75,,,,,,,,,,
13.33.10.458,190.0,47.5,0,11.0,,91182.1,10.97,-0.44,0.71,0.53,0.2,5.7,-1.3,35.75,,,,,,,,,,
13.33.10.470,229.3,57.3,0,11.0,,91667.9,10.91,-0.44,0.72,0.52,0.5,5.6,-1.2,35.75,,,,,,,,,,
13.33.10.482,253.8,63.4,0,11.0,,90546.8,11.04,-0.44,0.72,0.53,0.7,5.5,-1.1,35.75,,,,,,,,,,
13.33.10.491,262.5,65.6,0,11.0,,91609.2,10.92,-0.44,0.72,0.53,0.9,5.8,-1.0,35.75,,,,,,,,,,
13.33.10.503,308.6,77.2,0,11.0,,90501.9,11.05,-0.44,0.72,0.52,0.4,6.3,-1.0,35.75,,,,,,,,,,
13.33.10.511,306.4,76.6,0,11.0,,90252.8,11.08,-0.44,0.71,0.52,0.4,5.5,-1.1,35.75,,,,,,,,,,
13.33.10.523,312.4,78.1,0,11.0,,89969.2,11.11,-0.44,0.72,0.53,0.2,6.0,-1.0,35.75,,,,,,,,,,
13.33.10.532,341.6,85.4,0,11.0,,90973.7,10.99,-0.43,0.71,0.53,0.3,5.9,-1.6,35.75,,,,,,,,,,
13.33.10.544,299.5,74.9,0,11.0,,91185.4,10.97,-0.44,0.71,0.53,0.2,6.1,-1.7,35.75,,,,,,,,,,
13.33.10.552,313.8,78.4,0,11.0,,88506.2,11.3,-0.44,0.71,0.53,0.2,6.0,-1.6,35.75,,,,,,,,,,
13.33.10.564,227.2,56.8,0,11.0,,92023.2,10.87,-0.44,0.71,0.52,0.3,6.1,-1.5,35.75,,,,,,,,,,
13.33.10.573,237.9,59.5,0,11.0,,90921.1,11.0,-0.44,0.71,0.53,0.1,5.8,-1.3,35.75,,,,,,,,,,
13.33.10.585,181.0,45.2,0,11.0,,91226.4,10.96,-0.44,0.72,0.53,0.3,6.1,-1.4,35.75,,,,,,,,,,
13.33.10.593,143.2,35.8,0,11.0,,89940.2,11.12,-0.44,0.71,0.53,0.6,6.0,-1.1,35.75,,,,,,,,,,
13.33.10.606,88.7,22.2,0,11.0,,90757.0,11.02,-0.44,0.72,0.52,0.6,6.0,-1.1,35.75,,,,,,,,,,
13.33.10.614,48.5,12.1,0,11.0,,90986.3,10.99,-0.44,0.71,0.53,0.4,5.7,-1.3,35.75,,,,,,,,,,
13.33.10.626,10.8,2.7,0,11.0,,89912.6,11.12,-0.44,0.71,0.53,0.5,5.9,-1.2,35.75,,,,,,,,,,
13.33.10.634,24.7,6.2,0,11.0,,92540.2,10.81,-0.43,0.71,0.53,0.5,5.9,-1.1,35.75,,,,,,,,,,
13.33.10.647,31.1,7.8,0,11.0,,90067.3,11.1,-0.44,0.71,0.53,0.5,5.8,-0.8,35.75,,,,,,,,,,
13.33.10.655,31.3,7.8,0,11.0,,90725.4,11.02,-0.43,0.72,0.53,0.8,5.8,-0.9,35.75,,,,,,,,,,
13.33.10.667,56.5,14.1,0,11.0,,91335.4,10.95,-0.44,0.72,0.52,0.6,5.7,-1.3,35.75,,,,,,,,,,
13.33.10.675,63.4,15.8,0,11.0,,90503.6,11.05,-0.44,0.72,0.53,0.4,5.5,-1.2,35.75,,,,,,,,,,
13.33.10.687,60.1,15.0,0,11.0,,89904.5,11.12,-0.43,0.71,0.52,0.5,5.5,-0.9,35.75,,,,,,,,,,
13.33.10.695,43.1,10.8,0,11.0,,90355.2,11.07,-0.44,0.72,0.53,0.7,5.6,-1.2,35.75,,,,,,,,,,
13.33.10.708,40.8,10.2,0,11.0,,90228.0,11.08,-0.44,0.72,0.52,0.8,5.7,-1.1,35.75,,,,,,,,,,
13.33.10.716,27.8,7.0,0,11.0,,90236.8,11.08,-0.43,0.72,0.52,0.6,5.7,-1.1,35.75,,,,,,,,,,
13.33.10.728,17.2,4.3,0,11.0,,90709.2,11.02,-0.43,0.72,0.53,0.6,5.9,-1.5,35.75,,,,,,,,,,
13.33.10.736,8.5,2.1,0,11.0,,91139.6,10.97,-0.43,0.72,0.53,0.8,5.7,-1.5,35.75,,,,,,,,,,
13.33.10.749,-9.2,2.3,0,11.0,,91012.6,10.99,-0.43,0.72,0.53,0.5,5.6,-1.6,35.75,,,,,,,,,,
13.33.10.757,-6.1,1.5,0,11.0,,90053.2,11.1,-0.44,0.72,0.52,0.6,5.7,-1.2,35.75,,,,,,,,,,
13.33.10.770,-18.7,4.7,0,11.0,,90919.1,11.0,-0.44,0.72,0.52,0.7,5.4,-1.3,35.75,,,,,,,,,,
13.33.10.777,-20.0,5.0,0,11.0,,90048.1,11.11,-0.43,0.71,0.52,0.4,5.7,-1.3,35.75,,,,,,,,,,
13.33.10.790,-23.1,5.8,0,11.0,,91611.3,10.92,-0.44,0.71,0.53,0.5,5.5,-1.2,35.75,,,,,,,,,,
13.33.10.798,-41.1,10.3,0,11.0,,91162.2,10.97,-0.44,0.72,0.53,0.4,5.5,-1.0,35.75,,,,,,,,,,
13.33.10.810,-28.9,7.2,0,11.0,,91100.8,10.98,-0.43,0.72,0.52,0.6,5.5,-1.1,35.75,,,,,,,,,,
13.33.10.818,-47.2,11.8,0,11.0,,89915.3,11.12,-0.43,0.71,0.53,0.8,5.1,-0.9,35.75,,,,,,,,,,
13.33.10.831,-56.4,14.1,0,11.0,,91394.4,10.94,-0.43,0.72,0.53,0.6,5.6,-0.9,35.75,,,,,,,,,,
13.33.10.843,-48.0,12.0,0,11.0,,91467.5,10.93,-0.44,0.72,0.52,0.5,5.4,-0.9,35.75,,,,,,,,,,
13.33.10.851,-57.6,14.4,0,11.0,,90255.9,11.08,-0.44,0.72,0.52,0.6,5.7,-0.9,35.75,,,,,,,,,,
13.33.10.863,-65.3,16.3,0,11.0,,90125.0,11.1,-0.44,0.72,0.53,0.6,5.8,-1.1,35.75,,,,,,,,,,
13.33.10.877,-74.5,18.6,0,11.0,,90743.8,11.02,-0.43,0.72,0.53,0.5,5.6,-1.0,35.75,,,,,,,,,,
13.33.10.884,-74.2,18.6,0,11.0,,90333.3,11.07,-0.44,0.72,0.53,0.4,5.7,-1.6,35.75,,,,,,,,,,
13.33.10.896,-78.5,19.6,0,11.0,,90829.3,11.01,-0.44,0.71,0.53,0.4,5.2,-1.3,35.75,,,,,,,,,,
13.33.10.908,-79.0,19.8,0,11.0,,90341.2,11.07,-0.44,0.71,0.52,0.5,5.9,-1.3,35.75,,,,,,,,,,
13.33.10.917,-94.9,23.7,0,11.0,,90707.7,11.02,-0.43,0.71,0.52,1.1,5.8,-0.7,35.75,,,,,,,,,,
13.33.10.929,-102.2,25.6,0,11.0,,89605.8,11.16,-0.44,0.72,0.52,0.8,6.0,-0.9,35.75,,,,,,,,,,
13.33.10.941,-90.7,22.7,0,11.0,,90556.3,11.04,-0.44,0.72,0.53,0.5,6.3,-1.1,35.75,,,,,,,,,,
13.33.10.954,-119.2,29.8,0,11.0,,90258.9,11.08,-0.43,0.72,0.53,0.5,6.0,-1.6,35.75,,,,,,,,,,
13.33.10.962,-116.3,29.1,0,11.0,,90450.1,11.06,-0.43,0.71,0.53,0.4,6.3,-1.5,35.75,,,,,,,,,,
13.33.10.974,-110.1,27.5,0,11.0,,91031.8,10.99,-0.43,0.72,0.53,0.6,5.8,-1.1,35.75,,,,,,,,,,
13.33.10.986,-127.7,31.9,0,11.0,,90127.4,11.1,-0.44,0.72,0.53,0.3,5.8,-1.4,35.75,,,,,,,,,,
13.33.10.994,13.1,3.3,1,12.0,107.6,92478.3,10.81,-0.43,0.72,0.53,0.4,5.9,-1.5,35.75,,,,,,,,,,
13.33.11.007,70.5,17.6,0,12.0,,92046.2,10.86,-0.44,0.71,0.53,0.6,5.6,-1.1,35.75,,,,,,,,,,
13.33.11.019,118.8,29.7,0,12.0,,91944.5,10.88,-0.44,0.72,0.53,0.9,5.4,-1.1,35.75,,,,,,,,,,
13.33.11.027,163.8,41.0,0,12.0,,89529.0,11.17,-0.44,0.72,0.53,0.8,5.7,-0.9,35.75,,,,,,,,,,
13.33.11.041,232.0,58.0,0,12.0,,90886.3,11.0,-0.44,0.72,0.52,0.8,5.7,-1.1,35.75,,,,,,,,,,
13.33.11.052,263.6,65.9,0,12.0,,89320.4,11.2,-0.44,0.72,0.52,0.9,5.7,-1.1,35.75,,,,,,,,,,
13.33.11.064,287.5,71.9,0,12.0,,89572.7,11.16,-0.44,0.72,0.52,0.9,5.5,-0.9,35.75,,,,,,,,,,
13.33.11.072,316.1,79.0,0,12.0,,89485.8,11.17,-0.43,0.72,0.52,0.5,5.8,-1.4,35.75,,,,,,,,,,
13.33.11.085,321.3,80.3,0,12.0,,91168.2,10.97,-0.43,0.72,0.52,0.4,5.6,-1.6,35.75,,,,,,,,,,
13.33.11.097,301.7,75.4,0,12.0,,89979.1,11.11,-0.43,0.72,0.52,0.4,5.9,-1.6,35.75,,,,,,,,,,
13.33.11.105,308.0,77.0,0,12.0,,89742.5,11.14,-0.44,0.71,0.52,0.3,5.7,-1.7,35.75,,,,,,,,,,
13.33.11.117,297.6,74.4,0,12.0,,90158.5,11.09,-0.43,0.72,0.53,0.4,5.8,-1.4,35.75,,,,,,,,,,
13.33.11.130,261.3,65.3,0,12.0,,91064.8,10.98,-0.44,0.71,0.52,0.5,6.3,-1.6,35.75,,,,,,,,,,
13.33.11.138,246.1,61.5,0,12.0,,90426.2,11.06,-0.43,0.72,0.52,0.3,5.7,-1.6,35.75,,,,,,,,,,
13.33.11.179,65.7,16.4,0,12.0,,91634.5,10.91,-0.44,0.71,0.52,0.1,6.2,-1.3,35.75,,,,,,,,,,
13.33.11.191,4.9,1.2,0,12.0,,91230.2,10.96,-0.43,0.72,0.52,0.5,5.9,-1.4,35.75,,,,,,,,,,
13.33.11.199,14.7,3.7,0,12.0,,91032.8,10.99,-0.43,0.72,0.53,0.5,5.5,-1.3,35.75,,,,,,,,,,
13.33.11.212,26.3,6.6,0,12.0,,92045.9,10.86,-0.44,0.72,0.53,0.7,6.1,-1.1,35.75,,,,,,,,,,
13.33.11.220,39.7,9.9,0,12.0,,91215.4,10.96,-0.44,0.72,0.53,0.8,5.6,-0.8,35.75,,,,,,,,,,
13.33.11.232,48.2,12.0,0,12.0,,89754.3,11.14,-0.44,0.71,0.53,0.9,5.8,-0.9,35.75,,,,,,,,,,
13.33.11.240,51.5,12.9,0,12.0,,90528.5,11.05,-0.44,0.72,0.52,0.6,5.7,-0.9,35.75,,,,,,,,,,
13.33.11.253,62.5,15.6,0,12.0,,91636.4,10.91,-0.44,0.71,0.53,0.4,5.5,-1.0,35.75,,,,,,,,,,
13.33.11.261,46.7,11.7,0,12.0,,92011.6,10.87,-0.44,0.72,0.53,0.6,5.5,-1.4,35.75,,,,,,,,,,
13.33.11.273,48.2,12.0,0,12.0,,89900.1,11.12,-0.43,0.71,0.53,0.8,5.5,-1.1,35.75,,,,,,,,,,
13.33.11.281,35.3,8.8,0,12.0,,90747.0,11.02,-0.43,0.72,0.53,0.6,5.7,-1.0,35.75,,,,,,,,,,
13.33.11.294,26.7,6.7,0,12.0,,92607.8,10.8,-0.44,0.72,0.52,0.7,5.9,-1.3,35.75,,,,,,,,,,
13.33.11.302,11.0,2.8,0,12.0,,88952.9,11.24,-0.43,0.72,0.52,0.7,5.9,-1.7,35.75,,,,,,,,,,
13.33.11.314,-17.4,4.4,0,12.0,,89788.5,11.14,-0.43,0.72,0.52,0.2,6.1,-1.9,35.75,,,,,,,,,,
13.33.11.322,-14.5,3.6,0,12.0,,89105.7,11.22,-0.43,0.72,0.53,0.1,6.2,-2.0,35.75,,,,,,,,,,
13.33.11.335,-20.4,5.1,0,12.0,,91374.7,10.94,-0.43,0.72,0.53,0.4,6.1,-1.6,35.75,,,,,,,,,,
13.33.11.343,-29.0,7.2,0,12.0,,89581.5,11.16,-0.44,0.72,0.53,0.1,5.9,-1.9,35.75,,,,,,,,,,
13.33.11.355,-32.3,8.1,0,12.0,,90561.6,11.04,-0.43,0.71,0.53,0.1,5.9,-1.6,35.75,,,,,,,,,,
13.33.11.363,-23.4,5.8,0,12.0,,92064.4,10.86,-0.43,0.72,0.53,0.0,6.1,-1.9,35.75,,,,,,,,,,
13.33.11.376,-32.0,8.0,0,12.0,,90397.2,11.06,-0.43,0.72,0.53,0.1,6.2,-2.0,35.75,,,,,,,,,,
13.33.11.384,-46.5,11.6,0,12.0,,90179.2,11.09,-0.44,0.72,0.53,0.3,6.1,-2.0,35.75,,,,,,,,,,
13.33.11.396,-38.9,9.7,0,12.0,,91142.2,10.97,-0.44,0.71,0.53,0.1,6.0,-1.6,35.75,,,,,,,,,,
13.33.11.404,-46.1,11.5,0,12.0,,90744.1,11.02,-0.43,0.72,0.53,0.3,5.9,-1.7,35.75,,,,,,,,,,
13.33.11.416,-56.2,14.0,0,12.0,,91509.1,10.93,-0.44,0.71,0.53,0.5,6.2,-1.9,35.75,,,,,,,,,,
13.33.11.429,-54.3,13.6,0,12.0,,92681.3,10.79,-0.44,0.71,0.53,0.8,5.9,-1.5,35.75,,,,,,,,,,
13.33.11.438,-68.3,17.1,0,12.0,,90569.7,11.04,-0.44,0.72,0.52,0.7,6.2,-1.6,35.75,,,,,,,,,,
13.33.11.449,-76.5,19.1,0,12.0,,90105.4,11.1,-0.43,0.72,0.53,0.7,6.2,-1.5,35.75,,,,,,,,,,
13.33.11.458,-83.2,20.8,0,12.0,,92895.6,10.76,-0.44,0.72,0.52,0.3,6.3,-1.7,35.75,,,,,,,,,,
13.33.11.471,-87.4,21.8,0,12.0,,91631.6,10.91,-0.44,0.72,0.53,0.2,6.0,-1.9,35.75,,,,,,,,,,
13.33.11.478,-87.2,21.8,0,12.0,,92022.3,10.87,-0.44,0.72,0.53,0.0,6.3,-1.8,35.75,,,,,,,,,,
13.33.11.490,-89.2,22.3,0,12.0,,91013.8,10.99,-0.44,0.71,0.52,0.1,6.2,-2.0,35.75,,,,,,,,,,
13.33.11.498,-88.0,22.0,0,12.0,,89271.7,11.2,-0.44,0.72,0.53,0.1,6.7,-1.7,35.75,,,,,,,,,,
13.33.11.511,-107.1,26.8,0,12.0,,90169.4,11.09,-0.43,0.72,0.52,0.2,6.8,-1.6,35.75,,,,,,,,,,
13.33.11.519,-111.5,27.9,0,12.0,,90278.2,11.08,-0.44,0.72,0.52,0.3,6.3,-1.5,35.75,,,,,,,,,,
13.33.11.531,-119.8,30.0,0,12.0,,91937.8,10.88,-0.44,0.72,0.53,-0.1,6.2,-1.8,35.75,,,,,,,,,,
13.33.11.543,-120.6,30.2,0,12.0,,90540.7,11.04,-0.43,0.72,0.53,-0.1,6.5,-2.3,35.75,,,,,,,,,,
13.33.11.552,-119.1,29.8,0,12.0,,90870.2,11.0,-0.44,0.71,0.53,0.3,6.2,-1.9,35.75,,,,,,,,,,
13.33.11.564,-1.0,0.2,1,13.0,107.9,89819.9,11.13,-0.44,0.72,0.53,0.4,6.7,-1.7,35.75,,,,,,,,,,
13.33.11.573,51.8,13.0,0,13.0,,91483.9,10.93,-0.44,0.71,0.53,0.4,6.5,-1.7,35.75,,,,,,,,,,
13.33.11.584,111.6,27.9,0,13.0,,91743.8,10.9,-0.44,0.71,0.53,0.5,6.0,-1.5,35.75,,,,,,,,,,
13.33.11.593,144.8,36.2,0,13.0,,90756.9,11.02,-0.44,0.72,0.53,0.9,6.4,-1.0,35.75,,,,,,,,,,
13.33.11.605,196.1,49.0,0,13.0,,90747.3,11.02,-0.44,0.72,0.53,1.1,6.4,-1.1,35.75,,,,,,,,,,
13.33.11.613,216.6,54.2,0,13.0,,91044.7,10.98,-0.44,0.72,0.52,1.0,6.0,-1.0,35.75,,,,,,,,,,
13.33.11.626,242.4,60.6,0,13.0,,90773.1,11.02,-0.44,0.72,0.53,0.9,6.0,-1.3,35.75,,,,,,,,,,
13.33.11.634,281.4,70.4,0,13.0,,91419.3,10.94,-0.44,0.72,0.53,0.6,5.6,-1.3,35.75,,,,,,,,,,
13.33.11.646,277.4,69.4,0,13.0,,90998.8,10.99,-0.44,0.72,0.53,0.6,6.0,-1.4,35.75,,,,,,,,,,
13.33.11.654,361.6,90.4,0,13.0,,90900.0,11.0,-0.44,0.72,0.53,0.3,6.0,-1.4,35.75,,,,,,,,,,
13.33.11.666,335.4,83.8,0,13.0,,90555.7,11.04,-0.44,0.71,0.53,0.2,6.0,-1.5,35.75,,,,,,,,,,
13.33.11.675,327.7,81.9,0,13.0,,90871.7,11.0,-0.44,0.71,0.53,0.2,6.3,-1.8,35.75,,,,,,,,,,
13.33.11.687,283.9,71.0,0,13.0,,90491.0,11.05,-0.44,0.71,0.52,0.3,6.1,-1.8,35.75,,,,,,,,,,
13.33.11.699,279.8,70.0,0,13.0,,90954.2,10.99,-0.43,0.72,0.53,0.3,6.3,-1.7,35.75,,,,,,,,,,
13.33.11.707,241.9,60.5,0,13.0,,90331.4,11.07,-0.44,0.72,0.53,0.5,6.2,-1.3,35.75,,,,,,,,,,
13.33.11.720,192.5,48.1,0,13.0,,90327.9,11.07,-0.43,0.72,0.52,0.3,6.5,-1.1,35.75,,,,,,,,,,
13.33.11.728,174.0,43.5,0,13.0,,90933.8,11.0,-0.44,0.72,0.53,0.6,6.5,-1.2,35.75,,,,,,,,,,
13.33.11.740,124.2,31.0,0,13.0,,91315.9,10.95,-0.44,0.71,0.53,0.5,6.7,-1.0,35.75,,,,,,,,,,
13.33.11.748,66.7,16.7,0,13.0,,88824.1,11.26,-0.43,0.72,0.52,0.5,6.8,-1.2,35.75,,,,,,,,,,
13.33.11.761,-8.0,2.0,0,13.0,,90352.2,11.07,-0.44,0.72,0.53,0.2,6.6,-1.6,35.75,,,,,,,,,,
13.33.11.769,20.4,5.1,0,13.0,,90354.5,11.07,-0.44,0.72,0.52,0.3,6.7,-1.5,35.75,,,,,,,,,,
13.33.11.781,13.6,3.4,0,13.0,,90929.6,11.0,-0.43,0.71,0.53,0.0,6.4,-1.5,35.75,,,,,,,,,,
13.33.11.789,44.4,11.1,0,13.0,,91072.1,10.98,-0.44,0.72,0.53,0.4,6.6,-1.4,35.75,,,,,,,,,,
13.33.11.802,52.9,13.2,0,13.0,,92274.3,10.84,-0.44,0.71,0.52,0.5,6.7,-1.0,35.75,,,,,,,,,,
13.33.11.814,61.8,15.4,0,13.0,,90133.6,11.09,-0.44,0.71,0.53,0.5,6.4,-0.8,35.75,,,,,,,,,,
13.33.11.822,58.3,14.6,0,13.0,,92107.6,10.86,-0.44,0.72,0.52,0.3,6.5,-1.0,35.75,,,,,,,,,,
13.33.11.834,53.9,13.5,0,13.0,,89024.8,11.23,-0.44,0.71,0.53,0.5,6.4,-1.4,35.75,,,,,,,,,,
13.33.11.844,55.1,13.8,0,13.0,,89410.9,11.18,-0.44,0.72,0.52,0.3,6.7,-1.4,35.75,,,,,,,,,,
13.33.11.855,25.5,6.4,0,13.0,,89676.6,11.15,-0.44,0.72,0.52,0.5,6.6,-1.0,35.75,,,,,,,,,,
13.33.11.863,23.4,5.8,0,13.0,,91741.4,10.9,-0.44,0.72,0.52,0.6,6.8,-1.0,35.75,,,,,,,,,,
13.33.11.875,6.9,1.7,0,13.0,,91027.9,10.99,-0.44,0.72,0.54,0.6,7.0,-1.3,35.75,,,,,,,,,,
13.33.11.884,11.3,2.8,0,13.0,,91687.7,10.91,-0.44,0.72,0.53,0.3,7.2,-1.5,35.75,,,,,,,,,,
13.33.11.896,-9.2,2.3,0,13.0,,92001.0,10.87,-0.44,0.71,0.52,-0.1,7.1,-2.0,35.75,,,,,,,,,,
13.33.11.904,-22.4,5.6,0,13.0,,90587.1,11.04,-0.44,0.72,0.53,0.2,7.2,-2.0,35.75,,,,,,,,,,
13.33.11.916,-23.7,5.9,0,13.0,,90754.1,11.02,-0.44,0.72,0.53,0.1,7.5,-1.8,35.75,,,,,,,,,,
13.33.11.924,-30.2,7.6,0,13.0,,90671.8,11.03,-0.44,0.71,0.53,0.0,7.2,-1.8,35.75,,,,,,,,,,
13.33.11.937,-24.3,6.1,0,13.0,,90983.2,10.99,-0.44,0.72,0.53,-0.2,7.2,-2.2,35.75,,,,,,,,,,
13.33.11.949,-27.9,7.0,0,13.0,,91560.6,10.92,-0.44,0.71,0.53,0.1,7.0,-1.8,35.75,,,,,,,,,,
13.33.11.987,-58.3,14.6,0,13.0,,90581.2,11.04,-0.44,0.71,0.53,0.3,7.1,-1.5,35.75,,,,,,,,,,
13.33.11.994,-61.4,15.4,0,13.0,,91397.7,10.94,-0.44,0.71,0.53,0.7,6.9,-1.3,35.75,,,,,,,,,,
13.33.12.006,-59.4,14.8,0,13.0,,90963.2,10.99,-0.44,0.71,0.52,0.9,6.6,-0.8,35.75,,,,,,,,,,
13.33.12.019,-75.1,18.8,0,13.0,,91867.1,10.89,-0.44,0.72,0.52,0.7,6.6,-0.5,35.75,,,,,,,,,,
13.33.12.027,-78.1,19.5,0,13.0,,89841.8,11.13,-0.44,0.72,0.52,0.8,6.4,-0.7,35.75,,,,,,,,,,
13.33.12.039,-85.5,21.4,0,13.0,,91189.2,10.97,-0.44,0.71,0.52,0.4,6.5,-1.2,35.75,,,,,,,,,,
13.33.12.047,-89.2,22.3,0,13.0,,89149.7,11.22,-0.44,0.72,0.52,0.3,6.7,-1.1,35.75,,,,,,,,,,
13.33.12.060,-96.9,24.2,0,13.0,,89977.4,11.11,-0.44,0.71,0.53,0.0,6.3,-1.1,35.75,,,,,,,,,,
13.33.12.072,-105.0,26.2,0,13.0,,90189.2,11.09,-0.44,0.71,0.53,0.4,6.2,-1.2,35.75,,,,,,,,,,
13.33.12.080,-102.7,25.7,0,13.0,,90645.1,11.03,-0.44,0.71,0.53,0.3,6.4,-1.1,35.75,,,,,,,,,,
13.33.12.092,-113.8,28.4,0,13.0,,91795.0,10.89,-0.44,0.71,0.53,0.7,6.4,-0.9,35.75,,,,,,,,,,
13.33.12.101,-109.3,27.3,0,13.0,,90495.4,11.05,-0.44,0.72,0.52,0.5,6.5,-1.2,35.75,,,,,,,,,,
13.33.12.113,-123.6,30.9,0,13.0,,89693.3,11.15,-0.45,0.71,0.52,0.7,6.8,-1.1,35.75,,,,,,,,,,
13.33.12.121,-125.3,31.3,0,13.0,,91868.8,10.89,-0.44,0.72,0.52,0.5,6.5,-1.5,35.75,,,,,,,,,,
13.33.12.133,0.6,0.2,1,14.0,108.0,89771.2,11.14,-0.44,0.71,0.53,0.5,6.5,-1.2,35.75,,,,,,,,,,
13.33.12.142,54.1,13.5,0,14.0,,91468.7,10.93,-0.44,0.71,0.53,0.5,6.7,-1.4,35.75,,,,,,,,,,
13.33.12.154,111.2,27.8,0,14.0,,89230.0,11.21,-0.44,0.71,0.53,0.4,6.7,-1.3,35.75,,,,,,,,,,
13.33.12.162,138.2,34.6,0,14.0,,90035.1,11.11,-0.44,0.71,0.52,0.5,6.7,-1.2,35.75,,,,,,,,,,
13.33.12.174,206.3,51.6,0,14.0,,90345.6,11.07,-0.44,0.71,0.53,0.7,6.6,-1.3,35.75,,,,,,,,,,
13.33.12.184,236.3,59.1,0,14.0,,90004.2,11.11,-0.45,0.71,0.53,0.5,6.5,-1.3,35.75,,,,,,,,,,
13.33.12.195,254.2,63.6,0,14.0,,91364.6,10.95,-0.44,0.72,0.53,0.4,6.6,-1.4,35.75,,,,,,,,,,
13.33.12.207,311.0,77.8,0,14.0,,89213.5,11.21,-0.44,0.72,0.52,0.4,6.3,-1.6,35.75,,,,,,,,,,
13.33.12.215,302.5,75.6,0,14.0,,90671.8,11.03,-0.44,0.72,0.52,0.3,6.4,-1.3,35.75,,,,,,,,,,
13.33.12.228,326.4,81.6,0,14.0,,90468.5,11.05,-0.44,0.72,0.52,0.2,6.3,-1.7,35.75,,,,,,,,,,
13.33.12.236,279.3,69.8,0,14.0,,90766.9,11.02,-0.44,0.71,0.52,0.5,6.1,-1.7,35.75,,,,,,,,,,
13.33.12.248,308.6,77.2,0,14.0,,90449.7,11.06,-0.44,0.71,0.53,0.2,5.8,-1.6,35.75,,,,,,,,,,
13.33.12.256,303.5,75.9,0,14.0,,90741.0,11.02,-0.44,0.72,0.52,0.6,5.8,-1.7,35.75,,,,,,,,,,
13.33.12.270,262.9,65.7,0,14.0,,89961.1,11.12,-0.44,0.72,0.52,0.5,5.8,-1.3,35.75,,,,,,,,,,
13.33.12.277,237.8,59.4,0,14.0,,90467.9,11.05,-0.44,0.71,0.52,0.7,5.7,-1.2,35.75,,,,,,,,,,
13.33.12.289,196.9,49.2,0,14.0,,90735.4,11.02,-0.44,0.71,0.52,0.6,5.6,-1.2,35.75,,,,,,,,,,
13.33.12.297,169.8,42.4,0,14.0,,91057.6,10.98,-0.44,0.71,0.53,0.5,5.5,-1.0,35.75,,,,,,,,,,
13.33.12.310,116.7,29.2,0,14.0,,92182.7,10.85,-0.44,0.72,0.52,0.8,5.4,-0.8,35.75,,,,,,,,,,
13.33.12.322,43.5,10.9,0,14.0,,90861.1,11.01,-0.44,0.71,0.52,0.6,5.3,-1.4,35.75,,,,,,,,,,
13.33.12.330,23.8,6.0,0,14.0,,92100.9,10.86,-0.44,0.71,0.52,0.6,5.3,-1.2,35.75,,,,,,,,,,
13.33.12.342,21.5,5.4,0,14.0,,90403.0,11.06,-0.44,0.72,0.52,0.8,5.1,-1.1,35.75,,,,,,,,,,
13.33.12.351,26.6,6.6,0,14.0,,90212.9,11.08,-0.44,0.71,0.52,0.4,5.2,-1.2,35.75,,,,,,,,,,
13.33.12.363,36.7,9.2,0,14.0,,89973.6,11.11,-0.44,0.71,0.52,0.3,4.8,-1.3,35.75,,,,,,,,,,
13.33.12.371,55.4,13.8,0,14.0,,90189.5,11.09,-0.44,0.71,0.52,0.7,4.8,-0.9,35.75,,,,,,,,,,
13.33.12.383,52.8,13.2,0,14.0,,89737.8,11.14,-0.45,0.71,0.52,0.9,4.8,-0.7,35.75,,,,,,,,,,
13.33.12.392,54.8,13.7,0,14.0,,88615.5,11.28,-0.44,0.71,0.53,0.9,4.7,-0.9,35.75,,,,,,,,,,
13.33.12.404,65.5,16.4,0,14.0,,90341.0,11.07,-0.44,0.71,0.53,0.8,4.6,-1.0,35.75,,,,,,,,,,
13.33.12.412,41.3,10.3,0,14.0,,91506.2,10.93,-0.44,0.71,0.53,0.9,4.4,-0.8,35.75,,,,,,,,,,
13.33.12.424,40.9,10.2,0,14.0,,91920.6,10.88,-0.44,0.71,0.52,0.8,4.4,-0.8,35.75,,,,,,,,,,
13.33.12.432,21.9,5.5,0,14.0,,91104.4,10.98,-0.44,0.71,0.53,0.9,4.7,-0.9,35.75,,,,,,,,,,
13.33.12.445,-3.5,0.9,0,14.0,,89773.1,11.14,-0.44,0.72,0.53,1.1,4.6,-1.2,35.75,,,,,,,,,,
13.33.12.457,-4.7,1.2,0,14.0,,89834.9,11.13,-0.44,0.72,0.54,0.9,4.9,-1.3,35.75,,,,,,,,,,
13.33.12.465,-13.1,3.3,0,14.0,,90595.2,11.04,-0.44,0.72,0.52,0.4,4.5,-1.7,35.75,,,,,,,,,,
13.33.12.478,-19.9,5.0,0,14.0,,90736.3,11.02,-0.44,0.71,0.52,0.2,4.9,-1.5,35.75,,,,,,,,,,
13.33.12.486,-15.0,3.8,0,14.0,,90993.3,10.99,-0.44,0.71,0.53,0.5,5.3,-1.7,35.75,,,,,,,,,,
13.33.12.498,-26.1,6.5,0,14.0,,89619.8,11.16,-0.44,0.72,0.53,0.3,5.1,-1.6,35.75,,,,,,,,,,
13.33.12.506,-32.7,8.2,0,14.0,,90236.0,11.08,-0.44,0.71,0.53,0.3,5.2,-1.7,35.75,,,,,,,,,,
13.33.12.519,-29.6,7.4,0,14.0,,90332.0,11.07,-0.44,0.71,0.53,0.3,5.3,-1.6,35.75,,,,,,,,,,
13.33.12.528,-42.0,10.5,0,14.0,,90862.7,11.01,-0.44,0.71,0.53,0.4,5.2,-1.5,35.75,,,,,,,,,,
13.33.12.539,-47.2,11.8,0,14.0,,91107.8,10.98,-0.44,0.71,0.53,0.5,5.5,-1.5,35.75,,,,,,,,,,
13.33.12.547,-39.7,9.9,0,14.0,,91309.5,10.95,-0.44,0.72,0.53,0.4,5.0,-1.3,35.75,,,,,,,,,,
13.33.12.560,-60.0,15.0,0,14.0,,91387.7,10.94,-0.44,0.72,0.53,0.4,5.4,-1.6,35.75,,,,,,,,,,
13.33.12.570,-49.0,12.2,0,14.0,,90630.5,11.03,-0.44,0.71,0.53,0.5,5.4,-1.1,35.75,,,,,,,,,,
13.33.12.580,-66.6,16.6,0,14.0,,90245.7,11.08,-0.44,0.71,0.53,0.7,5.1,-1.0,35.75,,,,,,,,,,
13.33.12.592,-79.1,19.8,0,14.0,,91473.5,10.93,-0.44,0.72,0.53,0.5,5.6,-1.3,35.75,,,,,,,,,,
13.33.12.605,-71.4,17.8,0,14.0,,90816.3,11.01,-0.44,0.71,0.53,0.6,5.1,-1.4,35.75,,,,,,,,,,
13.33.12.613,-73.5,18.4,0,14.0,,90066.4,11.1,-0.44,0.71,0.53,0.4,5.1,-1.5,35.75,,,,,,,,,,
13.33.12.625,-93.7,23.4,0,14.0,,91993.5,10.87,-0.44,0.71,0.53,0.3,5.0,-1.3,35.75,,,,,,,,,,
13.33.12.633,-85.5,21.4,0,14.0,,91048.6,10.98,-0.44,0.71,0.53,0.8,5.0,-1.2,35.75,,,,,,,,,,
13.33.12.646,-91.4,22.8,0,14.0,,89819.1,11.13,-0.43,0.71,0.53,0.8,5.5,-1.0,35.75,,,,,,,,,,
13.33.12.654,-123.3,30.8,0,14.0,,91543.0,10.92,-0.43,0.71,0.53,1.0,5.1,-0.9,35.75,,,,,,,,,,
13.33.12.666,-119.0,29.8,0,14.0,,90485.3,11.05,-0.44,0.72,0.53,0.7,5.4,-0.8,35.75,,,,,,,,,,
13.33.12.674,-122.4,30.6,0,14.0,,90647.2,11.03,-0.44,0.72,0.53,0.7,5.6,-1.4,35.75,,,,,,,,,,
13.33.12.686,-112.4,28.1,0,14.0,,90149.1,11.09,-0.44,0.72,0.52,0.5,5.3,-1.4,35.75,,,,,,,,,,
13.33.12.695,-141.1,35.3,0,14.0,,91683.1,10.91,-0.44,0.72,0.52,0.6,5.4,-1.4,35.75,,,,,,,,,,
13.33.12.707,25.9,6.5,1,15.0,105.0,90542.1,11.04,-0.44,0.72,0.52,0.6,5.5,-1.5,35.75,,,,,,,,,,
13.33.12.715,56.1,14.0,0,15.0,,90759.3,11.02,-0.44,0.72,0.52,0.3,5.3,-1.7,35.75,,,,,,,,,,
13.33.12.728,117.5,29.4,0,15.0,,91241.9,10.96,-0.44,0.72,0.52,0.5,5.2,-1.2,35.75,,,,,,,,,,
13.33.12.736,158.4,39.6,0,15.0,,89984.4,11.11,-0.44,0.71,0.52,0.5,5.4,-1.2,35.75,,,,,,,,,,
13.33.12.748,203.6,50.9,0,15.0,,90232.9,11.08,-0.44,0.71,0.53,0.6,5.5,-1.2,35.75,,,,,,,,,,
13.33.12.786,293.0,73.2,0,15.0,,90544.3,11.04,-0.44,0.71,0.53,0.7,5.8,-1.4,35.75,,,,,,,,,,
13.33.12.797,306.4,76.6,0,15.0,,89207.7,11.21,-0.44,0.71,0.53,0.7,5.4,-1.1,35.75,,,,,,,,,,
13.33.12.805,308.6,77.2,0,15.0,,92727.0,10.78,-0.44,0.71,0.53,0.5,5.4,-1.1,35.75,,,,,,,,,,
13.33.12.818,293.2,73.3,0,15.0,,90284.4,11.08,-0.44,0.72,0.52,0.5,5.5,-1.7,35.75,,,,,,,,,,
13.33.12.826,308.5,77.1,0,15.0,,90153.1,11.09,-0.44,0.72,0.53,0.5,5.6,-1.2,35.75,,,,,,,,,,
13.33.12.838,287.6,71.9,0,15.0,,90763.3,11.02,-0.44,0.72,0.53,0.4,5.4,-1.4,35.75,,,,,,,,,,
13.33.12.846,238.0,59.5,0,15.0,,91111.7,10.98,-0.44,0.71,0.53,0.4,5.7,-1.4,35.75,,,,,,,,,,
13.33.12.859,193.2,48.3,0,15.0,,90514.6,11.05,-0.44,0.71,0.53,0.4,5.6,-1.1,35.75,,,,,,,,,,
13.33.12.867,156.8,39.2,0,15.0,,90812.5,11.01,-0.44,0.71,0.53,0.6,5.5,-1.2,35.75,,,,,,,,,,
13.33.12.879,112.4,28.1,0,15.0,,90750.3,11.02,-0.44,0.71,0.53,0.6,5.6,-1.3,35.75,,,,,,,,,,
13.33.12.887,70.4,17.6,0,15.0,,90807.5,11.01,-0.44,0.71,0.52,0.8,5.6,-1.1,35.75,,,,,,,,,,
13.33.12.899,12.0,3.0,0,15.0,,91059.0,10.98,-0.44,0.71,0.53,0.8,5.4,-1.2,35.75,,,,,,,,,,
13.33.12.908,9.7,2.4,0,15.0,,92693.9,10.79,-0.44,0.72,0.53,1.1,5.7,-1.1,35.75,,,,,,,,,,
13.33.12.920,19.1,4.8,0,15.0,,92079.2,10.86,-0.44,0.72,0.53,0.7,5.4,-1.1,35.75,,,,,,,,,,
13.33.12.932,39.0,9.8,0,15.0,,91149.3,10.97,-0.44,0.72,0.52,0.8,5.5,-1.0,35.75,,,,,,,,,,
13.33.12.940,47.6,11.9,0,15.0,,90992.3,10.99,-0.44,0.71,0.52,0.9,5.2,-0.9,35.75,,,,,,,,,,
13.33.12.953,60.8,15.2,0,15.0,,90084.9,11.1,-0.44,0.72,0.53,1.0,5.5,-1.0,35.75,,,,,,,,,,
13.33.12.961,50.4,12.6,0,15.0,,89338.6,11.19,-0.44,0.71,0.53,0.8,5.4,-0.7,35.75,,,,,,,,,,
13.33.12.973,56.9,14.2,0,15.0,,91141.7,10.97,-0.44,0.71,0.53,0.9,5.2,-0.8,35.75,,,,,,,,,,
13.33.12.981,56.7,14.2,0,15.0,,91254.4,10.96,-0.43,0.71,0.53,0.5,5.5,-0.8,35.75,,,,,,,,,,
13.33.12.994,33.4,8.4,0,15.0,,90770.5,11.02,-0.44,0.72,0.53,0.9,5.6,-0.9,35.75,,,,,,,,,,
13.33.13.002,21.1,5.3,0,15.0,,88447.5,11.31,-0.43,0.72,0.52,0.9,5.6,-0.8,35.75,,,,,,,,,,
13.33.13.014,6.4,1.6,0,15.0,,90187.0,11.09,-0.43,0.72,0.53,0.7,5.8,-1.2,35.75,,,,,,,,,,
13.33.13.022,-12.9,3.2,0,15.0,,90805.1,11.01,-0.44,0.72,0.52,0.7,5.8,-1.2,35.75,,,,,,,,,,
13.33.13.035,-11.1,2.8,0,15.0,,89470.7,11.18,-0.44,0.72,0.53,0.3,5.7,-1.5,35.75,,,,,,,,,,
13.33.13.043,-8.0,2.0,0,15.0,,91420.2,10.94,-0.44,0.72,0.53,0.4,5.9,-1.5,35.75,,,,,,,,,,
13.33.13.056,-11.4,2.8,0,15.0,,90697.5,11.03,-0.44,0.71,0.53,0.3,5.8,-1.5,35.75,,,,,,,,,,
13.33.13.063,-20.9,5.2,0,15.0,,89802.7,11.14,-0.44,0.71,0.53,0.4,5.9,-1.3,35.75,,,,,,,,,,
13.33.13.076,-28.7,7.2,0,15.0,,89468.8,11.18,-0.44,0.71,0.54,0.5,6.0,-1.7,35.75,,,,,,,,,,
13.33.13.088,-30.1,7.5,0,15.0,,90676.6,11.03,-0.44,0.71,0.53,0.6,5.6,-1.2,35.75,,,,,,,,,,
13.33.13.096,-37.4,9.4,0,15.0,,91084.3,10.98,-0.44,0.71,0.53,0.5,5.7,-1.1,35.75,,,,,,,,,,
13.33.13.108,-51.0,12.8,0,15.0,,89485.1,11.18,-0.44,0.72,0.52,0.7,5.6,-1.2,35.75,,,,,,,,,,
13.33.13.117,-44.8,11.2,0,15.0,,90356.8,11.07,-0.44,0.72,0.52,0.6,5.6,-1.4,35.75,,,,,,,,,,
13.33.13.129,-63.1,15.8,0,15.0,,91024.2,10.99,-0.44,0.71,0.52,0.4,5.5,-1.1,35.75,,,,,,,,,,
13.33.13.141,-56.3,14.1,0,15.0,,89694.0,11.15,-0.43,0.72,0.53,1.0,5.7,-1.0,35.75,,,,,,,,,,
13.33.13.149,-70.3,17.6,0,15.0,,91410.7,10.94,-0.44,0.71,0.52,1.1,5.6,-0.8,35.75,,,,,,,,,,
13.33.13.162,-73.7,18.4,0,15.0,,90652.6,11.03,-0.44,0.72,0.53,0.8,5.3,-0.8,35.75,,,,,,,,,,
13.33.13.171,-78.1,19.5,0,15.0,,90524.2,11.05,-0.44,0.72,0.52,0.6,5.7,-1.2,35.75,,,,,,,,,,
13.33.13.182,-81.0,20.2,0,15.0,,91405.7,10.94,-0.44,0.72,0.52,0.5,5.4,-1.7,35.75,,,,,,,,,,
13.33.13.190,-88.9,22.2,0,15.0,,91589.7,10.92,-0.43,0.72,0.53,0.1,5.5,-1.3,35.75,,,,,,,,,,
13.33.13.203,-102.6,25.6,0,15.0,,89712.3,11.15,-0.43,0.72,0.53,0.3,5.6,-1.3,35.75,,,,,,,,,,
13.33.13.211,-83.7,20.9,0,15.0,,91562.4,10.92,-0.43,0.71,0.53,0.8,5.7,-1.0,35.75,,,,,,,,,,
13.33.13.223,-110.7,27.7,0,15.0,,91840.8,10.89,-0.44,0.71,0.53,1.0,5.9,-0.9,35.75,,,,,,,,,,
13.33.13.231,-97.6,24.4,0,15.0,,90063.5,11.1,-0.44,0.72,0.53,0.4,5.8,-1.3,35.75,,,,,,,,,,
13.33.13.244,-111.4,27.8,0,15.0,,91153.4,10.97,-0.44,0.72,0.53,0.6,5.9,-1.7,35.75,,,,,,,,,,
13.33.13.252,-117.0,29.2,0,15.0,,90464.6,11.05,-0.44,0.72,0.53,0.3,5.7,-1.3,35.75,,,,,,,,,,
13.33.13.264,-125.7,31.4,0,15.0,,90604.0,11.04,-0.44,0.72,0.53,0.4,5.6,-1.3,35.75,,,,,,,,,,
13.33.13.272,-0.9,0.2,1,16.0,107.0,90842.0,11.01,-0.44,0.72,0.53,0.3,5.9,-1.5,35.75,,,,,,,,,,
13.33.13.285,69.4,17.4,0,16.0,,89216.3,11.21,-0.44,0.71,0.53,0.4,6.0,-1.3,35.75,,,,,,,,,,
13.33.13.293,98.2,24.6,0,16.0,,89154.5,11.22,-0.44,0.71,0.53,0.7,5.9,-1.1,35.75,,,,,,,,,,
13.33.13.306,178.6,44.6,0,16.0,,89254.3,11.2,-0.44,0.72,0.53,0.8,5.6,-1.0,35.75,,,,,,,,,,
13.33.13.317,218.8,54.7,0,16.0,,91654.1,10.91,-0.44,0.72,0.53,0.9,5.8,-1.1,35.75,,,,,,,,,,
13.33.13.327,245.2,61.3,0,16.0,,90927.4,11.0,-0.44,0.72,0.53,0.6,5.6,-1.2,35.75,,,,,,,,,,
13.33.13.338,258.3,64.6,0,16.0,,90340.0,11.07,-0.44,0.72,0.53,0.5,5.6,-1.3,35.75,,,,,,,,,,
13.33.13.346,273.6,68.4,0,16.0,,91792.2,10.89,-0.44,0.71,0.53,0.6,5.7,-1.2,35.75,,,,,,,,,,
13.33.13.359,332.4,83.1,0,16.0,,91115.6,10.98,-0.44,0.72,0.53,0.6,5.3,-1.3,35.75,,,,,,,,,,
13.33.13.367,313.5,78.4,0,16.0,,91362.2,10.95,-0.44,0.71,0.53,0.6,5.7,-1.4,35.75,,,,,,,,,,
13.33.13.379,329.8,82.4,0,16.0,,91870.7,10.88,-0.44,0.71,0.52,0.4,5.5,-1.4,35.75,,,,,,,,,,
13.33.13.387,323.1,80.8,0,16.0,,88411.8,11.31,-0.43,0.71,0.53,0.3,5.6,-1.5,35.75,,,,,,,,,,
13.33.13.399,274.3,68.6,0,16.0,,90463.7,11.05,-0.44,0.72,0.53,0.3,5.9,-1.4,35.75,,,,,,,,,,
13.33.13.407,287.4,71.8,0,16.0,,91522.4,10.93,-0.44,0.72,0.53,0.2,5.7,-1.5,35.75,,,,,,,,,,
13.33.13.421,236.7,59.2,0,16.0,,91383.4,10.94,-0.44,0.71,0.53,0.3,5.9,-1.8,35.75,,,,,,,,,,
13.33.13.428,171.5,42.9,0,16.0,,89890.6,11.12,-0.43,0.71,0.53,0.5,5.9,-1.4,35.75,,,,,,,,,,
13.33.13.440,150.5,37.6,0,16.0,,90293.4,11.08,-0.43,0.71,0.53,0.5,5.9,-1.5,35.75,,,,,,,,,,
13.33.13.449,99.7,24.9,0,16.0,,90767.0,11.02,-0.44,0.72,0.53,0.5,5.9,-1.4,35.75,,,,,,,,,,
13.33.13.461,49.8,12.4,0,16.0,,90959.4,10.99,-0.44,0.72,0.52,0.5,5.9,-1.0,35.75,,,,,,,,,,
13.33.13.473,-3.0,0.8,0,16.0,,91012.7,10.99,-0.44,0.71,0.53,0.6,6.0,-1.2,35.75,,,,,,,,,,
13.33.13.481,14.3,3.6,0,16.0,,90576.1,11.04,-0.44,0.72,0.53,0.6,5.8,-1.3,35.75,,,,,,,,,,
13.33.13.494,34.4,8.6,0,16.0,,90275.4,11.08,-0.43,0.72,0.52,0.3,6.0,-1.6,35.75,,,,,,,,,,
13.33.13.502,42.3,10.6,0,16.0,,90407.2,11.06,-0.44,0.72,0.53,0.3,6.1,-1.6,35.75,,,,,,,,,,
13.33.13.514,61.5,15.4,0,16.0,,92476.1,10.81,-0.44,0.71,0.52,0.5,5.9,-1.2,35.75,,,,,,,,,,
13.33.13.522,53.9,13.5,0,16.0,,89917.4,11.12,-0.44,0.71,0.53,0.7,5.7,-1.3,35.75,,,,,,,,,,
13.33.13.534,60.6,15.2,0,16.0,,90299.8,11.07,-0.44,0.72,0.52,0.7,5.8,-1.1,35.75,,,,,,,,,,
13.33.13.543,48.4,12.1,0,16.0,,91484.9,10.93,-0.44,0.71,0.53,0.6,5.5,-1.3,35.75,,,,,,,,,,
13.33.13.555,48.1,12.0,0,16.0,,90536.2,11.05,-0.44,0.72,0.53,0.4,5.3,-1.3,35.75,,,,,,,,,,
13.33.13.593,-6.5,1.6,0,16.0,,90356.7,11.07,-0.44,0.72,0.52,0.8,5.7,-1.2,35.75,,,,,,,,,,
13.33.13.600,-7.7,1.9,0,16.0,,90176.4,11.09,-0.44,0.72,0.53,0.2,6.0,-1.8,35.75,,,,,,,,,,
13.33.13.612,-13.6,3.4,0,16.0,,91435.4,10.94,-0.43,0.72,0.53,0.2,6.2,-1.8,35.75,,,,,,,,,,
13.33.13.621,-11.9,3.0,0,16.0,,91019.7,10.99,-0.44,0.72,0.52,0.2,6.1,-1.6,35.75,,,,,,,,,,
13.33.13.633,-24.3,6.1,0,16.0,,91588.8,10.92,-0.44,0.71,0.53,0.2,6.2,-1.5,35.75,,,,,,,,,,
13.33.13.645,-30.5,7.6,0,16.0,,90379.3,11.06,-0.44,0.71,0.53,0.1,5.8,-1.4,35.75,,,,,,,,,,
13.33.13.653,-33.2,8.3,0,16.0,,92211.8,10.84,-0.44,0.71,0.53,0.3,5.6,-1.5,35.75,,,,,,,,,,
13.33.13.666,-37.0,9.2,0,16.0,,90312.0,11.07,-0.43,0.71,0.53,0.5,5.9,-1.5,35.75,,,,,,,,,,
13.33.13.674,-44.9,11.2,0,16.0,,90506.4,11.05,-0.44,0.71,0.53,0.7,5.7,-1.1,35.75,,,,,,,,,,
13.33.13.682,-42.2,10.6,0,16.0,,92090.3,10.86,-0.44,0.71,0.53,0.5,5.8,-1.4,35.75,,,,,,,,,,
13.33.13.694,-61.5,15.4,0,16.0,,90754.8,11.02,-0.44,0.71,0.52,0.4,5.6,-1.0,35.75,,,,,,,,,,
13.33.13.702,-57.7,14.4,0,16.0,,90641.1,11.03,-0.43,0.71,0.53,1.1,5.6,-1.0,35.75,,,,,,,,,,
13.33.13.719,-81.2,20.3,0,16.0,,89412.8,11.18,-0.44,0.72,0.52,0.9,5.5,-0.8,35.75,,,,,,,,,,
13.33.13.727,-74.1,18.5,0,16.0,,90556.5,11.04,-0.44,0.72,0.53,1.0,5.8,-1.1,35.75,,,,,,,,,,
13.33.13.739,-80.4,20.1,0,16.0,,91752.7,10.9,-0.44,0.71,0.53,0.7,5.6,-1.2,35.75,,,,,,,,,,
13.33.13.748,-84.1,21.0,0,16.0,,89935.3,11.12,-0.44,0.72,0.53,0.5,5.6,-1.3,35.75,,,,,,,,,,
13.33.13.760,-89.6,22.4,0,16.0,,88897.5,11.25,-0.44,0.72,0.53,0.4,5.6,-1.4,35.75,,,,,,,,,,
13.33.13.768,-85.3,21.3,0,16.0,,90688.2,11.03,-0.44,0.71,0.53,0.3,5.6,-1.6,35.75,,,,,,,,,,
13.33.13.780,-86.6,21.6,0,16.0,,89113.8,11.22,-0.44,0.71,0.53,0.5,5.7,-1.0,35.75,,,,,,,,,,
13.33.13.788,-98.9,24.7,0,16.0,,91248.8,10.96,-0.44,0.71,0.53,0.9,5.9,-0.9,35.75,,,,,,,,,,
13.33.13.801,-120.1,30.0,0,16.0,,91282.9,10.95,-0.43,0.72,0.53,0.9,6.0,-0.9,35.75,,,,,,,,,,
13.33.13.809,-120.3,30.1,0,16.0,,92383.9,10.82,-0.44,0.71,0.53,0.6,5.9,-1.1,35.75,,,,,,,,,,
13.33.13.821,-117.3,29.3,0,16.0,,91237.9,10.96,-0.44,0.72,0.53,0.4,5.8,-1.4,35.75,,,,,,,,,,
13.33.13.829,-121.0,30.2,0,16.0,,91154.2,10.97,-0.44,0.72,0.53,0.5,5.9,-1.5,35.75,,,,,,,,,,
13.33.13.842,-2.9,0.7,1,17.0,111.7,90072.0,11.1,-0.44,0.71,0.53,0.6,5.6,-1.4,35.75,,,,,,,,,,
13.33.13.850,35.0,8.8,0,17.0,,89264.9,11.2,-0.43,0.72,0.53,0.7,5.8,-1.3,35.75,,,,,,,,,,
13.33.13.862,101.2,25.3,0,17.0,,90271.9,11.08,-0.44,0.71,0.53,0.7,5.9,-1.3,35.75,,,,,,,,,,
13.33.13.870,135.5,33.9,0,17.0,,91099.8,10.98,-0.44,0.71,0.54,0.6,5.7,-1.0,35.75,,,,,,,,,,
13.33.13.883,198.5,49.6,0,17.0,,91551.8,10.92,-0.43,0.72,0.54,1.0,5.5,-1.1,35.75,,,,,,,,,,
13.33.13.891,217.8,54.4,0,17.0,,91087.4,10.98,-0.44,0.71,0.53,1.0,5.6,-0.8,35.75,,,,,,,,,,
13.33.13.903,235.9,59.0,0,17.0,,90875.8,11.0,-0.43,0.72,0.53,0.6,5.5,-1.2,35.75,,,,,,,,,,
13.33.13.911,275.9,69.0,0,17.0,,91795.8,10.89,-0.44,0.72,0.53,0.9,5.4,-1.1,35.75,,,,,,,,,,
13.33.13.924,316.0,79.0,0,17.0,,90563.0,11.04,-0.43,0.71,0.53,0.7,5.5,-0.9,35.75,,,,,,,,,,
13.33.13.932,301.0,75.2,0,17.0,,91478.1,10.93,-0.44,0.72,0.52,0.8,5.6,-1.0,35.75,,,,,,,,,,
13.33.13.944,310.1,77.5,0,17.0,,90081.4,11.1,-0.44,0.71,0.53,0.7,5.4,-1.4,35.75,,,,,,,,,,
13.33.13.952,330.5,82.6,0,17.0,,91403.7,10.94,-0.43,0.72,0.53,0.5,5.5,-1.2,35.75,,,,,,,,,,
13.33.13.965,293.8,73.4,0,17.0,,90355.7,11.07,-0.44,0.72,0.53,0.5,5.6,-1.4,35.75,,,,,,,,,,
13.33.13.977,277.9,69.5,0,17.0,,90524.5,11.05,-0.44,0.72,0.53,0.7,5.8,-1.4,35.75,,,,,,,,,,
13.33.13.985,243.0,60.8,0,17.0,,91051.3,10.98,-0.44,0.71,0.53,0.4,6.0,-1.3,35.75,,,,,,,,,,
13.33.13.997,201.0,50.2,0,17.0,,91539.4,10.92,-0.44,0.72,0.52,0.5,6.1,-1.5,35.75,,,,,,,,,,
13.33.14.006,169.4,42.4,0,17.0,,91185.9,10.97,-0.43,0.71,0.52,0.7,6.4,-1.2,35.75,,,,,,,,,,
13.33.14.018,117.8,29.4,0,17.0,,91136.4,10.97,-0.43,0.72,0.53,0.5,6.0,-1.1,35.75,,,,,,,,,,
13.33.14.026,76.9,19.2,0,17.0,,90677.1,11.03,-0.44,0.71,0.53,0.6,6.2,-0.8,35.75,,,,,,,,,,
13.33.14.038,15.3,3.8,0,17.0,,90987.3,10.99,-0.44,0.72,0.53,0.6,6.0,-1.1,35.75,,,,,,,,,,
13.33.14.047,4.5,1.1,0,17.0,,89688.8,11.15,-0.44,0.72,0.53,0.6,6.1,-1.2,35.75,,,,,,,,,,
13.33.14.059,20.9,5.2,0,17.0,,91176.1,10.97,-0.44,0.71,0.53,0.2,5.7,-1.4,35.75,,,,,,,,,,
13.33.14.067,24.9,6.2,0,17.0,,90772.0,11.02,-0.44,0.71,0.53,0.2,5.7,-1.7,35.75,,,,,,,,,,
13.33.14.079,49.2,12.3,0,17.0,,89591.3,11.16,-0.43,0.71,0.53,0.5,5.6,-1.5,35.75,,,,,,,,,,
13.33.14.088,48.6,12.2,0,17.0,,89640.9,11.16,-0.43,0.71,0.53,0.6,5.5,-0.9,35.75,,,,,,,,,,
13.33.14.100,59.0,14.8,0,17.0,,92245.4,10.84,-0.44,0.71,0.53,0.8,5.7,-1.0,35.75,,,,,,,,,,
13.33.14.108,57.2,14.3,0,17.0,,91277.5,10.96,-0.43,0.71,0.53,0.8,5.6,-0.9,35.75,,,,,,,,,,
13.33.14.120,52.9,13.2,0,17.0,,91067.8,10.98,-0.43,0.72,0.52,0.6,5.4,-1.3,35.75,,,,,,,,,,
13.33.14.133,36.1,9.0,0,17.0,,89922.0,11.12,-0.44,0.72,0.53,0.5,5.6,-1.5,35.75,,,,,,,,,,
13.33.14.141,16.6,4.2,0,17.0,,92024.8,10.87,-0.44,0.72,0.53,0.5,5.7,-1.3,35.75,,,,,,,,,,
13.33.14.154,-5.9,1.5,0,17.0,,89903.6,11.12,-0.43,0.72,0.53,0.6,6.0,-1.2,35.75,,,,,,,,,,
13.33.14.161,4.3,1.1,0,17.0,,90718.4,11.02,-0.44,0.72,0.53,0.8,5.9,-1.2,35.75,108.7,,,,,,,,,
13.33.14.174,-9.7,2.4,0,17.0,,90781.1,11.02,-0.44,0.72,0.53,0.6,6.3,-1.5,35.75,,,,,,,,,,
13.33.14.182,-6.2,1.6,0,17.0,,88471.7,11.3,-0.44,0.72,0.52,0.4,6.1,-2.0,35.75,,,,,,,,,,
13.33.14.194,-16.8,4.2,0,17.0,,90414.5,11.06,-0.44,0.72,0.53,0.3,6.2,-2.0,35.75,,,,,,,,,,
13.33.14.202,-28.0,7.0,0,17.0,,91291.4,10.95,-0.44,0.72,0.53,-0.1,6.2,-1.8,35.75,,,,,,,,,,
13.33.14.215,-24.6,6.2,0,17.0,,91176.0,10.97,-0.44,0.71,0.53,0.3,5.9,-1.5,35.75,,,,,,,,,,
13.33.14.223,-21.2,5.3,0,17.0,,90366.8,11.07,-0.44,0.72,0.52,0.4,5.9,-1.6,35.75,,,,,,,,,,
13.33.14.235,-44.8,11.2,0,17.0,,90381.2,11.06,-0.43,0.71,0.53,0.2,6.0,-1.3,35.75,,,,,,,,,,
13.33.14.243,-46.8,11.7,0,17.0,,90515.0,11.05,-0.43,0.71,0.52,0.5,5.9,-1.4,35.75,,,,,,,,,,
13.33.14.256,-50.2,12.6,0,17.0,,90693.8,11.03,-0.44,0.71,0.53,0.4,5.9,-1.4,35.75,,,,,,,,,,
13.33.14.264,-59.0,14.8,0,17.0,,90293.8,11.07,-0.44,0.72,0.52,0.5,5.8,-1.2,35.75,,,,,,,,,,
13.33.14.276,-58.3,14.6,0,17.0,,90974.0,10.99,-0.44,0.72,0.53,0.6,5.8,-1.2,35.75,,,,,,,,,,
13.33.14.288,-66.7,16.7,0,17.0,,91098.3,10.98,-0.44,0.72,0.52,0.7,6.0,-1.2,35.75,,,,,,,,,,
13.33.14.296,-63.2,15.8,0,17.0,,91367.7,10.94,-0.44,0.72,0.52,0.7,5.6,-1.2,35.75,,,,,,,,,,
13.33.14.309,-78.3,19.6,0,17.0,,91261.8,10.96,-0.43,0.72,0.53,0.5,5.9,-1.2,35.75,,,,,,,,,,
13.33.14.317,-87.2,21.8,0,17.0,,91899.2,10.88,-0.44,0.72,0.53,0.6,5.8,-1.2,35.75,,,,,,,,,,
13.33.14.329,-84.0,21.0,0,17.0,,90219.8,11.08,-0.43,0.72,0.53,0.4,5.9,-1.4,35.75,,,,,,,,,,
13.33.14.337,-92.3,23.1,0,17.0,,90841.1,11.01,-0.44,0.71,0.53,0.3,5.6,-1.5,35.75,,,,,,,,,,
13.33.14.350,-102.3,25.6,0,17.0,,90088.1,11.1,-0.44,0.71,0.53,0.1,5.7,-1.6,35.75,,,,,,,,,,
13.33.14.358,-103.1,25.8,0,17.0,,90391.7,11.06,-0.43,0.71,0.53,0.4,5.8,-1.2,35.75,,,,,,,,,,
13.33.14.395,-107.0,26.8,0,17.0,,90539.4,11.04,-0.44,0.71,0.53,0.5,6.0,-1.2,35.75,,,,,,,,,,
13.33.14.407,-131.9,33.0,0,17.0,,90217.7,11.08,-0.44,0.72,0.53,0.7,6.0,-1.7,35.75,,,,,,,,,,
13.33.14.415,14.2,3.6,1,18.0,107.5,91517.7,10.93,-0.44,0.71,0.53,0.6,5.8,-1.6,35.75,,,,,,,,,,
13.33.14.428,83.2,20.8,0,18.0,,90746.0,11.02,-0.44,0.71,0.53,0.4,6.1,-1.6,35.75,,,,,,,,,,
13.33.14.436,126.5,31.6,0,18.0,,90689.0,11.03,-0.44,0.72,0.53,0.4,5.9,-1.3,35.75,,,,,,,,,,
13.33.14.448,167.9,42.0,0,18.0,,91165.6,10.97,-0.43,0.71,0.52,0.5,5.6,-1.2,35.75,,,,,,,,,,
13.33.14.456,209.6,52.4,0,18.0,,91119.7,10.97,-0.44,0.71,0.53,0.9,5.6,-1.1,35.75,,,,,,,,,,
13.33.14.469,249.0,62.2,0,18.0,,90585.0,11.04,-0.43,0.72,0.52,1.0,5.7,-1.2,35.75,,,,,,,,,,
13.33.14.477,262.6,65.6,0,18.0,,90652.5,11.03,-0.44,0.72,0.53,0.6,5.4,-1.3,35.75,,,,,,,,,,
13.33.14.489,286.2,71.6,0,18.0,,92590.1,10.8,-0.44,0.72,0.53,0.7,5.7,-1.2,35.75,,,,,,,,,,
13.33.14.501,322.4,80.6,0,18.0,,90268.3,11.08,-0.44,0.72,0.53,0.6,5.5,-1.1,35.75,,,,,,,,,,
13.33.14.510,323.0,80.8,0,18.0,,90441.6,11.06,-0.44,0.72,0.53,0.9,5.5,-1.2,35.75,,,,,,,,,,
13.33.14.522,316.6,79.2,0,18.0,,89893.1,11.12,-0.43,0.72,0.52,0.5,5.6,-1.6,35.75,,,,,,,,,,
13.33.14.530,297.6,74.4,0,18.0,,91526.6,10.93,-0.44,0.72,0.53,0.3,5.4,-1.4,35.75,,,,,,,,,,
13.33.14.542,287.7,71.9,0,18.0,,89611.8,11.16,-0.44,0.72,0.52,0.5,5.5,-1.3,35.75,,,,,,,,,,
13.33.14.550,243.7,60.9,0,18.0,,90932.6,11.0,-0.44,0.71,0.53,0.3,5.8,-1.1,35.75,,,,,,,,,,
13.33.14.563,220.4,55.1,0,18.0,,89722.1,11.15,-0.44,0.71,0.53,0.5,5.9,-1.2,35.75,,,,,,,,,,
13.33.14.571,171.7,42.9,0,18.0,,92172.2,10.85,-0.44,0.71,0.53,0.6,6.0,-1.4,35.75,,,,,,,,,,
13.33.14.583,137.3,34.3,0,18.0,,89090.4,11.22,-0.44,0.71,0.52,0.3,6.0,-1.6,35.75,,,,,,,,,,
13.33.14.591,89.4,22.4,0,18.0,,89988.3,11.11,-0.44,0.72,0.53,0.5,6.0,-1.3,35.75,,,,,,,,,,
13.33.14.604,32.8,8.2,0,18.0,,90478.3,11.05,-0.44,0.71,0.53,0.7,6.0,-1.2,35.75,,,,,,,,,,
13.33.14.612,5.8,1.4,0,18.0,,91682.9,10.91,-0.44,0.72,0.53,0.8,6.0,-1.3,35.75,,,,,,,,,,
13.33.14.624,19.2,4.8,0,18.0,,89199.3,11.21,-0.44,0.71,0.53,0.4,6.0,-1.3,35.75,,,,,,,,,,
13.33.14.632,34.3,8.6,0,18.0,,90599.1,11.04,-0.44,0.72,0.53,0.5,6.1,-1.5,35.75,,,,,,,,,,
13.33.14.645,46.9,11.7,0,18.0,,89967.3,11.12,-0.44,0.71,0.53,0.3,5.8,-1.5,35.75,,,,,,,,,,
13.33.14.657,56.5,14.1,0,18.0,,90937.5,11.0,-0.44,0.71,0.53,0.5,5.7,-1.5,35.75,,,,,,,,,,
13.33.14.665,55.8,14.0,0,18.0,,90692.4,11.03,-0.44,0.71,0.53,0.6,5.8,-1.2,35.75,,,,,,,,,,
13.33.14.677,59.3,14.8,0,18.0,,90572.8,11.04,-0.44,0.71,0.52,0.8,5.9,-0.9,35.75,,,,,,,,,,
13.33.14.686,48.8,12.2,0,18.0,,90487.4,11.05,-0.43,0.72,0.52,1.0,6.0,-1.1,35.75,,,,,,,,,,
13.33.14.698,36.5,9.1,0,18.0,,90444.2,11.06,-0.44,0.72,0.53,0.6,5.7,-0.9,35.75,,,,,,,,,,
13.33.14.706,23.0,5.8,0,18.0,,89720.2,11.15,-0.44,0.72,0.53,0.7,5.4,-1.2,35.75,,,,,,,,,,
13.33.14.718,9.5,2.4,0,18.0,,88760.3,11.27,-0.44,0.72,0.53,0.4,5.7,-1.3,35.75,,,,,,,,,,
13.33.14.727,3.0,0.8,0,18.0,,90316.5,11.07,-0.44,0.72,0.52,0.7,5.9,-1.2,35.75,,,,,,,,,,
13.33.14.739,-7.8,2.0,0,18.0,,90873.1,11.0,-0.43,0.72,0.53,0.7,6.0,-1.2,35.75,,,,,,,,,,
13.33.14.747,-14.9,3.7,0,18.0,,91167.0,10.97,-0.44,0.72,0.53,0.6,5.7,-1.2,35.75,,,,,,,,,,
13.33.14.759,-11.3,2.8,0,18.0,,90130.1,11.1,-0.44,0.72,0.52,0.3,5.9,-1.6,35.75,,,,,,,,,,
13.33.14.768,-31.3,7.8,0,18.0,,91417.5,10.94,-0.43,0.72,0.53,-0.1,6.2,-1.9,35.75,,,,,,,,,,
13.33.14.780,-28.6,7.2,0,18.0,,89340.9,11.19,-0.43,0.71,0.53,-0.1,6.2,-1.9,35.75,,,,,,,,,,
13.33.14.788,-26.8,6.7,0,18.0,,90983.0,10.99,-0.43,0.71,0.52,0.1,6.1,-2.2,35.75,,,,,,,,,,
13.33.14.800,-36.0,9.0,0,18.0,,91511.6,10.93,-0.44,0.72,0.53,0.1,6.2,-1.9,35.75,,,,,,,,,,
13.33.14.813,-53.4,13.4,0,18.0,,90555.1,11.04,-0.43,0.71,0.52,0.2,5.9,-1.7,35.75,,,,,,,,,,
13.33.14.821,-40.5,10.1,0,18.0,,90510.7,11.05,-0.44,0.71,0.53,0.2,5.6,-1.5,35.75,,,,,,,,,,
13.33.14.833,-49.3,12.3,0,18.0,,90794.0,11.01,-0.44,0.71,0.53,0.7,5.8,-1.4,35.75,,,,,,,,,,
13.33.14.841,-51.0,12.8,0,18.0,,90147.6,11.09,-0.44,0.71,0.52,0.8,5.8,-1.2,35.75,,,,,,,,,,
13.33.14.854,-71.9,18.0,0,18.0,,91934.7,10.88,-0.44,0.71,0.53,0.8,5.7,-1.5,35.75,,,,,,,,,,
13.33.14.862,-64.2,16.0,0,18.0,,90148.4,11.09,-0.44,0.72,0.53,0.6,5.7,-1.5,35.75,,,,,,,,,,
13.33.14.874,-77.8,19.4,0,18.0,,90198.8,11.09,-0.44,0.72,0.52,0.7,5.9,-1.1,35.75,,,,,,,,,,
13.33.14.886,-71.1,17.8,0,18.0,,91386.8,10.94,-0.44,0.72,0.53,0.8,5.8,-1.1,35.75,,,,,,,,,,
13.33.14.895,-90.2,22.6,0,18.0,,90783.3,11.02,-0.44,0.71,0.53,0.6,5.9,-1.3,35.75,,,,,,,,,,
13.33.14.907,-84.6,21.2,0,18.0,,90790.4,11.01,-0.43,0.72,0.53,0.6,5.9,-1.0,35.75,,,,,,,,,,
13.33.14.915,-107.0,26.8,0,18.0,,90045.1,11.11,-0.44,0.72,0.53,0.1,5.8,-1.4,35.75,,,,,,,,,,
13.33.14.927,-87.3,21.8,0,18.0,,89819.4,11.13,-0.44,0.71,0.53,0.1,5.8,-1.8,35.75,,,,,,,,,,
13.33.14.936,-111.6,27.9,0,18.0,,90598.3,11.04,-0.44,0.71,0.53,0.2,5.9,-1.4,35.75,,,,,,,,,,
13.33.14.948,-104.8,26.2,0,18.0,,89631.6,11.16,-0.44,0.72,0.53,0.7,6.1,-1.3,35.75,,,,,,,,,,
13.33.14.956,-118.8,29.7,0,18.0,,91163.9,10.97,-0.44,0.71,0.53,0.6,6.0,-1.1,35.75,,,,,,,,,,
13.33.14.968,-131.2,32.8,0,18.0,,90242.7,11.08,-0.44,0.71,0.53,0.3,6.4,-1.5,35.75,,,,,,,,,,
13.33.14.977,-132.0,33.0,0,18.0,,90020.2,11.11,-0.44,0.72,0.53,0.3,6.1,-1.5,35.75,,,,,,,,,,
13.33.14.989,50.2,12.6,1,19.0,102.7,91812.8,10.89,-0.44,0.71,0.53,0.5,5.8,-1.2,35.75,,,,,,,,,,
13.33.14.997,84.0,21.0,0,19.0,,91218.0,10.96,-0.43,0.72,0.52,0.4,5.9,-1.3,35.75,,,,,,,,,,
13.33.15.009,133.6,33.4,0,19.0,,89800.5,11.14,-0.44,0.71,0.53,0.5,6.1,-1.3,35.75,,,,,,,,,,
13.33.15.017,181.5,45.4,0,19.0,,89747.5,11.14,-0.44,0.71,0.53,0.5,6.0,-1.4,35.75,,,,,,,,,,
13.33.15.030,235.7,58.9,0,19.0,,89764.4,11.14,-0.44,0.71,0.52,0.7,5.7,-1.1,35.75,,,,,,,,,,
13.33.15.038,247.0,61.8,0,19.0,,91310.3,10.95,-0.44,0.72,0.52,0.8,5.6,-0.9,35.75,,,,,,,,,,
13.33.15.050,295.7,73.9,0,19.0,,90164.2,11.09,-0.44,0.71,0.53,1.0,5.7,-0.9,35.75,,,,,,,,,,
13.33.15.059,309.0,77.2,0,19.0,,91295.1,10.95,-0.44,0.72,0.52,0.6,5.4,-1.3,35.75,,,,,,,,,,
13.33.15.071,325.8,81.4,0,19.0,,89906.7,11.12,-0.44,0.72,0.53,0.6,5.4,-0.8,35.75,,,,,,,,,,
13.33.15.083,338.2,84.6,0,19.0,,91088.5,10.98,-0.44,0.72,0.53,0.5,5.4,-1.0,35.75,,,,,,,,,,
13.33.15.091,316.7,79.2,0,19.0,,92365.0,10.83,-0.43,0.71,0.53,0.5,5.4,-1.0,35.75,,,,,,,,,,
13.33.15.104,288.8,72.2,0,19.0,,90579.6,11.04,-0.43,0.71,0.53,0.7,5.6,-1.4,35.75,,,,,,,,,,
13.33.15.112,305.4,76.4,0,19.0,,90084.2,11.1,-0.44,0.72,0.53,0.4,5.6,-1.5,35.75,,,,,,,,,,
13.33.15.124,260.1,65.0,0,19.0,,90166.9,11.09,-0.44,0.72,0.53,0.3,5.6,-1.6,35.75,,,,,,,,,,
13.33.15.132,205.3,51.3,0,19.0,,91265.4,10.96,-0.44,0.72,0.53,0.6,5.6,-1.4,35.75,,,,,,,,,,
13.33.15.144,173.4,43.4,0,19.0,,89874.9,11.13,-0.44,0.71,0.53,0.6,5.8,-1.3,35.75,,,,,,,,,,
13.33.15.154,127.1,31.8,0,19.0,,90867.2,11.01,-0.44,0.71,0.53,0.5,6.1,-1.3,35.75,,,,,,,,,,
13.33.15.165,71.7,17.9,0,19.0,,92386.3,10.82,-0.43,0.71,0.53,0.5,6.1,-1.4,35.75,,,,,,,,,,
13.33.15.202,36.0,9.0,0,19.0,,91985.6,10.87,-0.44,0.72,0.53,0.6,6.2,-1.2,35.81,,,,,,,,,,
13.33.15.210,52.5,13.1,0,19.0,,91485.5,10.93,-0.44,0.71,0.52,0.6,5.8,-1.3,35.81,,,,,,,,,,
13.33.15.222,56.1,14.0,0,19.0,,90874.2,11.0,-0.44,0.72,0.53,0.7,5.8,-1.4,35.81,,,,,,,,,,
13.33.15.231,55.4,13.8,0,19.0,,90190.7,11.09,-0.44,0.72,0.52,0.7,5.8,-1.5,35.81,,,,,,,,,,
13.33.15.243,63.4,15.8,0,19.0,,90606.5,11.04,-0.44,0.71,0.52,0.7,5.8,-1.4,35.81,,,,,,,,,,
13.33.15.251,62.6,15.6,0,19.0,,88899.1,11.25,-0.44,0.71,0.54,0.7,6.0,-1.2,35.81,,,,,,,,,,
13.33.15.263,43.9,11.0,0,19.0,,90026.3,11.11,-0.44,0.72,0.53,1.0,5.7,-1.0,35.81,,,,,,,,,,
13.33.15.276,17.2,4.3,0,19.0,,91994.5,10.87,-0.44,0.71,0.52,0.9,6.0,-1.0,35.81,,,,,,,,,,
13.33.15.284,2.3,0.6,0,19.0,,92769.3,10.78,-0.44,0.72,0.53,0.3,5.8,-1.4,35.81,,,,,,,,,,
13.33.15.296,-2.0,0.5,0,19.0,,90524.3,11.05,-0.44,0.72,0.53,0.5,5.8,-1.1,35.81,,,,,,,,,,
13.33.15.304,3.5,0.9,0,19.0,,88083.2,11.35,-0.44,0.71,0.53,0.6,5.8,-1.2,35.81,,,,,,,,,,
13.33.15.317,-12.5,3.1,0,19.0,,90521.6,11.05,-0.43,0.72,0.52,0.9,5.8,-1.0,35.81,,,,,,,,,,
13.33.15.325,-13.2,3.3,0,19.0,,91875.6,10.88,-0.44,0.72,0.52,0.8,6.1,-1.2,35.81,,,,,,,,,,
13.33.15.337,-25.4,6.4,0,19.0,,91427.4,10.94,-0.43,0.72,0.52,0.7,6.1,-1.5,35.81,,,,,,,,,,
13.33.15.345,-26.2,6.6,0,19.0,,91858.8,10.89,-0.43,0.72,0.53,0.2,6.2,-1.8,35.81,,,,,,,,,,
13.33.15.358,-27.4,6.8,0,19.0,,90611.3,11.04,-0.43,0.72,0.53,0.1,6.0,-1.7,35.81,,,,,,,,,,
13.33.15.366,-31.8,8.0,0,19.0,,90725.2,11.02,-0.44,0.72,0.53,0.2,6.3,-1.9,35.81,,,,,,,,,,
13.33.15.378,-38.1,9.5,0,19.0,,90003.1,11.11,-0.44,0.72,0.53,0.1,6.1,-1.9,35.81,,,,,,,,,,
13.33.15.386,-51.2,12.8,0,19.0,,91141.7,10.97,-0.44,0.71,0.53,0.1,5.9,-1.6,35.81,,,,,,,,,,
13.33.15.398,-55.4,13.8,0,19.0,,90464.7,11.05,-0.44,0.71,0.53,0.2,5.7,-1.7,35.81,,,,,,,,,,
13.33.15.407,-52.3,13.1,0,19.0,,90863.2,11.01,-0.44,0.71,0.53,0.3,5.7,-1.2,35.81,,,,,,,,,,
13.33.15.419,-62.8,15.7,0,19.0,,90980.9,10.99,-0.44,0.72,0.53,0.7,5.8,-1.2,35.81,,,,,,,,,,
13.33.15.427,-61.3,15.3,0,19.0,,90420.8,11.06,-0.43,0.71,0.53,0.8,5.5,-1.0,35.81,,,,,,,,,,
13.33.15.439,-68.6,17.2,0,19.0,,91929.7,10.88,-0.44,0.71,0.52,0.6,5.4,-1.1,35.81,,,,,,,,,,
13.33.15.452,-85.4,21.4,0,19.0,,91202.0,10.96,-0.44,0.72,0.53,0.7,5.7,-1.1,35.81,,,,,,,,,,
13.33.15.460,-86.9,21.7,0,19.0,,90505.1,11.05,-0.44,0.71,0.53,0.9,5.8,-1.4,35.81,,,,,,,,,,
13.33.15.472,-90.8,22.7,0,19.0,,90022.7,11.11,-0.43,0.72,0.53,0.8,5.7,-0.9,35.81,,,,,,,,,,
13.33.15.485,-101.8,25.4,0,19.0,,89799.4,11.14,-0.44,0.71,0.52,0.8,5.7,-1.3,35.81,,,,,,,,,,
13.33.15.493,-96.6,24.2,0,19.0,,90024.9,11.11,-0.43,0.72,0.53,0.1,5.6,-1.7,35.81,,,,,,,,,,
13.33.15.505,-107.1,26.8,0,19.0,,90327.0,11.07,-0.44,0.71,0.53,0.1,5.9,-1.9,35.81,,,,,,,,,,
13.33.15.517,-114.1,28.5,0,19.0,,90062.7,11.1,-0.44,0.71,0.53,0.4,5.9,-1.5,35.81,,,,,,,,,,
13.33.15.530,-112.2,28.0,0,19.0,,89614.9,11.16,-0.44,0.71,0.52,0.5,5.8,-1.3,35.81,,,,,,,,,,
13.33.15.538,-124.9,31.2,0,19.0,,91660.5,10.91,-0.44,0.71,0.53,0.5,6.1,-1.0,35.81,,,,,,,,,,
13.33.15.550,5.6,1.4,1,20.0,111.9,90404.2,11.06,-0.44,0.72,0.53,0.6,5.9,-1.3,35.81,,,,,,,,,,
13.33.15.562,70.2,17.6,0,20.0,,91290.1,10.95,-0.44,0.72,0.53,0.4,5.9,-1.6,35.81,,,,,,,,,,
13.33.15.570,105.7,26.4,0,20.0,,90383.1,11.06,-0.44,0.72,0.53,0.5,6.0,-1.3,35.81,,,,,,,,,,
13.33.15.583,153.8,38.4,0,20.0,,89388.3,11.19,-0.44,0.71,0.53,0.6,5.9,-1.4,35.81,,,,,,,,,,
13.33.15.595,216.0,54.0,0,20.0,,89304.3,11.2,-0.44,0.71,0.53,0.6,5.8,-1.3,35.81,,,,,,,,,,
13.33.15.603,234.1,58.5,0,20.0,,89810.8,11.13,-0.44,0.72,0.53,0.8,5.9,-1.3,35.81,,,,,,,,,,
13.33.15.616,269.4,67.4,0,20.0,,91188.9,10.97,-0.44,0.72,0.53,0.8,5.6,-1.0,35.81,,,,,,,,,,
13.33.15.628,284.3,71.1,0,20.0,,90685.0,11.03,-0.44,0.72,0.52,1.0,5.7,-1.0,35.81,,,,,,,,,,
13.33.15.640,346.0,86.5,0,20.0,,91409.3,10.94,-0.44,0.72,0.53,0.8,5.8,-0.9,35.81,,,,,,,,,,
13.33.15.648,343.7,85.9,0,20.0,,90593.1,11.04,-0.44,0.72,0.53,0.6,5.6,-1.4,35.81,,,,,,,,,,
13.33.15.661,334.1,83.5,0,20.0,,90261.6,11.08,-0.44,0.71,0.53,0.7,5.6,-1.2,35.81,,,,,,,,,,
13.33.15.673,305.3,76.3,0,20.0,,91327.8,10.95,-0.43,0.72,0.53,0.8,5.3,-1.0,35.81,,,,,,,,,,
13.33.15.681,255.9,64.0,0,20.0,,91205.4,10.96,-0.44,0.72,0.53,1.0,5.9,-1.3,35.81,,,,,,,,,,
13.33.15.693,247.8,62.0,0,20.0,,90898.0,11.0,-0.44,0.72,0.52,0.4,5.8,-1.4,35.81,,,,,,,,,,
13.33.15.706,184.3,46.1,0,20.0,,91295.5,10.95,-0.44,0.72,0.53,0.4,5.8,-1.5,35.81,,,,,,,,,,
13.33.15.714,159.5,39.9,0,20.0,,89780.4,11.14,-0.44,0.71,0.52,0.3,5.9,-1.2,35.81,,,,,,,,,,
13.33.15.726,100.4,25.1,0,20.0,,90483.6,11.05,-0.44,0.71,0.52,0.8,6.0,-1.3,35.81,,,,,,,,,,
13.33.15.738,52.6,13.2,0,20.0,,91471.5,10.93,-0.44,0.72,0.53,0.7,5.8,-1.2,35.81,,,,,,,,,,
13.33.15.747,3.2,0.8,0,20.0,,90672.4,11.03,-0.44,0.72,0.53,0.6,6.0,-1.2,35.81,,,,,,,,,,
13.33.15.759,27.2,6.8,0,20.0,,91570.1,10.92,-0.44,0.72,0.53,0.5,6.1,-0.8,35.81,,,,,,,,,,
13.33.15.771,29.5,7.4,0,20.0,,91340.5,10.95,-0.44,0.71,0.53,0.9,5.9,-1.1,35.81,,,,,,,,,,
13.33.15.784,40.0,10.0,0,20.0,,91655.1,10.91,-0.44,0.71,0.54,0.7,6.3,-1.3,35.81,,,,,,,,,,
13.33.15.792,49.9,12.5,0,20.0,,91995.1,10.87,-0.44,0.72,0.53,0.6,5.7,-1.3,35.81,,,,,,,,,,
13.33.15.804,52.6,13.2,0,20.0,,90112.2,11.1,-0.43,0.72,0.53,0.8,5.6,-1.1,35.81,,,,,,,,,,
13.33.15.816,52.5,13.1,0,20.0,,92797.1,10.78,-0.44,0.71,0.53,0.3,5.9,-1.3,35.81,,,,,,,,,,
13.33.15.824,48.0,12.0,0,20.0,,90741.3,11.02,-0.44,0.71,0.52,0.4,5.5,-1.2,35.81,,,,,,,,,,
13.33.15.837,28.0,7.0,0,20.0,,90952.4,10.99,-0.44,0.72,0.53,0.9,5.7,-1.3,35.81,,,,,,,,,,
13.33.15.849,25.9,6.5,0,20.0,,91748.8,10.9,-0.44,0.71,0.53,1.0,5.5,-1.0,35.81,,,,,,,,,,
13.33.15.857,6.2,1.6,0,20.0,,90893.9,11.0,-0.44,0.71,0.53,0.8,5.5,-1.1,35.81,,,,,,,,,,
13.33.15.870,-11.8,3.0,0,20.0,,91061.3,10.98,-0.44,0.72,0.52,0.5,5.6,-1.4,35.81,,,,,,,,,,
13.33.15.882,-11.5,2.9,0,20.0,,91750.1,10.9,-0.44,0.72,0.53,0.6,5.4,-1.2,35.81,,,,,,,,,,
13.33.15.894,-14.1,3.5,0,20.0,,89303.0,11.2,-0.44,0.72,0.53,0.7,5.7,-1.4,35.81,,,,,,,,,,
13.33.15.902,-14.4,3.6,0,20.0,,91467.9,10.93,-0.44,0.72,0.52,0.8,5.9,-1.2,35.81,,,,,,,,,,
13.33.15.915,-22.4,5.6,0,20.0,,90608.3,11.04,-0.44,0.71,0.53,0.7,6.2,-1.1,35.81,,,,,,,,,,
13.33.15.927,-36.1,9.0,0,20.0,,90974.7,10.99,-0.43,0.72,0.53,0.3,6.2,-1.8,35.81,,,,,,,,,,
13.33.15.935,-33.0,8.2,0,20.0,,91475.4,10.93,-0.44,0.72,0.53,0.0,6.1,-1.9,35.81,,,,,,,,,,
13.33.15.947,-48.9,12.2,0,20.0,,89514.0,11.17,-0.44,0.72,0.53,-0.1,5.9,-1.7,35.81,,,,,,,,,,
13.33.15.960,-57.9,14.5,0,20.0,,89035.0,11.23,-0.44,0.72,0.53,0.3,5.8,-1.5,35.81,,,,,,,,,,
13.33.15.968,-52.0,13.0,0,20.0,,92215.4,10.84,-0.44,0.72,0.52,0.2,5.8,-1.5,35.81,,,,,,,,,,
13.33.16.009,-59.0,14.8,0,20.0,,91243.7,10.96,-0.44,0.71,0.53,0.7,5.7,-1.1,35.75,,,,,,,,,,
13.33.16.021,-77.0,19.2,0,20.0,,89283.0,11.2,-0.44,0.72,0.53,0.7,5.8,-1.2,35.75,,,,,,,,,,
13.33.16.033,-89.3,22.3,0,20.0,,92608.5,10.8,-0.44,0.72,0.53,0.9,5.5,-1.1,35.75,,,,,,,,,,
13.33.16.042,-86.8,21.7,0,20.0,,90651.5,11.03,-0.44,0.71,0.52,0.9,5.4,-0.8,35.75,,,,,,,,,,
13.33.16.054,-87.8,22.0,0,20.0,,90861.5,11.01,-0.44,0.72,0.53,1.0,5.7,-1.1,35.75,,,,,,,,,,
13.33.16.062,-105.9,26.5,0,20.0,,91438.4,10.94,-0.43,0.72,0.54,0.8,5.9,-1.0,35.75,,,,,,,,,,
13.33.16.074,-106.1,26.5,0,20.0,,90952.1,10.99,-0.44,0.72,0.52,0.5,5.9,-1.5,35.75,,,,,,,,,,
13.33.16.083,-97.5,24.4,0,20.0,,89086.3,11.23,-0.44,0.72,0.53,0.1,6.0,-1.4,35.75,,,,,,,,,,
13.33.16.095,-96.7,24.2,0,20.0,,88850.0,11.25,-0.44,0.72,0.53,0.2,5.9,-1.7,35.75,,,,,,,,,,
13.33.16.107,-117.4,29.4,0,20.0,,92991.4,10.75,-0.43,0.71,0.53,0.2,6.0,-1.3,35.75,,,,,,,,,,
13.33.16.115,-127.2,31.8,0,20.0,,91551.8,10.92,-0.44,0.71,0.53,0.9,6.1,-1.2,35.75,,,,,,,,,,
13.33.16.128,61.2,15.3,1,21.0,105.1,90980.9,10.99,-0.44,0.71,0.53,0.5,6.0,-1.2,35.75,,,,,,,,,,
13.33.16.136,99.4,24.8,0,21.0,,90012.9,11.11,-0.44,0.72,0.52,0.5,5.8,-1.4,35.75,,,,,,,,,,
13.33.16.148,141.2,35.3,0,21.0,,90757.0,11.02,-0.44,0.72,0.53,0.5,5.8,-1.5,35.75,,,,,,,,,,
13.33.16.157,175.3,43.8,0,21.0,,89639.4,11.16,-0.44,0.72,0.53,0.1,5.5,-1.4,35.75,,,,,,,,,,
13.33.16.169,220.9,55.2,0,21.0,,91366.8,10.94,-0.44,0.72,0.53,0.5,6.1,-1.3,35.75,,,,,,,,,,
13.33.16.177,249.7,62.4,0,21.0,,89897.6,11.12,-0.44,0.72,0.53,0.8,5.8,-1.2,35.75,,,,,,,,,,
13.33.16.189,281.0,70.2,0,21.0,,90185.6,11.09,-0.44,0.71,0.53,0.6,5.4,-1.0,35.75,,,,,,,,,,
13.33.16.197,282.5,70.6,0,21.0,,92025.7,10.87,-0.43,0.72,0.53,0.9,5.8,-1.0,35.75,,,,,,,,,,
13.33.16.210,344.5,86.1,0,21.0,,90350.9,11.07,-0.44,0.71,0.52,1.0,5.7,-0.9,35.75,,,,,,,,,,
13.33.16.218,303.3,75.8,0,21.0,,90903.7,11.0,-0.44,0.72,0.52,0.7,5.9,-0.9,35.75,,,,,,,,,,
13.33.16.230,318.9,79.7,0,21.0,,90141.6,11.09,-0.44,0.72,0.53,0.5,5.7,-1.1,35.75,,,,,,,,,,
13.33.16.238,331.1,82.8,0,21.0,,90483.9,11.05,-0.44,0.71,0.52,0.5,5.5,-1.3,35.75,,,,,,,,,,
13.33.16.251,249.7,62.4,0,21.0,,89912.5,11.12,-0.44,0.72,0.52,0.6,5.8,-1.0,35.75,,,,,,,,,,
13.33.16.259,253.8,63.4,0,21.0,,92712.3,10.79,-0.44,0.72,0.53,0.6,5.6,-1.4,35.75,,,,,,,,,,
13.33.16.271,221.4,55.4,0,21.0,,89817.9,11.13,-0.44,0.72,0.53,0.7,5.7,-1.3,35.75,,,,,,,,,,
13.33.16.279,183.5,45.9,0,21.0,,91082.9,10.98,-0.43,0.72,0.53,0.4,5.8,-1.3,35.75,,,,,,,,,,
13.33.16.292,128.3,32.1,0,21.0,,91261.4,10.96,-0.44,0.71,0.52,0.4,5.6,-1.3,35.75,,,,,,,,,,
13.33.16.300,86.5,21.6,0,21.0,,91010.2,10.99,-0.44,0.72,0.53,0.3,5.5,-1.5,35.75,,,,,,,,,,
13.33.16.312,21.5,5.4,0,21.0,,90592.8,11.04,-0.44,0.71,0.53,0.4,5.9,-1.6,35.75,,,,,,,,,,
13.33.16.320,11.7,2.9,0,21.0,,90762.0,11.02,-0.44,0.71,0.53,0.4,5.8,-1.3,35.75,,,,,,,,,,
13.33.16.333,19.3,4.8,0,21.0,,91266.1,10.96,-0.44,0.71,0.52,0.4,5.7,-1.4,35.75,,,,,,,,,,
13.33.16.341,39.3,9.8,0,21.0,,89478.5,11.18,-0.44,0.72,0.53,0.5,5.7,-1.2,35.75,,,,,,,,,,
13.33.16.353,43.1,10.8,0,21.0,,89490.7,11.17,-0.44,0.71,0.53,0.8,5.9,-1.1,35.75,,,,,,,,,,
13.33.16.365,50.7,12.7,0,21.0,,90189.4,11.09,-0.44,0.72,0.53,0.3,5.8,-1.1,35.75,,,,,,,,,,
13.33.16.374,50.6,12.6,0,21.0,,90383.7,11.06,-0.43,0.71,0.53,0.4,5.9,-1.4,35.75,,,,,,,,,,
13.33.16.386,58.9,14.7,0,21.0,,90222.7,11.08,-0.44,0.72,0.52,0.6,5.7,-1.2,35.75,,,,,,,,,,
13.33.16.394,37.8,9.4,0,21.0,,90673.4,11.03,-0.43,0.72,0.53,0.4,5.6,-1.6,35.75,,,,,,,,,,
13.33.16.406,38.7,9.7,0,21.0,,90446.2,11.06,-0.44,0.71,0.52,0.3,5.6,-1.5,35.75,,,,,,,,,,
13.33.16.414,24.3,6.1,0,21.0,,90424.3,11.06,-0.44,0.71,0.53,0.6,5.5,-1.3,35.75,,,,,,,,,,
13.33.16.427,3.3,0.8,0,21.0,,90130.8,11.09,-0.44,0.71,0.53,0.9,5.7,-1.1,35.75,,,,,,,,,,
13.33.16.435,1.4,0.4,0,21.0,,90840.6,11.01,-0.43,0.71,0.52,0.8,5.7,-0.8,35.75,,,,,,,,,,
13.33.16.447,-2.1,0.5,0,21.0,,90757.7,11.02,-0.44,0.72,0.53,0.9,5.8,-0.8,35.75,,,,,,,,,,
13.33.16.455,-14.8,3.7,0,21.0,,91404.7,10.94,-0.44,0.72,0.53,0.7,5.4,-1.3,35.75,,,,,,,,,,
13.33.16.468,-19.5,4.9,0,21.0,,90084.7,11.1,-0.44,0.72,0.53,0.5,5.1,-1.2,35.75,,,,,,,,,,
13.33.16.476,-23.3,5.8,0,21.0,,90520.9,11.05,-0.44,0.71,0.52,0.7,5.6,-1.1,35.75,,,,,,,,,,
13.33.16.488,-21.9,5.5,0,21.0,,89297.3,11.2,-0.43,0.72,0.52,0.9,5.8,-1.0,35.75,,,,,,,,,,
13.33.16.496,-33.3,8.3,0,21.0,,91703.4,10.9,-0.44,0.72,0.52,0.8,5.9,-1.0,35.75,,,,,,,,,,
13.33.16.509,-41.0,10.2,0,21.0,,91318.9,10.95,-0.43,0.72,0.53,0.6,5.9,-1.1,35.75,,,,,,,,,,
13.33.16.521,-42.6,10.6,0,21.0,,91998.8,10.87,-0.44,0.72,0.53,0.5,5.7,-1.4,35.75,,,,,,,,,,
13.33.16.529,-50.3,12.6,0,21.0,,91322.2,10.95,-0.44,0.72,0.52,0.4,5.9,-1.5,35.75,,,,,,,,,,
13.33.16.541,-47.5,11.9,0,21.0,,90952.5,10.99,-0.44,0.71,0.53,0.5,5.7,-1.5,35.75,,,,,,,,,,
13.33.16.550,-60.3,15.1,0,21.0,,90959.2,10.99,-0.43,0.71,0.52,0.3,5.7,-1.6,35.75,,,,,,,,,,
13.33.16.562,-73.6,18.4,0,21.0,,91434.3,10.94,-0.44,0.71,0.52,0.1,5.9,-1.5,35.75,,,,,,,,,,
13.33.16.570,-73.0,18.2,0,21.0,,90255.0,11.08,-0.43,0.71,0.52,0.6,5.5,-1.3,35.75,,,,,,,,,,
13.33.16.582,-73.1,18.3,0,21.0,,91122.6,10.97,-0.43,0.72,0.53,0.9,5.8,-1.0,35.75,,,,,,,,,,
13.33.16.591,-82.1,20.5,0,21.0,,91569.1,10.92,-0.44,0.72,0.53,0.6,5.5,-1.0,35.75,,,,,,,,,,
13.33.16.603,-88.7,22.2,0,21.0,,90406.2,11.06,-0.44,0.72,0.53,0.8,5.8,-0.6,35.75,,,,,,,,,,
13.33.16.611,-85.8,21.4,0,21.0,,90424.7,11.06,-0.44,0.72,0.52,0.8,5.4,-1.0,35.75,,,,,,,,,,
13.33.16.624,-96.6,24.2,0,21.0,,88850.5,11.25,-0.44,0.72,0.52,0.9,5.5,-0.7,35.75,,,,,,,,,,
13.33.16.636,-99.9,25.0,0,21.0,,91117.0,10.97,-0.44,0.71,0.52,0.8,5.6,-0.9,35.75,,,,,,,,,,
13.33.16.644,-99.9,25.0,0,21.0,,92015.3,10.87,-0.44,0.72,0.53,1.0,5.7,-1.0,35.75,,,,,,,,,,
13.33.16.656,-111.0,27.8,0,21.0,,90857.4,11.01,-0.44,0.71,0.52,0.7,5.6,-1.1,35.75,,,,,,,,,,
13.33.16.666,-114.4,28.6,0,21.0,,90650.2,11.03,-0.43,0.72,0.53,0.2,5.5,-1.4,35.75,,,,,,,,,,
13.33.16.677,-115.1,28.8,0,21.0,,89826.5,11.13,-0.43,0.72,0.53,0.2,5.8,-1.5,35.75,,,,,,,,,,
13.33.16.685,-125.9,31.5,0,21.0,,91701.8,10.9,-0.44,0.71,0.53,-0.1,5.8,-1.7,35.75,,,,,,,,,,
13.33.16.697,54.0,13.5,1,22.0,102.9,91608.4,10.92,-0.43,0.71,0.53,0.3,6.1,-1.4,35.75,,,,,,,,,,
13.33.16.705,89.9,22.5,0,22.0,,91820.8,10.89,-0.44,0.72,0.53,0.7,6.1,-1.1,35.75,,,,,,,,,,
13.33.16.718,148.0,37.0,0,22.0,,91645.7,10.91,-0.44,0.72,0.53,0.7,6.0,-1.5,35.75,,,,,,,,,,
13.33.16.726,188.1,47.0,0,22.0,,91413.4,10.94,-0.44,0.72,0.53,0.6,5.9,-1.6,35.75,,,,,,,,,,
13.33.16.738,223.7,55.9,0,22.0,,89818.2,11.13,-0.44,0.71,0.53,0.6,6.2,-1.5,35.75,,,,,,,,,,
13.33.16.746,259.7,64.9,0,22.0,,89563.3,11.17,-0.44,0.72,0.53,0.6,6.1,-1.5,35.75,,,,,,,,,,
13.33.16.759,290.9,72.7,0,22.0,,90856.4,11.01,-0.43,0.71,0.52,0.5,5.8,-1.5,35.75,,,,,,,,,,
13.33.16.767,299.9,75.0,0,22.0,,90886.4,11.0,-0.44,0.71,0.53,0.6,5.8,-1.5,35.75,,,,,,,,,,
13.33.16.779,353.2,88.3,0,22.0,,88927.9,11.25,-0.44,0.71,0.53,0.6,5.7,-1.2,35.75,,,,,,,,,,
13.33.16.816,272.0,68.0,0,22.0,,91340.0,10.95,-0.44,0.71,0.52,0.8,5.7,-1.0,35.75,,,,,,,,,,
13.33.16.824,257.9,64.5,0,22.0,,92128.5,10.85,-0.44,0.72,0.53,0.6,5.7,-1.2,35.75,,,,,,,,,,
13.33.16.836,237.8,59.4,0,22.0,,91706.3,10.9,-0.44,0.72,0.53,0.5,5.6,-1.4,35.75,,,,,,,,,,
13.33.16.845,192.5,48.1,0,22.0,,91223.8,10.96,-0.43,0.72,0.53,0.7,5.8,-1.5,35.75,,,,,,,,,,
13.33.16.857,140.7,35.2,0,22.0,,90151.4,11.09,-0.43,0.72,0.52,0.8,5.5,-1.5,35.75,,,,,,,,,,
13.33.16.866,92.6,23.2,0,22.0,,89883.6,11.13,-0.43,0.72,0.53,0.5,5.6,-1.6,35.75,,,,,,,,,,
13.33.16.877,49.7,12.4,0,22.0,,90680.5,11.03,-0.43,0.72,0.53,0.5,5.8,-1.6,35.75,,,,,,,,,,
13.33.16.890,13.4,3.4,0,22.0,,91898.8,10.88,-0.44,0.72,0.52,0.2,5.9,-1.5,35.75,,,,,,,,,,
13.33.16.900,13.6,3.4,0,22.0,,91616.4,10.92,-0.44,0.71,0.53,0.7,6.4,-1.5,35.75,,,,,,,,,,
13.33.16.910,35.5,8.9,0,22.0,,89235.9,11.21,-0.43,0.72,0.53,0.5,6.2,-1.6,35.75,,,,,,,,,,
13.33.16.919,43.7,10.9,0,22.0,,90090.5,11.1,-0.43,0.71,0.53,0.5,6.0,-1.4,35.75,,,,,,,,,,
13.33.16.931,50.4,12.6,0,22.0,,88664.5,11.28,-0.44,0.72,0.53,0.6,6.2,-1.4,35.75,,,,,,,,,,
13.33.16.939,62.6,15.6,0,22.0,,89741.3,11.14,-0.44,0.72,0.52,0.5,6.3,-1.5,35.75,,,,,,,,,,
13.33.16.951,54.1,13.5,0,22.0,,90450.7,11.06,-0.44,0.72,0.53,0.3,6.0,-1.3,35.75,,,,,,,,,,
13.33.16.959,59.0,14.8,0,22.0,,89913.2,11.12,-0.44,0.72,0.53,0.3,6.1,-1.5,35.75,,,,,,,,,,
13.33.16.972,48.9,12.2,0,22.0,,91100.8,10.98,-0.44,0.72,0.53,0.4,6.2,-1.3,35.75,,,,,,,,,,
13.33.16.980,31.2,7.8,0,22.0,,91091.0,10.98,-0.44,0.72,0.53,0.2,6.1,-1.4,35.75,,,,,,,,,,
13.33.16.993,18.6,4.6,0,22.0,,91012.0,10.99,-0.44,0.72,0.53,0.0,5.8,-1.3,35.75,,,,,,,,,,
13.33.17.000,-4.7,1.2,0,22.0,,92012.2,10.87,-0.44,0.72,0.52,0.3,6.2,-1.7,35.75,,,,,,,,,,
13.33.17.013,-10.2,2.6,0,22.0,,91073.8,10.98,-0.44,0.72,0.53,0.4,6.1,-1.5,35.75,,,,,,,,,,
13.33.17.021,-16.8,4.2,0,22.0,,90654.3,11.03,-0.44,0.71,0.53,0.4,5.9,-1.2,35.75,,,,,,,,,,
13.33.17.033,-10.1,2.5,0,22.0,,90630.6,11.03,-0.44,0.71,0.53,0.6,6.2,-1.3,35.75,,,,,,,,,,
13.33.17.042,-24.6,6.2,0,22.0,,91257.0,10.96,-0.44,0.71,0.53,0.6,5.7,-1.3,35.75,,,,,,,,,,
13.33.17.054,-35.4,8.8,0,22.0,,91110.2,10.98,-0.44,0.72,0.53,0.3,5.9,-1.5,35.75,,,,,,,,,,
13.33.17.062,-44.8,11.2,0,22.0,,91657.5,10.91,-0.44,0.71,0.53,0.2,5.8,-1.6,35.75,,,,,,,,,,
13.33.17.074,-39.7,9.9,0,22.0,,89131.4,11.22,-0.44,0.72,0.53,0.4,5.7,-1.4,35.75,,,,,,,,,,
13.33.17.082,-42.5,10.6,0,22.0,,91914.5,10.88,-0.44,0.72,0.53,0.6,6.2,-1.3,35.75,,,,,,,,,,
13.33.17.095,-46.2,11.6,0,22.0,,89600.4,11.16,-0.44,0.72,0.53,0.7,6.3,-1.0,35.75,,,,,,,,,,
13.33.17.103,-48.7,12.2,0,22.0,,91089.9,10.98,-0.44,0.71,0.53,0.3,6.3,-1.5,35.75,,,,,,,,,,
13.33.17.115,-65.3,16.3,0,22.0,,91397.5,10.94,-0.44,0.72,0.52,0.0,6.2,-2.0,35.75,,,,,,,,,,
13.33.17.124,-66.7,16.7,0,22.0,,91167.4,10.97,-0.44,0.72,0.53,0.2,6.6,-2.0,35.75,,,,,,,,,,
13.33.17.135,-68.4,17.1,0,22.0,,90914.7,11.0,-0.43,0.72,0.53,0.0,6.5,-1.7,35.75,,,,,,,,,,
13.33.17.144,-77.5,19.4,0,22.0,,91030.5,10.99,-0.44,0.72,0.53,0.2,6.4,-1.8,35.75,,,,,,,,,,
13.33.17.156,-86.2,21.6,0,22.0,,90094.1,11.1,-0.43,0.72,0.53,-0.1,6.6,-2.2,35.75,,,,,,,,,,
13.33.17.164,-79.6,19.9,0,22.0,,90901.0,11.0,-0.44,0.71,0.53,0.2,6.5,-1.9,35.75,,,,,,,,,,
13.33.17.176,-96.4,24.1,0,22.0,,91219.0,10.96,-0.44,0.71,0.53,0.4,6.5,-1.6,35.75,,,,,,,,,,
13.33.17.185,-93.3,23.3,0,22.0,,91332.4,10.95,-0.44,0.72,0.53,0.2,7.0,-1.6,35.75,,,,,,,,,,
13.33.17.197,-90.4,22.6,0,22.0,,90932.2,11.0,-0.44,0.71,0.53,0.0,6.6,-1.9,35.75,,,,,,,,,,
13.33.17.205,-105.1,26.3,0,22.0,,91554.5,10.92,-0.44,0.71,0.52,0.2,6.8,-1.5,35.75,,,,,,,,,,
13.33.17.222,-117.8,29.4,0,22.0,,91639.6,10.91,-0.44,0.71,0.53,0.4,6.6,-1.4,35.75,,,,,,,,,,
13.33.17.230,-104.5,26.1,0,22.0,,91261.2,10.96,-0.44,0.72,0.53,0.7,6.8,-1.2,35.75,,,,,,,,,,
13.33.17.242,-116.0,29.0,0,22.0,,91080.5,10.98,-0.44,0.72,0.53,0.7,6.8,-1.2,35.75,,,,,,,,,,
13.33.17.250,-139.0,34.8,0,22.0,,89683.0,11.15,-0.44,0.72,0.53,0.4,6.5,-1.5,35.75,,,,,,,,,,
13.33.17.262,37.6,9.4,1,23.0,109.5,89779.9,11.14,-0.43,0.71,0.53,0.2,6.4,-1.4,35.75,,,,,,,,,,
13.33.17.271,69.2,17.3,0,23.0,,91912.4,10.88,-0.44,0.71,0.52,0.0,6.4,-1.8,35.75,,,,,,,,,,
13.33.17.283,125.2,31.3,0,23.0,,90825.7,11.01,-0.44,0.72,0.53,0.3,6.2,-1.4,35.75,,,,,,,,,,
13.33.17.291,184.1,46.0,0,23.0,,91505.0,10.93,-0.44,0.71,0.52,0.8,7.1,-1.0,35.75,,,,,,,,,,
13.33.17.303,220.0,55.0,0,23.0,,92107.6,10.86,-0.44,0.72,0.52,0.5,6.8,-1.4,35.75,,,,,,,,,,
13.33.17.312,245.9,61.5,0,23.0,,90645.7,11.03,-0.44,0.71,0.52,0.2,6.8,-1.4,35.75,,,,,,,,,,
13.33.17.324,277.1,69.3,0,23.0,,91798.8,10.89,-0.44,0.72,0.53,0.3,6.6,-1.6,35.75,,,,,,,,,,
13.33.17.332,289.3,72.3,0,23.0,,90512.3,11.05,-0.44,0.72,0.53,0.4,6.6,-1.5,35.75,,,,,,,,,,
13.33.17.344,323.1,80.8,0,23.0,,89672.6,11.15,-0.44,0.71,0.53,0.1,6.3,-1.7,35.75,,,,,,,,,,
13.33.17.353,353.2,88.3,0,23.0,,91230.4,10.96,-0.44,0.71,0.53,-0.1,6.5,-2.2,35.75,,,,,,,,,,
13.33.17.366,293.6,73.4,0,23.0,,91793.6,10.89,-0.44,0.71,0.52,0.0,6.3,-2.0,35.75,,,,,,,,,,
13.33.17.373,294.6,73.6,0,23.0,,91919.8,10.88,-0.44,0.71,0.53,0.2,6.5,-1.5,35.75,,,,,,,,,,
13.33.17.385,287.7,71.9,0,23.0,,90890.0,11.0,-0.44,0.71,0.53,0.6,6.5,-1.4,35.75,,,,,,,,,,
13.33.17.394,266.9,66.7,0,23.0,,90412.6,11.06,-0.44,0.71,0.53,0.7,6.2,-1.1,35.75,,,,,,,,,,
13.33.17.406,233.9,58.5,0,23.0,,89979.2,11.11,-0.44,0.71,0.53,0.6,6.5,-1.3,35.75,,,,,,,,,,
13.33.17.415,191.6,47.9,0,23.0,,90010.6,11.11,-0.44,0.71,0.52,0.9,6.2,-0.9,35.75,,,,,,,,,,
13.33.17.426,146.4,36.6,0,23.0,,91007.0,10.99,-0.44,0.71,0.52,1.1,6.3,-1.0,35.75,,,,,,,,,,
13.33.17.435,98.8,24.7,0,23.0,,93163.2,10.73,-0.44,0.72,0.53,1.0,6.3,-1.2,35.75,,,,,,,,,,
13.33.17.447,46.3,11.6,0,23.0,,91170.1,10.97,-0.44,0.71,0.53,0.7,6.1,-1.4,35.75,,,,,,,,,,
13.33.17.455,7.7,1.9,0,23.0,,91046.8,10.98,-0.44,0.72,0.53,0.6,6.1,-1.3,35.75,,,,,,,,,,
13.33.17.467,19.1,4.8,0,23.0,,91221.1,10.96,-0.44,0.71,0.52,0.6,6.4,-1.2,35.75,,,,,,,,,,
13.33.17.476,26.7,6.7,0,23.0,,90594.5,11.04,-0.44,0.71,0.53,0.1,6.4,-1.2,35.75,,,,,,,,,,
13.33.17.488,39.1,9.8,0,23.0,,91422.4,10.94,-0.44,0.72,0.53,0.2,6.2,-1.6,35.75,,,,,,,,,,
13.33.17.496,50.0,12.5,0,23.0,,90529.9,11.05,-0.44,0.72,0.52,-0.1,6.7,-1.9,35.75,,,,,,,,,,
13.33.17.508,57.9,14.5,0,23.0,,92007.0,10.87,-0.44,0.71,0.53,0.0,6.2,-1.7,35.75,,,,,,,,,,
13.33.17.521,56.3,14.1,0,23.0,,90292.5,11.08,-0.44,0.71,0.52,0.0,6.5,-1.5,35.75,,,,,,,,,,
13.33.17.529,53.5,13.4,0,23.0,,90385.0,11.06,-0.44,0.71,0.53,0.4,6.7,-1.4,35.75,,,,,,,,,,
13.33.17.543,39.7,9.9,0,23.0,,90989.9,10.99,-0.44,0.71,0.53,0.3,6.5,-1.5,35.75,,,,,,,,,,
13.33.17.549,33.7,8.4,0,23.0,,90648.8,11.03,-0.45,0.71,0.53,0.3,6.5,-1.6,35.75,,,,,,,,,,
13.33.17.562,14.3,3.6,0,23.0,,91489.9,10.93,-0.44,0.71,0.52,0.6,6.4,-1.3,35.75,,,,,,,,,,
13.33.17.570,6.5,1.6,0,23.0,,91333.8,10.95,-0.44,0.71,0.53,0.7,7.1,-1.7,35.75,,,,,,,,,,
13.33.17.582,-3.3,0.8,0,23.0,,90849.0,11.01,-0.44,0.71,0.53,0.6,6.8,-1.2,35.75,,,,,,,,,,
13.33.17.619,-22.4,5.6,0,23.0,,90871.8,11.0,-0.45,0.71,0.52,0.6,6.4,-1.3,35.75,,,,,,,,,,
13.33.17.627,-35.6,8.9,0,23.0,,90676.2,11.03,-0.44,0.71,0.53,0.5,6.9,-1.1,35.75,,,,,,,,,,
13.33.17.639,-32.9,8.2,0,23.0,,90816.7,11.01,-0.44,0.72,0.52,0.7,6.5,-1.3,35.75,,,,,,,,,,
13.33.17.648,-38.4,9.6,0,23.0,,89240.8,11.21,-0.44,0.71,0.53,0.6,6.8,-1.2,35.75,,,,,,,,,,
13.33.17.660,-39.8,10.0,0,23.0,,89294.7,11.2,-0.44,0.71,0.52,0.4,6.5,-1.5,35.75,,,,,,,,,,
13.33.17.668,-52.9,13.2,0,23.0,,89089.8,11.22,-0.44,0.71,0.53,0.2,6.1,-1.3,35.75,,,,,,,,,,
13.33.17.680,-51.5,12.9,0,23.0,,91057.0,10.98,-0.44,0.72,0.53,0.7,6.2,-1.3,35.75,,,,,,,,,,
13.33.17.689,-67.5,16.9,0,23.0,,91438.1,10.94,-0.44,0.71,0.53,0.8,6.6,-1.2,35.75,,,,,,,,,,
13.33.17.701,-67.2,16.8,0,23.0,,90012.8,11.11,-0.44,0.71,0.52,0.6,6.3,-1.4,35.75,,,,,,,,,,
13.33.17.710,-70.3,17.6,0,23.0,,91030.0,10.99,-0.44,0.71,0.52,0.2,6.0,-1.7,35.75,,,,,,,,,,
13.33.17.721,-79.0,19.8,0,23.0,,91991.8,10.87,-0.44,0.71,0.53,0.4,6.5,-1.8,35.75,,,,,,,,,,
13.33.17.730,-81.1,20.3,0,23.0,,91310.3,10.95,-0.44,0.71,0.52,0.5,6.3,-1.5,35.75,,,,,,,,,,
13.33.17.742,-84.5,21.1,0,23.0,,90222.9,11.08,-0.44,0.72,0.52,0.7,6.0,-1.5,35.75,,,,,,,,,,
13.33.17.750,-97.5,24.4,0,23.0,,89387.0,11.19,-0.44,0.71,0.53,0.7,6.0,-1.3,35.75,,,,,,,,,,
13.33.17.762,-92.3,23.1,0,23.0,,90840.1,11.01,-0.44,0.71,0.53,0.5,5.9,-1.2,35.75,,,,,,,,,,
13.33.17.771,-103.5,25.9,0,23.0,,91033.8,10.98,-0.44,0.71,0.53,0.4,5.4,-1.1,35.75,,,,,,,,,,
13.33.17.783,-99.8,25.0,0,23.0,,90636.5,11.03,-0.44,0.71,0.52,0.8,5.9,-0.9,35.75,,,,,,,,,,
13.33.17.791,-110.3,27.6,0,23.0,,89967.3,11.12,-0.44,0.71,0.52,0.8,5.4,-1.1,35.75,,,,,,,,,,
13.33.17.804,-109.9,27.5,0,23.0,,91662.5,10.91,-0.44,0.71,0.52,0.9,5.3,-1.2,35.75,,,,,,,,,,
13.33.17.816,-119.7,29.9,0,23.0,,91712.4,10.9,-0.44,0.71,0.53,0.9,5.2,-0.4,35.75,,,,,,,,,,
13.33.17.824,-124.4,31.1,0,23.0,,91196.1,10.97,-0.45,0.71,0.53,1.3,5.4,-0.9,35.75,,,,,,,,,,
13.33.17.836,50.6,12.6,1,24.0,107.1,89428.7,11.18,-0.44,0.72,0.53,1.1,5.3,-1.0,35.75,,,,,,,,,,
13.33.17.844,105.4,26.4,0,24.0,,90124.8,11.1,-0.44,0.72,0.52,0.8,4.7,-0.8,35.75,,,,,,,,,,
13.33.17.857,153.4,38.4,0,24.0,,91450.6,10.93,-0.43,0.71,0.52,0.4,5.1,-1.2,35.75,,,,,,,,,,
13.33.17.865,188.9,47.2,0,24.0,,90786.8,11.01,-0.44,0.72,0.52,0.4,4.8,-1.2,35.75,,,,,,,,,,
13.33.17.877,248.9,62.2,0,24.0,,89825.3,11.13,-0.44,0.71,0.53,0.5,4.6,-1.0,35.75,,,,,,,,,,
13.33.17.885,255.1,63.8,0,24.0,,90643.9,11.03,-0.44,0.71,0.52,0.7,4.9,-1.0,35.75,,,,,,,,,,
13.33.17.897,291.8,73.0,0,24.0,,91468.2,10.93,-0.44,0.71,0.53,0.9,4.8,-0.6,35.75,,,,,,,,,,
13.33.17.906,265.2,66.3,0,24.0,,90129.2,11.1,-0.44,0.71,0.52,1.0,4.8,-1.0,35.75,,,,,,,,,,
13.33.17.918,326.2,81.6,0,24.0,,92198.3,10.85,-0.44,0.71,0.53,0.7,4.3,-1.0,35.75,,,,,,,,,,
13.33.17.926,338.3,84.6,0,24.0,,90544.3,11.04,-0.44,0.71,0.53,1.1,4.8,-0.8,35.75,,,,,,,,,,
13.33.17.939,348.4,87.1,0,24.0,,90543.5,11.04,-0.44,0.71,0.53,1.3,4.6,-0.9,35.75,,,,,,,,,,
13.33.17.947,300.8,75.2,0,24.0,,91047.7,10.98,-0.44,0.72,0.52,1.2,4.7,-0.6,35.75,,,,,,,,,,
13.33.17.959,266.8,66.7,0,24.0,,91063.7,10.98,-0.44,0.72,0.52,1.2,4.7,-0.9,35.75,,,,,,,,,,
13.33.17.971,248.8,62.2,0,24.0,,90355.2,11.07,-0.44,0.71,0.52,1.2,4.7,-0.8,35.75,,,,,,,,,,
13.33.17.979,223.0,55.8,0,24.0,,89599.9,11.16,-0.44,0.71,0.53,1.1,4.3,-0.5,35.75,,,,,,,,,,
13.33.17.992,160.9,40.2,0,24.0,,90783.9,11.02,-0.44,0.72,0.52,1.0,4.5,-0.9,35.75,,,,,,,,,,
13.33.18.000,117.0,29.2,0,24.0,,91247.9,10.96,-0.44,0.72,0.52,1.0,4.5,-1.1,35.75,,,,,,,,,,
13.33.18.012,48.8,12.2,0,24.0,,90768.3,11.02,-0.44,0.72,0.52,0.7,4.4,-1.0,35.75,,,,,,,,,,
13.33.18.020,18.3,4.6,0,24.0,,89651.3,11.15,-0.44,0.72,0.52,0.6,5.0,-1.1,35.75,,,,,,,,,,
13.33.18.033,20.0,5.0,0,24.0,,90167.7,11.09,-0.44,0.72,0.52,0.2,4.9,-1.4,35.75,,,,,,,,,,
13.33.18.041,27.4,6.8,0,24.0,,91694.6,10.91,-0.44,0.72,0.53,0.3,4.8,-1.5,35.75,,,,,,,,,,
13.33.18.053,37.6,9.4,0,24.0,,90486.0,11.05,-0.44,0.71,0.52,0.5,5.0,-1.4,35.75,,,,,,,,,,
13.33.18.061,36.7,9.2,0,24.0,,89979.8,11.11,-0.44,0.72,0.53,0.2,5.2,-1.5,35.75,,,,,,,,,,
13.33.18.074,68.8,17.2,0,24.0,,90540.8,11.04,-0.44,0.72,0.53,0.3,5.4,-1.6,35.75,,,,,,,,,,
13.33.18.082,57.7,14.4,0,24.0,,89888.3,11.12,-0.44,0.71,0.53,0.5,5.4,-1.7,35.75,,,,,,,,,,
13.33.18.094,57.1,14.3,0,24.0,,90678.6,11.03,-0.44,0.71,0.53,0.7,5.3,-1.5,35.75,,,,,,,,,,
13.33.18.102,53.5,13.4,0,24.0,,90741.7,11.02,-0.44,0.72,0.53,0.6,5.4,-1.6,35.75,,,,,,,,,,
13.33.18.115,27.3,6.8,0,24.0,,91547.9,10.92,-0.44,0.71,0.52,0.8,5.5,-1.3,35.75,,,,,,,,,,
13.33.18.123,18.7,4.7,0,24.0,,90535.8,11.05,-0.44,0.71,0.53,0.7,5.5,-1.3,35.75,,,,,,,,,,
13.33.18.135,12.7,3.2,0,24.0,,90334.4,11.07,-0.44,0.72,0.53,0.4,5.5,-1.3,35.75,,,,,,,,,,
13.33.18.143,-1.5,0.4,0,24.0,,88953.9,11.24,-0.44,0.72,0.53,0.4,5.6,-1.4,35.75,,,,,,,,,,
13.33.18.156,-5.7,1.4,0,24.0,,92286.1,10.84,-0.44,0.71,0.53,0.5,5.3,-1.6,35.75,,,,,,,,,,
13.33.18.164,-14.8,3.7,0,24.0,,91371.2,10.94,-0.44,0.71,0.53,0.4,5.3,-1.6,35.75,,,,,,,,,,
13.33.18.176,-13.7,3.4,0,24.0,,91570.3,10.92,-0.44,0.71,0.52,0.5,5.6,-1.7,35.75,,,,,,,,,,
13.33.18.184,-23.2,5.8,0,24.0,,90992.5,10.99,-0.44,0.71,0.53,0.2,5.5,-1.7,35.75,,,,,,,,,,
13.33.18.197,-27.1,6.8,0,24.0,,90636.7,11.03,-0.44,0.71,0.53,0.4,5.5,-1.4,35.75,,,,,,,,,,
13.33.18.205,-31.5,7.9,0,24.0,,90481.2,11.05,-0.44,0.71,0.53,0.2,5.6,-1.5,35.75,,,,,,,,,,
13.33.18.217,-38.4,9.6,0,24.0,,89530.2,11.17,-0.44,0.71,0.53,0.7,5.5,-1.2,35.75,,,,,,,,,,
13.33.18.226,-50.4,12.6,0,24.0,,88511.2,11.3,-0.44,0.71,0.53,0.6,5.1,-1.2,35.75,,,,,,,,,,
13.33.18.237,-56.0,14.0,0,24.0,,90723.8,11.02,-0.44,0.71,0.52,0.5,5.2,-1.4,35.75,,,,,,,,,,
13.33.18.250,-50.3,12.6,0,24.0,,91070.2,10.98,-0.44,0.72,0.52,0.6,5.2,-1.3,35.75,,,,,,,,,,
13.33.18.258,-58.3,14.6,0,24.0,,90364.0,11.07,-0.44,0.72,0.53,0.9,5.8,-1.0,35.75,,,,,,,,,,
13.33.18.270,-72.0,18.0,0,24.0,,91073.2,10.98,-0.44,0.72,0.52,0.6,5.9,-1.2,35.75,,,,,,,,,,
13.33.18.278,-61.3,15.3,0,24.0,,90197.5,11.09,-0.44,0.72,0.52,0.6,6.0,-1.6,35.75,,,,,,,,,,
13.33.18.291,-70.5,17.6,0,24.0,,91343.4,10.95,-0.44,0.72,0.53,0.1,6.0,-2.1,35.75,,,,,,,,,,
13.33.18.299,-86.1,21.5,0,24.0,,90653.3,11.03,-0.44,0.71,0.52,0.0,6.0,-2.1,35.75,,,,,,,,,,
13.33.18.311,-84.1,21.0,0,24.0,,91321.3,10.95,-0.44,0.72,0.53,-0.1,5.9,-2.1,35.75,,,,,,,,,,
13.33.18.319,-92.8,23.2,0,24.0,,90982.1,10.99,-0.44,0.71,0.53,-0.4,6.0,-2.0,35.75,,,,,,,,,,
13.33.18.332,-111.0,27.8,0,24.0,,88993.6,11.24,-0.44,0.71,0.53,-0.2,5.9,-2.0,35.75,,,,,,,,,,
13.33.18.341,-95.2,23.8,0,24.0,,90137.1,11.09,-0.44,0.71,0.52,0.2,6.0,-2.0,35.75,,,,,,,,,,
13.33.18.352,-111.4,27.8,0,24.0,,90781.5,11.02,-0.45,0.71,0.52,0.2,6.0,-1.8,35.75,,,,,,,,,,
13.33.18.361,-114.9,28.7,0,24.0,,90159.5,11.09,-0.44,0.71,0.52,0.3,5.7,-1.5,35.75,,,,,,,,,,
13.33.18.373,-118.4,29.6,0,24.0,,91009.4,10.99,-0.44,0.71,0.52,0.4,5.5,-1.4,35.75,,,,,,,,,,
13.33.18.381,-119.9,30.0,0,24.0,,90379.2,11.06,-0.44,0.72,0.52,0.6,5.6,-1.3,35.75,,,,,,,,,,
13.33.18.422,136.6,34.2,1,25.0,104.2,91093.3,10.98,-0.44,0.71,0.53,0.6,5.6,-1.1,35.81,,,,,,,,,,
13.33.18.430,151.2,37.8,0,25.0,,90152.5,11.09,-0.44,0.71,0.53,0.6,5.7,-1.4,35.81,,,,,,,,,,
13.33.18.442,213.1,53.3,0,25.0,,89122.4,11.22,-0.44,0.72,0.53,0.4,5.8,-1.4,35.81,,,,,,,,,,
13.33.18.451,236.5,59.1,0,25.0,,90416.7,11.06,-0.44,0.71,0.53,0.1,5.8,-1.5,35.81,,,,,,,,,,
13.33.18.463,278.1,69.5,0,25.0,,90300.7,11.07,-0.44,0.71,0.53,0.1,5.2,-1.6,35.81,,,,,,,,,,
13.33.18.471,307.2,76.8,0,25.0,,92209.9,10.84,-0.43,0.71,0.52,0.5,5.9,-1.4,35.81,,,,,,,,,,
13.33.18.483,315.0,78.8,0,25.0,,90799.2,11.01,-0.44,0.71,0.53,0.6,5.5,-1.2,35.81,,,,,,,,,,
13.33.18.492,325.5,81.4,0,25.0,,90587.2,11.04,-0.44,0.71,0.53,0.5,5.7,-1.3,35.81,,,,,,,,,,
