timestamp,ppg,threshold,beat,beat_count,inst_bpm,gsr_resistance_ohm,gsr_conductance_us,accel_x,accel_y,accel_z,gyro_x,gyro_y,gyro_z,temp_c,window_bpm,window_temp_c,status_message,SpO2,bmi,age,height,weight,env_temp_c,env_humidity_pct
16.26.00.590,,,0,,,49815.5,20.07,,,,,,,35.0,122.9,,,,29.5,23.0,144.78,61.9,36.0,71.0
16.26.00.590,25.9,6.5,0,,,49396.3,20.24,-0.24,0.73,0.63,1.5,5.9,-0.7,35.0,,,,,,,,,,
16.26.00.605,101.7,25.4,0,,,43272.9,23.11,-0.24,0.72,0.63,1.1,6.0,-1.0,35.0,,,,,,,,,,
16.26.00.611,160.2,40.0,0,,,49889.0,20.04,-0.24,0.72,0.64,0.9,5.5,-0.8,35.0,,,,,,,,,,
16.26.00.623,249.4,62.4,0,,,44674.6,22.38,-0.24,0.72,0.64,0.5,5.8,-1.1,35.0,,,,,,,,,,
16.26.00.631,327.7,81.9,0,,,45846.5,21.81,-0.24,0.72,0.64,-0.1,5.6,-1.0,35.0,,,,,,,,,,
16.26.00.640,408.3,102.1,0,,,43587.4,22.94,-0.24,0.72,0.64,0.0,5.6,-1.1,35.0,,,,,,,,,,
16.26.00.652,444.3,111.1,0,,,49594.2,20.16,-0.23,0.72,0.64,0.0,5.7,-1.2,35.0,,,,,,,,,,
16.26.00.664,478.6,119.6,0,,,44796.1,22.32,-0.24,0.72,0.64,0.3,6.2,-1.5,35.0,,,,,,,,,,
16.26.00.672,581.5,145.4,0,,,44525.7,22.46,-0.24,0.72,0.64,-0.2,6.0,-1.6,35.0,,,,,,,,,,
16.26.00.684,448.1,112.0,0,,,48517.0,20.61,-0.23,0.72,0.64,-0.3,5.3,-1.5,35.0,,,,,,,,,,
16.26.00.697,498.1,124.5,0,,,49770.5,20.09,-0.24,0.72,0.64,0.1,5.6,-1.4,35.0,,,,,,,,,,
16.26.00.709,451.6,112.9,0,,,45940.9,21.77,-0.23,0.72,0.64,0.1,6.1,-1.4,35.0,,,,,,,,,,
16.26.00.717,410.9,102.7,0,,,42384.7,23.59,-0.24,0.72,0.65,0.3,6.1,-1.1,35.0,,,,,,,,,,
16.26.00.729,269.5,67.4,0,,,49175.8,20.34,-0.23,0.72,0.64,0.1,5.8,-1.5,35.0,,,,,,,,,,
16.26.00.742,244.2,61.0,0,,,43584.6,22.94,-0.23,0.72,0.65,0.1,5.8,-1.3,35.0,,,,,,,,,,
16.26.00.750,92.5,23.1,0,,,44905.3,22.27,-0.23,0.72,0.64,0.6,6.0,-1.5,35.0,,,,,,,,,,
16.26.00.791,88.7,22.2,0,,,45349.8,22.05,-0.24,0.72,0.64,0.8,5.9,-1.5,35.0,,,,,,,,,,
16.26.00.804,78.9,19.7,0,,,44759.2,22.34,-0.24,0.76,0.63,-1.1,4.8,-4.6,35.0,,,,,,,,,,
16.26.00.812,79.8,20.0,0,,,45183.8,22.13,-0.24,0.68,0.64,1.2,7.0,-1.2,35.0,,,,,,,,,,
16.26.00.824,71.6,17.9,0,,,47172.3,21.2,-0.25,0.71,0.65,1.2,6.8,0.2,35.0,,,,,,,,,,
16.26.00.832,102.1,25.5,0,,,44364.7,22.54,-0.23,0.73,0.64,1.0,5.8,-1.5,35.0,,,,,,,,,,
16.26.00.844,16.4,4.1,0,,,44244.6,22.6,-0.23,0.73,0.65,1.4,6.0,-1.3,35.0,,,,,,,,,,
16.26.00.852,71.6,17.9,0,,,46521.3,21.5,-0.24,0.71,0.63,0.5,5.8,-1.4,35.0,,,,,,,,,,
16.26.00.865,-25.3,6.3,0,,,48507.8,20.62,-0.25,0.72,0.64,-0.3,5.0,-1.5,35.0,,,,,,,,,,
16.26.00.874,-10.9,2.7,0,,,45204.9,22.12,-0.24,0.72,0.63,0.7,5.3,-1.2,35.0,,,,,,,,,,
16.26.00.885,2.3,0.6,0,,,45107.9,22.17,-0.24,0.72,0.64,1.0,6.4,-1.0,35.0,,,,,,,,,,
16.26.00.894,-6.0,1.5,0,,,48376.7,20.67,-0.24,0.72,0.64,0.7,6.5,-1.4,35.0,,,,,,,,,,
16.26.00.906,-95.5,23.9,0,,,45858.7,21.81,-0.24,0.72,0.63,0.3,5.6,-1.5,35.0,,,,,,,,,,
16.26.00.914,-68.5,17.1,0,,,43267.2,23.11,-0.24,0.73,0.64,0.4,5.5,-1.5,35.0,,,,,,,,,,
16.26.00.926,-62.9,15.7,0,,,40727.3,24.55,-0.23,0.72,0.65,0.5,6.3,-1.1,35.0,,,,,,,,,,
16.26.00.939,-99.5,24.9,0,,,43275.1,23.11,-0.24,0.72,0.64,0.4,5.7,-1.4,35.0,,,,,,,,,,
16.26.00.947,-35.8,9.0,0,,,43472.6,23.0,-0.24,0.72,0.64,0.6,5.7,-1.1,35.0,,,,,,,,,,
16.26.00.959,-45.4,11.4,0,,,43562.6,22.96,-0.23,0.72,0.64,0.9,6.0,-1.2,35.0,,,,,,,,,,
16.26.00.972,-59.8,15.0,0,,,45250.5,22.1,-0.24,0.72,0.64,0.8,5.8,-1.2,35.0,,,,,,,,,,
16.26.00.980,-117.4,29.4,0,,,38849.7,25.74,-0.24,0.72,0.64,0.5,5.9,-1.3,35.0,,,,,,,,,,
16.26.00.992,-99.1,24.8,0,,,46548.0,21.48,-0.23,0.72,0.64,1.0,5.5,-1.0,35.0,,,,,,,,,,
16.26.01.004,-119.3,29.8,0,,,44355.2,22.55,-0.24,0.72,0.64,1.1,6.1,-1.2,35.0,,,,,,,,,,
16.26.01.012,-99.0,24.8,0,,,47544.6,21.03,-0.24,0.72,0.64,1.2,5.6,-1.1,35.0,,,,,,,,,,
16.26.01.025,-172.8,43.2,0,,,48732.9,20.52,-0.24,0.72,0.64,1.3,6.1,-1.0,35.0,,,,,,,,,,
16.26.01.037,-158.3,39.6,0,,,42695.6,23.42,-0.24,0.72,0.64,1.6,5.7,-0.9,35.0,,,,,,,,,,
16.26.01.045,-139.8,35.0,0,,,43706.0,22.88,-0.24,0.72,0.63,0.8,5.8,-1.3,35.0,,,,,,,,,,
16.26.01.058,-118.7,29.7,0,,,46008.2,21.74,-0.24,0.72,0.64,0.4,5.7,-1.2,35.0,,,,,,,,,,
16.26.01.070,-169.7,42.4,0,,,45290.1,22.08,-0.24,0.72,0.64,0.5,5.1,-1.6,35.0,,,,,,,,,,
16.26.01.078,-242.8,60.7,0,,,42265.9,23.66,-0.24,0.72,0.64,0.4,5.6,-1.4,35.0,,,,,,,,,,
16.26.01.090,-207.0,51.8,0,,,44596.8,22.42,-0.24,0.72,0.64,0.8,6.0,-1.6,35.0,,,,,,,,,,
16.26.01.103,34.4,8.6,1,1.0,119.9,46272.1,21.61,-0.24,0.72,0.63,1.1,5.8,-1.5,35.0,,,,,,,,,,
16.26.01.110,14.1,3.5,0,1.0,,41973.4,23.82,-0.24,0.72,0.63,0.8,5.8,-1.3,35.0,,,,,,,,,,
16.26.01.123,181.1,45.3,0,1.0,,41536.4,24.08,-0.24,0.72,0.63,-0.2,5.4,-1.8,35.0,,,,,,,,,,
16.26.01.135,258.2,64.6,0,1.0,,41387.7,24.16,-0.24,0.72,0.63,-0.2,5.8,-1.9,35.0,,,,,,,,,,
16.26.01.143,378.9,94.7,0,1.0,,39836.0,25.1,-0.23,0.72,0.64,-0.1,5.2,-1.7,35.0,,,,,,,,,,
16.26.01.156,461.6,115.4,0,1.0,,43645.4,22.91,-0.24,0.72,0.64,0.1,5.9,-1.4,35.0,,,,,,,,,,
16.26.01.168,523.8,131.0,0,1.0,,46075.2,21.7,-0.23,0.71,0.64,0.0,6.1,-1.8,35.0,,,,,,,,,,
16.26.01.176,488.5,122.1,0,1.0,,45134.3,22.16,-0.24,0.72,0.65,0.2,5.9,-1.4,35.0,,,,,,,,,,
16.26.01.188,476.3,119.1,0,1.0,,38959.9,25.67,-0.23,0.73,0.65,1.4,6.6,-1.2,35.0,,,,,,,,,,
16.26.01.201,435.0,108.8,0,1.0,,39645.2,25.22,-0.23,0.73,0.64,1.0,6.4,-1.3,35.0,,,,,,,,,,
16.26.01.209,487.0,121.8,0,1.0,,41403.4,24.15,-0.23,0.73,0.64,0.5,5.4,-0.8,35.0,,,,,,,,,,
16.26.01.221,448.9,112.2,0,1.0,,44123.0,22.66,-0.23,0.72,0.64,-0.2,5.3,-1.8,35.0,,,,,,,,,,
16.26.01.233,295.3,73.8,0,1.0,,42235.5,23.68,-0.24,0.72,0.64,0.3,5.8,-1.6,35.0,,,,,,,,,,
16.26.01.242,318.6,79.6,0,1.0,,39508.1,25.31,-0.24,0.71,0.64,1.0,5.3,-1.1,35.0,,,,,,,,,,
16.26.01.254,205.3,51.3,0,1.0,,41750.5,23.95,-0.24,0.72,0.65,1.1,5.7,-1.3,35.0,,,,,,,,,,
16.26.01.262,124.2,31.0,0,1.0,,43221.2,23.14,-0.25,0.72,0.64,1.2,5.8,-1.4,35.0,,,,,,,,,,
16.26.01.274,18.6,4.6,0,1.0,,44478.6,22.48,-0.24,0.72,0.64,1.8,5.4,-0.9,35.0,,,,,,,,,,
16.26.01.287,38.1,9.5,0,1.0,,38098.5,26.25,-0.24,0.72,0.63,2.0,5.8,-0.8,35.0,,,,,,,,,,
16.26.01.295,109.7,27.4,0,1.0,,47816.3,20.91,-0.24,0.73,0.63,1.1,6.3,-1.0,35.0,,,,,,,,,,
16.26.01.307,49.2,12.3,0,1.0,,42014.2,23.8,-0.24,0.72,0.63,1.2,5.2,-1.0,35.0,,,,,,,,,,
16.26.01.319,109.5,27.4,0,1.0,,48761.9,20.51,-0.24,0.72,0.64,1.3,5.6,-1.3,35.0,,,,,,,,,,
16.26.01.328,55.1,13.8,0,1.0,,47900.5,20.88,-0.24,0.73,0.63,1.1,6.3,-1.7,35.0,,,,,,,,,,
16.26.01.340,56.9,14.2,0,1.0,,41681.4,23.99,-0.25,0.72,0.63,1.0,5.6,-1.0,35.0,,,,,,,,,,
16.26.01.352,94.4,23.6,0,1.0,,47261.2,21.16,-0.25,0.73,0.64,1.4,5.1,-0.9,35.0,,,,,,,,,,
16.26.01.360,22.3,5.6,0,1.0,,47067.6,21.25,-0.24,0.73,0.63,0.7,5.3,-1.4,35.0,,,,,,,,,,
16.26.01.373,40.7,10.2,0,1.0,,43222.6,23.14,-0.24,0.73,0.65,-1.2,5.7,-1.8,35.0,,,,,,,,,,
16.26.01.386,29.7,7.4,0,1.0,,45469.9,21.99,-0.24,0.7,0.63,-0.8,4.8,-2.2,35.0,,,,,,,,,,
16.26.01.393,60.0,15.0,0,1.0,,46244.7,21.62,-0.24,0.73,0.65,-0.2,4.5,-0.9,35.0,,,,,,,,,,
16.26.01.405,-25.2,6.3,0,1.0,,46339.1,21.58,-0.24,0.71,0.63,1.7,7.5,-0.9,35.0,,,,,,,,,,
16.26.01.418,11.6,2.9,0,1.0,,42385.4,23.59,-0.24,0.73,0.65,0.3,4.9,-0.9,35.0,,,,,,,,,,
16.26.01.426,-17.6,4.4,0,1.0,,47334.7,21.13,-0.24,0.72,0.64,1.1,6.3,-1.5,35.0,,,,,,,,,,
16.26.01.438,-18.9,4.7,0,1.0,,45187.0,22.13,-0.23,0.73,0.64,1.1,6.2,-1.0,35.0,,,,,,,,,,
16.26.01.446,-90.7,22.7,0,1.0,,44879.8,22.28,-0.23,0.73,0.64,0.3,5.7,-1.1,35.0,,,,,,,,,,
16.26.01.459,-51.0,12.8,0,1.0,,34564.4,28.93,-0.23,0.72,0.64,-0.6,5.7,-1.6,35.0,,,,,,,,,,
16.26.01.471,-115.8,29.0,0,1.0,,50212.9,19.92,-0.23,0.72,0.64,-0.6,5.3,-1.6,35.0,,,,,,,,,,
16.26.01.479,-67.9,17.0,0,1.0,,40433.5,24.73,-0.23,0.72,0.65,0.0,6.4,-1.4,35.0,,,,,,,,,,
16.26.01.492,-97.1,24.3,0,1.0,,47035.0,21.26,-0.24,0.72,0.64,0.8,6.4,-1.2,35.0,,,,,,,,,,
16.26.01.504,-135.2,33.8,0,1.0,,47060.9,21.25,-0.24,0.72,0.64,1.3,5.6,-1.0,35.0,,,,,,,,,,
16.26.01.512,-99.8,25.0,0,1.0,,44118.0,22.67,-0.24,0.73,0.64,1.4,6.0,-0.9,35.0,,,,,,,,,,
16.26.01.524,-136.2,34.0,0,1.0,,45043.3,22.2,-0.24,0.72,0.64,0.8,5.5,-1.5,35.0,,,,,,,,,,
16.26.01.537,-114.3,28.6,0,1.0,,42723.7,23.41,-0.24,0.71,0.64,0.9,5.5,-1.5,35.0,,,,,,,,,,
16.26.01.545,-107.1,26.8,0,1.0,,45629.6,21.92,-0.24,0.72,0.64,1.7,5.3,-0.7,35.0,,,,,,,,,,
16.26.01.557,-92.0,23.0,0,1.0,,44833.0,22.3,-0.24,0.72,0.64,1.7,5.9,-0.7,35.0,,,,,,,,,,
16.26.01.598,-114.0,28.5,0,1.0,,39430.7,25.36,-0.24,0.72,0.63,1.0,5.6,-1.1,35.0,,,,,,,,,,
16.26.01.606,-50.2,12.6,1,2.0,119.9,43838.3,22.81,-0.24,0.73,0.63,-0.5,4.7,-1.6,35.0,,,,,,,,,,
16.26.01.619,147.8,37.0,0,2.0,,42693.3,23.42,-0.24,0.72,0.64,0.1,4.5,-1.4,35.0,,,,,,,,,,
16.26.01.631,269.2,67.3,0,2.0,,45202.4,22.12,-0.24,0.72,0.64,0.5,6.0,-1.4,35.0,,,,,,,,,,
16.26.01.643,274.5,68.6,0,2.0,,49402.0,20.24,-0.24,0.72,0.63,0.5,5.8,-1.7,35.0,,,,,,,,,,
16.26.01.652,345.1,86.3,0,2.0,,46741.6,21.39,-0.24,0.72,0.64,0.4,6.2,-1.5,35.0,,,,,,,,,,
16.26.01.664,431.6,107.9,0,2.0,,42518.3,23.52,-0.24,0.72,0.63,1.1,6.3,-1.3,35.0,,,,,,,,,,
16.26.01.676,488.7,122.2,0,2.0,,44720.5,22.36,-0.23,0.73,0.64,0.1,5.4,-1.4,35.0,,,,,,,,,,
16.26.01.688,546.9,136.7,0,2.0,,39257.3,25.47,-0.23,0.72,0.65,-1.0,6.3,-2.0,35.0,,,,,,,,,,
16.26.01.696,549.2,137.3,0,2.0,,45931.9,21.77,-0.24,0.72,0.64,-0.9,5.4,-1.9,35.0,,,,,,,,,,
16.26.01.709,492.0,123.0,0,2.0,,44083.6,22.68,-0.24,0.72,0.64,0.4,5.8,-1.3,35.0,,,,,,,,,,
16.26.01.721,467.0,116.8,0,2.0,,39261.2,25.47,-0.24,0.72,0.65,1.5,6.9,-0.9,35.0,,,,,,,,,,
16.26.01.734,375.1,93.8,0,2.0,,52630.9,19.0,-0.23,0.72,0.64,0.5,5.9,-1.1,35.0,,,,,,,,,,
16.26.01.741,363.5,90.9,0,2.0,,49514.5,20.2,-0.23,0.73,0.64,-0.4,5.7,-1.9,35.0,,,,,,,,,,
16.26.01.754,205.2,51.3,0,2.0,,40762.3,24.53,-0.23,0.72,0.64,-1.1,5.4,-1.8,35.0,,,,,,,,,,
16.26.01.766,75.5,18.9,0,2.0,,43255.3,23.12,-0.23,0.72,0.65,0.0,5.4,-1.8,35.0,,,,,,,,,,
16.26.01.778,103.8,26.0,0,2.0,,43773.9,22.84,-0.24,0.72,0.64,1.3,7.0,-1.2,35.0,,,,,,,,,,
16.26.01.787,2.5,0.6,0,2.0,,51004.6,19.61,-0.23,0.72,0.64,1.6,6.4,-0.9,35.0,,,,,,,,,,
16.26.01.799,71.9,18.0,0,2.0,,45991.6,21.74,-0.24,0.72,0.64,1.3,5.6,-1.0,35.0,,,,,,,,,,
16.26.01.811,25.9,6.5,0,2.0,,41428.8,24.14,-0.24,0.72,0.64,0.3,6.2,-1.4,35.0,,,,,,,,,,
16.26.01.819,82.8,20.7,0,2.0,,43946.2,22.76,-0.24,0.72,0.64,0.9,5.3,-1.3,35.0,,,,,,,,,,
16.26.01.832,95.9,24.0,0,2.0,,45495.0,21.98,-0.24,0.73,0.64,1.9,6.0,-0.9,35.0,,,,,,,,,,
16.26.01.844,138.6,34.6,0,2.0,,41107.6,24.33,-0.24,0.73,0.63,2.2,5.8,-0.9,35.0,,,,,,,,,,
16.26.01.856,114.7,28.7,0,2.0,,48942.2,20.43,-0.25,0.72,0.64,1.5,5.9,-0.6,35.0,,,,,,,,,,
16.26.01.864,82.9,20.7,0,2.0,,44058.9,22.7,-0.24,0.73,0.63,1.1,6.0,-1.3,35.0,,,,,,,,,,
16.26.01.877,13.1,3.3,0,2.0,,44443.4,22.5,-0.24,0.72,0.63,1.1,4.9,-0.8,35.0,,,,,,,,,,
16.26.01.889,21.0,5.2,0,2.0,,46374.0,21.56,-0.24,0.72,0.64,0.1,5.2,-1.8,35.0,,,,,,,,,,
16.26.01.898,23.9,6.0,0,2.0,,40031.6,24.98,-0.25,0.71,0.64,-0.8,5.3,-1.7,35.0,,,,,,,,,,
16.26.01.909,41.5,10.4,0,2.0,,39024.1,25.63,-0.24,0.72,0.64,0.0,5.0,-1.0,35.0,,,,,,,,,,
16.26.01.922,-42.3,10.6,0,2.0,,44852.2,22.3,-0.24,0.72,0.64,0.7,6.1,-1.0,35.0,,,,,,,,,,
16.26.01.930,-35.8,9.0,0,2.0,,44485.6,22.48,-0.24,0.72,0.64,0.8,6.7,-1.1,35.0,,,,,,,,,,
16.26.01.942,-78.8,19.7,0,2.0,,44950.3,22.25,-0.24,0.73,0.64,0.4,5.7,-1.3,35.0,,,,,,,,,,
16.26.01.955,-81.3,20.3,0,2.0,,43871.7,22.79,-0.23,0.72,0.64,0.0,5.7,-1.3,35.0,,,,,,,,,,
16.26.01.967,-75.9,19.0,0,2.0,,45961.7,21.76,-0.23,0.73,0.64,-0.5,5.9,-1.7,35.0,,,,,,,,,,
16.26.01.975,-138.9,34.7,0,2.0,,41250.7,24.24,-0.23,0.72,0.64,-1.1,5.7,-1.9,35.0,,,,,,,,,,
16.26.01.987,-35.7,8.9,0,2.0,,45372.9,22.04,-0.23,0.72,0.65,-0.8,5.0,-2.2,35.0,,,,,,,,,,
16.26.02.000,-101.2,25.3,0,2.0,,42410.8,23.58,-0.24,0.71,0.64,-0.5,6.1,-1.8,35.0,,,,,,,,,,
16.26.02.008,-138.3,34.6,0,2.0,,42520.3,23.52,-0.24,0.72,0.65,0.2,6.4,-1.8,35.0,,,,,,,,,,
16.26.02.020,-134.1,33.5,0,2.0,,42791.7,23.37,-0.24,0.71,0.65,1.6,6.3,-1.0,35.0,,,,,,,,,,
16.26.02.032,-96.0,24.0,0,2.0,,43307.0,23.09,-0.23,0.73,0.64,1.6,7.0,-0.8,35.0,,,,,,,,,,
16.26.02.041,-120.1,30.0,0,2.0,,39620.4,25.24,-0.23,0.73,0.63,1.4,6.2,-1.2,35.0,,,,,,,,,,
16.26.02.053,-86.1,21.5,0,2.0,,43224.1,23.14,-0.23,0.73,0.64,0.2,5.5,-1.8,35.0,,,,,,,,,,
16.26.02.065,-189.1,47.3,0,2.0,,45857.3,21.81,-0.24,0.72,0.64,-0.1,5.8,-2.0,35.0,,,,,,,,,,
16.26.02.077,-165.5,41.4,0,2.0,,42862.8,23.33,-0.24,0.72,0.64,-0.1,5.4,-1.7,35.0,,,,,,,,,,
16.26.02.086,-175.9,44.0,0,2.0,,41419.9,24.14,-0.25,0.71,0.64,1.6,6.0,-1.0,35.0,,,,,,,,,,
16.26.02.098,-183.0,45.8,0,2.0,,43833.3,22.81,-0.24,0.73,0.64,2.6,6.1,-0.9,35.0,,,,,,,,,,
16.26.02.106,-172.2,43.0,0,2.0,,40711.6,24.56,-0.24,0.72,0.64,2.3,5.9,-0.5,35.0,,,,,,,,,,
16.26.02.119,73.1,18.3,1,3.0,115.5,44036.8,22.71,-0.24,0.73,0.63,1.2,6.1,-1.2,35.0,,,,,,,,,,
16.26.02.129,101.7,25.4,0,3.0,,47778.2,20.93,-0.25,0.72,0.63,1.1,5.5,-1.3,35.0,,,,,,,,,,
16.26.02.140,281.0,70.2,0,3.0,,47026.8,21.26,-0.24,0.72,0.63,1.9,4.8,-0.9,35.0,,,,,,,,,,
16.26.02.147,316.4,79.1,0,3.0,,49448.8,20.22,-0.24,0.72,0.64,1.2,5.8,-1.1,35.0,,,,,,,,,,
16.26.02.159,375.8,94.0,0,3.0,,43104.0,23.2,-0.25,0.72,0.63,0.6,6.1,-1.5,35.0,,,,,,,,,,
16.26.02.167,366.1,91.5,0,3.0,,44641.5,22.4,-0.24,0.72,0.63,1.1,4.7,-1.0,35.0,,,,,,,,,,
16.26.02.180,504.5,126.1,0,3.0,,44894.5,22.27,-0.24,0.72,0.64,1.3,5.8,-1.0,35.0,,,,,,,,,,
16.26.02.188,435.3,108.8,0,3.0,,42005.7,23.81,-0.24,0.73,0.63,-0.2,5.7,-1.8,35.0,,,,,,,,,,
16.26.02.200,515.8,129.0,0,3.0,,40609.4,24.62,-0.24,0.72,0.64,-1.1,5.3,-1.7,35.0,,,,,,,,,,
16.26.02.213,467.0,116.8,0,3.0,,42019.1,23.8,-0.24,0.71,0.64,-0.9,5.8,-1.9,35.0,,,,,,,,,,
16.26.02.221,521.7,130.4,0,3.0,,51694.3,19.34,-0.24,0.72,0.64,0.9,5.9,-1.3,35.0,,,,,,,,,,
16.26.02.234,483.0,120.8,0,3.0,,48692.3,20.54,-0.23,0.72,0.65,0.9,5.6,-0.9,35.0,,,,,,,,,,
16.26.02.242,408.0,102.0,0,3.0,,41246.3,24.24,-0.23,0.72,0.64,-0.7,6.2,-2.0,35.0,,,,,,,,,,
16.26.02.254,298.5,74.6,0,3.0,,44809.9,22.32,-0.24,0.72,0.64,-1.0,5.8,-2.1,35.0,,,,,,,,,,
16.26.02.262,208.0,52.0,0,3.0,,43810.2,22.83,-0.23,0.72,0.65,0.6,5.6,-1.1,35.0,,,,,,,,,,
16.26.02.274,143.8,36.0,0,3.0,,42594.0,23.48,-0.23,0.73,0.64,1.8,6.8,-0.8,35.0,,,,,,,,,,
16.26.02.286,-18.2,4.6,0,3.0,,44263.0,22.59,-0.23,0.73,0.63,0.6,6.6,-1.0,35.0,,,,,,,,,,
16.26.02.298,26.8,6.7,0,3.0,,44795.6,22.32,-0.23,0.73,0.64,-0.5,5.3,-1.8,35.0,,,,,,,,,,
16.26.02.307,68.9,17.2,0,3.0,,51440.1,19.44,-0.23,0.72,0.64,-0.5,6.1,-1.5,35.0,,,,,,,,,,
16.26.02.316,89.2,22.3,0,3.0,,46376.8,21.56,-0.24,0.72,0.65,0.0,5.3,-1.6,35.0,,,,,,,,,,
16.26.02.327,46.7,11.7,0,3.0,,46258.4,21.62,-0.24,0.72,0.65,0.3,5.5,-1.5,35.0,,,,,,,,,,
16.26.02.336,28.2,7.0,0,3.0,,45648.7,21.91,-0.24,0.72,0.64,1.1,6.4,-1.2,35.0,,,,,,,,,,
16.26.02.348,46.8,11.7,0,3.0,,48688.4,20.54,-0.25,0.72,0.63,2.5,6.7,-0.7,35.0,,,,,,,,,,
16.26.02.356,15.2,3.8,0,3.0,,42676.5,23.43,-0.24,0.72,0.63,3.2,5.9,-0.1,35.0,,,,,,,,,,
16.26.02.393,-40.3,10.1,0,3.0,,43012.5,23.25,-0.23,0.73,0.63,1.5,6.2,-0.9,35.0,,,,,,,,,,
16.26.02.409,-52.7,13.2,0,3.0,,43986.5,22.73,-0.24,0.72,0.64,2.1,6.0,-0.7,35.0,,,,,,,,,,
16.26.02.417,12.4,3.1,0,3.0,,47876.4,20.89,-0.24,0.72,0.63,-0.4,5.5,-1.8,35.0,,,,,,,,,,
16.26.02.431,-53.2,13.3,0,3.0,,43702.3,22.88,-0.25,0.72,0.63,-0.2,5.8,-1.6,35.0,,,,,,,,,,
16.26.02.438,-119.0,29.8,0,3.0,,40375.4,24.77,-0.24,0.72,0.64,1.8,4.7,-0.9,35.0,,,,,,,,,,
16.26.02.450,-52.6,13.2,0,3.0,,45720.1,21.87,-0.24,0.72,0.64,1.3,6.6,-0.8,35.0,,,,,,,,,,
16.26.02.459,-97.7,24.4,0,3.0,,47114.9,21.22,-0.24,0.72,0.64,-0.8,6.7,-1.9,35.0,,,,,,,,,,
16.26.02.471,-16.7,4.2,0,3.0,,40625.6,24.62,-0.24,0.72,0.64,-0.7,5.0,-1.6,35.0,,,,,,,,,,
16.26.02.483,-31.7,7.9,0,3.0,,46088.7,21.7,-0.23,0.73,0.64,1.3,6.1,-0.7,35.0,,,,,,,,,,
16.26.02.491,-62.6,15.6,0,3.0,,46456.7,21.53,-0.23,0.72,0.64,1.3,6.6,-0.9,35.0,,,,,,,,,,
16.26.02.506,-37.2,9.3,0,3.0,,44604.0,22.42,-0.24,0.72,0.64,-1.5,4.8,-1.8,35.0,,,,,,,,,,
16.26.02.512,-61.0,15.2,0,3.0,,46888.7,21.33,-0.23,0.72,0.64,-1.8,5.2,-2.9,35.0,,,,,,,,,,
16.26.02.528,-162.6,40.6,0,3.0,,47969.6,20.85,-0.24,0.72,0.64,1.0,5.6,-0.9,35.0,,,,,,,,,,
16.26.02.532,-163.3,40.8,0,3.0,,45320.3,22.07,-0.23,0.72,0.64,2.6,7.2,-0.3,35.0,,,,,,,,,,
16.26.02.545,-130.4,32.6,0,3.0,,47347.5,21.12,-0.23,0.73,0.64,1.7,6.7,-0.8,35.0,,,,,,,,,,
16.26.02.554,-159.4,39.8,0,3.0,,42595.8,23.48,-0.23,0.72,0.64,-0.6,4.7,-1.8,35.0,,,,,,,,,,
16.26.02.567,-192.9,48.2,0,3.0,,40920.3,24.44,-0.23,0.72,0.64,-1.3,5.7,-2.0,35.0,,,,,,,,,,
16.26.02.578,-161.6,40.4,0,3.0,,48987.6,20.41,-0.23,0.72,0.64,-0.1,5.8,-2.0,35.0,,,,,,,,,,
16.26.02.586,-212.7,53.2,0,3.0,,42823.0,23.35,-0.23,0.72,0.65,2.1,5.9,-0.6,35.0,,,,,,,,,,
16.26.02.598,-183.8,46.0,0,3.0,,44297.1,22.57,-0.24,0.72,0.65,1.8,7.1,-1.5,35.0,,,,,,,,,,
16.26.02.606,-182.8,45.7,0,3.0,,41852.1,23.89,-0.25,0.72,0.64,1.6,5.7,-0.3,35.0,,,,,,,,,,
16.26.02.619,-143.7,35.9,0,3.0,,41464.1,24.12,-0.24,0.73,0.63,1.2,4.4,-1.5,35.0,,,,,,,,,,
16.26.02.627,40.0,10.0,1,4.0,115.4,45292.7,22.08,-0.24,0.72,0.64,1.1,6.1,-0.7,35.0,,,,,,,,,,
16.26.02.644,230.3,57.6,0,4.0,,44182.3,22.63,-0.23,0.72,0.63,1.3,6.1,-0.8,35.0,,,,,,,,,,
16.26.02.648,293.1,73.3,0,4.0,,44528.2,22.46,-0.23,0.73,0.64,0.5,5.5,-1.7,35.0,,,,,,,,,,
16.26.02.664,294.0,73.5,0,4.0,,44633.9,22.4,-0.24,0.71,0.64,0.8,6.0,-1.2,35.0,,,,,,,,,,
16.26.02.675,377.9,94.5,0,4.0,,50382.7,19.85,-0.24,0.73,0.64,-0.1,5.1,-2.1,35.0,,,,,,,,,,
16.26.02.680,381.2,95.3,0,4.0,,48603.2,20.57,-0.25,0.72,0.64,1.6,6.1,-0.5,35.0,,,,,,,,,,
16.26.02.692,549.5,137.4,0,4.0,,48924.9,20.44,-0.24,0.73,0.64,1.7,6.0,-1.6,35.0,,,,,,,,,,
16.26.02.705,481.3,120.3,0,4.0,,38851.1,25.74,-0.25,0.72,0.64,1.9,6.3,-0.7,35.0,,,,,,,,,,
16.26.02.717,381.2,95.3,0,4.0,,46628.3,21.45,-0.24,0.74,0.63,0.9,6.3,-1.4,35.0,,,,,,,,,,
16.26.02.725,446.4,111.6,0,4.0,,39546.2,25.29,-0.25,0.72,0.62,1.4,5.3,-0.8,35.0,,,,,,,,,,
16.26.02.737,328.0,82.0,0,4.0,,42453.6,23.56,-0.24,0.72,0.63,0.4,4.5,-0.9,35.0,,,,,,,,,,
16.26.02.746,,,0,4.0,,49553.7,20.18,,,,,,,,,,,,,,,,,
16.26.02.770,,,0,4.0,,48898.5,20.45,,,,,,,,,35.0,,,,,,,,
16.26.02.775,120.5,30.1,0,4.0,,47407.6,21.09,-0.24,0.72,0.65,1.0,6.1,-1.0,35.0,,,,,,,,,,
16.26.02.786,89.8,22.4,0,4.0,,46654.6,21.43,-0.23,0.72,0.64,0.9,6.3,-0.7,35.0,,,,,,,,,,
16.26.02.795,6.7,1.7,0,4.0,,45484.6,21.99,-0.23,0.72,0.64,0.2,6.5,-1.6,35.0,,,,,,,,,,
16.26.02.809,-55.2,13.8,0,4.0,,45902.5,21.79,-0.24,0.73,0.64,0.9,6.2,-1.0,35.0,,,,,,,,,,
16.26.02.821,119.8,30.0,0,4.0,,47822.2,20.91,-0.23,0.73,0.64,0.9,5.7,-0.9,35.0,,,,,,,,,,
16.26.02.836,67.5,16.9,0,4.0,,40145.0,24.91,-0.23,0.73,0.64,-0.2,6.1,-1.6,35.0,,,,,,,,,,
16.26.02.838,104.6,26.2,0,4.0,,45448.2,22.0,-0.23,0.72,0.64,-1.6,5.4,-2.3,35.0,,,,,,,,,,
16.26.02.848,62.3,15.6,0,4.0,,42290.1,23.65,-0.24,0.71,0.65,-0.8,5.1,-1.9,35.0,,,,,,,,,,
16.26.02.856,81.5,20.4,0,4.0,,43447.5,23.02,-0.24,0.72,0.65,1.1,6.0,-1.2,35.0,,,,,,,,,,
16.26.02.868,77.4,19.4,0,4.0,,43961.4,22.75,-0.24,0.72,0.65,1.4,7.0,-0.8,35.0,,,,,,,,,,
16.26.02.877,78.8,19.7,0,4.0,,44711.8,22.37,-0.24,0.72,0.64,1.9,6.1,-0.6,35.0,,,,,,,,,,
16.26.02.889,20.7,5.2,0,4.0,,42810.6,23.36,-0.23,0.72,0.64,1.6,5.0,-1.0,35.0,,,,,,,,,,
16.26.02.899,-14.2,3.6,0,4.0,,37614.0,26.59,-0.23,0.72,0.64,0.3,6.2,-1.7,35.0,,,,,,,,,,
16.26.02.909,-26.8,6.7,0,4.0,,44821.1,22.31,-0.24,0.72,0.64,-0.3,6.9,-1.8,35.0,,,,,,,,,,
16.26.02.917,-16.0,4.0,0,4.0,,43153.3,23.17,-0.24,0.73,0.63,1.5,5.9,-1.4,35.0,,,,,,,,,,
16.26.02.930,-78.3,19.6,0,4.0,,43600.3,22.94,-0.24,0.73,0.63,3.9,6.3,0.2,35.0,,,,,,,,,,
16.26.02.938,-43.4,10.8,0,4.0,,46594.2,21.46,-0.24,0.74,0.63,2.6,7.4,-0.6,35.0,,,,,,,,,,
16.26.02.950,1.4,0.4,0,4.0,,45184.6,22.13,-0.25,0.74,0.61,0.4,5.7,-1.3,35.0,,,,,,,,,,
16.26.02.958,-46.6,11.6,0,4.0,,44901.0,22.27,-0.25,0.72,0.62,0.1,2.8,-1.3,35.0,,,,,,,,,,
16.26.02.971,-17.9,4.5,0,4.0,,44076.5,22.69,-0.24,0.71,0.65,-0.9,4.3,-1.3,35.0,,,,,,,,,,
16.26.02.989,-103.9,,0,4.0,,44386.5,22.53,-0.24,,0.64,0.1,5.1,-1.7,35.0,,,,,,,,,,
16.26.03.002,-60.4,15.1,0,4.0,,41401.4,24.15,,0.7,0.64,0.1,5.1,-1.7,35.0,,,,,,,,,,
16.26.03.006,-170.3,42.6,0,4.0,,44915.8,22.26,-0.24,0.71,0.63,3.4,6.6,-0.7,35.0,,,,,,,,,,
16.26.03.022,-111.5,,0,4.0,,41767.1,23.94,-0.24,0.74,0.64,3.6,7.8,-0.7,35.0,,,,,,,,,,
16.26.03.031,-82.1,20.5,0,4.0,,42781.5,23.37,-0.24,0.74,0.63,1.1,6.1,-1.0,35.0,,,,,,,,,,
16.26.03.036,-176.3,44.1,0,4.0,,40522.5,24.68,-0.23,0.74,0.62,-1.9,4.1,-2.8,35.0,,,,,,,,,,
16.26.03.045,-80.7,20.2,0,4.0,,46064.3,21.71,-0.24,0.7,0.65,-1.5,5.3,-1.4,35.0,,,,,,,,,,
16.26.03.053,-51.0,12.8,0,4.0,,50385.7,19.85,-0.24,0.72,0.63,-2.7,5.2,-2.7,35.0,,,,,,,,,,
16.26.03.065,-122.9,30.7,0,4.0,,46099.6,21.69,-0.24,0.7,0.65,0.3,5.5,-1.4,35.0,,,,,,,,,,
16.26.03.078,-141.3,35.3,0,4.0,,36294.5,27.55,-0.24,0.72,0.65,1.5,6.2,-0.5,35.0,,,,,,,,,,
16.26.03.086,-133.3,33.3,0,4.0,,45425.1,22.01,-0.23,0.73,0.64,1.9,7.2,-0.7,35.0,,,,,,,,,,
16.26.03.094,-131.4,32.8,0,4.0,,43606.3,22.93,-0.23,0.73,0.64,0.9,5.7,-0.9,35.0,,,,,,,,,,
16.26.03.106,-96.3,24.1,0,4.0,,45155.6,22.15,-0.23,0.73,0.64,-0.5,5.6,-1.5,35.0,,,,,,,,,,
16.26.03.118,-158.3,39.6,0,4.0,,48308.6,20.7,-0.22,0.73,0.64,-1.4,5.5,-1.9,35.0,,,,,,,,,,
16.26.03.126,-219.2,54.8,0,4.0,,45276.9,22.09,-0.23,0.71,0.65,-1.0,5.5,-2.0,35.0,,,,,,,,,,
16.26.03.138,68.8,17.2,1,5.0,112.9,47113.3,21.23,-0.24,0.71,0.65,0.3,6.7,-1.7,35.0,,,,,,,,,,
16.26.03.147,168.8,42.2,0,5.0,,45748.2,21.86,-0.24,0.72,0.64,2.1,6.9,-0.9,35.0,,,,,,,,,,
16.26.03.159,274.8,68.7,0,5.0,,40993.6,24.39,-0.24,0.73,0.64,3.3,6.4,-0.4,35.0,,,,,,,,,,
16.26.03.167,251.8,63.0,0,5.0,,47138.2,21.21,-0.24,0.73,0.63,2.0,6.2,-0.6,35.0,,,,,,,,,,
16.26.03.204,506.0,126.5,0,5.0,,46950.1,21.3,-0.24,0.72,0.63,0.0,5.1,-1.7,35.0,,,,,,,,,,
16.26.03.216,493.0,123.2,0,5.0,,44615.1,22.41,-0.24,0.72,0.64,2.1,6.2,-0.9,35.0,,,,,,,,,,
16.26.03.226,402.4,100.6,0,5.0,,47345.1,21.12,-0.24,0.72,0.63,2.5,6.6,-0.6,35.0,,,,,,,,,,
16.26.03.237,455.1,113.8,0,5.0,,46982.5,21.28,-0.24,0.73,0.63,2.3,6.3,-0.6,35.0,,,,,,,,,,
16.26.03.245,400.2,100.0,0,5.0,,44179.8,22.63,-0.25,0.73,0.62,1.7,5.6,-0.8,35.0,,,,,,,,,,
16.26.03.259,376.8,94.2,0,5.0,,42207.0,23.69,-0.25,0.73,0.62,0.6,5.4,-1.0,35.0,,,,,,,,,,
16.26.03.266,297.5,74.4,0,5.0,,42746.0,23.39,-0.25,0.71,0.63,0.2,5.7,-1.0,35.0,,,,,,,,,,
16.26.03.278,240.7,60.2,0,5.0,,48314.0,20.7,-0.23,0.75,0.63,-2.1,4.6,-3.6,35.0,,,,,,,,,,
16.26.03.286,190.4,47.6,0,5.0,,43420.2,23.03,-0.24,0.7,0.63,0.4,5.8,-1.8,35.0,,,,,,,,,,
16.26.03.299,13.5,3.4,0,5.0,,46391.2,21.56,-0.25,0.72,0.64,1.8,6.4,0.6,35.0,,,,,,,,,,
16.26.03.306,-73.2,18.3,0,5.0,,42804.9,23.36,-0.23,0.72,0.63,1.5,6.2,-0.8,35.0,,,,,,,,,,
16.26.03.320,30.4,7.6,0,5.0,,43794.1,22.83,-0.23,0.73,0.64,-0.1,6.1,-1.5,35.0,,,,,,,,,,
16.26.03.327,65.5,16.4,0,5.0,,47112.9,21.23,-0.23,0.73,0.64,-1.1,5.7,-2.0,35.0,,,,,,,,,,
16.26.03.339,88.9,22.2,0,5.0,,46723.9,21.4,-0.24,0.72,0.64,-1.1,5.4,-1.8,35.0,,,,,,,,,,
16.26.03.347,115.4,28.8,0,5.0,,44036.6,22.71,-0.24,0.71,0.65,-0.8,5.6,-1.5,35.0,,,,,,,,,,
16.26.03.360,141.1,35.3,0,5.0,,48774.8,20.5,-0.23,0.72,0.64,0.3,6.1,-1.2,35.0,,,,,,,,,,
16.26.03.368,68.8,17.2,0,5.0,,42391.5,23.59,-0.23,0.72,0.65,0.5,6.3,-1.4,35.0,,,,,,,,,,
16.26.03.381,47.2,11.8,0,5.0,,42127.1,23.74,-0.23,0.72,0.64,0.9,6.7,-1.4,35.0,,,,,,,,,,
16.26.03.389,34.7,8.7,0,5.0,,44457.1,22.49,-0.23,0.73,0.64,0.8,6.0,-1.1,35.0,,,,,,,,,,
16.26.03.401,-5.1,1.3,0,5.0,,47106.2,21.23,-0.23,0.73,0.64,0.5,6.3,-1.3,35.0,,,,,,,,,,
16.26.03.409,22.3,5.6,0,5.0,,51223.9,19.52,-0.24,0.73,0.64,0.2,6.1,-1.4,35.0,,,,,,,,,,
16.26.03.421,-7.1,1.8,0,5.0,,39951.0,25.03,-0.23,0.72,0.64,-0.1,5.4,-1.6,35.0,,,,,,,,,,
16.26.03.433,-35.9,9.0,0,5.0,,44804.0,22.32,-0.24,0.72,0.64,0.1,5.3,-1.2,35.0,,,,,,,,,,
16.26.03.446,-8.8,2.2,0,5.0,,48560.8,20.59,-0.24,0.71,0.64,0.4,5.8,-1.6,35.0,,,,,,,,,,
16.26.03.455,0.8,0.2,0,5.0,,45223.1,22.11,-0.24,0.71,0.65,0.8,5.5,-1.5,35.0,,,,,,,,,,
16.26.03.466,-60.4,15.1,0,5.0,,42591.7,23.48,-0.24,0.72,0.65,1.2,5.9,-1.0,35.0,,,,,,,,,,
16.26.03.475,-28.4,7.1,0,5.0,,44065.5,22.69,-0.24,0.72,0.65,2.0,5.8,-0.7,35.0,,,,,,,,,,
16.26.03.487,-97.5,24.4,0,5.0,,44289.3,22.58,-0.24,0.71,0.63,2.1,7.2,-0.6,35.0,,,,,,,,,,
16.26.03.495,-68.8,17.2,0,5.0,,49035.8,20.39,-0.22,0.74,0.62,1.5,6.3,-2.3,35.0,,,,,,,,,,
16.26.03.509,-87.0,21.8,0,5.0,,49046.9,20.39,-0.24,0.72,0.63,3.0,6.4,-0.1,35.0,,,,,,,,,,
16.26.03.519,-143.0,35.8,0,5.0,,42326.6,23.63,-0.24,0.73,0.62,1.3,4.7,-0.5,35.0,,,,,,,,,,
16.26.03.530,-89.3,22.3,0,5.0,,50278.9,19.89,-0.25,0.73,0.64,1.7,5.4,-0.6,35.0,,,,,,,,,,
16.26.03.541,-83.7,20.9,0,5.0,,43179.5,23.16,-0.25,0.73,0.64,1.4,5.7,-0.8,35.0,,,,,,,,,,
16.26.03.548,-66.0,16.5,0,5.0,,45712.8,21.88,-0.25,0.72,0.63,0.4,5.4,-1.5,35.0,,,,,,,,,,
16.26.03.557,-143.9,36.0,0,5.0,,45854.5,21.81,-0.24,0.72,0.63,-0.3,4.6,-1.5,35.0,,,,,,,,,,
16.26.03.569,-106.9,26.7,0,5.0,,42695.4,23.42,-0.24,0.71,0.64,0.1,4.9,-0.9,35.0,,,,,,,,,,
16.26.03.577,-131.9,33.0,0,5.0,,47345.1,21.12,-0.23,0.72,0.63,0.4,6.2,-0.8,35.0,,,,,,,,,,
16.26.03.592,-136.3,34.1,0,5.0,,40285.1,24.82,-0.23,0.72,0.64,0.3,6.3,-1.3,35.0,,,,,,,,,,
16.26.03.598,-146.7,36.7,0,5.0,,46023.8,21.73,-0.23,0.72,0.64,-0.3,5.7,-1.4,35.0,,,,,,,,,,
16.26.03.610,-187.4,46.8,0,5.0,,47038.3,21.26,-0.23,0.73,0.64,0.1,6.0,-1.4,35.0,,,,,,,,,,
16.26.03.618,-196.5,49.1,0,5.0,,46651.3,21.44,-0.23,0.72,0.64,0.6,6.0,-1.4,35.0,,,,,,,,,,
16.26.03.630,-266.3,66.6,0,5.0,,49152.7,20.34,-0.24,0.72,0.64,0.2,5.8,-1.2,35.0,,,,,,,,,,
16.26.03.639,-3.1,0.8,1,6.0,119.2,44512.1,22.47,-0.23,0.72,0.63,0.2,5.4,-1.9,35.0,,,,,,,,,,
16.26.03.651,118.9,29.7,0,6.0,,38343.8,26.08,-0.24,0.72,0.64,0.0,5.9,-1.3,35.0,,,,,,,,,,
16.26.03.659,168.4,42.1,0,6.0,,49627.8,20.15,-0.23,0.72,0.64,0.4,6.3,-1.5,35.0,,,,,,,,,,
16.26.03.671,309.0,77.2,0,6.0,,43854.5,22.8,-0.23,0.71,0.64,1.0,6.1,-1.1,35.0,,,,,,,,,,
16.26.03.679,340.0,85.0,0,6.0,,43340.7,23.07,-0.23,0.72,0.64,0.9,5.6,-0.7,35.0,,,,,,,,,,
16.26.03.699,359.4,89.8,0,6.0,,41907.4,23.86,-0.24,0.72,0.63,1.0,6.2,-1.3,35.0,,,,,,,,,,
16.26.03.710,427.9,107.0,0,6.0,,40532.2,24.67,-0.24,0.72,0.65,0.7,5.7,-1.4,35.0,,,,,,,,,,
16.26.03.715,446.1,111.5,0,6.0,,39465.3,25.34,-0.24,0.72,0.64,0.5,5.5,-1.4,35.0,,,,,,,,,,
16.26.03.721,504.5,126.1,0,6.0,,45204.6,22.12,-0.24,0.72,0.64,1.2,5.6,-1.3,35.0,,,,,,,,,,
16.26.03.733,504.8,126.2,0,6.0,,47983.0,20.84,-0.24,0.72,0.65,2.0,6.0,-0.7,35.0,,,,,,,,,,
16.26.03.745,519.0,129.8,0,6.0,,43244.4,23.12,-0.24,0.72,0.64,1.8,6.7,-0.7,35.0,,,,,,,,,,
16.26.03.754,363.5,90.9,0,6.0,,45822.7,21.82,-0.24,0.73,0.63,1.9,5.9,-1.1,35.0,,,,,,,,,,
16.26.03.766,354.9,88.7,0,6.0,,49741.9,20.1,-0.24,0.73,0.63,2.1,5.4,-0.5,35.0,,,,,,,,,,
16.26.03.780,256.9,64.2,0,6.0,,45035.9,22.2,-0.24,0.73,0.63,1.3,5.8,-1.0,35.0,,,,,,,,,,
16.26.03.787,205.3,51.3,0,6.0,,41670.9,24.0,-0.25,0.72,0.63,1.0,5.9,-1.2,35.0,,,,,,,,,,
16.26.03.794,141.4,35.4,0,6.0,,45357.1,22.05,-0.24,0.72,0.63,1.2,4.8,-0.8,35.0,,,,,,,,,,
16.26.03.807,4.9,1.2,0,6.0,,42422.9,23.57,-0.25,0.72,0.63,1.4,5.6,-0.8,35.0,,,,,,,,,,
16.26.03.818,35.3,8.8,0,6.0,,46194.9,21.65,-0.25,0.72,0.63,0.7,5.9,-1.2,35.0,,,,,,,,,,
16.26.03.827,41.4,10.4,0,6.0,,41922.6,23.85,-0.24,0.72,0.64,-0.1,5.4,-1.2,35.0,,,,,,,,,,
16.26.03.835,12.5,3.1,0,6.0,,39938.6,25.04,-0.24,0.72,0.63,0.6,5.6,-1.3,35.0,,,,,,,,,,
16.26.03.847,16.2,4.0,0,6.0,,47748.7,20.94,-0.24,0.73,0.64,1.5,5.6,-0.7,35.0,,,,,,,,,,
16.26.03.855,116.3,29.1,0,6.0,,45270.1,22.09,-0.23,0.72,0.64,0.9,6.0,-0.8,35.0,,,,,,,,,,
16.26.03.868,110.2,27.6,0,6.0,,46521.9,21.5,-0.23,0.73,0.64,0.1,5.7,-1.5,35.0,,,,,,,,,,
16.26.03.876,44.5,11.1,0,6.0,,42477.2,23.54,-0.24,0.72,0.64,-0.2,5.3,-1.7,35.0,,,,,,,,,,
16.26.03.888,9.1,2.3,0,6.0,,40030.4,24.98,-0.23,0.72,0.64,0.3,5.3,-1.4,35.0,,,,,,,,,,
16.26.03.896,-11.5,2.9,0,6.0,,47446.5,21.08,-0.23,0.72,0.64,0.8,6.1,-1.1,35.0,,,,,,,,,,
16.26.03.909,2.0,0.5,0,6.0,,47757.8,20.94,-0.23,0.72,0.65,0.4,6.2,-1.2,35.0,,,,,,,,,,
16.26.03.917,25.2,6.3,0,6.0,,41960.9,23.83,-0.23,0.72,0.64,0.7,6.1,-1.4,35.0,,,,,,,,,,
16.26.03.929,-17.2,4.3,0,6.0,,48098.3,20.79,-0.23,0.72,0.64,0.5,5.8,-1.3,35.0,,,,,,,,,,
16.26.03.938,-0.7,0.2,0,6.0,,45066.1,22.19,-0.23,0.72,0.65,-0.4,5.6,-1.4,35.0,,,,,,,,,,
16.26.03.953,-74.7,18.7,0,6.0,,44127.1,22.66,-0.23,0.72,0.64,-0.7,6.0,-2.0,35.0,,,,,,,,,,
16.26.03.958,22.1,5.5,0,6.0,,42092.4,23.76,-0.24,0.72,0.64,1.2,5.7,-1.0,35.0,,,,,,,,,,
16.26.03.970,6.5,1.6,0,6.0,,46534.6,21.49,-0.23,0.73,0.64,1.7,6.0,-0.9,35.0,,,,,,,,,,
16.26.04.007,-141.8,35.4,0,6.0,,46270.9,21.61,-0.24,0.72,0.64,1.0,6.5,-1.2,35.06,,,,,,,,,,
16.26.04.015,-86.9,21.7,0,6.0,,46090.5,21.7,-0.24,0.72,0.63,1.4,5.4,-1.0,35.06,,,,,,,,,,
16.26.04.028,-123.4,30.8,0,6.0,,37893.3,26.39,-0.24,0.72,0.63,0.4,5.8,-1.8,35.06,,,,,,,,,,
16.26.04.038,-71.7,17.9,0,6.0,,43281.1,23.1,-0.24,0.72,0.63,0.7,5.6,-1.3,35.06,,,,,,,,,,
16.26.04.048,-126.9,31.7,0,6.0,,45040.0,22.2,-0.24,0.72,0.63,1.8,5.0,-0.9,35.06,,,,,,,,,,
16.26.04.056,-87.1,21.8,0,6.0,,44982.3,22.23,-0.23,0.72,0.63,1.6,6.8,-0.9,35.06,,,,,,,,,,
16.26.04.068,-96.1,24.0,0,6.0,,40064.1,24.96,-0.24,0.73,0.64,1.1,5.4,-0.7,35.06,,,,,,,,,,
16.26.04.077,-92.4,23.1,0,6.0,,46060.2,21.71,-0.24,0.72,0.64,1.1,5.3,-0.9,35.06,,,,,,,,,,
16.26.04.096,-128.1,32.0,0,6.0,,47736.6,20.95,-0.24,0.73,0.63,1.3,6.0,-1.1,35.06,,,,,,,,,,
16.26.04.098,-112.7,28.2,0,6.0,,39179.8,25.52,-0.24,0.72,0.63,1.7,5.4,-0.4,35.06,,,,,,,,,,
16.26.04.109,-176.4,44.1,0,6.0,,45018.0,22.21,-0.24,0.73,0.64,1.2,5.5,-1.2,35.06,,,,,,,,,,
16.26.04.117,-167.4,41.8,0,6.0,,41522.6,24.08,-0.24,0.73,0.63,0.8,6.0,-1.5,35.06,,,,,,,,,,
16.26.04.133,-255.6,63.9,0,6.0,,45000.7,22.22,-0.24,0.73,0.63,0.5,5.2,-1.5,35.06,,,,,,,,,,
16.26.04.138,-218.3,54.6,0,6.0,,41267.6,24.23,-0.24,0.72,0.64,0.5,5.3,-0.6,35.06,,,,,,,,,,
16.26.04.151,103.4,25.8,1,7.0,116.3,44668.3,22.39,-0.24,0.72,0.63,-0.2,5.7,-1.3,35.06,,,,,,,,,,
16.26.04.162,196.1,49.0,0,7.0,,44551.1,22.45,-0.24,0.72,0.64,0.3,5.6,-1.3,35.06,,,,,,,,,,
16.26.04.171,288.1,72.0,0,7.0,,49974.9,20.01,-0.23,0.73,0.64,0.6,5.9,-1.7,35.06,,,,,,,,,,
16.26.04.179,297.3,74.3,0,7.0,,48006.9,20.83,-0.23,0.72,0.64,0.1,6.0,-1.3,35.06,,,,,,,,,,
16.26.04.197,376.1,94.0,0,7.0,,49629.3,20.15,-0.23,0.72,0.64,0.0,5.5,-1.4,35.06,,,,,,,,,,
16.26.04.200,384.3,96.1,0,7.0,,42064.4,23.77,-0.23,,0.64,0.4,6.0,-1.4,35.06,,,,,,,,,,
16.26.04.218,498.8,124.7,0,7.0,,38743.3,25.81,-0.22,0.73,0.64,0.4,6.0,-1.4,35.06,,,,,,,,,,
16.26.04.220,533.8,133.4,0,7.0,,40421.5,24.74,-0.23,0.72,0.64,0.3,5.7,-1.5,35.06,,,,,,,,,,
16.26.04.232,462.0,115.5,0,7.0,,41726.1,23.97,-0.23,0.72,0.64,0.6,5.9,-1.4,35.06,,,,,,,,,,
16.26.04.240,434.2,108.6,0,7.0,,44826.9,22.31,-0.23,0.73,0.64,0.3,5.6,-1.5,35.06,,,,,,,,,,
16.26.04.253,534.3,133.6,0,7.0,,49633.4,20.15,-0.23,0.72,0.64,1.2,5.7,-1.4,35.06,,,,,,,,,,
16.26.04.261,414.2,103.6,0,7.0,,44387.0,22.53,-0.24,0.72,0.64,1.3,5.9,-1.3,35.06,,,,,,,,,,
16.26.04.273,361.0,90.2,0,7.0,,45879.7,21.8,-0.24,0.72,0.64,1.2,6.1,-1.2,35.06,,,,,,,,,,
16.26.04.282,388.4,97.1,0,7.0,,47268.2,21.16,-0.24,0.73,0.63,1.2,5.4,-0.9,35.06,,,,,,,,,,
16.26.04.294,247.9,62.0,0,7.0,,43141.2,23.18,-0.24,0.72,0.64,1.2,5.8,-1.2,35.06,,,,,,,,,,
16.26.04.306,99.0,24.8,0,7.0,,44969.2,22.24,-0.24,0.72,0.64,1.7,5.9,-1.2,35.06,,,,,,,,,,
16.26.04.314,52.4,13.1,0,7.0,,41257.8,24.24,-0.24,0.73,0.63,1.8,5.8,-1.3,35.06,,,,,,,,,,
16.26.04.326,10.6,2.6,0,7.0,,38353.7,26.07,-0.24,0.73,0.63,1.8,6.0,-1.0,35.06,,,,,,,,,,
16.26.04.339,50.2,12.6,0,7.0,,45338.6,22.06,-0.24,0.73,0.64,1.1,5.6,-1.2,35.06,,,,,,,,,,
16.26.04.347,39.0,9.8,0,7.0,,44745.2,22.35,-0.24,0.73,0.63,1.4,5.4,-1.4,35.06,,,,,,,,,,
16.26.04.360,118.1,29.5,0,7.0,,45117.9,22.16,-0.24,0.73,0.63,1.0,5.2,-1.1,35.06,,,,,,,,,,
16.26.04.372,113.5,28.4,0,7.0,,47692.4,20.97,-0.24,0.73,0.64,0.9,5.4,-1.1,35.06,,,,,,,,,,
16.26.04.384,47.1,11.8,0,7.0,,48888.1,20.45,-0.24,0.73,0.62,0.9,5.6,-1.1,35.06,,,,,,,,,,
16.26.04.392,46.2,11.6,0,7.0,,44347.1,22.55,-0.25,0.72,0.64,-0.2,5.0,-1.6,35.06,,,,,,,,,,
16.26.04.404,80.0,20.0,0,7.0,,41742.5,23.96,-0.24,0.72,0.64,-0.3,6.0,-1.8,35.06,,,,,,,,,,
16.26.04.417,-13.3,3.3,0,7.0,,42244.5,23.67,-0.24,0.72,0.64,0.2,5.5,-1.2,35.06,,,,,,,,,,
16.26.04.425,-19.9,5.0,0,7.0,,39714.7,25.18,-0.23,0.72,0.64,0.6,5.9,-1.3,35.06,,,,,,,,,,
16.26.04.437,-31.2,7.8,0,7.0,,49571.8,20.17,-0.23,0.72,0.63,0.2,6.8,-1.4,35.06,,,,,,,,,,
16.26.04.450,-51.9,13.0,0,7.0,,41243.6,24.25,-0.23,0.73,0.63,-0.3,5.4,-1.4,35.06,,,,,,,,,,
16.26.04.458,-45.9,11.5,0,7.0,,44997.3,22.22,-0.23,0.73,0.63,-0.3,5.9,-1.6,35.06,,,,,,,,,,
16.26.04.470,-57.9,14.5,0,7.0,,39592.2,25.26,-0.23,0.72,0.64,0.1,6.5,-1.5,35.06,,,,,,,,,,
16.26.04.482,-62.1,15.5,0,7.0,,45194.5,22.13,-0.23,0.72,0.64,-0.2,5.6,-1.6,35.06,,,,,,,,,,
16.26.04.490,-89.2,22.3,0,7.0,,43660.0,22.9,-0.23,0.72,0.64,-0.2,5.7,-1.8,35.06,,,,,,,,,,
16.26.04.503,-80.1,20.0,0,7.0,,39731.1,25.17,-0.23,0.72,0.64,-0.2,5.8,-1.6,35.06,,,,,,,,,,
16.26.04.515,-89.1,22.3,0,7.0,,41609.9,24.03,-0.23,0.72,0.64,0.2,6.2,-1.8,35.06,,,,,,,,,,
16.26.04.523,-85.2,21.3,0,7.0,,41850.6,23.89,-0.23,0.72,0.64,0.7,6.0,-1.3,35.06,,,,,,,,,,
16.26.04.536,-100.3,25.1,0,7.0,,45578.9,21.94,-0.23,0.72,0.64,1.3,6.2,-1.5,35.06,,,,,,,,,,
16.26.04.548,-90.8,22.7,0,7.0,,46594.3,21.46,-0.24,0.73,0.64,1.6,6.0,-0.9,35.06,,,,,,,,,,
16.26.04.556,-146.8,36.7,0,7.0,,45472.7,21.99,-0.23,0.73,0.63,1.5,5.9,-1.0,35.06,,,,,,,,,,
16.26.04.568,-102.9,25.7,0,7.0,,44443.3,22.5,-0.24,0.72,0.63,1.1,5.6,-1.3,35.06,,,,,,,,,,
16.26.04.581,-112.6,28.2,0,7.0,,45421.6,22.02,-0.24,0.73,0.64,1.1,5.8,-1.2,35.06,,,,,,,,,,
16.26.04.589,-112.6,28.2,0,7.0,,41816.3,23.91,-0.24,0.73,0.63,1.4,5.9,-0.9,35.06,,,,,,,,,,
16.26.04.601,-152.7,38.2,0,7.0,,44981.6,22.23,-0.24,0.73,0.64,1.7,5.8,-1.3,35.06,,,,,,,,,,
16.26.04.613,-64.8,16.2,0,7.0,,43996.4,22.73,-0.24,0.73,0.64,1.5,5.7,-0.7,35.06,,,,,,,,,,
16.26.04.622,-81.8,20.4,0,7.0,,43886.8,22.79,-0.24,0.73,0.63,1.4,5.4,-0.9,35.06,,,,,,,,,,
16.26.04.634,-208.0,52.0,0,7.0,,45059.7,22.19,-0.24,0.72,0.63,1.2,5.5,-1.1,35.06,,,,,,,,,,
16.26.04.642,-178.7,44.7,0,7.0,,40517.2,24.68,-0.24,0.72,0.63,1.4,5.4,-0.8,35.06,,,,,,,,,,
16.26.04.655,64.5,16.1,1,8.0,114.6,40215.6,24.87,-0.24,0.72,0.63,0.8,5.2,-1.1,35.06,,,,,,,,,,
16.26.04.667,84.7,21.2,0,8.0,,46816.8,21.36,-0.24,0.73,0.64,0.7,5.4,-1.2,35.06,,,,,,,,,,
16.26.04.675,255.1,63.8,0,8.0,,42831.0,23.35,-0.24,0.72,0.63,0.4,5.3,-1.4,35.06,,,,,,,,,,
16.26.04.687,284.9,71.2,0,8.0,,46669.1,21.43,-0.24,0.72,0.64,0.2,5.6,-1.7,35.06,,,,,,,,,,
16.26.04.700,375.5,93.9,0,8.0,,44111.7,22.67,-0.24,0.72,0.64,0.0,5.6,-1.2,35.06,,,,,,,,,,
16.26.04.708,438.1,109.5,0,8.0,,44323.5,22.56,-0.23,0.72,0.63,0.3,5.9,-1.3,35.06,,,,,,,,,,
16.26.04.720,458.7,114.7,0,8.0,,48399.2,20.66,-0.23,0.73,0.63,0.1,6.1,-1.7,35.06,,,,,,,,,,
16.26.04.732,551.4,137.8,0,8.0,,44647.0,22.4,-0.23,0.73,0.64,-0.4,5.8,-1.5,35.06,,,,,,,,,,
16.26.04.740,499.8,125.0,0,8.0,,42753.2,23.39,-0.23,0.72,0.64,-0.7,5.9,-1.6,35.06,,,,,,,,,,
16.26.04.759,434.5,108.6,0,8.0,,43098.5,23.2,-0.23,0.73,0.64,-0.2,5.8,-1.8,35.06,,,,,,,,,,
16.26.04.762,471.6,117.9,0,8.0,,46281.6,21.61,-0.23,0.72,0.63,-0.3,6.0,-1.8,35.06,,,,,,,,,,
16.26.04.773,395.3,98.8,0,8.0,,40211.7,24.87,-0.23,0.72,0.64,0.0,5.9,-1.7,35.06,,,,,,,,,,
16.26.04.815,111.8,28.0,0,8.0,,42127.5,23.74,-0.23,0.73,0.64,1.2,5.8,-1.1,35.06,,,,,,,,,,
16.26.04.827,-43.2,10.8,0,8.0,,40293.5,24.82,-0.24,0.73,0.64,1.1,5.9,-1.3,35.06,,,,,,,,,,
16.26.04.835,38.2,9.6,0,8.0,,42384.7,23.59,-0.24,0.73,0.63,1.0,6.1,-1.2,35.06,,,,,,,,,,
16.26.04.847,99.6,24.9,0,8.0,,43849.1,22.81,-0.24,0.72,0.63,0.8,5.5,-1.4,35.06,,,,,,,,,,
16.26.04.859,80.2,20.0,0,8.0,,43254.8,23.12,-0.24,0.72,0.64,1.1,5.4,-1.3,35.06,,,,,,,,,,
16.26.04.867,87.9,22.0,0,8.0,,40467.4,24.71,-0.23,0.73,0.64,1.4,5.9,-0.9,35.06,,,,,,,,,,
16.26.04.880,75.9,19.0,0,8.0,,44632.8,22.41,-0.24,0.72,0.64,1.6,6.0,-1.1,35.06,,,,,,,,,,
16.26.04.888,126.1,31.5,0,8.0,,45441.8,22.01,-0.24,0.72,0.63,1.5,5.7,-1.2,35.06,,,,,,,,,,
16.26.04.900,89.4,22.4,0,8.0,,44916.0,22.26,-0.24,0.73,0.63,1.3,5.4,-1.1,35.06,,,,,,,,,,
16.26.04.912,82.8,20.7,0,8.0,,48572.7,20.59,-0.24,0.73,0.62,0.7,5.6,-1.6,35.06,,,,,,,,,,
16.26.04.922,55.6,13.9,0,8.0,,46415.7,21.54,-0.24,0.73,0.62,0.3,5.3,-1.5,35.06,,,,,,,,,,
16.26.04.933,-21.3,5.3,0,8.0,,43372.0,23.06,-0.24,0.73,0.63,0.4,5.3,-1.3,35.06,,,,,,,,,,
16.26.04.946,29.8,7.4,0,8.0,,53973.5,18.53,-0.24,0.72,0.63,0.7,5.4,-1.3,35.06,,,,,,,,,,
16.26.04.953,-17.3,4.3,0,8.0,,40380.0,24.76,-0.24,0.72,0.64,0.1,5.2,-1.2,35.06,,,,,,,,,,
16.26.04.966,-35.9,9.0,0,8.0,,41694.7,23.98,-0.24,0.72,0.64,0.1,5.8,-1.6,35.06,,,,,,,,,,
16.26.04.978,-17.4,4.4,0,8.0,,43335.1,23.08,-0.23,0.72,0.63,0.1,5.8,-1.5,35.06,,,,,,,,,,
16.26.04.986,-18.6,4.6,0,8.0,,39041.1,25.61,-0.23,0.73,0.64,0.1,6.1,-1.6,35.06,,,,,,,,,,
16.26.04.998,-96.2,24.0,0,8.0,,48960.7,20.42,-0.23,0.72,0.64,-0.1,6.0,-1.7,35.06,,,,,,,,,,
16.26.05.007,-103.6,25.9,0,8.0,,41081.5,24.34,-0.23,0.72,0.64,-0.1,5.7,-1.5,35.06,,,,,,,,,,
16.26.05.019,-29.9,7.5,0,8.0,,41843.9,23.9,-0.23,0.72,0.64,-0.3,5.9,-1.5,35.06,,,,,,,,,,
16.26.05.031,-44.8,11.2,0,8.0,,44371.8,22.54,-0.23,0.73,0.64,-0.2,6.0,-1.8,35.06,,,,,,,,,,
16.26.05.039,-132.8,33.2,0,8.0,,45441.4,22.01,-0.23,0.72,0.64,0.0,5.7,-1.5,35.06,,,,,,,,,,
16.26.05.054,-129.5,32.4,0,8.0,,40924.6,24.44,-0.23,0.73,0.65,0.3,5.9,-1.6,35.06,,,,,,,,,,
16.26.05.064,-112.8,28.2,0,8.0,,41296.1,24.22,-0.23,0.72,0.64,0.2,5.9,-1.6,35.06,,,,,,,,,,
16.26.05.072,-138.6,34.6,0,8.0,,44726.9,22.36,-0.24,0.72,0.64,0.4,6.0,-1.6,35.06,,,,,,,,,,
16.26.05.086,-166.2,41.6,0,8.0,,44510.5,22.47,-0.24,0.72,0.63,0.5,6.0,-1.6,35.06,,,,,,,,,,
16.26.05.097,-115.0,28.8,0,8.0,,48308.7,20.7,-0.24,0.73,0.64,0.5,5.7,-1.1,35.06,,,,,,,,,,
16.26.05.109,-206.2,51.6,0,8.0,,45313.2,22.07,-0.24,0.72,0.64,0.8,6.1,-1.3,35.06,,,,,,,,,,
16.26.05.117,-128.4,32.1,0,8.0,,45383.7,22.03,-0.24,0.72,0.64,0.6,5.8,-1.5,35.06,,,,,,,,,,
16.26.05.130,-157.3,39.3,0,8.0,,45566.1,21.95,-0.24,0.72,0.64,1.2,5.6,-1.5,35.06,,,,,,,,,,
16.26.05.138,-210.2,52.6,0,8.0,,44714.6,22.36,-0.23,0.73,0.64,1.6,6.1,-0.9,35.06,,,,,,,,,,
16.26.05.150,-187.3,46.8,0,8.0,,41023.4,24.38,-0.23,0.73,0.63,1.8,6.1,-1.3,35.06,,,,,,,,,,
16.26.05.162,80.5,20.1,1,9.0,113.4,44699.6,22.37,-0.24,0.73,0.63,1.2,5.5,-1.1,35.06,,,,,,,,,,
16.26.05.171,141.4,35.4,0,9.0,,43296.5,23.1,-0.24,0.73,0.63,1.3,5.8,-1.2,35.06,,,,,,,,,,
16.26.05.183,190.5,47.6,0,9.0,,40363.1,24.78,-0.24,0.73,0.63,1.4,5.5,-1.1,35.06,,,,,,,,,,
16.26.05.200,298.9,74.7,0,9.0,,44700.8,22.37,-0.24,0.73,0.63,0.9,5.5,-1.2,35.06,,,,,,,,,,
16.26.05.203,326.3,81.6,0,9.0,,41301.5,24.21,-0.25,0.72,0.63,0.8,5.5,-1.2,35.06,,,,,,,,,,
16.26.05.216,451.5,112.9,0,9.0,,47050.5,21.25,-0.25,0.72,0.63,0.7,5.2,-1.1,35.06,,,,,,,,,,
16.26.05.224,423.6,105.9,0,9.0,,43014.6,23.25,-0.24,0.72,0.63,0.6,5.7,-1.3,35.06,,,,,,,,,,
16.26.05.236,462.7,115.7,0,9.0,,47488.9,21.06,-0.23,0.72,0.64,0.0,5.5,-1.6,35.06,,,,,,,,,,
16.26.05.248,470.3,117.6,0,9.0,,42401.6,23.58,-0.23,0.72,0.64,-0.6,5.1,-1.6,35.06,,,,,,,,,,
16.26.05.257,501.5,125.4,0,9.0,,45310.7,22.07,-0.23,0.72,0.65,-0.9,5.7,-2.2,35.06,,,,,,,,,,
16.26.05.269,533.8,133.4,0,9.0,,44028.8,22.71,-0.23,0.73,0.64,-0.6,7.3,-2.1,35.06,,,,,,,,,,
16.26.05.281,391.4,97.8,0,9.0,,42045.0,23.78,-0.23,0.73,0.64,0.3,6.5,-1.7,35.06,,,,,,,,,,
16.26.05.289,360.9,90.2,0,9.0,,43763.3,22.85,-0.23,0.73,0.64,0.6,6.0,-1.4,35.06,,,,,,,,,,
16.26.05.302,244.0,61.0,0,9.0,,44527.9,22.46,-0.23,0.72,0.63,0.2,7.1,-1.9,35.06,,,,,,,,,,
16.26.05.318,148.9,37.2,0,9.0,,45067.9,22.19,-0.23,0.73,0.63,0.2,6.2,-1.1,35.06,,,,,,,,,,
16.26.05.322,106.4,26.6,0,9.0,,40219.6,24.86,-0.23,0.73,0.63,0.1,6.2,-1.5,35.06,,,,,,,,,,
16.26.05.334,34.0,8.5,0,9.0,,45892.2,21.79,-0.23,0.72,0.65,-0.4,6.5,-1.6,35.06,,,,,,,,,,
16.26.05.343,24.7,6.2,0,9.0,,44353.9,22.55,-0.23,0.72,0.64,-1.2,6.2,-2.0,35.06,,,,,,,,,,
16.26.05.355,79.3,19.8,0,9.0,,45029.9,22.21,-0.23,0.71,0.64,-1.2,6.2,-1.6,35.06,,,,,,,,,,
16.26.05.367,50.6,12.6,0,9.0,,42005.4,23.81,-0.24,0.72,0.64,-0.3,6.7,-1.3,35.06,,,,,,,,,,
16.26.05.375,125.2,31.3,0,9.0,,40394.3,24.76,-0.24,0.72,0.64,0.6,7.0,-1.0,35.06,,,,,,,,,,
16.26.05.388,94.3,23.6,0,9.0,,41813.6,23.92,-0.24,0.73,0.64,0.6,6.9,-1.2,35.06,,,,,,,,,,
16.26.05.400,71.5,17.9,0,9.0,,46815.0,21.36,-0.24,0.73,0.64,0.5,5.9,-1.3,35.06,,,,,,,,,,
16.26.05.408,-11.5,2.9,0,9.0,,37487.8,26.68,-0.23,0.77,0.63,-1.7,5.2,-4.6,35.06,,,,,,,,,,
16.26.05.420,43.9,11.0,0,9.0,,43290.1,23.1,-0.25,0.68,0.67,2.0,6.8,1.2,35.06,,,,,,,,,,
16.26.05.433,37.6,9.4,0,9.0,,47886.7,20.88,-0.23,0.74,0.62,0.7,7.4,-2.2,35.06,,,,,,,,,,
16.26.05.441,-10.8,2.7,0,9.0,,43507.6,22.98,-0.25,0.71,0.63,6.1,5.7,2.6,35.06,,,,,,,,,,
16.26.05.453,-25.9,6.5,0,9.0,,44224.2,22.61,-0.24,0.73,0.63,6.1,6.6,2.1,35.06,,,,,,,,,,
16.26.05.466,-16.0,4.0,0,9.0,,40678.9,24.58,-0.25,0.73,0.62,4.0,7.8,1.5,35.06,,,,,,,,,,
16.26.05.474,-47.7,11.9,0,9.0,,45778.2,21.84,-0.24,0.74,0.62,1.4,4.9,-0.5,35.06,,,,,,,,,,
16.26.05.486,11.9,3.0,0,9.0,,45540.1,21.96,-0.25,0.74,0.63,0.9,2.9,1.0,35.06,,,,,,,,,,
16.26.05.495,-104.7,26.2,0,9.0,,42766.7,23.38,-0.24,0.73,0.64,2.1,5.5,0.7,35.06,,,,,,,,,,
16.26.05.507,-36.9,9.2,0,9.0,,43064.8,23.22,-0.24,0.72,0.63,0.7,5.5,-0.5,35.06,,,,,,,,,,
16.26.05.519,-52.4,13.1,0,9.0,,42196.4,23.7,-0.24,0.72,0.65,-0.4,3.1,-0.5,35.06,,,,,,,,,,
16.26.05.527,-90.3,22.6,0,9.0,,48324.8,20.69,-0.24,0.72,0.65,0.6,5.6,-1.0,35.06,,,,,,,,,,
16.26.05.540,-95.1,23.8,0,9.0,,48939.1,20.43,-0.24,0.71,0.64,1.7,6.4,-0.5,35.06,,,,,,,,,,
16.26.05.552,-93.2,23.3,0,9.0,,46236.3,21.63,-0.23,0.71,0.63,3.7,6.4,0.5,35.06,,,,,,,,,,
16.26.05.560,-110.0,27.5,0,9.0,,46537.4,21.49,-0.23,0.72,0.63,3.2,7.4,0.7,35.06,,,,,,,,,,
16.26.05.572,-107.9,27.0,0,9.0,,43919.6,22.77,-0.23,0.73,0.63,2.2,7.1,-0.3,35.06,,,,,,,,,,
16.26.05.613,-149.9,37.5,0,9.0,,44635.5,22.4,-0.23,0.74,0.63,3.0,6.0,0.2,35.06,116.3,,,,,,,,,
16.26.05.622,-132.0,33.0,0,9.0,,48081.2,20.8,-0.23,0.72,0.63,-3.3,3.5,-3.0,35.06,,,,,,,,,,
16.26.05.630,-133.6,33.4,0,9.0,,39122.4,25.56,-0.24,0.71,0.64,-3.3,3.6,-3.3,35.06,,,,,,,,,,
16.26.05.642,-217.5,54.4,0,9.0,,42461.7,23.55,-0.23,0.7,0.66,-1.5,4.7,-2.6,35.06,,,,,,,,,,
16.26.05.650,-210.7,52.7,0,9.0,,42822.6,23.35,-0.24,0.7,0.67,0.2,6.1,-1.6,35.06,,,,,,,,,,
16.26.05.662,-146.1,36.5,0,9.0,,43313.6,23.09,-0.23,0.71,0.66,2.4,7.0,-1.5,35.06,,,,,,,,,,
16.26.05.670,92.3,23.1,1,10.0,126.2,46749.9,21.39,-0.22,0.74,0.64,5.9,7.9,0.2,35.06,,,,,,,,,,
16.26.05.683,95.6,23.9,0,10.0,,45519.9,21.97,-0.22,0.74,0.61,7.0,8.7,0.8,35.06,,,,,,,,,,
16.26.05.695,279.2,69.8,0,10.0,,45621.1,21.92,-0.24,0.75,0.6,5.0,6.2,0.6,35.06,,,,,,,,,,
16.26.05.704,332.1,83.0,0,10.0,,46514.4,21.5,-0.24,0.74,0.61,2.7,6.0,0.1,35.06,,,,,,,,,,
16.26.05.716,380.1,95.0,0,10.0,,45770.9,21.85,-0.25,0.74,0.62,0.6,6.2,-1.8,35.06,,,,,,,,,,
16.26.05.728,400.4,100.1,0,10.0,,41583.6,24.05,-0.25,0.73,0.63,-1.3,3.8,-1.8,35.06,,,,,,,,,,
16.26.05.736,444.4,111.1,0,10.0,,45682.9,21.89,-0.24,0.73,0.63,-0.8,4.9,-2.1,35.06,,,,,,,,,,
16.26.05.749,504.4,126.1,0,10.0,,39689.8,25.2,-0.24,0.72,0.63,0.8,7.0,-1.4,35.06,,,,,,,,,,
16.26.05.761,528.7,132.2,0,10.0,,45244.2,22.1,-0.25,0.72,0.62,0.9,6.3,-1.2,35.06,,,,,,,,,,
16.26.05.769,521.9,130.5,0,10.0,,44782.3,22.33,-0.25,0.72,0.63,0.4,6.4,-1.4,35.06,,,,,,,,,,
16.26.05.781,419.9,105.0,0,10.0,,42822.7,23.35,-0.24,0.73,0.63,-0.6,6.0,-1.8,35.06,,,,,,,,,,
16.26.05.789,411.2,102.8,0,10.0,,44616.4,22.41,-0.23,0.74,0.64,-0.1,5.8,-2.1,35.06,,,,,,,,,,
16.26.05.802,308.1,77.0,0,10.0,,39221.2,25.5,-0.23,0.74,0.64,0.6,6.5,-1.6,35.06,,,,,,,,,,
16.26.05.814,231.7,57.9,0,10.0,,47797.2,20.92,-0.23,0.73,0.64,0.5,5.9,-1.6,35.06,,,,,,,,,,
16.26.05.822,186.0,46.5,0,10.0,,44698.0,22.37,-0.23,0.73,0.63,-0.4,5.9,-1.8,35.06,,,,,,,,,,
16.26.05.835,88.0,22.0,0,10.0,,47592.9,21.01,-0.22,0.73,0.63,-1.0,5.9,-1.8,35.06,,,,,,,,,,
16.26.05.847,21.1,5.3,0,10.0,,38009.4,26.31,-0.23,0.73,0.64,-1.4,5.6,-2.3,35.06,,,,,,,,,,
16.26.05.854,8.2,2.0,0,10.0,,41209.6,24.27,-0.22,0.73,0.64,-0.1,5.7,-1.3,35.06,,,,,,,,,,
16.26.05.867,31.0,7.8,0,10.0,,44924.9,22.26,-0.23,0.73,0.65,0.8,6.0,-0.7,35.06,,,,,,,,,,
16.26.05.880,59.7,14.9,0,10.0,,44689.6,22.38,-0.23,0.73,0.63,1.4,6.9,-1.1,35.06,,,,,,,,,,
16.26.05.888,137.0,34.2,0,10.0,,38489.3,25.98,-0.23,0.72,0.63,1.1,6.7,-1.0,35.06,,,,,,,,,,
16.26.05.900,135.3,33.8,0,10.0,,43338.9,23.07,-0.23,0.73,0.63,0.7,6.0,-1.1,35.06,,,,,,,,,,
16.26.05.913,53.4,13.4,0,10.0,,41958.5,23.83,-0.23,0.72,0.63,1.1,6.9,-1.3,35.06,,,,,,,,,,
16.26.05.921,64.0,16.0,0,10.0,,47095.2,21.23,-0.24,0.73,0.64,1.1,6.0,-1.0,35.06,,,,,,,,,,
16.26.05.933,1.8,0.4,0,10.0,,47950.4,20.85,-0.24,0.74,0.64,1.1,5.8,-0.8,35.06,,,,,,,,,,
16.26.05.945,-18.8,4.7,0,10.0,,49545.4,20.18,-0.24,0.73,0.64,1.0,5.6,-1.4,35.06,,,,,,,,,,
16.26.05.954,22.2,5.6,0,10.0,,43663.0,22.9,-0.24,0.71,0.64,1.2,5.1,-1.6,35.06,,,,,,,,,,
16.26.05.966,-28.2,7.0,0,10.0,,43977.9,22.74,-0.23,0.72,0.64,2.4,5.9,-0.9,35.06,,,,,,,,,,
16.26.05.974,-44.3,11.1,0,10.0,,40647.9,24.6,-0.23,0.73,0.63,3.4,5.9,-0.2,35.06,,,,,,,,,,
16.26.05.986,-39.7,9.9,0,10.0,,51011.7,19.6,-0.23,0.74,0.63,3.6,6.1,-0.1,35.06,,,,,,,,,,
16.26.05.998,-15.2,3.8,0,10.0,,48830.8,20.48,-0.24,0.74,0.63,2.8,5.2,-0.7,35.06,,,,,,,,,,
16.26.06.006,-70.7,17.7,0,10.0,,41276.1,24.23,-0.24,0.73,0.62,2.6,4.9,-0.7,35.06,,,,,,,,,,
16.26.06.019,-105.9,26.5,0,10.0,,46644.3,21.44,-0.25,0.73,0.62,2.0,5.1,-0.7,35.06,,,,,,,,,,
16.26.06.027,-126.3,31.6,0,10.0,,50645.4,19.75,-0.25,0.72,0.62,1.4,5.5,-1.3,35.06,,,,,,,,,,
16.26.06.039,-87.9,22.0,0,10.0,,40930.6,24.43,-0.25,0.73,0.62,1.2,5.6,-1.2,35.06,,,,,,,,,,
16.26.06.052,-86.3,21.6,0,10.0,,41274.6,24.23,-0.24,0.73,0.64,0.7,5.8,-0.9,35.06,,,,,,,,,,
16.26.06.060,-148.0,37.0,0,10.0,,44835.7,22.3,-0.24,0.73,0.63,0.1,6.2,-1.5,35.06,,,,,,,,,,
16.26.06.072,-72.0,18.0,0,10.0,,44143.5,22.65,-0.24,0.73,0.62,-1.1,5.6,-2.3,35.06,,,,,,,,,,
16.26.06.084,-157.4,39.4,0,10.0,,45015.2,22.21,-0.23,0.74,0.63,-1.2,5.1,-2.0,35.06,,,,,,,,,,
16.26.06.093,-137.4,34.4,0,10.0,,49694.4,20.12,-0.23,0.73,0.63,-0.7,5.9,-1.7,35.06,,,,,,,,,,
16.26.06.104,-145.0,36.2,0,10.0,,44862.2,22.29,-0.23,0.73,0.63,-0.7,6.3,-1.8,35.06,,,,,,,,,,
16.26.06.117,-179.4,44.8,0,10.0,,43328.6,23.08,-0.23,0.73,0.63,-0.5,5.8,-1.4,35.06,,,,,,,,,,
16.26.06.125,-187.7,46.9,0,10.0,,44653.8,22.39,-0.23,0.73,0.64,-0.5,6.7,-1.6,35.06,,,,,,,,,,
16.26.06.138,-205.2,51.3,0,10.0,,44488.7,22.48,-0.22,0.73,0.64,-1.0,5.8,-1.5,35.06,,,,,,,,,,
16.26.06.146,-167.5,41.9,0,10.0,,44370.0,22.54,-0.22,0.73,0.64,-0.7,5.6,-1.6,35.06,,,,,,,,,,
16.26.06.158,-168.5,42.1,0,10.0,,42806.1,23.36,-0.23,0.72,0.64,-0.6,6.2,-1.7,35.06,,,,,,,,,,
16.26.06.170,-187.9,47.0,0,10.0,,43077.3,23.21,-0.23,0.73,0.64,0.0,6.1,-1.3,35.06,,,,,,,,,,
16.26.06.179,41.6,10.4,1,11.0,117.6,43166.1,23.17,-0.24,0.72,0.64,0.9,6.3,-1.2,35.06,,,,,,,,,,
16.26.06.191,144.1,36.0,0,11.0,,43090.3,23.21,-0.24,0.72,0.63,1.2,6.2,-1.1,35.06,,,,,,,,,,
16.26.06.203,248.0,62.0,0,11.0,,46642.5,21.44,-0.25,0.73,0.63,0.7,6.1,-1.2,35.06,,,,,,,,,,
16.26.06.211,289.9,72.5,0,11.0,,42031.5,23.79,-0.24,0.73,0.63,0.6,5.9,-1.2,35.06,,,,,,,,,,
16.26.06.224,370.8,92.7,0,11.0,,42332.1,23.62,-0.24,0.73,0.63,0.8,5.8,-1.0,35.06,,,,,,,,,,
16.26.06.231,412.2,103.0,0,11.0,,46905.6,21.32,-0.24,0.73,0.63,0.9,5.8,-1.4,35.06,,,,,,,,,,
16.26.06.244,530.4,132.6,0,11.0,,43883.9,22.79,-0.24,0.73,0.63,1.0,6.2,-1.0,35.06,,,,,,,,,,
16.26.06.256,477.7,119.4,0,11.0,,42300.2,23.64,-0.24,0.73,0.63,1.5,6.3,-0.8,35.06,,,,,,,,,,
16.26.06.264,523.4,130.8,0,11.0,,46161.5,21.66,-0.24,0.73,0.63,1.6,6.0,-0.8,35.06,,,,,,,,,,
16.26.06.277,380.5,95.1,0,11.0,,53929.4,18.54,-0.25,0.73,0.62,1.8,5.8,-0.9,35.06,,,,,,,,,,
16.26.06.289,432.5,108.1,0,11.0,,46249.3,21.62,-0.24,0.73,0.63,1.1,5.6,-1.0,35.06,,,,,,,,,,
16.26.06.297,417.9,104.5,0,11.0,,43690.2,22.89,-0.24,0.73,0.63,1.1,5.0,-1.1,35.06,,,,,,,,,,
16.26.06.309,324.9,81.2,0,11.0,,46943.0,21.3,-0.24,0.73,0.63,1.2,5.1,-0.8,35.06,,,,,,,,,,
16.26.06.318,223.9,56.0,0,11.0,,49083.0,20.37,-0.24,0.73,0.63,0.9,6.0,-1.0,35.06,,,,,,,,,,
16.26.06.330,181.2,45.3,0,11.0,,40225.4,24.86,-0.24,0.72,0.62,0.1,5.9,-1.2,35.06,,,,,,,,,,
16.26.06.342,65.6,16.4,0,11.0,,46218.5,21.64,-0.23,0.73,0.63,-0.4,5.8,-1.1,35.06,,,,,,,,,,
16.26.06.351,-45.8,11.4,0,11.0,,45621.4,21.92,-0.23,0.73,0.63,-0.2,5.8,-1.3,35.06,,,,,,,,,,
16.26.06.363,36.7,9.2,0,11.0,,47172.7,21.2,-0.23,0.73,0.63,0.8,5.9,-1.0,35.06,,,,,,,,,,
16.26.06.375,91.8,23.0,0,11.0,,40161.0,24.9,-0.23,0.73,0.63,0.7,5.9,-0.8,35.06,,,,,,,,,,
16.26.06.412,20.0,5.0,0,11.0,,42461.4,23.55,-0.23,0.73,0.63,0.6,6.3,-1.3,35.06,,,,,,,,,,
16.26.06.425,48.6,12.2,0,11.0,,44400.6,22.52,-0.22,0.73,0.64,-0.1,5.9,-1.4,35.06,,,,,,,,,,
16.26.06.433,93.7,23.4,0,11.0,,46060.3,21.71,-0.22,0.72,0.63,0.2,5.7,-1.9,35.06,,,,,,,,,,
16.26.06.446,-8.8,2.2,0,11.0,,41607.9,24.03,-0.24,0.73,0.63,1.0,5.2,-1.3,35.06,,,,,,,,,,
16.26.06.457,-17.9,4.5,0,11.0,,46333.2,21.58,-0.24,0.72,0.63,2.1,6.5,-1.0,35.06,,,,,,,,,,
16.26.06.467,-24.4,6.1,0,11.0,,43694.6,22.89,-0.25,0.72,0.63,2.3,6.3,-0.8,35.06,,,,,,,,,,
16.26.06.478,-2.5,0.6,0,11.0,,41325.5,24.2,-0.24,0.73,0.62,2.1,6.1,-0.7,35.06,,,,,,,,,,
16.26.06.487,-52.6,13.2,0,11.0,,49141.6,20.35,-0.24,0.73,0.63,1.6,6.4,-0.8,35.06,,,,,,,,,,
16.26.06.498,-63.9,16.0,0,11.0,,45224.0,22.11,-0.23,0.73,0.63,1.6,5.8,-1.1,35.06,,,,,,,,,,
16.26.06.512,21.5,5.4,0,11.0,,46184.8,21.65,-0.23,0.74,0.63,1.2,5.5,-1.0,35.06,,,,,,,,,,
16.26.06.518,-66.2,16.6,0,11.0,,48410.7,20.66,-0.23,0.73,0.63,1.4,5.9,-1.2,35.06,,,,,,,,,,
16.26.06.531,-20.4,5.1,0,11.0,,44505.4,22.47,-0.24,0.73,0.63,1.7,5.7,-1.1,35.06,,,,,,,,,,
16.26.06.539,-91.6,22.9,0,11.0,,44290.4,22.58,-0.24,0.73,0.63,1.9,5.7,-0.8,35.06,,,,,,,,,,
16.26.06.551,-8.8,2.2,0,11.0,,46172.7,21.66,-0.24,0.74,0.62,1.3,6.1,-1.3,35.06,,,,,,,,,,
16.26.06.564,-144.9,36.2,0,11.0,,44391.6,22.53,-0.24,0.73,0.62,1.1,5.4,-0.9,35.06,,,,,,,,,,
16.26.06.572,-110.3,27.6,0,11.0,,44595.4,22.42,-0.25,0.73,0.62,0.3,5.5,-1.3,35.06,,,,,,,,,,
16.26.06.584,-132.9,33.2,0,11.0,,46865.4,21.34,-0.24,0.73,0.63,-0.2,5.5,-1.4,35.06,,,,,,,,,,
16.26.06.596,-144.4,36.1,0,11.0,,45104.2,22.17,-0.25,0.72,0.62,-0.7,5.7,-1.4,35.06,,,,,,,,,,
16.26.06.604,-105.0,26.2,0,11.0,,42907.3,23.31,-0.24,0.73,0.63,-1.2,6.2,-1.3,35.06,,,,,,,,,,
16.26.06.617,-114.7,28.7,0,11.0,,41049.8,24.36,-0.23,0.73,0.63,-1.1,6.7,-1.6,35.06,,,,,,,,,,
16.26.06.625,-188.5,47.1,0,11.0,,40542.3,24.67,-0.23,0.73,0.62,-1.6,6.6,-2.2,35.06,,,,,,,,,,
16.26.06.637,-137.2,34.3,0,11.0,,44258.2,22.59,-0.23,0.73,0.63,-2.5,6.4,-2.3,35.06,,,,,,,,,,
16.26.06.650,-156.4,39.1,0,11.0,,43235.9,23.13,-0.24,0.72,0.64,-2.4,7.3,-2.5,35.06,,,,,,,,,,
16.26.06.658,-182.5,45.6,0,11.0,,39200.2,25.51,-0.24,0.72,0.65,-2.0,7.2,-3.0,35.06,,,,,,,,,,
16.26.06.670,-211.6,52.9,0,11.0,,44049.7,22.7,-0.23,0.72,0.65,-0.7,6.8,-2.2,35.06,,,,,,,,,,
16.26.06.683,33.6,8.4,1,12.0,122.1,48358.5,20.68,-0.24,0.73,0.65,0.5,7.1,-2.0,35.06,,,,,,,,,,
16.26.06.691,124.2,31.0,0,12.0,,43277.4,23.11,-0.22,0.74,0.64,1.3,7.3,-1.7,35.06,,,,,,,,,,
16.26.06.703,182.3,45.6,0,12.0,,43990.9,22.73,-0.22,0.74,0.63,0.9,6.4,-2.0,35.06,,,,,,,,,,
16.26.06.715,296.4,74.1,0,12.0,,43580.6,22.95,-0.21,0.74,0.64,0.3,5.7,-2.0,35.06,,,,,,,,,,
16.26.06.723,295.3,73.8,0,12.0,,49906.2,20.04,-0.22,0.73,0.63,0.3,5.1,-1.8,35.06,,,,,,,,,,
16.26.06.736,374.0,93.5,0,12.0,,44898.3,22.27,-0.23,0.73,0.64,1.4,4.7,-0.8,35.06,,,,,,,,,,
16.26.06.744,429.7,107.4,0,12.0,,42854.1,23.34,-0.23,0.73,0.64,2.0,5.9,-0.9,35.06,,,,,,,,,,
16.26.06.756,448.3,112.1,0,12.0,,45258.6,22.1,-0.24,0.73,0.63,1.9,4.7,-0.9,35.06,,,,,,,,,,
16.26.06.769,514.5,128.6,0,12.0,,43700.6,22.88,-0.23,0.73,0.64,2.0,3.1,-0.8,35.06,,,,,,,,,,
16.26.06.777,465.8,116.4,0,12.0,,38166.1,26.2,-0.24,0.72,0.64,1.7,2.7,-0.4,35.06,,,,,,,,,,
16.26.06.789,453.3,113.3,0,12.0,,43035.6,23.24,-0.23,0.72,0.64,5.1,5.6,0.4,35.06,,,,,,,,,,
16.26.06.797,432.2,108.0,0,12.0,,43621.7,22.92,-0.23,0.73,0.61,6.0,3.8,1.5,35.06,,,,,,,,,,
16.26.06.810,408.5,102.1,0,12.0,,40732.0,24.55,-0.23,0.74,0.63,4.8,3.3,1.8,35.06,,,,,,,,,,
16.26.06.822,290.3,72.6,0,12.0,,43430.2,23.03,-0.24,0.74,0.63,4.8,5.2,0.6,35.06,,,,,,,,,,
16.26.06.830,251.9,63.0,0,12.0,,42125.4,23.74,-0.24,0.73,0.61,3.9,4.4,-0.7,35.06,,,,,,,,,,
16.26.06.844,102.6,25.6,0,12.0,,41311.9,24.21,-0.24,0.73,0.62,4.4,1.5,0.3,35.06,,,,,,,,,,
16.26.06.850,113.9,28.5,0,12.0,,43743.9,22.86,-0.24,0.74,0.63,5.6,4.8,0.1,35.06,,,,,,,,,,
16.26.06.862,51.1,12.8,0,12.0,,45092.0,22.18,-0.25,0.73,0.63,5.7,5.6,-0.2,35.06,,,,,,,,,,
16.26.06.875,66.2,16.6,0,12.0,,47365.2,21.11,-0.24,0.71,0.62,5.7,3.8,0.3,35.06,,,,,,,,,,
16.26.06.883,79.9,20.0,0,12.0,,43330.7,23.08,-0.24,0.71,0.62,7.0,5.8,-0.1,35.06,,,,,,,,,,
16.26.06.895,83.8,21.0,0,12.0,,47408.8,21.09,-0.23,0.72,0.61,5.7,6.7,0.7,35.06,,,,,,,,,,
16.26.06.904,104.0,26.0,0,12.0,,42861.6,23.33,-0.23,0.74,0.6,2.9,6.8,1.0,35.06,,,,,,,,,,
16.26.06.916,86.9,21.7,0,12.0,,35469.0,28.19,-0.22,0.76,0.61,-0.7,6.2,-0.2,35.06,,,,,,,,,,
16.26.06.929,39.6,9.9,0,12.0,,48313.3,20.7,-0.23,0.75,0.62,-2.7,5.9,-2.0,35.06,,,,,,,,,,
16.26.06.937,117.2,29.3,0,12.0,,47859.1,20.89,-0.23,0.74,0.63,-2.7,6.7,-2.6,35.06,,,,,,,,,,
16.26.06.949,-7.1,1.8,0,12.0,,40452.0,24.72,-0.24,0.73,0.65,-0.9,6.9,-1.9,35.06,,,,,,,,,,
16.26.06.961,15.3,3.8,0,12.0,,46579.9,21.47,-0.24,0.72,0.63,1.0,8.5,-2.4,35.06,,,,,,,,,,
16.26.06.969,-4.7,1.2,0,12.0,,45706.8,21.88,-0.22,0.71,0.62,1.9,10.1,-1.9,35.06,,,,,,,,,,
16.26.06.982,-31.0,7.8,0,12.0,,43365.4,23.06,-0.22,0.74,0.62,2.0,7.5,-0.2,35.06,,,,,,,,,,
16.26.06.994,-73.6,18.4,0,12.0,,46890.5,21.33,-0.22,0.75,0.63,2.4,10.1,-0.3,35.06,,,,,,,,,,
16.26.07.002,-2.5,0.6,0,12.0,,43572.9,22.95,-0.23,0.75,0.63,1.0,8.8,-1.0,35.06,,,,,,,,,,
16.26.07.014,-23.8,6.0,0,12.0,,45880.3,21.8,-0.23,0.74,0.63,-1.5,8.8,-2.7,35.06,,,,,,,,,,
16.26.07.022,-27.6,6.9,0,12.0,,44627.1,22.41,-0.24,0.74,0.63,1.5,13.0,-1.9,35.06,,,,,,,,,,
16.26.07.035,-34.1,8.5,0,12.0,,46498.9,21.51,-0.23,0.73,0.62,5.6,8.2,0.9,35.06,,,,,,,,,,
16.26.07.047,6.3,1.6,0,12.0,,41940.1,23.84,-0.24,0.74,0.64,5.4,9.6,0.9,35.06,,,,,,,,,,
16.26.07.055,-99.7,24.9,0,12.0,,47290.4,21.15,-0.24,0.76,0.62,8.0,9.1,1.7,35.06,,,,,,,,,,
16.26.07.067,-23.8,6.0,0,12.0,,46175.6,21.66,-0.23,0.75,0.62,7.9,5.3,2.8,35.06,,,,,,,,,,
16.26.07.076,-113.9,28.5,0,12.0,,47997.7,20.83,-0.23,0.74,0.62,7.6,10.2,0.9,35.06,,,,,,,,,,
16.26.07.089,-116.2,29.0,0,12.0,,43793.6,22.83,-0.24,0.72,0.61,8.5,11.1,1.6,35.06,,,,,,,,,,
16.26.07.101,-144.2,36.0,0,12.0,,47777.8,20.93,-0.24,0.73,0.62,9.2,8.8,2.5,35.06,,,,,,,,,,
16.26.07.109,-163.3,40.8,0,12.0,,43625.6,22.92,-0.25,0.74,0.63,7.8,11.9,1.6,35.06,,,,,,,,,,
16.26.07.121,-207.9,52.0,0,12.0,,42691.6,23.42,-0.25,0.73,0.61,3.8,9.6,0.5,35.06,,,,,,,,,,
16.26.07.133,-177.5,44.4,0,12.0,,41628.4,24.02,-0.25,0.75,0.6,3.9,7.7,0.9,35.06,,,,,,,,,,
16.26.07.141,-151.7,37.9,0,12.0,,45395.5,22.03,-0.25,0.75,0.6,4.3,8.2,0.5,35.06,,,,,,,,,,
16.26.07.154,-174.6,43.6,0,12.0,,46189.4,21.65,-0.24,0.75,0.6,1.7,9.6,-0.6,35.06,,,,,,,,,,
16.26.07.162,-173.9,43.5,0,12.0,,36142.4,27.67,-0.24,0.75,0.61,1.3,7.4,-0.6,35.06,,,,,,,,,,
16.26.07.174,-159.8,40.0,0,12.0,,49331.7,20.27,-0.24,0.74,0.61,0.0,4.0,-0.5,35.06,,,,,,,,,,
16.26.07.216,282.4,70.6,1,13.0,118.7,45198.4,22.12,-0.24,0.73,0.62,1.1,9.1,-1.6,35.06,,,,,,,,,,
16.26.07.223,260.8,65.2,0,13.0,,46343.6,21.58,-0.22,0.73,0.61,-0.6,9.1,-2.9,35.06,,,,,,,,,,
16.26.07.231,302.2,75.6,0,13.0,,41520.4,24.08,-0.23,0.74,0.62,0.2,8.4,-2.4,35.06,,,,,,,,,,
16.26.07.244,480.4,120.1,0,13.0,,44583.7,22.43,-0.23,0.75,0.62,0.8,9.6,-2.4,35.06,,,,,,,,,,
16.26.07.256,518.4,129.6,0,13.0,,45443.6,22.01,-0.23,0.75,0.6,1.0,9.1,-2.0,35.06,,,,,,,,,,
16.26.07.264,479.8,120.0,0,13.0,,41417.5,24.14,-0.22,0.76,0.61,1.5,7.8,-1.2,35.06,,,,,,,,,,
16.26.07.276,538.6,134.6,0,13.0,,51271.1,19.5,-0.23,0.76,0.61,1.3,8.0,-1.2,35.06,,,,,,,,,,
16.26.07.286,539.6,134.9,0,13.0,,41998.0,23.81,-0.23,0.74,0.62,0.4,6.8,-1.5,35.06,,,,,,,,,,
16.26.07.298,373.4,93.4,0,13.0,,44465.9,22.49,-0.24,0.74,0.63,-0.1,5.7,-1.6,35.06,,,,,,,,,,
16.26.07.310,395.2,98.8,0,13.0,,46753.4,21.39,-0.23,0.74,0.63,1.1,6.9,-1.6,35.06,,,,,,,,,,
16.26.07.317,405.6,101.4,0,13.0,,43634.5,22.92,-0.23,0.74,0.62,2.2,6.8,-1.2,35.06,,,,,,,,,,
16.26.07.331,298.0,74.5,0,13.0,,41388.2,24.16,-0.23,0.75,0.62,2.5,7.3,-0.8,35.06,,,,,,,,,,
16.26.07.342,221.1,55.3,0,13.0,,43078.1,23.21,-0.24,0.75,0.61,3.5,9.3,-0.8,35.06,,,,,,,,,,
16.26.07.350,73.0,18.2,0,13.0,,42601.3,23.47,-0.24,0.74,0.61,2.5,8.6,-1.0,35.06,,,,,,,,,,
16.26.07.362,28.5,7.1,0,13.0,,42634.7,23.46,-0.25,0.75,0.6,3.2,8.1,-0.6,35.06,,,,,,,,,,
16.26.07.370,14.8,3.7,0,13.0,,44406.3,22.52,-0.24,0.75,0.6,3.2,9.0,-0.4,35.06,,,,,,,,,,
16.26.07.383,-30.3,7.6,0,13.0,,46020.5,21.73,-0.25,0.75,0.6,1.5,7.7,-0.8,35.06,,,,,,,,,,
16.26.07.395,98.7,24.7,0,13.0,,45544.5,21.96,-0.25,0.74,0.6,1.1,7.2,-1.4,35.06,,,,,,,,,,
16.26.07.403,79.7,19.9,0,13.0,,41946.9,23.84,-0.25,0.74,0.6,0.7,7.1,-1.6,35.06,,,,,,,,,,
16.26.07.416,73.7,18.4,0,13.0,,45194.3,22.13,-0.26,0.74,0.59,0.9,6.7,-1.4,35.06,,,,,,,,,,
16.26.07.424,101.2,25.3,0,13.0,,41928.0,23.85,-0.24,0.75,0.6,0.5,7.3,-1.2,35.06,,,,,,,,,,
16.26.07.436,93.8,23.4,0,13.0,,47790.2,20.92,-0.24,0.75,0.61,-0.4,6.6,-1.1,35.06,,,,,,,,,,
16.26.07.449,42.4,10.6,0,13.0,,46106.1,21.69,-0.23,0.74,0.61,-0.4,6.8,-1.5,35.06,,,,,,,,,,
16.26.07.457,20.5,5.1,0,13.0,,45876.2,21.8,-0.24,0.75,0.62,0.5,6.5,-1.4,35.06,,,,,,,,,,
16.26.07.469,32.3,8.1,0,13.0,,41430.6,24.14,-0.24,0.73,0.63,0.4,6.7,-1.2,35.06,,,,,,,,,,
16.26.07.481,13.5,3.4,0,13.0,,46977.7,21.29,-0.24,0.73,0.62,-0.1,8.1,-2.1,35.06,,,,,,,,,,
16.26.07.489,-6.5,1.6,0,13.0,,47251.8,21.16,-0.24,0.73,0.62,0.0,8.1,-2.2,35.06,,,,,,,,,,
16.26.07.503,-82.4,20.6,0,13.0,,42708.6,23.41,-0.23,0.74,0.61,1.0,9.6,-2.0,35.06,,,,,,,,,,
16.26.07.510,-61.6,15.4,0,13.0,,42217.9,23.69,-0.23,0.75,0.61,2.5,9.9,-1.1,35.06,,,,,,,,,,
16.26.07.522,-80.5,20.1,0,13.0,,44538.6,22.45,-0.24,0.76,0.61,3.9,9.5,-0.5,35.06,,,,,,,,,,
16.26.07.534,-105.8,26.4,0,13.0,,42999.1,23.26,-0.24,0.76,0.61,4.2,9.4,0.0,35.06,,,,,,,,,,
16.26.07.543,-107.2,26.8,0,13.0,,44859.3,22.29,-0.24,0.76,0.61,4.0,8.2,-0.1,35.06,,,,,,,,,,
16.26.07.555,-60.8,15.2,0,13.0,,43029.5,23.24,-0.24,0.74,0.61,3.2,7.8,-0.3,35.06,,,,,,,,,,
16.26.07.567,-38.0,9.5,0,13.0,,44404.0,22.52,-0.24,0.75,0.61,3.3,7.2,-0.3,35.06,,,,,,,,,,
16.26.07.576,-43.8,11.0,0,13.0,,40271.7,24.83,-0.24,0.75,0.61,3.9,6.6,-0.2,35.06,,,,,,,,,,
16.26.07.588,-104.3,26.1,0,13.0,,43836.5,22.81,-0.25,0.74,0.61,4.6,6.9,-0.5,35.06,,,,,,,,,,
16.26.07.596,-104.4,26.1,0,13.0,,42721.6,23.41,-0.25,0.74,0.61,4.8,6.3,-0.1,35.06,,,,,,,,,,
16.26.07.608,-164.3,41.1,0,13.0,,43438.7,23.02,-0.25,0.75,0.6,4.5,6.7,-0.6,35.06,,,,,,,,,,
16.26.07.621,-133.2,33.3,0,13.0,,45620.2,21.92,-0.25,0.75,0.59,3.1,6.1,-1.4,35.06,,,,,,,,,,
16.26.07.629,-164.7,41.2,0,13.0,,42229.1,23.68,-0.25,0.75,0.58,1.6,5.1,-1.4,35.06,,,,,,,,,,
16.26.07.641,-180.8,45.2,0,13.0,,51044.8,19.59,-0.25,0.76,0.59,2.4,4.9,-1.4,35.06,,,,,,,,,,
16.26.07.654,-107.0,26.8,0,13.0,,49424.8,20.23,-0.25,0.76,0.6,2.7,5.9,-1.2,35.06,,,,,,,,,,
16.26.07.662,-193.2,48.3,0,13.0,,49043.7,20.39,-0.25,0.76,0.6,1.9,5.0,-1.1,35.06,,,,,,,,,,
16.26.07.674,-149.7,37.4,0,13.0,,39985.6,25.01,-0.24,0.75,0.6,1.1,4.4,-1.5,35.06,,,,,,,,,,
16.26.07.682,-202.0,50.5,0,13.0,,45075.6,22.18,-0.24,0.75,0.6,0.9,5.5,-1.6,35.06,,,,,,,,,,
16.26.07.694,-8.2,2.0,1,14.0,114.7,39203.7,25.51,-0.24,0.74,0.6,1.4,5.9,-1.0,35.06,,,,,,,,,,
16.26.07.707,179.2,44.8,0,14.0,,40150.2,24.91,-0.24,0.74,0.6,2.0,6.1,-0.7,35.06,,,,,,,,,,
16.26.07.715,170.1,42.5,0,14.0,,39824.4,25.11,-0.24,0.75,0.6,1.6,6.5,-1.0,35.06,,,,,,,,,,
16.26.07.727,273.4,68.4,0,14.0,,46133.7,21.68,-0.24,0.76,0.6,1.1,6.0,-0.8,35.06,,,,,,,,,,
16.26.07.735,351.6,87.9,0,14.0,,41674.6,24.0,-0.24,0.76,0.6,1.8,6.6,-0.9,35.06,,,,,,,,,,
16.26.07.748,395.5,98.9,0,14.0,,40787.4,24.52,-0.24,0.75,0.6,2.4,6.0,-0.5,35.06,,,,,,,,,,
16.26.07.760,421.5,105.4,0,14.0,,42347.8,23.61,-0.24,0.75,0.61,1.6,6.1,-0.8,35.06,,,,,,,,,,
16.26.07.768,463.2,115.8,0,14.0,,45746.7,21.86,-0.23,0.75,0.61,0.6,6.3,-1.4,35.06,,,,,,,,,,
16.26.07.780,474.5,118.6,0,14.0,,43351.8,23.07,-0.24,0.74,0.61,0.5,6.3,-1.5,35.06,,,,,,,,,,
16.26.07.793,478.6,119.6,0,14.0,,47884.2,20.88,-0.23,0.75,0.6,1.2,6.6,-1.4,35.06,,,,,,,,,,
16.26.07.801,526.4,131.6,0,14.0,,46368.2,21.57,-0.24,0.76,0.61,1.3,7.3,-1.2,35.06,,,,,,,,,,
16.26.07.813,425.1,106.3,0,14.0,,45628.0,21.92,-0.24,0.75,0.6,0.9,6.9,-1.5,35.06,,,,,,,,,,
16.26.07.821,401.5,100.4,0,14.0,,49427.4,20.23,-0.24,0.75,0.6,1.0,6.9,-1.7,35.06,,,,,,,,,,
16.26.07.834,324.3,81.1,0,14.0,,46313.3,21.59,-0.24,0.75,0.59,1.4,7.3,-1.5,35.06,,,,,,,,,,
16.26.07.846,205.2,51.3,0,14.0,,40834.0,24.49,-0.25,0.75,0.6,1.4,7.9,-1.8,35.06,,,,,,,,,,
16.26.07.854,171.4,42.8,0,14.0,,43737.5,22.86,-0.24,0.75,0.6,0.3,7.6,-2.5,35.06,,,,,,,,,,
16.26.07.866,20.5,5.1,0,14.0,,47892.6,20.88,-0.24,0.76,0.6,-0.2,7.4,-2.5,35.06,,,,,,,,,,
16.26.07.879,37.1,9.3,0,14.0,,49299.6,20.28,-0.23,0.76,0.59,-0.8,7.8,-2.4,35.06,,,,,,,,,,
16.26.07.887,73.9,18.5,0,14.0,,41381.6,24.17,-0.24,0.76,0.6,-1.3,7.9,-2.8,35.06,,,,,,,,,,
16.26.07.900,52.2,13.0,0,14.0,,44557.4,22.44,-0.24,0.76,0.61,-0.7,7.6,-2.6,35.06,,,,,,,,,,
16.26.07.907,58.4,14.6,0,14.0,,51535.8,19.4,-0.24,0.75,0.61,0.3,7.8,-2.2,35.06,,,,,,,,,,
16.26.07.919,111.5,27.9,0,14.0,,37829.9,26.43,-0.26,0.76,0.59,2.0,8.5,-1.0,35.06,,,,,,,,,,
16.26.07.932,143.9,36.0,0,14.0,,40963.8,24.41,-0.26,0.75,0.59,3.1,9.1,-0.8,35.06,,,,,,,,,,
16.26.07.940,128.3,32.1,0,14.0,,38403.3,26.04,-0.26,0.75,0.59,4.1,10.2,-0.9,35.06,,,,,,,,,,
16.26.07.952,56.6,14.2,0,14.0,,46912.4,21.32,-0.26,0.74,0.58,2.7,8.1,-0.7,35.06,,,,,,,,,,
16.26.07.965,33.8,8.4,0,14.0,,40188.0,24.88,-0.24,0.75,0.58,5.4,9.3,-0.2,35.06,,,,,,,,,,
16.26.07.973,-15.3,3.8,0,14.0,,43863.4,22.8,-0.25,0.75,0.6,4.9,7.1,0.6,35.06,,,,,,,,,,
16.26.08.014,-76.7,19.2,0,14.0,,49498.7,20.2,-0.24,0.75,0.6,2.0,9.9,-1.3,35.06,,,,,,,,,,
16.26.08.026,-48.8,12.2,0,14.0,,43247.0,23.12,-0.26,0.76,0.58,4.4,8.6,-0.1,35.06,,,,,,,,,,
16.26.08.034,-82.6,20.6,0,14.0,,42429.7,23.57,-0.25,0.76,0.59,4.7,8.3,0.4,35.06,,,,,,,,,,
16.26.08.046,-115.8,29.0,0,14.0,,46041.3,21.72,-0.24,0.76,0.59,2.3,8.3,-1.0,35.06,,,,,,,,,,
16.26.08.054,-45.6,11.4,0,14.0,,44548.4,22.45,-0.25,0.76,0.6,-1.3,5.7,-2.4,35.06,,,,,,,,,,
16.26.08.067,-86.3,21.6,0,14.0,,47417.3,21.09,-0.24,0.75,0.61,-3.0,3.8,-3.2,35.06,,,,,,,,,,
16.26.08.075,-110.1,27.5,0,14.0,,51813.3,19.3,-0.24,0.75,0.62,-2.1,4.5,-3.3,35.06,,,,,,,,,,
16.26.08.088,-43.6,10.9,0,14.0,,43894.9,22.78,-0.25,0.75,0.62,1.0,5.4,-2.4,35.06,,,,,,,,,,
16.26.08.097,-94.2,23.6,0,14.0,,42153.9,23.72,-0.25,0.75,0.6,4.0,6.5,-1.8,35.06,,,,,,,,,,
16.26.08.108,-66.7,16.7,0,14.0,,52617.5,19.01,-0.25,0.75,0.59,4.5,6.7,-1.1,35.06,,,,,,,,,,
16.26.08.116,-76.5,19.1,0,14.0,,47877.8,20.89,-0.26,0.75,0.58,4.8,6.6,-1.4,35.06,,,,,,,,,,
16.26.08.128,-164.4,41.1,0,14.0,,49342.9,20.27,-0.25,0.76,0.59,5.1,5.8,-0.7,35.06,,,,,,,,,,
16.26.08.137,-191.2,47.8,0,14.0,,45561.1,21.95,-0.24,0.76,0.59,4.7,6.8,-1.1,35.06,,,,,,,,,,
16.26.08.149,-137.1,34.3,0,14.0,,39028.4,25.62,-0.25,0.75,0.59,4.1,5.1,-1.4,35.06,,,,,,,,,,
16.26.08.157,-65.8,16.4,0,14.0,,42395.3,23.59,-0.25,0.76,0.6,3.1,3.8,-1.7,35.06,,,,,,,,,,
16.26.08.169,-163.7,40.9,0,14.0,,42803.4,23.36,-0.25,0.76,0.61,2.9,4.0,-2.0,35.06,,,,,,,,,,
16.26.08.178,-135.9,34.0,0,14.0,,49026.9,20.4,-0.24,0.76,0.59,2.3,4.4,-2.6,35.06,,,,,,,,,,
16.26.08.190,-213.1,53.3,0,14.0,,43788.2,22.84,-0.24,0.75,0.59,2.2,3.9,-2.5,35.06,,,,,,,,,,
16.26.08.199,-217.6,54.4,0,14.0,,45023.9,22.21,-0.25,0.75,0.59,2.8,4.6,-2.0,35.06,,,,,,,,,,
16.26.08.210,49.8,12.4,1,15.0,121.5,41085.5,24.34,-0.25,0.75,0.58,3.4,5.9,-1.7,35.06,,,,,,,,,,
16.26.08.219,136.5,34.1,0,15.0,,47325.6,21.13,-0.26,0.75,0.6,2.9,5.6,-1.1,35.06,,,,,,,,,,
16.26.08.231,227.1,56.8,0,15.0,,48300.4,20.7,-0.25,0.75,0.59,2.2,5.5,-1.8,35.06,,,,,,,,,,
16.26.08.239,275.8,69.0,0,15.0,,44599.6,22.42,-0.25,0.75,0.6,2.1,5.3,-2.0,35.06,,,,,,,,,,
16.26.08.252,348.8,87.2,0,15.0,,44563.8,22.44,-0.25,0.75,0.58,2.1,6.5,-2.4,35.06,,,,,,,,,,
16.26.08.260,407.2,101.8,0,15.0,,45679.1,21.89,-0.25,0.75,0.59,3.0,6.8,-2.1,35.06,,,,,,,,,,
16.26.08.272,377.0,94.2,0,15.0,,44661.0,22.39,-0.22,0.75,0.61,2.0,5.6,-3.7,35.06,,,,,,,,,,
16.26.08.280,490.6,122.6,0,15.0,,47084.4,21.24,-0.22,0.74,0.61,-5.4,7.6,-6.7,35.06,,,,,,,,,,
16.26.08.293,498.3,124.6,0,15.0,,45507.5,21.97,-0.22,0.74,0.6,-6.5,12.8,-9.3,35.06,,,,,,,,,,
16.26.08.301,578.0,144.5,0,15.0,,45137.2,22.15,-0.26,0.76,0.58,-3.1,6.7,-4.6,35.06,,,,,,,,,,
16.26.08.313,364.7,91.2,0,15.0,,43846.1,22.81,-0.3,0.79,0.57,9.4,10.0,1.7,35.06,,,,,,,,,,
16.26.08.321,438.9,109.7,0,15.0,,45031.5,22.21,-0.3,0.82,0.57,15.2,3.7,5.3,35.06,,,,,,,,,,
16.26.08.333,351.8,88.0,0,15.0,,43604.0,22.93,-0.27,0.8,0.59,9.5,3.8,1.1,35.06,,,,,,,,,,
16.26.08.342,251.0,62.8,0,15.0,,45341.1,22.06,-0.25,0.76,0.58,-0.7,0.3,-3.1,35.06,,,,,,,,,,
16.26.08.354,236.3,59.1,0,15.0,,43005.9,23.25,-0.22,0.72,0.59,-3.8,-3.0,-5.0,35.06,,,,,,,,,,
16.26.08.362,163.1,40.8,0,15.0,,42993.1,23.26,-0.21,0.71,0.59,-2.5,4.1,-4.4,35.06,,,,,,,,,,
16.26.08.375,45.7,11.4,0,15.0,,45265.1,22.09,-0.24,0.73,0.59,-0.7,8.8,-3.6,35.06,,,,,,,,,,
16.26.08.387,11.1,2.8,0,15.0,,46698.3,21.41,-0.26,0.74,0.58,0.1,5.9,-1.9,35.06,,,,,,,,,,
16.26.08.395,40.9,10.2,0,15.0,,37354.2,26.77,-0.25,0.77,0.58,1.9,6.0,-1.5,35.06,,,,,,,,,,
16.26.08.404,94.8,23.7,0,15.0,,43084.8,23.21,-0.27,0.81,0.6,4.4,6.5,-0.4,35.06,,,,,,,,,,
16.26.08.416,88.1,22.0,0,15.0,,43093.6,23.21,-0.26,0.79,0.59,5.3,5.2,0.3,35.06,,,,,,,,,,
16.26.08.424,110.2,27.6,0,15.0,,45250.5,22.1,-0.27,0.77,0.59,4.6,3.4,-0.8,35.06,,,,,,,,,,
16.26.08.436,51.7,12.9,0,15.0,,45784.9,21.84,-0.25,0.76,0.59,3.3,2.7,-1.8,35.06,,,,,,,,,,
16.26.08.445,121.9,30.5,0,15.0,,50293.3,19.88,-0.23,0.75,0.58,2.8,4.2,-1.3,35.06,,,,,,,,,,
16.26.08.457,7.2,1.8,0,15.0,,42266.1,23.66,-0.24,0.74,0.57,2.2,4.5,-1.6,35.06,,,,,,,,,,
16.26.08.465,-25.4,6.4,0,15.0,,49668.7,20.13,-0.24,0.75,0.57,1.4,5.2,-1.6,35.06,,,,,,,,,,
16.26.08.477,-7.1,1.8,0,15.0,,38108.3,26.24,-0.25,0.76,0.58,0.3,5.8,-1.4,35.06,,,,,,,,,,
16.26.08.485,35.6,8.9,0,15.0,,39556.2,25.28,-0.26,0.76,0.58,0.6,6.0,-1.4,35.06,,,,,,,,,,
16.26.08.497,-54.3,13.6,0,15.0,,40553.0,24.66,-0.26,0.77,0.59,1.1,5.9,-1.4,35.06,,,,,,,,,,
16.26.08.506,-30.3,7.6,0,15.0,,48295.9,20.71,-0.27,0.76,0.59,1.8,4.9,-1.3,35.06,,,,,,,,,,
16.26.08.518,-52.8,13.2,0,15.0,,45620.5,21.92,-0.26,0.76,0.58,2.7,5.3,-1.1,35.06,,,,,,,,,,
16.26.08.526,-9.0,2.2,0,15.0,,48095.1,20.79,-0.26,0.76,0.59,2.4,5.7,-1.1,35.06,,,,,,,,,,
16.26.08.538,-34.7,8.7,0,15.0,,49270.0,20.3,-0.24,0.76,0.58,1.6,5.8,-1.7,35.06,,,,,,,,,,
16.26.08.547,-90.5,22.6,0,15.0,,43968.2,22.74,-0.24,0.76,0.58,0.4,5.1,-1.7,35.06,,,,,,,,,,
16.26.08.559,-104.9,26.2,0,15.0,,44594.4,22.42,-0.25,0.76,0.59,-0.6,5.1,-2.3,35.06,,,,,,,,,,
16.26.08.567,-21.3,5.3,0,15.0,,44286.0,22.58,-0.25,0.76,0.59,-0.6,5.9,-2.3,35.06,,,,,,,,,,
16.26.08.579,-133.3,33.3,0,15.0,,45454.0,22.0,-0.25,0.76,0.59,-0.3,6.6,-2.1,35.06,,,,,,,,,,
16.26.08.588,-118.0,29.5,0,15.0,,47619.4,21.0,-0.26,0.76,0.57,0.4,6.5,-2.5,35.06,,,,,,,,,,
16.26.08.600,-129.2,32.3,0,15.0,,43947.8,22.75,-0.25,0.77,0.59,2.0,7.5,-1.3,35.06,,,,,,,,,,
16.26.08.608,-93.6,23.4,0,15.0,,47009.7,21.27,-0.25,0.77,0.59,2.6,6.3,-0.8,35.06,,,,,,,,,,
16.26.08.620,-79.6,19.9,0,15.0,,45380.5,22.04,-0.25,0.76,0.58,1.2,5.1,-0.4,35.06,,,,,,,,,,
16.26.08.629,-128.4,32.1,0,15.0,,48770.2,20.5,-0.25,0.76,0.59,1.4,5.7,-1.3,35.06,,,,,,,,,,
16.26.08.642,-170.4,42.6,0,15.0,,41175.4,24.29,-0.25,0.75,0.6,1.9,2.3,-2.5,35.06,,,,,,,,,,
16.26.08.649,-158.9,39.7,0,15.0,,46228.7,21.63,-0.26,0.72,0.61,-1.1,2.8,0.5,35.06,,,,,,,,,,
16.26.08.661,-118.8,29.7,0,15.0,,38580.4,25.92,-0.24,0.74,0.59,-0.7,6.2,-2.6,35.06,,,,,,,,,,
16.26.08.669,-175.4,43.8,0,15.0,,41684.6,23.99,-0.25,0.76,0.55,3.0,9.7,-1.8,35.06,,,,,,,,,,
16.26.08.682,-149.6,37.4,0,15.0,,42479.1,23.54,-0.24,0.8,0.53,10.3,12.9,2.4,35.06,,,,,,,,,,
16.26.08.690,-198.7,49.7,0,15.0,,44189.0,22.63,-0.25,0.82,0.55,9.2,10.5,2.9,35.06,,,,,,,,,,
16.26.08.702,-175.3,43.8,0,15.0,,48501.2,20.62,-0.28,0.77,0.56,1.4,8.7,-2.2,35.06,,,,,,,,,,
16.26.08.710,68.0,17.0,1,16.0,119.1,43627.8,22.92,-0.26,0.75,0.58,-1.2,6.2,-4.4,35.06,,,,,,,,,,
16.26.08.722,111.7,27.9,0,16.0,,40620.2,24.62,-0.26,0.74,0.62,-0.4,0.6,-3.4,35.06,,,,,,,,,,
16.26.08.731,177.9,44.5,0,16.0,,48778.5,20.5,-0.26,0.73,0.62,-0.1,4.5,-2.6,35.06,,,,,,,,,,
16.26.08.743,316.1,79.0,0,16.0,,40912.7,24.44,-0.25,0.72,0.61,-0.8,5.9,-3.5,35.06,,,,,,,,,,
16.26.08.751,329.3,82.3,0,16.0,,47278.5,21.15,-0.26,0.74,0.6,0.7,6.3,-1.8,35.06,,,,,,,,,,
16.26.08.764,389.2,97.3,0,16.0,,38883.4,25.72,-0.25,0.77,0.56,5.1,9.5,0.7,35.06,,,,,,,,,,
16.26.08.773,381.7,95.4,0,16.0,,41902.8,23.86,-0.25,0.8,0.56,7.7,11.7,1.8,35.06,,,,,,,,,,
16.26.08.784,435.6,108.9,0,16.0,,43067.5,23.22,-0.25,0.8,0.56,4.8,9.9,0.7,35.06,,,,,,,,,,
16.26.08.821,445.2,111.3,0,16.0,,41786.9,23.93,-0.26,0.78,0.56,0.1,9.5,-2.3,35.06,,,,,,,,,,
16.26.08.829,421.0,105.2,0,16.0,,46888.6,21.33,-0.26,0.75,0.6,2.2,5.1,-0.9,35.06,,,,,,,,,,
16.26.08.843,345.6,86.4,0,16.0,,38822.2,25.76,-0.25,0.76,0.6,1.5,9.0,-1.1,35.06,,,,,,,,,,
16.26.08.850,253.8,63.4,0,16.0,,44291.0,22.58,-0.24,0.8,0.58,2.5,8.4,-1.4,35.06,,,,,,,,,,
16.26.08.862,134.0,33.5,0,16.0,,43528.6,22.97,-0.25,0.76,0.56,3.4,4.7,0.5,35.06,,,,,,,,,,
16.26.08.870,162.1,40.5,0,16.0,,44648.1,22.4,-0.25,0.8,0.58,4.6,9.1,-0.7,35.06,,,,,,,,,,
16.26.08.883,41.5,10.4,0,16.0,,43458.8,23.01,-0.27,0.75,0.57,4.0,8.6,-1.3,35.06,,,,,,,,,,
16.26.08.890,43.9,11.0,0,16.0,,44551.2,22.45,-0.25,0.76,0.57,3.4,6.2,-1.1,35.06,,,,,,,,,,
16.26.08.903,82.4,20.6,0,16.0,,41626.7,24.02,-0.26,0.76,0.59,2.2,5.3,-1.7,35.06,,,,,,,,,,
16.26.08.911,38.6,9.6,0,16.0,,43527.5,22.97,-0.27,0.75,0.58,2.1,5.3,-2.3,35.06,,,,,,,,,,
16.26.08.924,84.9,21.2,0,16.0,,44530.8,22.46,-0.26,0.75,0.59,1.3,6.5,-2.5,35.06,,,,,,,,,,
16.26.08.931,30.6,7.6,0,16.0,,45739.1,21.86,-0.25,0.76,0.58,2.1,5.5,-1.2,35.06,,,,,,,,,,
16.26.08.940,92.9,23.2,0,16.0,,49958.5,20.02,-0.25,0.77,0.57,3.0,6.4,-0.2,35.06,,,,,,,,,,
16.26.08.952,-22.9,5.7,0,16.0,,45002.6,22.22,-0.25,0.78,0.56,4.2,7.7,-0.7,35.06,,,,,,,,,,
16.26.08.960,11.2,2.8,0,16.0,,49651.9,20.14,-0.26,0.78,0.56,3.0,6.5,-0.3,35.06,,,,,,,,,,
16.26.08.974,32.3,8.1,0,16.0,,43285.1,23.1,-0.25,0.77,0.57,1.0,6.5,-1.6,35.06,,,,,,,,,,
16.26.08.982,-2.2,0.6,0,16.0,,42572.4,23.49,-0.26,0.76,0.57,0.1,6.9,-2.6,35.06,,,,,,,,,,
16.26.08.993,-82.5,20.6,0,16.0,,41675.2,24.0,-0.26,0.75,0.58,2.2,6.0,-1.3,35.06,,,,,,,,,,
16.26.09.002,-40.2,10.0,0,16.0,,42485.1,23.54,-0.26,0.76,0.6,0.8,6.6,-1.9,35.06,,,,,,,,,,
16.26.09.014,-28.1,7.0,0,16.0,,40791.4,24.51,-0.26,0.76,0.59,-0.6,6.1,-2.5,35.06,,,,,,,,,,
16.26.09.027,-3.0,0.8,0,16.0,,36583.0,27.34,-0.25,0.77,0.57,0.6,6.4,-1.7,35.06,,,,,,,,,,
16.26.09.034,-29.2,7.3,0,16.0,,43053.6,23.23,-0.25,0.78,0.56,3.4,8.4,-0.8,35.06,,,,,,,,,,
16.26.09.046,11.5,2.9,0,16.0,,47423.2,21.09,-0.25,0.79,0.55,4.2,11.3,-0.8,35.06,,,,,,,,,,
16.26.09.058,-57.8,14.4,0,16.0,,48977.6,20.42,-0.25,0.79,0.55,2.4,9.8,-1.4,35.06,,,,,,,,,,
16.26.09.067,-63.6,15.9,0,16.0,,45916.9,21.78,-0.26,0.77,0.55,0.7,8.6,-2.7,35.06,,,,,,,,,,
16.26.09.080,-132.3,33.1,0,16.0,,40924.8,24.44,-0.25,0.77,0.57,2.0,9.3,-2.7,35.06,,,,,,,,,,
16.26.09.091,-76.1,19.0,0,16.0,,41156.6,24.3,-0.27,0.76,0.58,3.3,4.5,-1.4,35.06,,,,,,,,,,
16.26.09.100,-85.4,21.4,0,16.0,,44007.9,22.72,-0.27,0.75,0.6,1.7,6.0,-3.0,35.06,,,,,,,,,,
16.26.09.113,-113.6,28.4,0,16.0,,44537.4,22.45,-0.26,0.74,0.6,-0.5,5.3,-2.2,35.06,,,,,,,,,,
16.26.09.124,-134.9,33.7,0,16.0,,45501.2,21.98,-0.25,0.76,0.61,0.4,6.7,-2.7,35.06,,,,,,,,,,
16.26.09.132,-96.2,24.0,0,16.0,,40350.7,24.78,-0.25,0.74,0.56,2.0,8.0,-0.1,35.06,,,,,,,,,,
16.26.09.144,-128.3,32.1,0,16.0,,42661.5,23.44,-0.25,0.77,0.56,3.4,7.0,-0.3,35.06,,,,,,,,,,
16.26.09.157,-215.7,53.9,0,16.0,,43021.6,23.24,-0.27,0.77,0.56,3.1,7.6,1.0,35.06,,,,,,,,,,
16.26.09.165,-145.6,36.4,0,16.0,,45012.1,22.22,-0.26,0.79,0.56,1.9,7.1,-2.4,35.06,,,,,,,,,,
16.26.09.177,-156.9,39.2,0,16.0,,45931.4,21.77,-0.27,0.76,0.59,2.7,6.4,-1.0,35.06,,,,,,,,,,
16.26.09.190,-165.1,41.3,0,16.0,,46687.9,21.42,-0.27,0.76,0.57,2.7,6.6,-1.1,35.06,,,,,,,,,,
16.26.09.198,-209.4,52.4,0,16.0,,46981.3,21.29,-0.26,0.76,0.56,3.1,5.4,-1.0,35.06,,,,,,,,,,
16.26.09.210,-161.6,40.4,0,16.0,,44141.9,22.65,-0.27,0.76,0.57,2.9,6.4,-1.4,35.06,,,,,,,,,,
16.26.09.222,41.9,10.5,1,17.0,117.2,42699.3,23.42,-0.26,0.77,0.56,1.7,7.2,-1.4,35.06,,,,,,,,,,
16.26.09.231,129.8,32.4,0,17.0,,47303.7,21.14,-0.26,0.78,0.56,1.1,7.8,-1.7,35.06,,,,,,,,,,
16.26.09.242,183.2,45.8,0,17.0,,44839.4,22.3,-0.26,0.78,0.55,0.3,7.8,-1.1,35.06,,,,,,,,,,
16.26.09.251,267.4,66.8,0,17.0,,42027.2,23.79,-0.25,0.78,0.56,0.9,8.1,-0.9,35.06,,,,,,,,,,
16.26.09.263,313.6,78.4,0,17.0,,49254.0,20.3,-0.25,0.81,0.57,0.9,8.4,-0.6,35.06,,,,,,,,,,
16.26.09.276,449.6,112.4,0,17.0,,45710.8,21.88,-0.26,0.77,0.58,0.6,10.6,-2.1,35.06,,,,,,,,,,
16.26.09.284,509.8,127.4,0,17.0,,41100.4,24.33,-0.26,0.75,0.59,0.2,13.8,-4.9,35.06,,,,,,,,,,
16.26.09.296,499.2,124.8,0,17.0,,47565.2,21.02,-0.27,0.76,0.59,1.0,7.8,-2.7,35.06,,,,,,,,,,
16.26.09.308,529.6,132.4,0,17.0,,43599.1,22.94,-0.27,0.76,0.59,6.6,8.0,0.2,35.06,,,,,,,,,,
16.26.09.317,464.0,116.0,0,17.0,,44206.3,22.62,-0.26,0.77,0.57,4.9,10.3,-1.5,35.06,,,,,,,,,,
16.26.09.329,467.7,116.9,0,17.0,,42338.7,23.62,-0.27,0.77,0.55,5.6,12.1,-2.0,35.06,,,,,,,,,,
16.26.09.337,443.0,110.8,0,17.0,,48091.3,20.79,-0.26,0.79,0.54,3.2,10.2,-0.6,35.06,,,,,,,,,,
16.26.09.350,344.8,86.2,0,17.0,,43812.5,22.82,-0.26,0.78,0.52,3.1,10.9,-1.8,35.06,,,,,,,,,,
16.26.09.362,246.8,61.7,0,17.0,,44627.5,22.41,-0.26,0.79,0.54,1.1,8.6,-2.8,35.06,,,,,,,,,,
16.26.09.370,142.5,35.6,0,17.0,,46437.2,21.53,-0.27,0.77,0.56,-1.8,7.7,-3.9,35.06,,,,,,,,,,
16.26.09.382,125.0,31.2,0,17.0,,41721.8,23.97,-0.26,0.76,0.58,-1.4,7.5,-4.4,35.06,,,,,,,,,,
16.26.09.396,24.3,6.1,0,17.0,,42653.9,23.44,-0.28,0.76,0.58,-4.4,8.4,-4.0,35.06,,,,,,,,,,
16.26.09.403,10.1,2.5,0,17.0,,43822.4,22.82,-0.26,0.77,0.56,0.5,11.6,-4.9,35.06,,,,,,,,,,
16.26.09.415,36.6,9.2,0,17.0,,38810.4,25.77,-0.27,0.77,0.55,3.7,11.0,0.6,35.06,,,,,,,,,,
16.26.09.423,35.5,8.9,0,17.0,,52008.0,19.23,-0.27,0.78,0.56,5.7,15.8,0.2,35.06,,,,,,,,,,
16.26.09.435,87.3,21.8,0,17.0,,42848.4,23.34,-0.27,0.77,0.55,2.2,10.8,-1.1,35.06,,,,,,,,,,
16.26.09.448,66.7,16.7,0,17.0,,42356.3,23.61,-0.27,0.75,0.58,0.7,10.3,-2.8,35.06,,,,,,,,,,
16.26.09.457,82.5,20.6,0,17.0,,44644.5,22.4,-0.27,0.77,0.58,-2.1,8.9,-3.8,35.06,,,,,,,,,,
16.26.09.468,36.2,9.0,0,17.0,,45951.3,21.76,-0.27,0.76,0.59,0.2,9.7,-2.5,35.06,,,,,,,,,,
16.26.09.481,-10.5,2.6,0,17.0,,43712.4,22.88,-0.27,0.76,0.57,1.8,9.7,-1.4,35.06,,,,,,,,,,
16.26.09.490,17.2,4.3,0,17.0,,44829.6,22.31,-0.27,0.78,0.57,5.1,11.2,-0.6,35.06,,,,,,,,,,
16.26.09.501,-35.0,8.8,0,17.0,,44596.6,22.42,-0.27,0.79,0.55,6.6,10.1,0.7,35.06,,,,,,,,,,
16.26.09.510,-1.5,0.4,0,17.0,,44811.3,22.32,-0.28,0.79,0.55,5.7,10.8,-0.6,35.06,,,,,,,,,,
16.26.09.525,-68.6,17.2,0,17.0,,45754.3,21.86,-0.28,0.77,0.55,5.6,8.8,-1.1,35.06,,,,,,,,,,
16.26.09.534,-63.4,15.8,0,17.0,,51885.4,19.27,-0.26,0.78,0.54,4.7,5.0,-1.0,35.06,,,,,,,,,,
16.26.09.542,-70.0,17.5,0,17.0,,49580.5,20.17,-0.27,0.77,0.57,3.6,6.7,-1.0,35.06,,,,,,,,,,
16.26.09.554,-0.5,0.1,0,17.0,,46093.7,21.69,-0.27,0.76,0.56,2.6,8.1,-1.9,35.06,,,,,,,,,,
16.26.09.567,-50.2,12.6,0,17.0,,45504.9,21.98,-0.27,0.78,0.57,4.8,8.0,-0.3,35.06,,,,,,,,,,
16.26.09.580,-50.1,12.5,0,17.0,,42102.4,23.75,-0.28,0.79,0.55,6.1,10.6,-0.3,35.06,,,,,,,,,,
16.26.09.587,-125.4,31.4,0,17.0,,39304.2,25.44,-0.27,0.78,0.54,4.6,11.6,-2.1,35.06,,,,,,,,,,
16.26.09.628,-70.5,17.6,0,17.0,,46065.5,21.71,-0.28,0.77,0.56,4.1,8.8,-1.7,35.06,,,,,,,,,,
16.26.09.640,-149.0,37.2,0,17.0,,46488.3,21.51,-0.28,0.77,0.56,2.2,9.3,-2.2,35.06,,,,,,,,,,
16.26.09.648,-95.9,24.0,0,17.0,,44673.9,22.38,-0.28,0.77,0.56,3.6,8.3,-0.6,35.06,,,,,,,,,,
16.26.09.661,-147.1,36.8,0,17.0,,35962.8,27.81,-0.27,0.78,0.55,5.3,10.2,-0.6,35.06,,,,,,,,,,
16.26.09.673,-183.4,45.8,0,17.0,,42486.1,23.54,-0.28,0.79,0.54,5.5,10.5,-0.4,35.06,,,,,,,,,,
16.26.09.685,-127.3,31.8,0,17.0,,44804.1,22.32,-0.28,0.79,0.54,5.7,8.5,0.3,35.06,,,,,,,,,,
16.26.09.693,-226.6,56.6,0,17.0,,39800.3,25.13,-0.27,0.79,0.54,5.1,9.8,-0.8,35.06,,,,,,,,,,
16.26.09.707,-202.2,50.6,0,17.0,,47110.8,21.23,-0.28,0.78,0.54,2.9,11.8,-2.6,35.06,,,,,,,,,,
16.26.09.718,-184.7,46.2,0,17.0,,44401.1,22.52,-0.29,0.76,0.55,1.9,8.7,-2.0,35.06,,,,,,,,,,
16.26.09.726,81.6,20.4,1,18.0,123.2,41045.6,24.36,-0.29,0.76,0.56,2.7,7.8,-0.8,35.06,,,,,,,,,,
16.26.09.738,109.7,27.4,0,18.0,,39793.9,25.13,-0.29,0.77,0.55,4.0,12.1,-1.5,35.06,,,,,,,,,,
16.26.09.750,265.0,66.2,0,18.0,,44323.0,22.56,-0.29,0.78,0.54,4.4,8.9,0.2,35.06,,,,,,,,,,
16.26.09.763,354.7,88.7,0,18.0,,45852.2,21.81,-0.29,0.79,0.54,5.2,8.4,0.7,35.06,,,,,,,,,,
16.26.09.771,347.4,86.8,0,18.0,,39855.4,25.09,-0.28,0.79,0.53,4.2,11.0,-1.2,35.06,,,,,,,,,,
16.26.09.784,392.1,98.0,0,18.0,,43124.4,23.19,-0.28,0.79,0.53,2.2,8.8,-2.1,35.06,,,,,,,,,,
16.26.09.796,441.7,110.4,0,18.0,,45627.3,21.92,-0.28,0.78,0.54,2.1,7.9,-1.4,35.06,,,,,,,,,,
16.26.09.805,466.2,116.6,0,18.0,,40639.2,24.61,-0.28,0.78,0.55,3.0,10.3,-1.4,35.06,,,,,,,,,,
16.26.09.816,423.2,105.8,0,18.0,,47077.1,21.24,-0.29,0.78,0.54,3.0,9.9,-1.7,35.06,,,,,,,,,,
16.26.09.828,488.5,122.1,0,18.0,,44234.5,22.61,-0.29,0.78,0.54,3.2,9.4,-1.9,35.06,,,,,,,,,,
16.26.09.841,443.7,110.9,0,18.0,,43753.2,22.86,-0.29,0.79,0.53,3.8,11.0,-1.3,35.06,,,,,,,,,,
16.26.09.849,349.5,87.4,0,18.0,,47058.7,21.25,-0.29,0.78,0.53,2.2,11.7,-1.9,35.06,,,,,,,,,,
16.26.09.861,294.6,73.6,0,18.0,,47748.8,20.94,-0.29,0.77,0.53,1.8,7.7,-0.5,35.06,,,,,,,,,,
16.26.09.874,248.1,62.0,0,18.0,,40708.8,24.56,-0.29,0.78,0.54,0.8,10.2,-1.6,35.06,,,,,,,,,,
16.26.09.882,128.1,32.0,0,18.0,,47646.8,20.99,-0.29,0.78,0.54,0.1,11.1,-2.4,35.06,,,,,,,,,,
16.26.09.894,33.8,8.4,0,18.0,,48690.9,20.54,-0.29,0.79,0.54,2.3,7.3,0.7,35.06,,,,,,,,,,
16.26.09.906,-17.7,4.4,0,18.0,,42026.3,23.79,-0.29,0.8,0.53,3.0,11.6,0.0,35.06,,,,,,,,,,
16.26.09.919,88.8,22.2,0,18.0,,46113.6,21.69,-0.28,0.8,0.53,2.1,11.7,-1.0,35.06,,,,,,,,,,
16.26.09.927,29.8,7.4,0,18.0,,43530.8,22.97,-0.29,0.78,0.54,1.0,8.3,-0.5,35.06,,,,,,,,,,
16.26.09.939,75.5,18.9,0,18.0,,44053.7,22.7,-0.28,0.78,0.54,0.9,9.3,-0.9,35.06,,,,,,,,,,
16.26.09.951,121.0,30.2,0,18.0,,44946.5,22.25,-0.29,0.78,0.54,1.6,9.4,-0.6,35.06,,,,,,,,,,
16.26.09.959,94.1,23.5,0,18.0,,38850.4,25.74,-0.28,0.78,0.54,2.9,9.6,0.2,35.06,,,,,,,,,,
16.26.09.972,81.1,20.3,0,18.0,,38618.5,25.89,-0.29,0.78,0.54,2.9,10.5,-0.1,35.06,,,,,,,,,,
16.26.09.984,24.8,6.2,0,18.0,,38993.1,25.65,-0.28,0.79,0.53,3.5,10.5,-0.1,35.06,,,,,,,,,,
16.26.09.993,51.3,12.8,0,18.0,,47992.5,20.84,-0.29,0.8,0.52,3.4,12.2,-0.5,35.06,,,,,,,,,,
16.26.10.004,55.8,14.0,0,18.0,,45267.6,22.09,-0.29,0.79,0.53,3.7,10.3,-0.4,35.06,,,,,,,,,,
16.26.10.017,42.6,10.6,0,18.0,,43065.0,23.22,-0.29,0.79,0.53,3.6,8.5,0.2,35.06,,,,,,,,,,
16.26.10.025,-5.3,1.3,0,18.0,,48511.0,20.61,-0.29,0.79,0.53,2.6,9.1,-0.9,35.06,,,,,,,,,,
16.26.10.037,-36.9,9.2,0,18.0,,45973.9,21.75,-0.29,0.8,0.53,3.9,6.4,0.3,35.06,,,,,,,,,,
16.26.10.050,-72.7,18.2,0,18.0,,46898.6,21.32,-0.29,0.79,0.54,4.0,8.2,-0.3,35.06,,,,,,,,,,
16.26.10.058,-26.9,6.7,0,18.0,,48805.7,20.49,-0.29,0.78,0.53,3.8,7.9,-0.6,35.06,,,,,,,,,,
16.26.10.070,-8.2,2.0,0,18.0,,35835.1,27.91,-0.29,0.78,0.53,2.9,6.2,-0.5,35.06,,,,,,,,,,
16.26.10.082,-15.0,3.8,0,18.0,,43529.8,22.97,-0.29,0.78,0.52,3.3,6.7,0.0,35.06,,,,,,,,,,
16.26.10.091,-76.1,19.0,0,18.0,,47499.9,21.05,-0.29,0.79,0.52,3.4,7.6,-0.7,35.06,,,,,,,,,,
16.26.10.103,-85.0,21.2,0,18.0,,46979.1,21.29,-0.29,0.79,0.53,4.1,7.0,0.3,35.06,,,,,,,,,,
16.26.10.115,-73.8,18.4,0,18.0,,41381.2,24.17,-0.29,0.79,0.53,3.5,7.3,-0.4,35.06,,,,,,,,,,
16.26.10.123,-91.9,23.0,0,18.0,,42891.7,23.31,-0.29,0.79,0.53,3.3,7.6,-0.8,35.06,,,,,,,,,,
16.26.10.137,-95.4,23.8,0,18.0,,44668.0,22.39,-0.29,0.79,0.52,3.0,6.2,-1.3,35.06,,,,,,,,,,
16.26.10.148,-150.1,37.5,0,18.0,,45389.5,22.03,-0.29,0.79,0.52,3.3,6.7,-1.2,35.06,,,,,,,,,,
16.26.10.159,-64.2,16.0,0,18.0,,45589.6,21.93,-0.28,0.78,0.52,3.4,6.5,-1.0,35.06,,,,,,,,,,
16.26.10.168,-148.9,37.2,0,18.0,,43952.7,22.75,-0.29,0.81,0.53,3.3,7.1,0.5,35.06,,,,,,,,,,
16.26.10.181,-161.9,40.5,0,18.0,,42825.3,23.35,-0.29,0.78,0.52,4.2,8.7,0.1,35.06,,,,,,,,,,
16.26.10.193,-128.5,32.1,0,18.0,,43319.5,23.08,-0.29,0.81,0.52,1.7,4.4,0.0,35.06,,,,,,,,,,
16.26.10.201,-167.6,41.9,0,18.0,,51078.2,19.58,-0.29,0.78,0.52,3.5,6.6,0.1,35.06,,,,,,,,,,
16.26.10.214,-162.8,40.7,0,18.0,,41483.2,24.11,-0.29,0.79,0.51,2.4,4.2,0.1,35.06,,,,,,,,,,
16.26.10.226,-194.8,48.7,0,18.0,,42917.4,23.3,-0.29,0.79,0.52,4.6,8.6,-0.1,35.06,,,,,,,,,,
16.26.10.234,80.3,20.1,1,19.0,117.8,47361.6,21.11,-0.3,0.8,0.52,3.2,5.7,-0.2,35.06,,,,,,,,,,
16.26.10.246,181.0,45.2,0,19.0,,43804.1,22.83,-0.28,0.8,0.52,4.7,7.1,-0.1,35.06,,,,,,,,,,
16.26.10.258,173.3,43.3,0,19.0,,43131.8,23.18,-0.29,0.8,0.52,3.9,5.8,0.2,35.06,,,,,,,,,,
16.26.10.271,315.1,78.8,0,19.0,,42456.1,23.55,-0.29,0.79,0.51,4.5,6.3,0.5,35.06,,,,,,,,,,
16.26.10.279,371.9,93.0,0,19.0,,47177.2,21.2,-0.29,0.79,0.52,4.8,4.4,0.6,35.06,,,,,,,,,,
16.26.10.291,443.4,110.8,0,19.0,,45618.6,21.92,-0.29,0.8,0.52,6.7,5.5,0.6,35.06,,,,,,,,,,
16.26.10.304,465.8,116.4,0,19.0,,47752.8,20.94,-0.28,0.8,0.52,5.7,5.4,0.6,35.06,,,,,,,,,,
16.26.10.316,489.2,122.3,0,19.0,,43217.6,23.14,-0.28,0.8,0.51,5.5,5.4,-0.2,35.06,,,,,,,,,,
16.26.10.324,469.5,117.4,0,19.0,,50089.7,19.96,-0.28,0.79,0.5,5.0,4.7,0.1,35.06,,,,,,,,,,
16.26.10.336,479.6,119.9,0,19.0,,42965.5,23.27,-0.29,0.79,0.5,4.7,4.9,0.9,35.06,,,,,,,,,,
16.26.10.349,382.3,95.6,0,19.0,,43694.8,22.89,-0.29,0.79,0.51,4.6,6.4,0.4,35.06,,,,,,,,,,
16.26.10.357,401.0,100.2,0,19.0,,49634.4,20.15,-0.28,0.78,0.51,4.0,4.9,0.4,35.06,,,,,,,,,,
16.26.10.369,254.2,63.6,0,19.0,,44626.6,22.41,-0.33,0.83,0.49,2.9,8.1,2.4,35.06,,,,,,,,,,
16.26.10.381,189.2,47.3,0,19.0,,44200.2,22.62,-0.28,0.77,0.47,1.3,5.2,-2.0,35.06,,,,,,,,,,
16.26.10.394,88.4,22.1,0,19.0,,39594.2,25.26,-0.3,0.79,0.5,-3.0,0.6,-1.7,35.06,,,,,,,,,,
16.26.10.435,86.2,21.6,0,19.0,,43883.1,22.79,-0.29,0.79,0.51,-2.0,9.4,-4.6,35.06,,,,,,,,,,
16.26.10.443,136.2,34.0,0,19.0,,48368.8,20.67,-0.28,0.81,0.53,0.6,7.5,-2.7,35.06,,,,,,,,,,
16.26.10.455,107.0,26.8,0,19.0,,41553.9,24.07,-0.28,0.8,0.52,1.7,8.1,-1.2,35.06,,,,,,,,,,
16.26.10.468,92.5,23.1,0,19.0,,37662.3,26.55,-0.29,0.78,0.5,1.7,9.6,-2.0,35.06,,,,,,,,,,
16.26.10.481,104.7,26.2,0,19.0,,44377.6,22.53,-0.3,0.81,0.52,1.4,9.0,-1.2,35.06,,,,,,,,,,
16.26.10.488,66.6,16.6,0,19.0,,38473.8,25.99,-0.28,0.79,0.51,1.2,9.9,-1.6,35.06,,,,,,,,,,
16.26.10.500,33.4,8.4,0,19.0,,46480.1,21.51,-0.28,0.79,0.51,1.0,8.1,-0.8,35.06,,,,,,,,,,
16.26.10.513,46.9,11.7,0,19.0,,46608.1,21.46,-0.29,0.82,0.51,0.0,6.6,-1.1,35.06,,,,,,,,,,
16.26.10.521,-10.4,2.6,0,19.0,,50736.9,19.71,-0.29,0.8,0.5,1.3,9.9,-1.4,35.06,,,,,,,,,,
16.26.10.533,-41.7,10.4,0,19.0,,46439.7,21.53,-0.28,0.8,0.51,2.4,8.4,0.0,35.06,,,,,,,,,,
16.26.10.547,-38.7,9.7,0,19.0,,46125.9,21.68,-0.28,0.81,0.52,0.7,9.1,-1.3,35.06,,,,,,,,,,
16.26.10.558,-35.4,8.8,0,19.0,,42067.9,23.77,-0.29,0.8,0.51,1.0,7.6,-1.3,35.06,,,,,,,,,,
16.26.10.566,-74.1,18.5,0,19.0,,39041.6,25.61,-0.29,0.79,0.51,1.6,6.8,-1.0,35.06,,,,,,,,,,
16.26.10.578,-45.7,11.4,0,19.0,,42817.9,23.35,-0.28,0.8,0.51,2.1,9.5,-0.9,35.06,,,,,,,,,,
16.26.10.591,-52.8,13.2,0,19.0,,45922.5,21.78,-0.28,0.79,0.52,2.1,8.4,-0.8,35.06,,,,,,,,,,
16.26.10.598,-106.7,26.7,0,19.0,,47617.9,21.0,-0.29,0.79,0.51,1.8,7.7,-0.4,35.06,,,,,,,,,,
16.26.10.611,-77.2,19.3,0,19.0,,45876.4,21.8,-0.29,0.8,0.51,1.3,8.3,-0.9,35.06,,,,,,,,,,
16.26.10.623,-93.0,23.2,0,19.0,,45083.1,22.18,-0.29,0.8,0.51,1.1,9.4,-1.2,35.06,120.6,,,,,,,,,
16.26.10.635,-159.5,39.9,0,19.0,,48533.4,20.6,-0.29,0.81,0.51,1.7,9.5,-0.7,35.06,,,,,,,,,,
16.26.10.644,-74.6,18.6,0,19.0,,43910.3,22.77,-0.29,0.81,0.5,2.8,9.2,-0.5,35.06,,,,,,,,,,
16.26.10.656,-68.3,17.1,0,19.0,,47342.1,21.12,-0.28,0.8,0.51,3.7,7.8,0.8,35.06,,,,,,,,,,
16.26.10.668,-198.0,49.5,0,19.0,,42104.7,23.75,-0.28,0.8,0.51,3.2,8.3,0.4,35.06,,,,,,,,,,
16.26.10.681,-167.4,41.8,0,19.0,,47063.3,21.25,-0.29,0.8,0.5,2.1,8.5,-1.5,35.06,,,,,,,,,,
16.26.10.689,-178.1,44.5,0,19.0,,43133.8,23.18,-0.29,0.83,0.48,3.3,8.0,-1.3,35.06,,,,,,,,,,
16.26.10.701,-206.9,51.7,0,19.0,,43766.9,22.85,-0.3,0.76,0.48,3.7,12.4,-0.2,35.06,,,,,,,,,,
16.26.10.713,-133.5,33.4,0,19.0,,45742.6,21.86,-0.3,0.73,0.43,1.3,-2.2,-2.3,35.06,,,,,,,,,,
16.26.10.721,-170.9,42.7,0,19.0,,47573.1,21.02,-0.31,0.82,0.51,3.9,-1.7,-0.4,35.06,,,,,,,,,,
16.26.10.734,-239.2,59.8,0,19.0,,46247.5,21.62,-0.28,0.74,0.63,5.6,12.5,1.1,35.06,,,,,,,,,,
16.26.10.746,63.7,15.9,1,20.0,120.7,46062.4,21.71,-0.31,0.89,0.57,-4.6,6.2,-3.2,35.06,,,,,,,,,,
16.26.10.758,178.9,44.7,0,20.0,,44339.8,22.55,-0.27,0.79,0.51,7.3,4.0,4.9,35.06,,,,,,,,,,
16.26.10.766,284.6,71.2,0,20.0,,45503.4,21.98,-0.27,0.8,0.45,-1.6,2.8,-0.7,35.06,,,,,,,,,,
16.26.10.779,310.4,77.6,0,20.0,,40634.3,24.61,-0.3,0.79,0.45,0.4,2.2,-1.4,35.06,,,,,,,,,,
16.26.10.791,371.9,93.0,0,20.0,,46211.7,21.64,-0.31,0.78,0.51,-3.5,-1.4,-0.1,35.06,,,,,,,,,,
16.26.10.799,388.5,97.1,0,20.0,,44696.5,22.37,-0.28,0.84,0.56,2.8,8.6,-5.8,35.06,,,,,,,,,,
16.26.10.812,481.0,120.2,0,20.0,,40269.0,24.83,-0.29,0.78,0.54,0.0,1.4,0.7,35.06,,,,,,,,,,
16.26.10.825,478.5,119.6,0,20.0,,40455.2,24.72,-0.28,0.83,0.51,6.7,12.7,-0.2,35.06,,,,,,,,,,
16.26.10.836,546.3,136.6,0,20.0,,50222.3,19.91,-0.3,0.79,0.49,3.2,2.1,2.0,35.06,,,,,,,,,,
16.26.10.845,460.5,115.1,0,20.0,,46592.7,21.46,-0.3,0.81,0.49,4.7,8.8,0.9,35.06,,,,,,,,,,
16.26.10.857,376.1,94.0,0,20.0,,45806.5,21.83,-0.3,0.81,0.51,1.9,4.3,-1.1,35.06,,,,,,,,,,
16.26.10.870,303.6,75.9,0,20.0,,41510.2,24.09,-0.29,0.82,0.5,3.1,6.4,-1.9,35.06,,,,,,,,,,
16.26.10.877,271.0,67.8,0,20.0,,49395.7,20.24,-0.29,0.8,0.51,3.4,5.8,0.0,35.06,,,,,,,,,,
16.26.10.889,251.9,63.0,0,20.0,,41441.5,24.13,-0.28,0.81,0.5,1.6,4.3,-2.0,35.06,,,,,,,,,,
16.26.10.902,110.6,27.6,0,20.0,,44496.8,22.47,-0.29,0.79,0.51,0.6,4.0,-1.0,35.06,,,,,,,,,,
16.26.10.914,26.1,6.5,0,20.0,,44732.2,22.36,-0.29,0.81,0.5,1.6,4.2,-0.7,35.06,,,,,,,,,,
16.26.10.922,24.1,6.0,0,20.0,,36072.2,27.72,-0.3,0.81,0.5,3.6,5.3,-0.1,35.06,,,,,,,,,,
16.26.10.934,47.3,11.8,0,20.0,,43357.9,23.06,-0.29,0.82,0.5,4.1,6.1,-0.5,35.06,,,,,,,,,,
16.26.10.948,53.6,13.4,0,20.0,,46646.5,21.44,-0.3,0.81,0.49,3.4,5.1,-1.2,35.06,,,,,,,,,,
16.26.10.955,56.8,14.2,0,20.0,,46213.9,21.64,-0.29,0.81,0.49,2.8,4.0,-0.9,35.06,,,,,,,,,,
16.26.10.968,99.7,24.9,0,20.0,,43179.5,23.16,-0.29,0.8,0.49,2.4,4.8,-1.7,35.06,,,,,,,,,,
16.26.10.980,114.4,28.6,0,20.0,,43233.6,23.13,-0.29,0.8,0.49,1.9,5.2,-0.8,35.06,,,,,,,,,,
16.26.10.988,54.6,13.6,0,20.0,,43735.5,22.86,-0.28,0.81,0.49,1.1,5.2,-1.4,35.06,,,,,,,,,,
16.26.11.000,44.8,11.2,0,20.0,,44406.2,22.52,-0.28,0.82,0.49,0.9,5.4,-1.4,35.06,,,,,,,,,,
16.26.11.013,3.7,0.9,0,20.0,,42906.5,23.31,-0.29,0.81,0.49,1.0,5.7,-1.8,35.06,,,,,,,,,,
16.26.11.021,-5.3,1.3,0,20.0,,45457.3,22.0,-0.29,0.81,0.5,1.3,5.3,-1.5,35.06,,,,,,,,,,
16.26.11.033,10.0,2.5,0,20.0,,45923.7,21.78,-0.29,0.8,0.5,2.5,6.0,-0.8,35.06,,,,,,,,,,
16.26.11.045,-32.3,8.1,0,20.0,,46934.1,21.31,-0.28,0.81,0.5,2.2,5.1,-1.1,35.06,,,,,,,,,,
16.26.11.055,-57.9,14.5,0,20.0,,46537.1,21.49,-0.29,0.8,0.5,2.0,5.2,-0.7,35.06,,,,,,,,,,
16.26.11.066,-28.2,7.0,0,20.0,,48927.4,20.44,-0.28,0.81,0.49,1.4,4.8,-1.1,35.06,,,,,,,,,,
16.26.11.078,-7.8,2.0,0,20.0,,42629.8,23.46,-0.29,0.8,0.48,1.6,5.6,-1.0,35.06,,,,,,,,,,
16.26.11.086,-109.9,27.5,0,20.0,,44960.0,22.24,-0.29,0.8,0.48,1.1,5.6,-0.9,35.06,,,,,,,,,,
16.26.11.098,-92.8,23.2,0,20.0,,42136.5,23.73,-0.29,0.8,0.5,-0.1,5.7,-1.7,35.06,,,,,,,,,,
16.26.11.111,-54.8,13.7,0,20.0,,43274.9,23.11,-0.29,0.81,0.5,-0.8,5.2,-2.1,35.06,,,,,,,,,,
16.26.11.119,-67.6,16.9,0,20.0,,43829.7,22.82,-0.29,0.81,0.5,-0.3,5.5,-1.9,35.06,,,,,,,,,,
16.26.11.131,-156.1,39.0,0,20.0,,42623.4,23.46,-0.29,0.81,0.51,1.0,6.6,-1.3,35.06,,,,,,,,,,
16.26.11.145,-127.9,32.0,0,20.0,,47498.6,21.05,-0.29,0.82,0.5,0.0,9.8,-3.5,35.06,,,,,,,,,,
16.26.11.152,-106.1,26.5,0,20.0,,44605.0,22.42,-0.29,0.81,0.5,-0.8,1.9,-0.9,35.06,,,,,,,,,,
16.26.11.164,-83.6,20.9,0,20.0,,44391.6,22.53,-0.29,0.8,0.5,0.3,7.2,-1.9,35.06,,,,,,,,,,
16.26.11.176,-155.1,38.8,0,20.0,,46179.0,21.65,-0.28,0.81,0.48,1.4,7.5,-1.1,35.06,,,,,,,,,,
16.26.11.184,-125.0,31.2,0,20.0,,46007.0,21.74,-0.28,0.81,0.49,1.2,5.2,-0.2,35.06,,,,,,,,,,
16.26.11.197,-148.5,37.1,0,20.0,,44002.1,22.73,-0.29,0.82,0.5,0.4,6.3,-1.4,35.06,,,,,,,,,,
16.26.11.239,-266.7,66.7,0,20.0,,44254.9,22.6,-0.29,0.8,0.5,1.5,6.3,-0.8,35.06,,,,,,,,,,
16.26.11.250,50.0,12.5,1,21.0,117.0,51521.1,19.41,-0.29,0.8,0.5,0.7,6.4,-1.8,35.06,,,,,,,,,,
16.26.11.258,115.1,28.8,0,21.0,,42814.7,23.36,-0.29,0.81,0.49,1.1,6.2,-1.4,35.06,,,,,,,,,,
16.26.11.270,268.6,67.2,0,21.0,,43464.6,23.01,-0.28,0.81,0.5,1.3,6.7,-1.1,35.06,,,,,,,,,,
16.26.11.283,306.3,76.6,0,21.0,,41407.9,24.15,-0.29,0.81,0.5,1.0,6.9,-1.0,35.06,,,,,,,,,,
16.26.11.291,385.1,96.3,0,21.0,,47533.8,21.04,-0.29,0.81,0.5,0.2,6.6,-1.8,35.06,,,,,,,,,,
16.26.11.304,430.2,107.6,0,21.0,,40353.4,24.78,-0.29,0.81,0.49,-0.4,6.5,-2.7,35.06,,,,,,,,,,
16.26.11.316,488.6,122.2,0,21.0,,45306.3,22.07,-0.28,0.81,0.49,-0.7,6.0,-2.6,35.06,,,,,,,,,,
16.26.11.324,493.1,123.3,0,21.0,,40767.5,24.53,-0.29,0.81,0.49,-0.8,6.4,-2.7,35.06,,,,,,,,,,
16.26.11.336,446.9,111.7,0,21.0,,49955.1,20.02,-0.29,0.8,0.49,-0.6,6.0,-2.4,35.06,,,,,,,,,,
16.26.11.348,482.1,120.5,0,21.0,,38398.8,26.04,-0.29,0.81,0.49,0.3,6.2,-1.3,35.06,,,,,,,,,,
16.26.11.356,505.7,126.4,0,21.0,,41766.0,23.94,-0.29,0.81,0.5,0.6,6.9,-1.0,35.06,,,,,,,,,,
16.26.11.369,381.1,95.3,0,21.0,,43603.8,22.93,-0.29,0.81,0.5,1.2,7.3,-0.9,35.06,,,,,,,,,,
16.26.11.382,345.3,86.3,0,21.0,,48121.0,20.78,-0.28,0.81,0.5,0.8,6.3,-0.7,35.06,,,,,,,,,,
16.26.11.389,231.6,57.9,0,21.0,,38807.6,25.77,-0.29,0.8,0.5,1.7,7.0,-1.0,35.06,,,,,,,,,,
16.26.11.403,176.5,44.1,0,21.0,,44056.9,22.7,-0.28,0.81,0.5,2.3,6.0,-0.5,35.06,,,,,,,,,,
16.26.11.414,56.9,14.2,0,21.0,,41688.3,23.99,-0.29,0.82,0.49,2.2,6.6,-0.4,35.06,,,,,,,,,,
16.26.11.422,-6.6,1.6,0,21.0,,45326.5,22.06,-0.29,0.82,0.49,1.6,6.5,-0.4,35.06,,,,,,,,,,
16.26.11.434,-33.2,8.3,0,21.0,,44407.6,22.52,-0.28,0.81,0.49,1.2,5.9,-1.0,35.06,,,,,,,,,,
16.26.11.447,42.4,10.6,0,21.0,,43959.3,22.75,-0.29,0.81,0.5,0.9,5.9,-0.5,35.06,,,,,,,,,,
16.26.11.455,131.3,32.8,0,21.0,,43639.3,22.92,-0.29,0.81,0.5,1.2,6.6,-0.6,35.06,,,,,,,,,,
16.26.11.468,69.5,17.4,0,21.0,,43477.3,23.0,-0.29,0.8,0.5,1.2,6.5,-0.5,35.06,,,,,,,,,,
16.26.11.479,30.0,7.5,0,21.0,,40762.4,24.53,-0.29,0.81,0.51,1.8,7.0,-0.1,35.06,,,,,,,,,,
16.26.11.488,78.0,19.5,0,21.0,,37163.1,26.91,-0.28,0.81,0.5,2.0,7.1,-0.2,35.06,,,,,,,,,,
16.26.11.500,48.0,12.0,0,21.0,,42998.8,23.26,-0.28,0.82,0.49,1.6,6.5,0.1,35.06,,,,,,,,,,
16.26.11.512,27.3,6.8,0,21.0,,45086.3,22.18,-0.28,0.82,0.49,1.7,5.5,0.2,35.06,,,,,,,,,,
16.26.11.520,72.2,18.0,0,21.0,,46188.5,21.65,-0.28,0.81,0.51,2.8,4.4,1.0,35.06,,,,,,,,,,
16.26.11.533,-14.2,3.6,0,21.0,,42300.5,23.64,-0.29,0.81,0.5,4.8,8.1,1.1,35.06,,,,,,,,,,
16.26.11.545,-22.3,5.6,0,21.0,,47128.3,21.22,-0.3,0.81,0.5,5.1,5.5,2.3,35.06,,,,,,,,,,
16.26.11.553,-19.6,4.9,0,21.0,,39341.3,25.42,-0.29,0.81,0.5,4.1,6.6,0.6,35.06,,,,,,,,,,
16.26.11.565,-25.3,6.3,0,21.0,,45499.2,21.98,-0.29,0.82,0.49,3.3,5.5,0.6,35.06,,,,,,,,,,
16.26.11.574,-21.2,5.3,0,21.0,,47481.9,21.06,-0.29,0.81,0.5,4.3,3.7,1.9,35.06,,,,,,,,,,
16.26.11.586,-74.5,18.6,0,21.0,,43895.2,22.78,-0.28,0.81,0.48,5.2,8.4,0.5,35.06,,,,,,,,,,
16.26.11.599,0.3,0.1,0,21.0,,43728.6,22.87,-0.29,0.81,0.47,4.5,5.7,0.2,35.06,,,,,,,,,,
16.26.11.606,-55.1,13.8,0,21.0,,44791.2,22.33,-0.28,0.82,0.48,2.7,3.5,0.1,35.06,,,,,,,,,,
16.26.11.620,-74.9,18.7,0,21.0,,42367.3,23.6,-0.28,0.82,0.49,2.5,7.4,-0.9,35.06,,,,,,,,,,
16.26.11.631,-129.1,32.3,0,21.0,,49069.4,20.38,-0.28,0.81,0.49,2.7,5.9,0.0,35.06,,,,,,,,,,
16.26.11.639,-139.6,34.9,0,21.0,,42370.6,23.6,-0.28,0.81,0.5,2.4,7.5,-0.1,35.06,,,,,,,,,,
16.26.11.652,-111.0,27.8,0,21.0,,42560.1,23.5,-0.29,0.81,0.49,1.8,7.2,-0.2,35.06,,,,,,,,,,
16.26.11.664,-153.3,38.3,0,21.0,,47015.2,21.27,-0.29,0.81,0.5,1.3,6.0,-0.4,35.06,,,,,,,,,,
16.26.11.672,-115.3,28.8,0,21.0,,44752.1,22.35,-0.28,0.81,0.48,2.7,8.8,-0.2,35.06,,,,,,,,,,
16.26.11.684,-77.0,19.2,0,21.0,,44779.1,22.33,-0.28,0.82,0.48,3.2,8.2,0.2,35.06,,,,,,,,,,
16.26.11.697,-165.0,41.2,0,21.0,,41984.1,23.82,-0.27,0.83,0.48,2.2,7.5,0.0,35.06,,,,,,,,,,
16.26.11.705,-240.8,60.2,0,21.0,,41138.0,24.31,-0.28,0.82,0.49,0.5,7.8,-1.0,35.06,,,,,,,,,,
16.26.11.717,-175.8,44.0,0,21.0,,44059.1,22.7,-0.28,0.81,0.49,0.2,7.1,-0.9,35.06,,,,,,,,,,
16.26.11.730,-136.4,34.1,0,21.0,,40433.9,24.73,-0.28,0.81,0.5,2.6,6.6,0.5,35.06,,,,,,,,,,
16.26.11.738,-172.1,43.0,0,21.0,,46180.2,21.65,-0.29,0.82,0.49,3.6,7.9,0.4,35.06,,,,,,,,,,
16.26.11.750,41.5,10.4,1,22.0,116.8,42725.9,23.4,-0.28,0.82,0.49,2.9,7.1,-0.3,35.06,,,,,,,,,,
16.26.11.762,135.8,34.0,0,22.0,,41891.7,23.87,-0.29,0.82,0.5,2.8,6.2,-0.1,35.06,,,,,,,,,,
16.26.11.770,165.7,41.4,0,22.0,,48614.2,20.57,-0.29,0.82,0.49,3.7,6.9,0.1,35.06,,,,,,,,,,
16.26.11.783,215.7,53.9,0,22.0,,46383.8,21.56,-0.28,0.82,0.48,4.2,6.4,0.3,35.06,,,,,,,,,,
16.26.11.795,348.0,87.0,0,22.0,,41068.3,24.35,-0.28,0.82,0.48,3.7,5.7,0.4,35.06,,,,,,,,,,
16.26.11.803,461.5,115.4,0,22.0,,40869.9,24.47,-0.28,0.82,0.48,3.1,5.9,-0.5,35.06,,,,,,,,,,
16.26.11.816,457.9,114.5,0,22.0,,40933.5,24.43,-0.28,0.82,0.48,3.1,5.8,0.0,35.06,,,,,,,,,,
16.26.11.828,450.2,112.6,0,22.0,,46730.5,21.4,-0.28,0.82,0.48,3.7,6.5,-0.3,35.06,,,,,,,,,,
16.26.11.836,508.5,127.1,0,22.0,,42433.2,23.57,-0.28,0.82,0.49,3.1,6.6,-0.1,35.06,,,,,,,,,,
16.26.11.848,471.5,117.9,0,22.0,,46674.0,21.43,-0.29,0.82,0.48,2.8,6.3,-0.4,35.06,,,,,,,,,,
16.26.11.861,383.6,95.9,0,22.0,,41467.8,24.12,-0.29,0.82,0.47,2.8,5.9,-0.5,35.06,,,,,,,,,,
16.26.11.869,426.1,106.5,0,22.0,,45899.5,21.79,-0.28,0.82,0.48,2.9,6.6,-0.6,35.06,,,,,,,,,,
16.26.11.881,357.7,89.4,0,22.0,,50686.8,19.73,-0.28,0.82,0.49,2.3,6.3,-0.6,35.06,,,,,,,,,,
16.26.11.893,254.7,63.7,0,22.0,,43991.6,22.73,-0.28,0.82,0.48,1.9,5.2,-0.8,35.06,,,,,,,,,,
16.26.11.901,196.1,49.0,0,22.0,,42133.9,23.73,-0.28,0.82,0.49,1.6,5.7,-0.9,35.06,,,,,,,,,,
16.26.11.914,95.4,23.8,0,22.0,,42444.4,23.56,-0.28,0.83,0.47,2.1,6.3,-0.7,35.06,,,,,,,,,,
16.26.11.926,14.9,3.7,0,22.0,,46563.9,21.48,-0.28,0.82,0.48,2.6,6.2,-0.6,35.06,,,,,,,,,,
16.26.11.934,-5.6,1.4,0,22.0,,41349.7,24.18,-0.28,0.82,0.48,2.6,6.0,-0.8,35.06,,,,,,,,,,
16.26.11.947,48.6,12.2,0,22.0,,45071.0,22.19,-0.28,0.82,0.48,2.0,6.1,-1.0,35.06,,,,,,,,,,
16.26.11.959,28.4,7.1,0,22.0,,50767.8,19.7,-0.28,0.82,0.48,1.6,5.7,-1.1,35.06,,,,,,,,,,
16.26.11.967,30.7,7.7,0,22.0,,49265.9,20.3,-0.28,0.82,0.48,1.5,5.9,-1.1,35.06,,,,,,,,,,
16.26.11.980,95.8,24.0,0,22.0,,47390.8,21.1,-0.28,0.83,0.47,1.2,5.9,-1.1,35.06,,,,,,,,,,
16.26.11.993,65.6,16.4,0,22.0,,45098.5,22.17,-0.28,0.83,0.47,0.7,5.6,-1.2,35.06,,,,,,,,,,
16.26.12.000,111.4,27.8,0,22.0,,42535.5,23.51,-0.28,0.83,0.47,0.7,4.5,-1.6,35.06,,,,,,,,,,
16.26.12.042,-29.3,7.3,0,22.0,,44094.6,22.68,-0.29,0.81,0.48,0.2,5.8,-2.1,35.06,,,,,,,,,,
16.26.12.053,-38.2,9.6,0,22.0,,37691.9,26.53,-0.29,0.82,0.48,0.6,5.9,-1.7,35.06,,,,,,,,,,
16.26.12.061,-3.8,1.0,0,22.0,,41919.5,23.86,-0.28,0.82,0.47,0.5,6.6,-1.7,35.06,,,,,,,,,,
16.26.12.074,-49.4,12.4,0,22.0,,49300.3,20.28,-0.28,0.83,0.47,0.3,6.6,-1.6,35.06,,,,,,,,,,
16.26.12.086,-19.0,4.8,0,22.0,,52206.0,19.15,-0.28,0.83,0.47,0.0,6.0,-1.7,35.06,,,,,,,,,,
16.26.12.094,-103.9,26.0,0,22.0,,43787.2,22.84,-0.27,0.83,0.47,-0.5,5.1,-1.7,35.06,,,,,,,,,,
16.26.12.107,-42.3,10.6,0,22.0,,34633.2,28.87,-0.28,0.83,0.48,-0.4,4.7,-2.1,35.06,,,,,,,,,,
16.26.12.119,-37.1,9.3,0,22.0,,43777.6,22.84,-0.27,0.83,0.49,0.0,5.1,-1.5,35.06,,,,,,,,,,
16.26.12.127,-126.3,31.6,0,22.0,,48855.3,20.47,-0.28,0.82,0.48,0.1,5.7,-1.6,35.06,,,,,,,,,,
16.26.12.139,-154.3,38.6,0,22.0,,47174.5,21.2,-0.28,0.82,0.48,0.8,4.9,-1.2,35.06,,,,,,,,,,
16.26.12.152,-165.7,41.4,0,22.0,,48792.6,20.49,-0.28,0.82,0.48,1.9,5.4,-0.5,35.06,,,,,,,,,,
16.26.12.161,-160.4,40.1,0,22.0,,44114.7,22.67,-0.28,0.83,0.47,2.0,5.6,-0.9,35.06,,,,,,,,,,
16.26.12.172,-146.9,36.7,0,22.0,,44541.7,22.45,-0.28,0.83,0.47,1.3,4.8,-0.9,35.06,,,,,,,,,,
16.26.12.186,-139.9,35.0,0,22.0,,41833.9,23.9,-0.28,0.82,0.48,1.1,4.6,-1.1,35.06,,,,,,,,,,
16.26.12.193,-92.0,23.0,0,22.0,,46104.1,21.69,-0.28,0.82,0.48,1.2,5.2,-1.0,35.06,,,,,,,,,,
16.26.12.205,-153.9,38.5,0,22.0,,43565.4,22.95,-0.28,0.82,0.48,1.1,5.8,-0.8,35.06,,,,,,,,,,
16.26.12.217,-127.4,31.8,0,22.0,,45060.1,22.19,-0.28,0.82,0.47,1.1,6.4,-1.0,35.06,,,,,,,,,,
16.26.12.225,-108.0,27.0,0,22.0,,45501.5,21.98,-0.28,0.82,0.47,0.0,5.6,-1.2,35.06,,,,,,,,,,
16.26.12.238,-137.7,34.4,0,22.0,,43401.4,23.04,-0.28,0.82,0.48,-0.2,6.2,-0.8,35.06,,,,,,,,,,
16.26.12.250,-193.9,48.5,0,22.0,,49059.9,20.38,-0.28,0.82,0.48,-0.1,5.7,-1.4,35.06,,,,,,,,,,
16.26.12.262,29.5,7.4,1,23.0,114.3,46331.4,21.58,-0.28,0.82,0.49,0.6,5.7,-1.4,35.06,,,,,,,,,,
16.26.12.270,92.0,23.0,0,23.0,,43718.1,22.87,-0.28,0.83,0.48,1.6,5.5,-1.2,35.06,,,,,,,,,,
16.26.12.282,145.6,36.4,0,23.0,,41909.0,23.86,-0.27,0.82,0.48,2.1,6.1,-1.3,35.06,,,,,,,,,,
16.26.12.295,263.6,65.9,0,23.0,,41071.9,24.35,-0.27,0.82,0.48,1.8,5.7,-1.1,35.06,,,,,,,,,,
16.26.12.303,443.0,110.8,0,23.0,,41917.8,23.86,-0.28,0.82,0.47,2.2,6.6,-1.0,35.06,,,,,,,,,,
16.26.12.315,340.1,85.0,0,23.0,,43050.7,23.23,-0.28,0.82,0.48,3.4,7.2,-0.1,35.06,,,,,,,,,,
16.26.12.328,481.0,120.2,0,23.0,,42059.7,23.78,-0.29,0.82,0.47,3.4,7.7,0.5,35.06,,,,,,,,,,
16.26.12.337,456.8,114.2,0,23.0,,40381.0,24.76,-0.29,0.82,0.47,2.5,6.9,0.0,35.06,,,,,,,,,,
16.26.12.348,463.3,115.8,0,23.0,,48052.1,20.81,-0.29,0.82,0.48,1.2,6.6,-0.7,35.06,,,,,,,,,,
16.26.12.362,476.7,119.2,0,23.0,,43340.9,23.07,-0.29,0.82,0.49,0.3,6.2,-1.4,35.06,,,,,,,,,,
16.26.12.369,491.4,122.8,0,23.0,,46663.5,21.43,-0.28,0.82,0.48,-0.2,7.3,-1.7,35.06,,,,,,,,,,
16.26.12.381,422.2,105.6,0,23.0,,43262.3,23.11,-0.28,0.82,0.48,-0.1,6.9,-1.3,35.06,,,,,,,,,,
16.26.12.394,343.5,85.9,0,23.0,,39532.1,25.3,-0.28,0.83,0.47,0.9,6.7,-1.0,35.06,,,,,,,,,,
16.26.12.401,258.7,64.7,0,23.0,,39217.3,25.5,-0.29,0.83,0.48,1.3,7.8,-1.1,35.06,,,,,,,,,,
16.26.12.414,159.9,40.0,0,23.0,,41116.5,24.32,-0.28,0.83,0.48,1.7,6.5,-0.9,35.06,,,,,,,,,,
16.26.12.426,64.1,16.0,0,23.0,,46285.0,21.61,-0.28,0.82,0.48,2.2,5.2,-0.2,35.06,,,,,,,,,,
16.26.12.434,14.4,3.6,0,23.0,,44395.6,22.52,-0.28,0.82,0.48,2.6,6.8,-0.9,35.06,,,,,,,,,,
16.26.12.446,0.3,0.1,0,23.0,,47111.8,21.23,-0.28,0.82,0.48,1.8,5.6,-0.9,35.06,,,,,,,,,,
16.26.12.459,35.2,8.8,0,23.0,,44051.2,22.7,-0.28,0.82,0.48,0.6,6.1,-1.6,35.06,,,,,,,,,,
16.26.12.472,105.1,26.3,0,23.0,,42808.0,23.36,-0.28,0.82,0.47,0.9,6.1,-1.8,35.06,,,,,,,,,,
16.26.12.479,118.4,29.6,0,23.0,,46806.6,21.36,-0.28,0.83,0.47,1.5,5.8,-1.0,35.06,,,,,,,,,,
16.26.12.491,69.9,17.5,0,23.0,,46347.7,21.58,-0.28,0.83,0.47,1.9,6.7,-1.1,35.06,,,,,,,,,,
16.26.12.504,92.2,23.0,0,23.0,,45195.0,22.13,-0.28,0.82,0.47,0.9,5.8,-1.3,35.06,,,,,,,,,,
16.26.12.512,98.3,24.6,0,23.0,,46686.0,21.42,-0.28,0.81,0.47,0.5,5.4,-1.5,35.06,,,,,,,,,,
16.26.12.524,9.6,2.4,0,23.0,,41004.6,24.39,-0.29,0.82,0.48,0.4,5.7,-1.7,35.06,,,,,,,,,,
16.26.12.536,-32.7,8.2,0,23.0,,43641.9,22.91,-0.28,0.82,0.48,0.4,6.3,-1.6,35.06,,,,,,,,,,
16.26.12.549,-7.0,1.8,0,23.0,,47346.5,21.12,-0.28,0.82,0.47,-0.2,5.8,-1.9,35.06,,,,,,,,,,
16.26.12.557,2.7,0.7,0,23.0,,44350.1,22.55,-0.28,0.82,0.47,0.0,5.7,-1.5,35.06,,,,,,,,,,
16.26.12.571,-80.2,20.0,0,23.0,,47716.6,20.96,-0.28,0.83,0.48,0.6,5.7,-1.5,35.06,,,,,,,,,,
16.26.12.582,-29.9,7.5,0,23.0,,46855.9,21.34,-0.28,0.82,0.48,1.6,6.4,-1.3,35.06,,,,,,,,,,
16.26.12.590,-48.3,12.1,0,23.0,,48035.8,20.82,-0.28,0.83,0.47,2.7,5.5,-0.2,35.06,,,,,,,,,,
16.26.12.602,-92.6,23.2,0,23.0,,49310.9,20.28,-0.27,0.82,0.47,2.7,6.3,-0.8,35.06,,,,,,,,,,
16.26.12.614,-73.1,18.3,0,23.0,,42250.4,23.67,-0.28,0.83,0.47,1.4,5.8,-1.3,35.06,,,,,,,,,,
16.26.12.622,-83.3,20.8,0,23.0,,52318.8,19.11,-0.29,0.82,0.47,1.3,5.5,-1.0,35.06,,,,,,,,,,
16.26.12.635,-111.4,27.8,0,23.0,,44609.9,22.42,-0.28,0.82,0.47,1.7,5.8,-0.6,35.06,,,,,,,,,,
16.26.12.648,-91.1,22.8,0,23.0,,45401.7,22.03,-0.28,0.83,0.47,1.1,6.4,-1.4,35.06,,,,,,,,,,
16.26.12.655,-142.8,35.7,0,23.0,,48388.4,20.67,-0.29,0.83,0.48,-0.2,5.9,-1.7,35.06,,,,,,,,,,
16.26.12.668,-106.0,26.5,0,23.0,,45182.4,22.13,-0.28,0.82,0.47,-0.5,5.0,-2.0,35.06,,,,,,,,,,
16.26.12.680,-117.5,29.4,0,23.0,,45810.7,21.83,-0.28,0.82,0.48,0.6,5.5,-1.3,35.06,,,,,,,,,,
16.26.12.693,-152.5,38.1,0,23.0,,48393.5,20.66,-0.28,0.82,0.48,1.1,6.7,-1.4,35.06,,,,,,,,,,
16.26.12.701,-133.8,33.4,0,23.0,,39217.3,25.5,-0.28,0.83,0.47,0.7,6.7,-1.4,35.06,,,,,,,,,,
16.26.12.714,-149.1,37.3,0,23.0,,47335.8,21.13,-0.29,0.82,0.47,0.7,6.3,-1.5,35.06,,,,,,,,,,
16.26.12.725,-177.0,44.2,0,23.0,,44112.6,22.67,-0.28,0.83,0.46,0.8,6.2,-1.7,35.06,,,,,,,,,,
16.26.12.734,-201.3,50.3,0,23.0,,45486.6,21.98,-0.27,0.83,0.46,0.1,5.7,-1.9,35.06,,,,,,,,,,
16.26.12.746,,,0,23.0,,47364.6,21.11,,,,,,,,,,,,,,,,,
16.26.12.750,-153.2,38.3,0,23.0,,40009.4,24.99,-0.28,0.82,0.47,-1.6,4.9,-2.1,35.06,,,,,,,,,,
16.26.12.758,-172.9,43.2,0,23.0,,38213.4,26.17,-0.28,0.82,0.48,-1.9,5.0,-2.6,35.06,,,,,,,,,,
16.26.12.770,62.9,15.7,1,24.0,119.5,50140.2,19.94,-0.28,0.82,0.49,-0.9,5.1,-1.7,35.06,,,,,,,,,,
16.26.12.778,132.3,33.1,0,24.0,,46497.2,21.51,-0.28,0.82,0.49,1.0,6.1,-1.0,35.06,,,,,,,,,,
16.26.12.790,192.4,48.1,0,24.0,,39145.0,25.55,-0.28,0.83,0.48,1.9,7.0,-0.6,35.06,,,,,,,,,,
16.26.12.799,327.4,81.8,0,24.0,,51615.8,19.37,-0.29,0.83,0.47,1.8,6.7,-0.8,35.06,,,,,,,,,,
16.26.12.811,383.0,95.8,0,24.0,,44277.0,22.59,-0.28,0.83,0.47,1.1,5.6,-1.7,35.06,,,,,,,,,,
16.26.12.848,542.0,135.5,0,24.0,,45064.5,22.19,-0.28,0.83,0.47,0.8,5.3,-1.6,35.06,,,,,,,,,,
16.26.12.856,436.1,109.0,0,24.0,,47227.9,21.17,-0.29,0.82,0.47,0.3,5.9,-2.3,35.06,,,,,,,,,,
16.26.12.870,461.1,115.3,0,24.0,,45404.6,22.02,-0.29,0.82,0.47,-0.5,5.7,-2.6,35.06,,,,,,,,,,
16.26.12.877,530.6,132.6,0,24.0,,38407.9,26.04,-0.29,0.81,0.47,-0.9,6.0,-2.5,35.06,,,,,,,,,,
16.26.12.890,388.3,97.1,0,24.0,,37522.2,26.65,-0.28,0.83,0.46,-1.5,5.9,-3.2,35.06,,,,,,,,,,
16.26.12.898,272.0,68.0,0,24.0,,53052.7,18.85,-0.28,0.83,0.47,-2.8,5.8,-3.3,35.06,,,,,,,,,,
16.26.12.911,263.1,65.8,0,24.0,,47654.2,20.98,-0.28,0.83,0.47,-3.7,4.9,-3.9,35.06,,,,,,,,,,
16.26.12.918,198.2,49.6,0,24.0,,45513.6,21.97,-0.27,0.83,0.48,-3.8,10.5,-6.3,35.06,,,,,,,,,,
16.26.12.930,69.1,17.3,0,24.0,,41883.6,23.88,-0.28,0.83,0.47,-3.4,2.1,-3.1,35.06,,,,,,,,,,
16.26.12.938,94.4,23.6,0,24.0,,44674.4,22.38,-0.27,0.82,0.49,-2.6,4.9,-3.3,35.06,,,,,,,,,,
16.26.12.951,-19.3,4.8,0,24.0,,40483.2,24.7,-0.28,0.81,0.47,-1.1,8.1,-2.5,35.06,,,,,,,,,,
16.26.12.963,12.3,3.1,0,24.0,,46961.5,21.29,-0.29,0.79,0.46,-1.6,4.9,-2.4,35.06,,,,,,,,,,
16.26.12.971,77.9,19.5,0,24.0,,41452.0,24.12,-0.28,0.83,0.48,-2.6,5.1,-3.0,35.06,,,,,,,,,,
16.26.12.983,119.0,29.8,0,24.0,,42532.3,23.51,-0.29,0.82,0.49,-3.2,8.1,-3.7,35.06,,,,,,,,,,
16.26.12.991,47.0,11.8,0,24.0,,49432.5,20.23,-0.29,0.82,0.47,-3.9,5.2,-4.0,35.06,,,,,,,,,,
16.26.13.004,77.1,19.3,0,24.0,,43152.5,23.17,-0.28,0.84,0.47,-4.5,5.9,-4.9,35.06,,,,,,,,,,
16.26.13.012,26.8,6.7,0,24.0,,45225.5,22.11,-0.28,0.83,0.46,-5.2,3.9,-4.8,35.06,,,,,,,,,,
16.26.13.024,71.0,17.8,0,24.0,,42367.8,23.6,-0.28,0.81,0.46,-5.1,5.6,-5.5,35.06,,,,,,,,,,
16.26.13.033,48.4,12.1,0,24.0,,43651.5,22.91,-0.28,0.81,0.47,-6.5,4.3,-5.3,35.06,,,,,,,,,,
16.26.13.045,56.3,14.1,0,24.0,,41508.9,24.09,-0.29,0.81,0.49,-6.8,4.1,-5.5,35.06,,,,,,,,,,
16.26.13.053,17.1,4.3,0,24.0,,52008.3,19.23,-0.28,0.82,0.5,-7.7,5.3,-6.8,35.06,,,,,,,,,,
16.26.13.065,-9.0,2.2,0,24.0,,41154.7,24.3,-0.29,0.81,0.51,-7.1,4.7,-6.0,35.06,,,,,,,,,,
16.26.13.074,-47.8,12.0,0,24.0,,45898.6,21.79,-0.29,0.81,0.5,-2.8,2.8,-3.0,35.06,,,,,,,,,,
16.26.13.086,-33.6,8.4,0,24.0,,46568.0,21.47,-0.28,0.82,0.5,1.8,6.7,-1.0,35.06,,,,,,,,,,
16.26.13.094,-16.4,4.1,0,24.0,,45626.1,21.92,-0.28,0.82,0.48,3.7,8.4,0.0,35.06,,,,,,,,,,
16.26.13.106,-64.6,16.2,0,24.0,,44061.1,22.7,-0.29,0.82,0.48,2.3,5.3,0.2,35.06,,,,,,,,,,
16.26.13.115,-27.7,6.9,0,24.0,,44695.7,22.37,-0.28,0.82,0.48,0.7,3.8,-0.9,35.06,,,,,,,,,,
16.26.13.127,-65.7,16.4,0,24.0,,46586.6,21.47,-0.29,0.8,0.48,1.0,4.3,-0.5,35.06,,,,,,,,,,
16.26.13.135,-68.2,17.0,0,24.0,,39882.9,25.07,-0.29,0.8,0.5,3.4,5.5,0.7,35.06,,,,,,,,,,
16.26.13.147,-103.7,25.9,0,24.0,,39929.1,25.04,-0.29,0.81,0.49,4.3,6.9,0.7,35.06,,,,,,,,,,
16.26.13.155,-108.9,27.2,0,24.0,,42549.5,23.5,-0.3,0.81,0.5,3.7,6.3,0.5,35.06,,,,,,,,,,
16.26.13.167,-93.1,23.3,0,24.0,,43278.2,23.11,-0.3,0.8,0.5,3.1,5.5,-0.1,35.06,,,,,,,,,,
16.26.13.176,-134.8,33.7,0,24.0,,42674.4,23.43,-0.3,0.81,0.49,4.2,7.0,0.3,35.06,,,,,,,,,,
16.26.13.188,-125.0,31.2,0,24.0,,44364.8,22.54,-0.29,0.81,0.48,5.4,7.2,0.7,35.06,,,,,,,,,,
16.26.13.196,-102.9,25.7,0,24.0,,43513.1,22.98,-0.29,0.81,0.47,5.4,7.5,0.7,35.06,,,,,,,,,,
16.26.13.209,-149.2,37.3,0,24.0,,43431.2,23.02,-0.29,0.82,0.47,3.3,7.3,-0.2,35.06,,,,,,,,,,
16.26.13.218,-121.8,30.4,0,24.0,,42330.6,23.62,-0.29,0.82,0.47,1.5,6.2,-0.9,35.06,,,,,,,,,,
16.26.13.229,-162.2,40.6,0,24.0,,44992.5,22.23,-0.28,0.82,0.47,0.2,5.3,-0.9,35.06,,,,,,,,,,
16.26.13.239,-171.9,43.0,0,24.0,,44681.7,22.38,-0.28,0.82,0.49,0.7,6.4,-1.1,35.06,,,,,,,,,,
16.26.13.250,-186.4,46.6,0,24.0,,47108.0,21.23,-0.29,0.82,0.5,1.1,7.1,-1.3,35.06,,,,,,,,,,
16.26.13.258,-199.8,50.0,0,24.0,,42158.7,23.72,-0.29,0.82,0.49,0.8,7.1,-1.1,35.06,,,,,,,,,,
16.26.13.270,-189.7,47.4,0,24.0,,43794.2,22.83,-0.28,0.82,0.49,1.1,6.3,-1.4,35.06,,,,,,,,,,
16.26.13.278,101.2,25.3,1,25.0,117.0,39205.9,25.51,-0.29,0.82,0.49,2.0,6.1,-0.7,35.06,,,,,,,,,,
16.26.13.291,172.2,43.0,0,25.0,,48228.9,20.73,-0.29,0.82,0.48,2.9,6.8,-0.2,35.06,,,,,,,,,,
16.26.13.298,208.2,52.0,0,25.0,,46787.5,21.37,-0.28,0.82,0.47,2.5,7.2,-0.5,35.06,,,,,,,,,,
16.26.13.311,407.8,102.0,0,25.0,,49337.4,20.27,-0.28,0.82,0.47,1.0,6.1,-1.4,35.06,,,,,,,,,,
16.26.13.320,376.4,94.1,0,25.0,,46800.0,21.37,-0.29,0.82,0.47,-0.3,5.6,-2.0,35.06,,,,,,,,,,
16.26.13.331,440.9,110.2,0,25.0,,45413.8,22.02,-0.28,0.82,0.48,-0.8,4.7,-2.4,35.06,,,,,,,,,,
16.26.13.345,487.1,121.8,0,25.0,,45439.2,22.01,-0.29,0.82,0.49,-0.3,4.8,-1.7,35.06,,,,,,,,,,
16.26.13.353,528.2,132.0,0,25.0,,47220.9,21.18,-0.29,0.82,0.5,0.9,5.1,-1.4,35.06,,,,,,,,,,
16.26.13.365,566.6,141.6,0,25.0,,42798.9,23.37,-0.29,0.82,0.5,1.2,4.6,-1.1,35.06,,,,,,,,,,
16.26.13.373,456.4,114.1,0,25.0,,46052.6,21.71,-0.29,0.81,0.49,1.5,5.4,-1.7,35.06,,,,,,,,,,
16.26.13.385,377.9,94.5,0,25.0,,47726.8,20.95,-0.29,0.8,0.49,1.1,5.5,-1.9,35.06,,,,,,,,,,
16.26.13.393,457.8,114.4,0,25.0,,43366.2,23.06,-0.29,0.81,0.48,1.1,5.3,-1.5,35.06,,,,,,,,,,
16.26.13.405,339.9,85.0,0,25.0,,43435.9,23.02,-0.29,0.81,0.48,1.1,5.9,-1.1,35.06,,,,,,,,,,
16.26.13.413,283.8,71.0,0,25.0,,37532.7,26.64,-0.29,0.81,0.47,0.0,5.4,-1.3,35.06,,,,,,,,,,
16.26.13.426,166.0,41.5,0,25.0,,46032.3,21.72,-0.28,0.82,0.47,-1.6,4.4,-2.0,35.06,,,,,,,,,,
16.26.13.434,118.5,29.6,0,25.0,,49401.3,20.24,-0.28,0.82,0.47,-1.7,5.7,-2.3,35.06,,,,,,,,,,
16.26.13.446,5.6,1.4,0,25.0,,45059.4,22.19,-0.29,0.82,0.48,-1.4,5.3,-2.2,35.06,,,,,,,,,,
16.26.13.454,63.9,16.0,0,25.0,,44282.4,22.58,-0.28,0.82,0.49,-0.9,6.4,-2.5,35.06,,,,,,,,,,
16.26.13.467,61.5,15.4,0,25.0,,41193.6,24.28,-0.29,0.82,0.48,-0.7,5.0,-2.0,35.06,,,,,,,,,,
16.26.13.479,93.1,23.3,0,25.0,,48226.0,20.74,-0.29,0.82,0.48,-1.3,3.7,-2.4,35.06,,,,,,,,,,
16.26.13.487,40.2,10.0,0,25.0,,47876.3,20.89,-0.28,0.82,0.48,-0.5,2.9,-2.8,35.06,,,,,,,,,,
16.26.13.500,81.0,20.2,0,25.0,,48672.6,20.55,-0.28,0.82,0.49,0.1,5.3,-2.4,35.06,,,,,,,,,,
16.26.13.508,75.9,19.0,0,25.0,,48016.6,20.83,-0.28,0.83,0.48,1.1,6.4,-1.3,35.06,,,,,,,,,,
16.26.13.520,32.0,8.0,0,25.0,,47145.4,21.21,-0.29,0.82,0.47,2.1,3.7,0.2,35.06,,,,,,,,,,
16.26.13.528,21.3,5.3,0,25.0,,41163.7,24.29,-0.28,0.82,0.48,2.9,5.4,0.6,35.06,,,,,,,,,,
16.26.13.540,-15.7,3.9,0,25.0,,40208.0,24.87,-0.28,0.83,0.49,2.0,6.3,-0.2,35.06,,,,,,,,,,
16.26.13.549,55.6,13.9,0,25.0,,45057.3,22.19,-0.29,0.81,0.49,0.3,4.7,-0.5,35.06,,,,,,,,,,
16.26.13.561,52.7,13.2,0,25.0,,45169.8,22.14,-0.3,0.8,0.5,0.4,3.7,-1.0,35.06,,,,,,,,,,
16.26.13.569,-36.3,9.1,0,25.0,,37825.6,26.44,-0.29,0.8,0.5,2.1,5.9,-0.7,35.06,,,,,,,,,,
16.26.13.581,-26.1,6.5,0,25.0,,46871.8,21.33,-0.28,0.81,0.49,2.4,7.2,-0.2,35.06,,,,,,,,,,
16.26.13.590,-60.8,15.2,0,25.0,,49828.8,20.07,-0.28,0.81,0.48,2.8,6.5,0.0,35.06,,,,,,,,,,
16.26.13.602,-30.6,7.6,0,25.0,,48245.9,20.73,-0.29,0.82,0.47,3.0,4.1,1.0,35.06,,,,,,,,,,
16.26.13.610,-12.1,3.0,0,25.0,,46436.6,21.53,-0.28,0.82,0.47,4.2,5.9,1.7,35.06,,,,,,,,,,
16.26.13.647,-112.6,28.2,0,25.0,,42415.1,23.58,-0.28,0.83,0.47,3.8,7.7,1.0,35.06,,,,,,,,,,
16.26.13.659,-72.1,18.0,0,25.0,,41410.8,24.15,-0.28,0.81,0.49,-0.2,4.4,-0.7,35.06,,,,,,,,,,
16.26.13.672,-97.0,24.2,0,25.0,,44399.5,22.52,-0.29,0.81,0.49,1.6,6.2,-0.1,35.06,,,,,,,,,,
16.26.13.680,-101.0,25.2,0,25.0,,48968.2,20.42,-0.29,0.82,0.49,2.8,7.3,0.5,35.06,,,,,,,,,,
16.26.13.692,-84.4,21.1,0,25.0,,47909.5,20.87,-0.29,0.81,0.48,3.1,5.9,0.4,35.06,,,,,,,,,,
16.26.13.700,-188.8,47.2,0,25.0,,38982.9,25.65,-0.29,0.83,0.48,2.7,7.2,-0.2,35.06,,,,,,,,,,
16.26.13.713,-215.6,53.9,0,25.0,,42187.8,23.7,-0.29,0.82,0.47,1.8,5.9,-0.2,35.06,,,,,,,,,,
16.26.13.721,-127.5,31.9,0,25.0,,36840.6,27.14,-0.28,0.82,0.47,2.1,6.6,-0.6,35.06,,,,,,,,,,
16.26.13.733,-164.8,41.2,0,25.0,,40878.5,24.46,-0.28,0.83,0.47,1.0,6.5,-1.0,35.06,,,,,,,,,,
16.26.13.741,-191.9,48.0,0,25.0,,43539.1,22.97,-0.28,0.83,0.48,0.1,4.9,-1.1,35.06,,,,,,,,,,
16.26.13.753,-169.2,42.3,0,25.0,,41523.5,24.08,-0.28,0.82,0.48,-0.4,5.6,-1.5,35.06,,,,,,,,,,
16.26.13.762,-187.9,47.0,0,25.0,,45977.4,21.75,-0.28,0.82,0.48,0.5,5.3,-1.9,35.06,,,,,,,,,,
16.26.13.774,-173.2,43.3,0,25.0,,45940.4,21.77,-0.28,0.82,0.48,0.5,4.7,-0.8,35.06,,,,,,,,,,
16.26.13.782,74.3,18.6,1,26.0,115.8,45644.8,21.91,-0.28,0.83,0.49,0.8,6.1,-1.1,35.06,,,,,,,,,,
16.26.13.796,121.9,30.5,0,26.0,,49395.4,20.24,-0.28,0.82,0.48,1.3,5.3,-0.8,35.06,,,,,,,,,,
16.26.13.803,272.2,68.0,0,26.0,,45876.7,21.8,-0.29,0.82,0.49,1.7,5.4,-0.9,35.06,,,,,,,,,,
16.26.13.815,292.5,73.1,0,26.0,,44303.5,22.57,-0.28,0.82,0.49,2.1,6.0,-0.6,35.06,,,,,,,,,,
16.26.13.823,344.8,86.2,0,26.0,,44214.8,22.62,-0.29,0.82,0.48,1.2,5.8,-0.5,35.06,,,,,,,,,,
16.26.13.836,375.8,94.0,0,26.0,,46564.1,21.48,-0.29,0.81,0.48,1.2,5.3,-0.7,35.06,,,,,,,,,,
16.26.13.848,426.8,106.7,0,26.0,,46014.0,21.73,-0.28,0.82,0.48,2.0,5.7,-0.5,35.06,,,,,,,,,,
16.26.13.856,477.9,119.5,0,26.0,,48066.5,20.8,-0.28,0.82,0.48,2.2,6.0,-0.1,35.06,,,,,,,,,,
16.26.13.869,523.5,130.9,0,26.0,,38593.5,25.91,-0.29,0.82,0.48,1.7,5.6,-0.5,35.06,,,,,,,,,,
16.26.13.877,526.9,131.7,0,26.0,,49030.2,20.4,-0.29,0.82,0.48,1.2,5.2,-0.9,35.06,,,,,,,,,,
16.26.13.889,442.3,110.6,0,26.0,,40352.7,24.78,-0.28,0.82,0.48,1.8,5.4,-0.9,35.06,,,,,,,,,,
16.26.13.897,384.5,96.1,0,26.0,,45938.6,21.77,-0.28,0.82,0.48,1.9,5.9,-0.6,35.06,,,,,,,,,,
16.26.13.909,352.9,88.2,0,26.0,,47092.4,21.23,-0.28,0.82,0.48,2.3,5.7,-0.5,35.06,,,,,,,,,,
16.26.13.917,334.1,83.5,0,26.0,,46229.4,21.63,-0.28,0.82,0.47,1.7,5.5,-0.9,35.06,,,,,,,,,,
16.26.13.930,244.5,61.1,0,26.0,,45282.0,22.08,-0.28,0.82,0.47,1.1,5.4,-0.9,35.06,,,,,,,,,,
16.26.13.938,144.1,36.0,0,26.0,,45716.6,21.87,-0.28,0.82,0.47,0.8,5.5,-0.9,35.06,,,,,,,,,,
16.26.13.950,49.2,12.3,0,26.0,,42205.3,23.69,-0.28,0.82,0.47,0.3,6.0,-1.2,35.06,,,,,,,,,,
16.26.13.959,-9.7,2.4,0,26.0,,45231.2,22.11,-0.28,0.82,0.48,0.3,5.7,-1.3,35.06,,,,,,,,,,
16.26.13.973,13.1,3.3,0,26.0,,46423.7,21.54,-0.28,0.83,0.0,0.2,5.5,-1.6,35.06,,,,,,,,,,
16.26.13.988,62.6,15.6,0,26.0,,46849.3,21.35,-0.28,0.82,0.48,0.2,5.5,-1.6,35.06,,,,,,,,,,
16.26.13.993,94.6,23.6,0,26.0,,45348.6,22.05,-0.28,0.82,0.0,-0.4,5.5,-2.1,35.06,,,,,,,,,,
16.26.14.010,85.3,21.3,0,26.0,,47682.4,20.97,-0.28,0.81,0.49,-0.4,5.5,-2.1,35.06,,,,,,,,,,
16.26.14.011,53.4,13.4,0,26.0,,48002.1,20.83,-0.28,0.81,0.48,-0.5,5.7,-2.1,35.06,,,,,,,,,,
16.26.14.025,56.3,14.1,0,26.0,,46583.1,21.47,-0.28,0.81,0.49,-0.2,6.1,-2.1,35.06,,,,,,,,,,
16.26.14.040,74.6,18.6,0,26.0,,45905.7,21.78,-0.28,0.82,0.48,0.1,5.8,-1.8,35.06,,,,,,,,,,
16.26.14.042,-3.9,1.0,0,26.0,,40665.3,24.59,-0.28,0.83,0.47,0.7,6.2,-1.6,35.06,,,,,,,,,,
16.26.14.052,-5.5,1.4,0,26.0,,41028.6,24.37,-0.28,0.83,0.48,0.4,5.5,-1.3,35.06,,,,,,,,,,
16.26.14.066,0.7,0.2,0,26.0,,49025.6,20.4,-0.28,0.83,0.47,-0.3,4.9,-1.7,35.06,,,,,,,,,,
16.26.14.076,4.3,1.1,0,26.0,,44950.6,22.25,-0.28,0.82,0.47,-0.8,5.0,-2.2,35.06,,,,,,,,,,
16.26.14.085,-41.5,10.4,0,26.0,,47498.4,21.05,-0.28,0.82,0.49,-0.8,4.9,-2.3,35.06,,,,,,,,,,
16.26.14.095,-6.5,1.6,0,26.0,,49758.2,20.1,-0.29,0.81,0.48,0.1,6.3,-1.7,35.06,,,,,,,,,,
16.26.14.105,-72.0,18.0,0,26.0,,44276.1,22.59,-0.28,0.82,0.47,-0.2,6.2,-2.1,35.06,,,,,,,,,,
16.26.14.118,3.9,1.0,0,26.0,,48600.5,20.58,-0.29,0.82,0.48,-1.4,5.0,-2.6,35.06,,,,,,,,,,
16.26.14.127,-49.8,12.4,0,26.0,,43776.2,22.84,-0.28,0.81,0.48,-2.2,5.9,-3.2,35.06,,,,,,,,,,
16.26.14.140,-43.3,10.8,0,26.0,,40627.8,24.61,-0.29,0.81,0.47,-1.7,6.8,-2.7,35.06,,,,,,,,,,
16.26.14.152,-79.0,19.8,0,26.0,,46469.5,21.52,-0.29,0.82,0.46,-0.1,6.2,-1.2,35.06,,,,,,,,,,
16.26.14.159,-112.5,28.1,0,26.0,,48581.8,20.58,-0.28,0.83,0.48,0.4,5.7,-1.0,35.06,,,,,,,,,,
16.26.14.185,-96.8,24.2,0,26.0,,49054.8,20.39,-0.29,0.82,0.49,-2.5,4.4,-2.5,35.06,,,,,,,,,,
16.26.14.187,-123.4,30.8,0,26.0,,45193.5,22.13,-0.29,0.82,0.49,-4.9,3.1,-3.8,35.06,,,,,,,,,,
16.26.14.192,-88.6,22.2,0,26.0,,43403.3,23.04,-0.29,0.81,0.49,-4.1,2.1,-3.9,35.06,,,,,,,,,,
16.26.14.204,-157.5,39.4,0,26.0,,41778.4,23.94,-0.29,0.81,0.49,-2.1,4.4,-2.7,35.06,,,,,,,,,,
16.26.14.216,-96.6,24.2,0,26.0,,41896.4,23.87,-0.28,0.82,0.49,-0.6,6.4,-2.4,35.06,,,,,,,,,,
16.26.14.228,-134.2,33.6,0,26.0,,45632.7,21.91,-0.28,0.81,0.48,-1.7,4.0,-2.6,35.06,,,,,,,,,,
16.26.14.236,-142.0,35.5,0,26.0,,53718.9,18.62,-0.29,0.81,0.48,-2.2,4.2,-3.0,35.06,,,,,,,,,,
16.26.14.249,-138.2,34.6,0,26.0,,46245.1,21.62,-0.29,0.81,0.49,-1.8,4.1,-3.1,35.06,,,,,,,,,,
16.26.14.261,-186.9,46.7,0,26.0,,45782.7,21.84,-0.29,0.81,0.49,-0.2,6.6,-2.4,35.06,,,,,,,,,,
16.26.14.273,-157.9,39.5,0,26.0,,46436.4,21.53,-0.28,0.82,0.49,0.0,6.1,-2.0,35.06,,,,,,,,,,
16.26.14.281,-219.1,54.8,0,26.0,,44086.9,22.68,-0.28,0.82,0.48,-0.9,4.4,-1.8,35.06,,,,,,,,,,
16.26.14.294,97.3,24.3,1,27.0,113.4,47191.6,21.19,-0.28,0.81,0.48,-1.2,2.0,-1.1,35.06,,,,,,,,,,
16.26.14.306,201.0,50.2,0,27.0,,43844.8,22.81,-0.28,0.82,0.49,-1.8,0.2,-1.3,35.06,,,,,,,,,,
16.26.14.314,270.9,67.7,0,27.0,,49384.1,20.25,-0.28,0.81,0.49,-2.4,2.7,-2.7,35.06,,,,,,,,,,
16.26.14.332,348.1,87.0,0,27.0,,42955.0,23.28,-0.28,0.82,0.48,-2.4,2.5,-1.9,35.06,,,,,,,,,,
16.26.14.339,386.3,96.6,0,27.0,,43302.2,23.09,-0.28,0.82,0.49,-3.2,5.2,-2.8,35.06,,,,,,,,,,
16.26.14.347,395.4,98.8,0,27.0,,45570.7,21.94,-0.29,0.82,0.49,-2.1,2.6,-1.5,35.06,,,,,,,,,,
16.26.14.361,461.2,115.3,0,27.0,,44291.7,22.58,-0.29,0.82,0.5,-1.4,3.8,-2.2,35.06,,,,,,,,,,
16.26.14.372,452.9,113.2,0,27.0,,47446.0,21.08,-0.29,0.81,0.5,-1.5,4.8,-2.4,35.06,,,,,,,,,,
16.26.14.386,388.9,97.2,0,27.0,,46860.8,21.34,-0.29,0.81,0.49,-0.5,1.4,-1.0,35.06,,,,,,,,,,
16.26.14.392,438.9,109.7,0,27.0,,45043.1,22.2,-0.28,0.81,0.5,0.7,4.3,-0.6,35.06,,,,,,,,,,
16.26.14.405,349.6,87.4,0,27.0,,45129.3,22.16,-0.28,0.81,0.5,-0.3,2.1,-0.1,35.06,,,,,,,,,,
16.26.14.417,394.6,98.6,0,27.0,,44395.8,22.52,-0.28,0.8,0.5,-0.2,-1.1,1.1,35.06,,,,,,,,,,
16.26.14.454,65.1,16.3,0,27.0,,44922.8,22.26,-0.28,0.81,0.49,0.6,1.3,-0.1,35.13,,,,,,,,,,
16.26.14.466,18.5,4.6,0,27.0,,39013.2,25.63,-0.27,0.82,0.48,-0.8,-0.2,-1.1,35.13,,,,,,,,,,
16.26.14.478,5.8,1.4,0,27.0,,39215.4,25.5,-0.28,0.82,0.49,-3.7,0.5,-4.3,35.13,,,,,,,,,,
16.26.14.486,57.6,14.4,0,27.0,,38447.2,26.01,-0.28,0.81,0.48,-6.6,-0.9,-5.8,35.13,,,,,,,,,,
16.26.14.499,91.5,22.9,0,27.0,,45824.6,21.82,-0.27,0.8,0.49,-5.9,-1.9,-4.5,35.13,,,,,,,,,,
16.26.14.511,128.1,32.0,0,27.0,,47253.7,21.16,-0.27,0.81,0.49,-5.2,1.0,-4.5,35.13,,,,,,,,,,
16.26.14.523,125.5,31.4,0,27.0,,41909.1,23.86,-0.28,0.82,0.49,-5.6,2.2,-5.5,35.13,,,,,,,,,,
16.26.14.531,25.0,6.2,0,27.0,,45723.8,21.87,-0.28,0.81,0.5,-6.8,0.2,-5.0,35.13,,,,,,,,,,
16.26.14.544,7.8,2.0,0,27.0,,49330.6,20.27,-0.27,0.8,0.51,-6.6,0.8,-5.4,35.13,,,,,,,,,,
16.26.14.556,-16.0,4.0,0,27.0,,46775.1,21.38,-0.28,0.8,0.49,-5.9,-2.2,-4.2,35.13,,,,,,,,,,
16.26.14.564,21.0,5.2,0,27.0,,42697.5,23.42,-0.28,0.81,0.52,-4.7,0.8,-3.6,35.13,,,,,,,,,,
16.26.14.578,-8.5,2.1,0,27.0,,39563.2,25.28,-0.27,0.81,0.52,-4.9,-1.0,-2.3,35.13,,,,,,,,,,
16.26.14.589,-50.6,12.6,0,27.0,,45012.5,22.22,-0.27,0.8,0.52,-4.7,-4.6,-1.2,35.13,,,,,,,,,,
16.26.14.597,-48.1,12.0,0,27.0,,45739.0,21.86,-0.28,0.8,0.53,-6.1,-3.5,-2.1,35.13,,,,,,,,,,
16.26.14.609,-54.9,13.7,0,27.0,,44249.4,22.6,-0.26,0.81,0.53,-4.6,-1.5,-0.6,35.13,,,,,,,,,,
16.26.14.622,-65.4,16.4,0,27.0,,41739.7,23.96,-0.28,0.79,0.52,-2.4,1.2,0.3,35.13,,,,,,,,,,
16.26.14.630,-72.0,18.0,0,27.0,,48097.0,20.79,-0.28,0.79,0.5,-0.9,0.5,1.5,35.13,,,,,,,,,,
16.26.14.643,-83.2,20.8,0,27.0,,48284.5,20.71,-0.26,0.79,0.5,-0.7,-1.3,1.5,35.13,,,,,,,,,,
16.26.14.654,-55.4,13.8,0,27.0,,46348.5,21.58,-0.3,0.8,0.48,-2.5,1.1,0.4,35.13,,,,,,,,,,
16.26.14.663,-2.5,0.6,0,27.0,,39721.0,25.18,-0.26,0.8,0.49,-2.5,1.7,0.6,35.13,,,,,,,,,,
16.26.14.675,-104.1,26.0,0,27.0,,42331.4,23.62,-0.27,0.8,0.49,-6.0,3.5,-1.9,35.13,,,,,,,,,,
16.26.14.687,-82.9,20.7,0,27.0,,47303.4,21.14,-0.25,0.81,0.47,-9.0,-1.1,-2.6,35.13,,,,,,,,,,
16.26.14.696,-87.3,21.8,0,27.0,,44814.2,22.31,-0.24,0.81,0.5,-10.5,9.2,-6.0,35.13,,,,,,,,,,
16.26.14.707,-129.3,32.3,0,27.0,,41208.9,24.27,-0.27,0.8,0.48,-15.3,14.1,-9.6,35.13,,,,,,,,,,
16.26.14.720,-153.0,38.2,0,27.0,,44278.7,22.58,-0.28,0.78,0.45,-19.2,0.0,-8.5,35.13,,,,,,,,,,
16.26.14.728,-143.7,35.9,0,27.0,,47369.8,21.11,-0.29,0.8,0.49,-16.1,4.8,-8.3,35.13,,,,,,,,,,
16.26.14.741,-187.7,46.9,0,27.0,,42348.7,23.61,-0.28,0.81,0.49,-16.1,5.9,-9.5,35.13,,,,,,,,,,
16.26.14.753,-208.1,52.0,0,27.0,,50108.2,19.96,-0.23,0.81,0.54,-22.8,-3.4,-7.1,35.13,,,,,,,,,,
16.26.14.765,-134.9,33.7,0,27.0,,43905.7,22.78,-0.31,0.81,0.55,-22.6,-5.8,-8.4,35.13,,,,,,,,,,
16.26.14.773,-143.2,35.8,0,27.0,,43903.0,22.78,-0.25,0.81,0.58,-23.5,-1.0,-16.4,35.13,,,,,,,,,,
16.26.14.786,-223.8,56.0,0,27.0,,45793.9,21.84,-0.27,0.79,0.67,-34.3,2.9,-24.9,35.13,,,,,,,,,,
16.26.14.798,62.7,15.7,1,28.0,113.6,45854.1,21.81,-0.27,0.69,0.64,-39.9,7.2,-34.7,35.13,,,,,,,,,,
16.26.14.810,133.4,33.4,0,28.0,,43197.4,23.15,-0.28,0.72,0.58,-33.4,-1.5,-33.8,35.13,,,,,,,,,,
16.26.14.822,260.2,65.0,0,28.0,,40365.1,24.77,-0.33,0.8,0.58,-15.6,7.9,-17.9,35.13,,,,,,,,,,
16.26.14.830,267.1,66.8,0,28.0,,44805.4,22.32,-0.31,0.8,0.53,8.5,19.0,-6.0,35.13,,,,,,,,,,
16.26.14.843,349.3,87.3,0,28.0,,46545.4,21.48,-0.3,0.79,0.51,14.1,12.5,-4.4,35.13,,,,,,,,,,
16.26.14.855,465.9,116.5,0,28.0,,44747.1,22.35,-0.33,0.79,0.56,-2.6,14.2,-7.8,35.13,,,,,,,,,,
16.26.14.867,516.7,129.2,0,28.0,,40558.4,24.66,-0.32,0.74,0.55,-14.2,6.9,-20.1,35.13,,,,,,,,,,
16.26.14.880,532.0,133.0,0,28.0,,42495.1,23.53,-0.3,0.71,0.55,-23.2,-7.1,-20.2,35.13,,,,,,,,,,
16.26.14.888,511.4,127.8,0,28.0,,48221.2,20.74,-0.29,0.69,0.59,-17.4,-4.7,-13.3,35.13,,,,,,,,,,
16.26.14.900,387.5,96.9,0,28.0,,43689.1,22.89,-0.28,0.74,0.57,-16.6,5.6,-16.1,35.13,,,,,,,,,,
16.26.14.912,377.5,94.4,0,28.0,,41791.1,23.93,-0.28,0.75,0.55,-13.3,7.2,-16.6,35.13,,,,,,,,,,
16.26.14.925,368.8,92.2,0,28.0,,43895.1,22.78,-0.29,0.81,0.57,-11.1,3.0,-15.9,35.13,,,,,,,,,,
16.26.14.937,294.4,73.6,0,28.0,,41448.3,24.13,-0.3,0.81,0.57,-9.7,4.0,-15.7,35.13,,,,,,,,,,
16.26.14.945,223.3,55.8,0,28.0,,44412.0,22.52,-0.33,0.75,0.57,-8.0,8.2,-16.6,35.13,,,,,,,,,,
16.26.14.962,60.9,15.2,0,28.0,,44648.5,22.4,-0.31,0.78,0.58,-9.0,4.1,-19.8,35.13,,,,,,,,,,
16.26.14.970,-1.6,0.4,0,28.0,,47672.1,20.98,-0.33,0.74,0.6,-9.0,9.9,-15.7,35.13,,,,,,,,,,
16.26.14.982,48.7,12.2,0,28.0,,43877.0,22.79,-0.31,0.7,0.62,-14.3,14.2,-19.8,35.13,,,,,,,,,,
16.26.14.995,101.7,25.4,0,28.0,,43122.0,23.19,-0.31,0.73,0.59,-14.4,7.5,-19.1,35.13,,,,,,,,,,
16.26.15.003,51.6,12.9,0,28.0,,37945.1,26.35,-0.31,0.75,0.59,-10.7,3.2,-17.5,35.13,,,,,,,,,,
16.26.15.015,100.0,25.0,0,28.0,,50441.1,19.83,-0.33,0.73,0.6,-7.4,8.1,-12.7,35.13,,,,,,,,,,
16.26.15.023,33.3,8.3,0,28.0,,47010.2,21.27,-0.33,0.71,0.57,-6.2,7.4,-12.5,35.13,,,,,,,,,,
16.26.15.035,110.0,27.5,0,28.0,,47757.1,20.94,-0.35,0.74,0.58,-11.9,11.6,-12.7,35.13,,,,,,,,,,
16.26.15.048,91.7,22.9,0,28.0,,45590.3,21.93,-0.35,0.73,0.59,-3.9,6.3,-14.6,35.13,,,,,,,,,,
16.26.15.056,49.1,12.3,0,28.0,,44256.6,22.6,-0.32,0.73,0.57,-2.6,3.8,-9.9,35.13,,,,,,,,,,
16.26.15.068,70.8,17.7,0,28.0,,43673.3,22.9,-0.33,0.73,0.59,-1.9,8.0,-10.4,35.13,,,,,,,,,,
16.26.15.077,8.5,2.1,0,28.0,,40107.6,24.93,-0.36,0.67,0.62,-3.2,7.4,-4.7,35.13,,,,,,,,,,
16.26.15.089,-91.1,22.8,0,28.0,,36286.3,27.56,-0.35,0.7,0.61,-4.8,5.6,-6.7,35.13,,,,,,,,,,
16.26.15.101,26.2,6.6,0,28.0,,44583.7,22.43,-0.35,0.68,0.63,-0.2,11.4,-6.3,35.13,,,,,,,,,,
16.26.15.110,-103.4,25.8,0,28.0,,45882.9,21.79,-0.34,0.67,0.61,3.9,10.7,-4.3,35.13,,,,,,,,,,
16.26.15.121,29.6,7.4,0,28.0,,43235.0,23.13,-0.33,0.7,0.6,4.4,5.7,-1.2,35.13,,,,,,,,,,
16.26.15.130,-118.1,29.5,0,28.0,,45894.7,21.79,-0.35,0.71,0.59,5.0,7.0,0.5,35.13,,,,,,,,,,
16.26.15.142,-116.7,29.2,0,28.0,,42610.8,23.47,-0.35,0.72,0.58,5.5,8.1,0.3,35.13,,,,,,,,,,
16.26.15.150,-75.6,18.9,0,28.0,,46908.1,21.32,-0.34,0.72,0.56,-0.5,9.0,-0.4,35.13,,,,,,,,,,
16.26.15.162,-67.5,16.9,0,28.0,,44320.3,22.56,-0.34,0.75,0.58,-2.5,6.0,-1.2,35.13,,,,,,,,,,
16.26.15.171,-109.3,27.3,0,28.0,,46825.5,21.36,-0.33,0.74,0.58,-4.6,4.6,-2.7,35.13,,,,,,,,,,
16.26.15.183,-145.2,36.3,0,28.0,,45553.7,21.95,-0.35,0.74,0.57,-5.8,8.4,-5.2,35.13,,,,,,,,,,
16.26.15.191,-87.8,22.0,0,28.0,,38097.2,26.25,-0.34,0.71,0.59,-8.2,4.6,-5.9,35.13,,,,,,,,,,
16.26.15.204,-108.6,27.2,0,28.0,,42385.4,23.59,-0.35,0.71,0.61,-10.0,4.6,-8.2,35.13,,,,,,,,,,
16.26.15.216,-141.2,35.3,0,28.0,,44802.1,22.32,-0.34,0.71,0.61,-9.1,4.1,-7.9,35.13,,,,,,,,,,
16.26.15.224,-97.6,24.4,0,28.0,,42469.7,23.55,-0.34,0.71,0.59,-7.0,6.9,-8.5,35.13,,,,,,,,,,
16.26.15.260,-195.4,48.8,0,28.0,,45656.7,21.9,-0.34,0.71,0.58,-4.7,5.7,-3.7,35.06,,,,,,,,,,
16.26.15.273,-194.4,48.6,0,28.0,,43293.4,23.1,-0.34,0.68,0.59,-5.3,1.0,0.4,35.06,,,,,,,,,,
16.26.15.285,-112.7,28.2,0,28.0,,45972.5,21.75,-0.3,0.74,0.62,-6.2,6.9,-3.5,35.06,,,,,,,,,,
16.26.15.293,-149.2,37.3,0,28.0,,42444.4,23.56,-0.35,0.71,0.59,-6.3,3.8,-4.9,35.06,,,,,,,,,,
16.26.15.306,65.5,16.4,1,29.0,120.5,38581.8,25.92,-0.35,0.7,0.56,-7.4,2.3,-7.4,35.06,,,,,,,,,,
16.26.15.318,188.9,47.2,0,29.0,,43435.5,23.02,-0.39,0.62,0.61,-13.2,11.8,-2.4,35.06,,,,,,,,,,
16.26.15.326,218.9,54.7,0,29.0,,43001.0,23.26,-0.38,0.69,0.61,-11.5,10.0,-11.3,35.06,,,,,,,,,,
