timestamp,ppg,threshold,beat,beat_count,inst_bpm,gsr_resistance_ohm,gsr_conductance_us,accel_x,accel_y,accel_z,gyro_x,gyro_y,gyro_z,temp_c,window_bpm,window_temp_c,status_message,SpO2,bmi,age,height,weight,env_temp_c,env_humidity_pct
15.52.02.664,,,0,,,,,,,,,,,35.81,94.7,,,,29.5,23.0,144.78,61.9,36.0,71.0
15.52.02.664,35.0,8.8,0,,,79408.2,12.59,-0.31,0.67,0.68,6.2,2.1,6.7,35.81,,,,,,,,,,
15.52.02.672,66.6,16.6,0,,,74917.8,13.35,-0.31,0.67,0.67,7.0,4.1,6.1,35.81,,,,,,,,,,
15.52.02.685,119.7,29.9,0,,,79769.8,12.54,-0.31,0.67,0.68,5.9,5.6,4.5,35.81,,,,,,,,,,
15.52.02.692,146.5,36.6,0,,,75946.0,13.17,-0.31,0.66,0.68,3.4,4.2,2.9,35.81,,,,,,,,,,
15.52.02.705,230.1,57.5,0,,,76805.6,13.02,-0.32,0.66,0.68,1.2,3.8,1.0,35.81,,,,,,,,,,
15.52.02.713,254.0,63.5,0,,,75149.0,13.31,-0.31,0.66,0.68,0.2,4.4,-0.3,35.81,,,,,,,,,,
15.52.02.725,322.2,80.6,0,,,79554.1,12.57,-0.31,0.66,0.68,-0.3,4.1,-0.7,35.81,,,,,,,,,,
15.52.02.738,341.6,85.4,0,,,76035.7,13.15,-0.31,0.65,0.69,0.1,4.3,-0.8,35.81,,,,,,,,,,
15.52.02.746,375.6,93.9,0,,,75837.5,13.19,-0.31,0.66,0.68,0.4,5.3,-0.9,35.81,,,,,,,,,,
15.52.02.758,373.9,93.5,0,,,78764.7,12.7,-0.31,0.65,0.68,-0.1,4.5,-1.2,35.81,,,,,,,,,,
15.52.02.770,381.7,95.4,0,,,79684.0,12.55,-0.31,0.65,0.69,-0.3,4.5,-1.3,35.81,,,,,,,,,,
15.52.02.783,392.7,98.2,0,,,76875.9,13.01,-0.3,0.65,0.69,-0.1,4.7,-1.2,35.81,,,,,,,,,,
15.52.02.791,362.3,90.6,0,,,74268.1,13.46,-0.31,0.65,0.69,0.8,5.2,-0.6,35.81,,,,,,,,,,
15.52.02.803,394.0,98.5,0,,,79248.4,12.62,-0.31,0.65,0.68,1.1,5.3,-0.6,35.81,,,,,,,,,,
15.52.02.821,303.5,75.9,0,,,75148.4,13.31,-0.31,0.65,0.67,1.5,5.7,-0.2,35.81,,,,,,,,,,
15.52.02.824,320.7,80.2,0,,,76117.0,13.14,-0.31,0.65,0.68,1.3,5.6,0.2,35.81,,,,,,,,,,
15.52.02.836,326.6,81.6,0,,,76443.4,13.08,-0.31,0.65,0.68,1.0,5.6,-0.3,35.81,,,,,,,,,,
15.52.02.848,219.9,55.0,0,,,76010.4,13.16,-0.31,0.66,0.68,1.2,5.1,-0.4,35.81,,,,,,,,,,
15.52.02.889,41.5,10.4,0,,,76322.1,13.1,-0.3,0.66,0.68,0.8,5.3,-0.3,35.81,,,,,,,,,,
15.52.02.898,25.7,6.4,0,,,77780.5,12.86,-0.3,0.66,0.68,1.0,5.8,-0.2,35.81,,,,,,,,,,
15.52.02.910,31.8,8.0,0,,,75721.7,13.21,-0.3,0.66,0.69,0.8,5.7,-0.7,35.81,,,,,,,,,,
15.52.02.922,46.7,11.7,0,,,75633.8,13.22,-0.31,0.66,0.68,0.4,5.6,-1.4,35.81,,,,,,,,,,
15.52.02.934,61.8,15.4,0,,,77303.5,12.94,-0.31,0.65,0.68,0.1,5.3,-1.8,35.81,,,,,,,,,,
15.52.02.942,78.0,19.5,0,,,78760.4,12.7,-0.31,0.65,0.68,-0.1,5.2,-1.6,35.81,,,,,,,,,,
15.52.02.955,53.4,13.4,0,,,76338.5,13.1,-0.31,0.65,0.68,0.7,5.8,-1.3,35.81,,,,,,,,,,
15.52.02.967,51.7,12.9,0,,,76267.5,13.11,-0.31,0.65,0.68,0.8,6.1,-1.2,35.81,,,,,,,,,,
15.52.02.975,57.1,14.3,0,,,78664.7,12.71,-0.31,0.66,0.68,0.5,5.7,-1.3,35.81,,,,,,,,,,
15.52.02.987,10.1,2.5,0,,,76818.4,13.02,-0.31,0.66,0.68,-0.1,6.0,-1.5,35.81,,,,,,,,,,
15.52.03.000,-4.1,1.0,0,,,74918.0,13.35,-0.31,0.65,0.68,-0.6,5.4,-1.7,35.81,,,,,,,,,,
15.52.03.008,7.2,1.8,0,,,73055.6,13.69,-0.31,0.65,0.69,-0.9,4.9,-2.0,35.81,,,,,,,,,,
15.52.03.023,-44.6,11.2,0,,,74924.2,13.35,-0.31,0.65,0.68,0.1,5.5,-1.8,35.81,,,,,,,,,,
15.52.03.033,8.7,2.2,0,,,75069.1,13.32,-0.31,0.65,0.68,1.4,6.4,-1.0,35.81,,,,,,,,,,
15.52.03.046,-16.3,4.1,0,,,75135.3,13.31,-0.31,0.66,0.67,2.2,7.0,-0.8,35.81,,,,,,,,,,
15.52.03.053,-40.3,10.1,0,,,76373.2,13.09,-0.31,0.66,0.68,1.5,6.4,-0.8,35.81,,,,,,,,,,
15.52.03.066,-59.7,14.9,0,,,71679.4,13.95,-0.31,0.67,0.68,1.1,6.0,-0.5,35.81,,,,,,,,,,
15.52.03.078,-61.5,15.4,0,,,77325.0,12.93,-0.3,0.66,0.68,0.5,5.5,-1.0,35.81,,,,,,,,,,
15.52.03.086,-42.5,10.6,0,,,75717.2,13.21,-0.31,0.66,0.69,-0.2,5.6,-1.7,35.81,,,,,,,,,,
15.52.03.098,-73.8,18.4,0,,,78056.2,12.81,-0.31,0.65,0.68,0.1,5.1,-1.7,35.81,,,,,,,,,,
15.52.03.117,-51.9,13.0,0,,,78927.8,12.67,-0.31,0.64,0.69,0.1,5.0,-1.4,35.81,,,,,,,,,,
15.52.03.123,-68.9,17.2,0,,,74500.6,13.42,-0.31,0.64,0.69,1.3,5.3,-1.1,35.81,,,,,,,,,,
15.52.03.131,-75.3,18.8,0,,,75241.7,13.29,-0.31,0.65,0.69,1.5,5.3,-0.9,35.81,,,,,,,,,,
15.52.03.143,-77.6,19.4,0,,,76930.1,13.0,-0.3,0.65,0.68,1.3,6.0,-0.8,35.81,,,,,,,,,,
15.52.03.155,-103.5,25.9,0,,,76403.6,13.09,-0.31,0.66,0.69,1.0,5.8,-0.6,35.81,,,,,,,,,,
15.52.03.168,-74.5,18.6,0,,,74186.1,13.48,-0.31,0.65,0.68,1.2,5.2,-0.8,35.81,,,,,,,,,,
15.52.03.176,-150.2,37.6,0,,,75895.5,13.18,-0.31,0.66,0.67,1.5,5.3,-0.2,35.81,,,,,,,,,,
15.52.03.188,-110.7,27.7,0,,,77124.3,12.97,-0.31,0.66,0.6,1.3,5.3,-0.6,35.81,,,,,,,,,,
15.52.03.215,-114.2,28.6,0,,,73972.1,13.52,-0.31,0.66,0.68,1.3,5.6,-3.0,35.81,,,,,,,,,,
15.52.03.217,-130.5,32.6,0,,,73651.7,13.58,-0.31,0.66,0.68,1.3,5.6,-0.5,35.81,,,,,,,,,,
15.52.03.221,-115.6,28.9,0,,,73542.8,13.6,-0.3,0.65,0.68,1.1,5.8,-0.8,35.81,,,,,,,,,,
15.52.03.233,-145.7,36.4,0,,,72405.0,13.81,-0.3,0.66,0.68,0.9,5.6,-1.2,35.81,,,,,,,,,,
15.52.03.246,-150.9,37.7,0,,,75198.7,13.3,-0.3,0.66,0.68,0.9,,,35.81,,,,,,,,,,
15.52.03.269,-160.8,40.2,0,,,76980.8,12.99,-0.31,0.65,0.68,0.7,6.0,-1.6,35.81,,,,,,,,,,
15.52.03.271,-163.3,40.8,0,,,76290.9,13.11,-0.31,0.65,0.68,0.8,5.9,-1.4,35.81,,,,,,,,,,
15.52.03.279,-4.7,1.2,1,1.0,95.7,71763.2,13.93,-0.31,0.65,0.68,0.6,6.1,-1.2,35.81,,,,,,,,,,
15.52.03.287,72.9,18.2,0,1.0,,72265.9,13.84,-0.31,0.668,,0.7,5.5,-1.0,35.81,,,,,,,,,,
15.52.03.309,157.6,39.4,0,1.0,,73555.4,13.6,-0.3,0.66,0.68,0.7,5.5,-1.0,35.81,,,,,,,,,,
15.52.03.311,162.8,40.7,0,1.0,,75549.9,13.24,-0.31,0.66,0.68,0.5,5.7,-1.3,35.81,,,,,,,,,,
15.52.03.323,256.7,64.2,0,1.0,,74165.9,13.48,-0.3,0.66,0.68,0.4,5.8,-1.6,35.81,,,,,,,,,,
15.52.03.332,286.7,71.7,0,1.0,,72165.9,13.86,-0.3,0.66,0.68,0.4,6.3,-1.7,35.81,,,,,,,,,,
15.52.03.344,327.1,81.8,0,1.0,,73810.5,13.55,-0.31,0.66,0.69,0.3,5.8,-1.6,35.81,,,,,,,,,,
15.52.03.355,352.7,88.2,0,1.0,,74889.2,13.35,-0.31,0.66,0.69,0.2,5.8,-1.3,35.81,,,,,,,,,,
15.52.03.367,365.3,91.3,0,1.0,,75811.4,13.19,-0.31,0.65,0.68,0.2,5.9,-1.5,35.81,,,,,,,,,,
15.52.03.376,380.4,95.1,0,1.0,,71132.8,14.06,-0.31,0.66,0.68,0.2,6.0,-1.4,35.81,,,,,,,,,,
15.52.03.386,420.3,105.1,0,1.0,,78259.3,12.78,-0.31,0.66,0.68,0.3,5.6,-1.3,35.81,,,,,,,,,,
15.52.03.398,447.6,111.9,0,1.0,,74004.6,13.51,-0.31,0.65,0.69,0.5,5.5,-1.4,35.81,,,,,,,,,,
15.52.03.409,447.7,111.9,0,1.0,,78953.1,12.67,-0.3,0.66,0.68,1.1,5.4,-1.0,35.81,,,,,,,,,,
15.52.03.414,391.6,97.9,0,1.0,,78321.5,12.77,-0.3,0.65,0.68,2.0,6.0,-0.6,35.81,,,,,,,,,,
15.52.03.431,330.9,82.7,0,1.0,,73761.0,13.56,-0.31,0.66,0.68,1.8,6.4,-0.4,35.81,,,,,,,,,,
15.52.03.435,319.8,80.0,0,1.0,,77853.0,12.84,-0.31,0.66,0.68,1.4,6.5,-0.7,35.81,,,,,,,,,,
15.52.03.447,260.2,65.0,0,1.0,,77711.2,12.87,-0.31,0.66,0.67,1.3,6.6,-0.9,35.81,,,,,,,,,,
15.52.03.455,192.0,48.0,0,1.0,,74891.7,13.35,-0.3,0.65,0.68,1.3,5.8,-0.7,35.81,,,,,,,,,,
15.52.03.468,152.7,38.2,0,1.0,,76539.9,13.07,-0.31,0.66,0.69,1.3,5.7,-0.8,35.81,,,,,,,,,,
15.52.03.478,89.1,22.3,0,1.0,,77108.1,12.97,-0.31,0.66,0.68,0.9,5.3,-0.9,35.81,,,,,,,,,,
15.52.03.488,40.5,10.1,0,1.0,,77177.5,12.96,-0.31,0.65,0.68,0.1,4.6,-1.5,35.81,,,,,,,,,,
15.52.03.500,4.0,1.0,0,1.0,,74278.3,13.46,-0.31,0.65,0.69,1.6,5.8,0.4,35.81,,,,,,,,,,
15.52.03.508,-6.4,1.6,0,1.0,,77908.0,12.84,-0.31,0.65,0.68,2.6,6.2,1.0,35.81,,,,,,,,,,
15.52.03.516,37.6,9.4,0,1.0,,76333.1,13.1,-0.31,0.65,0.68,2.6,5.7,1.4,35.81,,,,,,,,,,
15.52.03.529,90.8,22.7,0,1.0,,76107.9,13.14,-0.31,0.66,0.68,2.4,6.2,1.0,35.81,,,,,,,,,,
15.52.03.537,33.2,8.3,0,1.0,,68543.5,14.59,-0.3,0.66,0.68,2.8,6.5,1.1,35.81,,,,,,,,,,
15.52.03.549,63.6,15.9,0,1.0,,80019.2,12.5,-0.31,0.66,0.68,2.3,6.6,0.7,35.81,,,,,,,,,,
15.52.03.558,60.7,15.2,0,1.0,,72847.8,13.73,-0.31,0.67,0.68,2.2,6.5,0.6,35.81,,,,,,,,,,
15.52.03.576,34.1,8.5,0,1.0,,77689.1,12.87,-0.31,0.66,0.68,1.7,6.9,0.3,35.81,,,,,,,,,,
15.52.03.579,35.0,8.8,0,1.0,,77708.2,12.87,-0.31,0.66,0.68,1.1,7.3,-0.2,35.81,,,,,,,,,,
15.52.03.591,67.5,16.9,0,1.0,,75550.2,13.24,-0.31,0.66,0.67,0.9,6.9,-0.8,35.81,,,,,,,,,,
15.52.03.601,-10.5,2.6,0,1.0,,76228.9,13.12,-0.3,0.66,0.67,0.2,6.3,-0.9,35.81,,,,,,,,,,
15.52.03.620,13.5,3.4,0,1.0,,74528.1,13.42,-0.31,0.66,0.67,-0.6,5.0,-1.4,35.81,,,,,,,,,,
15.52.03.623,-25.1,6.3,0,1.0,,76659.2,13.04,-0.3,0.66,0.69,-1.1,4.8,-1.8,35.81,,,,,,,,,,
15.52.03.635,-19.6,4.9,0,1.0,,76075.1,13.14,-0.31,0.66,0.68,-1.1,5.0,-2.2,35.81,,,,,,,,,,
15.52.03.643,-33.5,8.4,0,1.0,,72113.8,13.87,-0.3,0.65,0.69,-0.7,5.5,-1.6,35.81,,,,,,,,,,
15.52.03.665,-19.9,5.0,0,1.0,,75346.3,13.27,-0.31,0.65,0.68,0.0,5.3,-1.2,35.81,,,,,,,,,,
15.52.03.698,-27.5,6.9,0,1.0,,74506.9,13.42,-0.3,0.66,0.68,0.0,5.9,-0.9,35.88,,,,,,,,,,
15.52.03.702,-35.1,8.8,0,1.0,,76347.0,13.1,-0.3,0.66,0.68,-0.2,6.0,-0.6,35.88,,,,,,,,,,
15.52.03.714,-71.1,17.8,0,1.0,,79426.9,12.59,-0.31,0.66,0.68,0.0,6.2,-1.2,35.88,,,,,,,,,,
15.52.03.721,-58.0,14.5,0,1.0,,77476.1,12.91,-0.3,0.65,0.68,0.0,6.4,-1.1,35.88,,,,,,,,,,
15.52.03.733,,,0,1.0,,,,,,,,,,,,,,,,,,,,
15.52.03.750,,,0,1.0,,,,,,,,,,,,35.81,,,,,,,,
15.52.03.758,-86.8,21.7,0,1.0,,71988.1,13.89,-0.31,0.64,0.68,1.0,6.6,-1.4,35.88,,,,,,,,,,
15.52.03.770,-90.9,22.7,0,1.0,,76882.9,13.01,-0.31,0.65,0.68,1.1,6.2,-0.8,35.88,,,,,,,,,,
15.52.03.778,-70.2,17.6,0,1.0,,75527.6,13.24,-0.3,0.66,0.68,1.1,6.3,-0.9,35.88,,,,,,,,,,
15.52.03.791,-104.7,26.2,0,1.0,,71991.4,13.89,-0.3,0.66,0.68,0.3,6.1,-1.4,35.88,,,,,,,,,,
15.52.03.800,-132.6,33.2,0,1.0,,81796.0,12.23,-0.3,0.66,0.67,0.1,6.0,-1.7,35.88,,,,,,,,,,
15.52.03.811,-100.0,25.0,0,1.0,,79510.7,12.58,-0.31,0.66,0.68,0.1,6.1,-2.0,35.88,,,,,,,,,,
15.52.03.822,-132.6,33.2,0,1.0,,73092.6,13.68,-0.31,0.67,0.68,0.1,5.9,-1.4,35.88,,,,,,,,,,
15.52.03.832,-160.8,40.2,0,1.0,,74921.0,13.35,-0.31,0.66,0.68,0.3,6.1,-1.5,35.88,,,,,,,,,,
15.52.03.843,-125.8,31.4,0,1.0,,75301.4,13.28,-0.31,0.66,0.68,0.2,5.7,-1.4,35.88,,,,,,,,,,
15.52.03.855,-166.7,41.7,0,1.0,,80604.1,12.41,-0.31,0.66,0.69,0.1,5.7,-1.4,35.88,,,,,,,,,,
15.52.03.860,-119.1,29.8,0,1.0,,76928.0,13.0,-0.31,0.66,0.69,0.4,5.7,-1.2,35.88,,,,,,,,,,
15.52.03.872,-167.7,41.9,0,1.0,,73582.1,13.59,-0.3,0.66,0.68,0.5,5.5,-1.4,35.88,,,,,,,,,,
15.52.03.881,-139.0,34.8,0,1.0,,75428.3,13.26,-0.3,0.65,0.69,0.3,5.9,-1.5,35.88,,,,,,,,,,
15.52.03.893,-145.7,36.4,0,1.0,,76564.3,13.06,-0.3,0.65,0.69,0.0,5.7,-1.3,35.88,,,,,,,,,,
15.52.03.901,54.1,13.5,1,2.0,95.4,73347.0,13.63,-0.3,0.66,0.68,0.5,6.2,-1.4,35.88,,,,,,,,,,
15.52.03.913,89.6,22.4,0,2.0,,79092.5,12.64,-0.3,0.65,0.68,0.2,6.5,-1.3,35.88,,,,,,,,,,
15.52.03.922,150.1,37.5,0,2.0,,75511.6,13.24,-0.3,0.66,0.67,1.1,6.7,-1.6,35.88,,,,,,,,,,
15.52.03.934,212.1,53.0,0,2.0,,75793.8,13.19,-0.3,0.66,0.68,1.0,6.3,-1.6,35.88,,,,,,,,,,
15.52.03.942,295.4,73.8,0,2.0,,77209.6,12.95,-0.3,0.66,0.67,1.0,7.1,-2.0,35.88,,,,,,,,,,
15.52.03.954,360.6,90.2,0,2.0,,72558.7,13.78,-0.31,0.66,0.68,0.7,6.6,-1.8,35.88,,,,,,,,,,
15.52.03.963,358.4,89.6,0,2.0,,71820.0,13.92,-0.31,0.66,0.68,0.4,6.2,-1.9,35.88,,,,,,,,,,
15.52.03.975,392.4,98.1,0,2.0,,76094.1,13.14,-0.31,0.66,0.68,0.7,6.9,-1.6,35.88,,,,,,,,,,
15.52.03.983,365.0,91.2,0,2.0,,75825.4,13.19,-0.31,0.66,0.68,0.3,6.7,-1.7,35.88,,,,,,,,,,
15.52.04.000,420.5,105.1,0,2.0,,76166.4,13.13,-0.31,0.66,0.68,-0.2,5.8,-1.2,35.88,,,,,,,,,,
15.52.04.003,406.7,101.7,0,2.0,,75375.5,13.27,-0.3,0.65,0.68,0.1,6.2,-1.3,35.88,,,,,,,,,,
15.52.04.016,414.9,103.7,0,2.0,,76908.4,13.0,-0.3,0.66,0.68,0.2,7.1,-1.3,35.88,,,,,,,,,,
15.52.04.025,365.5,91.4,0,2.0,,73453.8,13.61,-0.31,0.66,0.67,0.9,7.0,-0.8,35.88,,,,,,,,,,
15.52.04.043,367.6,91.9,0,2.0,,76476.9,13.08,-0.3,0.66,0.67,1.1,7.4,-0.5,35.88,,,,,,,,,,
15.52.04.054,317.7,79.4,0,2.0,,74304.9,13.46,-0.3,0.66,0.68,0.2,7.8,-0.6,35.88,,,,,,,,,,
15.52.04.065,240.5,60.1,0,2.0,,74385.3,13.44,-0.31,0.66,0.68,-0.6,8.4,-0.6,35.88,,,,,,,,,,
15.52.04.076,180.2,45.0,0,2.0,,74584.4,13.41,-0.3,0.66,0.68,-1.8,8.2,-0.7,35.88,,,,,,,,,,
15.52.04.078,189.7,47.4,0,2.0,,74962.4,13.34,-0.31,0.66,0.68,-2.0,8.8,-0.7,35.88,,,,,,,,,,
15.52.04.088,123.4,30.8,0,2.0,,72259.1,13.84,-0.32,0.65,0.68,-2.3,10.1,0.1,35.88,,,,,,,,,,
15.52.04.098,65.9,16.5,0,2.0,,74901.9,13.35,-0.32,0.64,0.69,-1.6,10.7,0.7,35.88,,,,,,,,,,
15.52.04.106,22.3,5.6,0,2.0,,76833.1,13.02,-0.32,0.64,0.69,-1.5,12.4,2.5,35.88,,,,,,,,,,
15.52.04.119,14.3,3.6,0,2.0,,74637.3,13.4,-0.32,0.65,0.68,0.4,11.6,3.5,35.88,,,,,,,,,,
15.52.04.127,33.5,8.4,0,2.0,,73579.3,13.59,-0.31,0.66,0.66,-1.2,8.5,4.3,35.88,,,,,,,,,,
15.52.04.139,51.5,12.9,0,2.0,,75349.3,13.27,-0.31,0.68,0.68,-3.1,6.1,4.3,35.88,,,,,,,,,,
15.52.04.147,54.6,13.6,0,2.0,,73060.1,13.69,-0.32,0.67,0.68,-7.0,4.2,3.2,35.88,,,,,,,,,,
15.52.04.160,104.4,26.1,0,2.0,,75498.8,13.25,-0.34,0.61,0.7,-6.9,8.7,6.7,35.88,,,,,,,,,,
15.52.04.167,75.5,18.9,0,2.0,,78242.6,12.78,-0.3,0.66,0.7,-8.4,37.0,-6.2,35.88,,,,,,,,,,
15.52.04.180,63.1,15.8,0,2.0,,77691.7,12.87,-0.3,0.69,0.66,-20.3,35.5,-16.4,35.88,,,,,,,,,,
15.52.04.189,47.4,11.8,0,2.0,,79468.0,12.58,-0.29,0.7,0.67,-28.5,26.2,-27.1,35.88,,,,,,,,,,
15.52.04.201,70.4,17.6,0,2.0,,74815.3,13.37,-0.32,0.72,0.73,-30.9,32.2,-24.2,35.88,,,,,,,,,,
15.52.04.213,63.6,15.9,0,2.0,,75943.0,13.17,-0.35,0.68,0.78,-29.3,52.0,-35.2,35.88,,,,,,,,,,
15.52.04.221,20.5,5.1,0,2.0,,76128.6,13.14,-0.27,0.61,0.62,-36.2,29.5,-41.6,35.88,,,,,,,,,,
15.52.04.233,13.1,3.3,0,2.0,,74010.3,13.51,-0.4,0.64,0.63,-15.9,-6.0,-18.3,35.88,,,,,,,,,,
15.52.04.241,-14.2,3.6,0,2.0,,72986.5,13.7,-0.3,0.62,0.73,-11.7,15.8,-17.9,35.88,,,,,,,,,,
15.52.04.254,-29.3,7.3,0,2.0,,74020.4,13.51,-0.36,0.62,0.71,-27.2,56.2,-39.8,35.88,,,,,,,,,,
15.52.04.264,-3.5,0.9,0,2.0,,81115.7,12.33,-0.38,0.59,0.66,-50.8,45.6,-60.0,35.88,,,,,,,,,,
15.52.04.278,-37.8,9.4,0,2.0,,78914.5,12.67,-0.41,0.57,0.69,-54.5,20.7,-48.6,35.88,,,,,,,,,,
15.52.04.289,-17.9,4.5,0,2.0,,73454.2,13.61,-0.41,0.55,0.72,-22.1,10.8,-24.2,35.88,,,,,,,,,,
15.52.04.300,-32.2,8.0,0,2.0,,76067.6,13.15,-0.39,0.56,0.71,1.3,16.5,-6.1,35.88,,,,,,,,,,
15.52.04.307,-53.9,13.5,0,2.0,,75334.6,13.27,-0.4,0.58,0.7,-2.0,20.9,-9.2,35.88,,,,,,,,,,
15.52.04.315,-37.1,9.3,0,2.0,,74442.9,13.43,-0.4,0.58,0.69,-18.5,18.7,-21.0,35.88,,,,,,,,,,
15.52.04.328,-69.0,17.2,0,2.0,,75667.0,13.22,-0.39,0.57,0.7,-22.7,18.3,-26.8,35.88,,,,,,,,,,
15.52.04.340,-44.5,11.1,0,2.0,,76057.8,13.15,-0.39,0.57,0.71,-16.0,22.0,-18.9,35.88,,,,,,,,,,
15.52.04.348,-63.0,15.8,0,2.0,,80930.5,12.36,-0.4,0.57,0.71,-4.9,22.2,-10.4,35.88,,,,,,,,,,
15.52.04.360,-97.4,24.4,0,2.0,,77217.6,12.95,-0.41,0.58,0.71,-4.8,23.4,-10.3,35.88,,,,,,,,,,
15.52.04.376,-106.8,26.7,0,2.0,,77130.9,12.96,-0.42,0.59,0.71,-10.1,24.6,-15.3,35.88,,,,,,,,,,
15.52.04.399,-114.7,,0,2.0,,76684.0,13.04,-0.43,0.58,0.71,-13.3,29.1,-20.3,35.88,,,,,,,,,,
15.52.04.410,-110.1,27.5,0,2.0,,78913.3,12.67,-0.43,0.58,0.71,-13.0,,-24.9,35.88,,,,,,,,,,
15.52.04.421,-86.2,21.6,0,2.0,,74504.7,13.42,-0.43,0.57,0.69,-15.6,28.8,-24.9,35.88,,,,,,,,,,
15.52.04.423,-123.7,30.9,0,2.0,,74751.4,13.38,-0.43,0.57,0.7,-23.2,24.9,-29.5,35.88,,,,,,,,,,
15.52.04.434,-129.8,32.4,0,2.0,,75465.8,13.25,-0.43,0.56,0.69,-26.7,20.8,-34.8,35.88,,,,,,,,,,
15.52.04.442,-140.2,35.0,0,2.0,,78318.5,12.77,-0.43,0.56,0.69,-28.8,19.1,-38.9,35.88,,,,,,,,,,
15.52.04.454,-103.0,25.8,0,2.0,,75257.7,13.29,-0.44,0.52,0.7,-28.7,18.6,-42.4,35.88,,,,,,,,,,
15.52.04.491,-139.4,34.8,0,2.0,,72818.3,13.73,-0.44,0.5,0.71,-28.9,17.9,-44.2,35.81,,,,,,,,,,
15.52.04.503,-152.4,38.1,0,2.0,,76737.9,13.03,-0.47,0.51,0.71,-20.5,16.1,-35.9,35.81,,,,,,,,,,
15.52.04.512,55.1,13.8,1,3.0,98.8,77760.9,12.86,-0.49,0.5,0.71,-14.3,15.0,-30.2,35.81,,,,,,,,,,
15.52.04.524,56.8,14.2,0,3.0,,73002.2,13.7,-0.5,0.49,0.71,-12.6,13.5,-24.3,35.81,,,,,,,,,,
15.52.04.537,171.6,42.9,0,3.0,,77008.7,12.99,-0.49,0.49,0.71,-10.9,12.3,-18.5,35.81,,,,,,,,,,
15.52.04.544,149.1,37.3,0,3.0,,77278.6,12.94,-0.49,0.46,0.71,-9.2,9.8,-11.7,35.81,,,,,,,,,,
15.52.04.556,267.5,66.9,0,3.0,,75920.1,13.17,-0.5,0.45,0.72,-5.3,5.2,-6.2,35.81,,,,,,,,,,
15.52.04.565,287.1,71.8,0,3.0,,77595.7,12.89,-0.5,0.44,0.72,-0.7,4.2,-1.3,35.81,,,,,,,,,,
15.52.04.577,319.5,79.9,0,3.0,,78388.6,12.76,-0.49,0.45,0.73,4.2,6.2,1.3,35.81,,,,,,,,,,
15.52.04.586,374.4,93.6,0,3.0,,76445.8,13.08,-0.48,0.48,0.73,6.2,7.7,3.5,35.81,,,,,,,,,,
15.52.04.597,407.8,102.0,0,3.0,,77932.6,12.83,-0.48,0.5,0.72,5.5,8.4,3.2,35.81,,,,,,,,,,
15.52.04.611,397.5,99.4,0,3.0,,74448.2,13.43,-0.48,0.51,0.72,3.4,10.8,1.4,35.81,,,,,,,,,,
15.52.04.618,392.2,98.0,0,3.0,,73219.6,13.66,-0.48,0.51,0.72,1.0,13.1,-1.5,35.81,,,,,,,,,,
15.52.04.627,376.4,94.1,0,3.0,,79135.7,12.64,-0.49,0.5,0.72,-1.5,15.7,-3.9,35.81,,,,,,,,,,
15.52.04.638,469.2,117.3,0,3.0,,74615.2,13.4,-0.5,0.5,0.72,-3.3,18.1,-5.6,35.81,,,,,,,,,,
15.52.04.647,373.8,93.4,0,3.0,,75696.4,13.21,-0.5,0.49,0.71,-5.8,21.1,-7.9,35.81,,,,,,,,,,
15.52.04.660,380.7,95.2,0,3.0,,73903.5,13.53,-0.5,0.49,0.72,-7.6,23.1,-11.9,35.81,,,,,,,,,,
15.52.04.671,294.1,73.5,0,3.0,,73619.1,13.58,-0.5,0.49,0.72,-10.2,23.1,-17.1,35.81,,,,,,,,,,
15.52.04.681,249.3,62.3,0,3.0,,76426.9,13.08,-0.5,0.47,0.7,-10.5,19.9,-25.3,35.81,,,,,,,,,,
15.52.04.692,186.3,46.6,0,3.0,,75612.8,13.23,-0.5,0.47,0.7,-13.8,15.4,-30.6,35.81,,,,,,,,,,
15.52.04.700,125.5,31.4,0,3.0,,75866.5,13.18,-0.5,0.47,0.7,-16.3,12.0,-29.9,35.81,,,,,,,,,,
15.52.04.711,99.3,24.8,0,3.0,,75944.3,13.17,-0.51,0.46,0.71,-11.5,10.5,-28.1,35.81,,,,,,,,,,
15.52.04.723,8.8,2.2,0,3.0,,80160.2,12.48,-0.51,0.46,0.71,-9.2,11.2,-21.4,35.81,,,,,,,,,,
15.52.04.733,17.1,4.3,0,3.0,,78855.3,12.68,-0.53,0.45,0.71,-4.3,11.7,-17.2,35.81,,,,,,,,,,
15.52.04.745,23.9,6.0,0,3.0,,79091.4,12.64,-0.52,0.45,0.71,-5.1,12.7,-15.1,35.81,,,,,,,,,,
15.52.04.754,79.2,19.8,0,3.0,,71704.1,13.95,-0.53,0.45,0.72,-2.4,10.9,-13.3,35.81,,,,,,,,,,
15.52.04.765,42.7,10.7,0,3.0,,77407.5,12.92,-0.53,0.44,0.71,-1.1,10.6,-9.7,35.81,,,,,,,,,,
15.52.04.774,101.4,25.4,0,3.0,,72214.1,13.85,-0.53,0.43,0.71,2.0,8.8,-3.8,35.81,,,,,,,,,,
15.52.04.786,42.1,10.5,0,3.0,,74346.4,13.45,-0.53,0.43,0.7,5.7,7.5,1.2,35.81,,,,,,,,,,
15.52.04.794,63.6,15.9,0,3.0,,79553.2,12.57,-0.54,0.44,0.71,6.9,7.7,3.2,35.81,,,,,,,,,,
15.52.04.807,92.2,23.0,0,3.0,,79073.0,12.65,-0.53,0.47,0.7,6.1,7.4,3.2,35.81,,,,,,,,,,
15.52.04.815,64.7,16.2,0,3.0,,77979.8,12.82,-0.53,0.46,0.7,4.6,5.7,2.4,35.81,,,,,,,,,,
15.52.04.827,53.8,13.4,0,3.0,,77427.8,12.92,-0.53,0.45,0.7,4.0,6.0,2.0,35.81,,,,,,,,,,
15.52.04.836,21.0,5.2,0,3.0,,76569.9,13.06,-0.53,0.46,0.71,3.9,6.6,2.7,35.81,,,,,,,,,,
15.52.04.847,5.7,1.4,0,3.0,,76876.5,13.01,-0.53,0.45,0.71,4.2,6.5,2.4,35.81,,,,,,,,,,
15.52.04.856,1.6,0.4,0,3.0,,78284.5,12.77,-0.54,0.46,0.71,3.5,5.4,1.7,35.81,,,,,,,,,,
15.52.04.875,-1.9,0.5,0,3.0,,72654.7,13.76,-0.52,0.45,0.7,2.7,4.1,1.0,35.81,,,,,,,,,,
15.52.04.878,-14.0,3.5,0,3.0,,76543.8,13.06,-0.52,0.46,0.71,3.1,1.4,1.3,35.81,,,,,,,,,,
15.52.04.889,-36.8,9.2,0,3.0,,74228.0,13.47,-0.52,0.46,0.71,3.5,1.2,1.6,35.81,,,,,,,,,,
15.52.04.902,-52.1,13.0,0,3.0,,75076.8,13.32,-0.52,0.46,0.71,2.4,0.9,2.4,35.81,,,,,,,,,,
15.52.04.909,-26.6,6.6,0,3.0,,75453.9,13.25,-0.52,0.46,0.72,3.6,2.8,2.7,35.81,,,,,,,,,,
15.52.04.922,-53.6,13.4,0,3.0,,76004.3,13.16,-0.53,0.47,0.73,4.3,6.2,3.5,35.81,,,,,,,,,,
15.52.04.933,-69.6,17.4,0,3.0,,74610.2,13.4,-0.52,0.47,0.72,5.1,10.5,3.0,35.81,,,,,,,,,,
15.52.04.942,-23.1,5.8,0,3.0,,70799.5,14.12,-0.53,0.47,0.71,3.9,12.4,1.6,35.81,,,,,,,,,,
15.52.04.954,-41.6,10.4,0,3.0,,76084.9,13.14,-0.52,0.47,0.71,2.7,12.2,0.4,35.81,,,,,,,,,,
15.52.04.966,-55.6,13.9,0,3.0,,74862.0,13.36,-0.52,0.48,0.71,1.8,10.7,0.0,35.81,,,,,,,,,,
15.52.04.974,-89.9,22.5,0,3.0,,75189.9,13.3,-0.52,0.47,0.71,1.8,10.3,0.1,35.81,,,,,,,,,,
15.52.04.987,-84.9,21.2,0,3.0,,77385.6,12.92,-0.53,0.47,0.7,1.0,11.1,-0.3,35.81,,,,,,,,,,
15.52.04.999,-97.7,24.4,0,3.0,,76352.1,13.1,-0.53,0.46,0.7,0.5,10.9,-1.1,35.81,,,,,,,,,,
15.52.05.011,-93.2,23.3,0,3.0,,76144.2,13.13,-0.53,0.45,0.7,1.4,6.2,-0.4,35.81,,,,,,,,,,
15.52.05.020,-113.4,28.4,0,3.0,,75539.7,13.24,-0.52,0.43,0.7,6.6,4.8,2.2,35.81,,,,,,,,,,
15.52.05.036,-133.1,33.3,0,3.0,,75767.3,13.2,-0.52,0.41,0.69,11.6,3.4,6.2,35.81,,,,,,,,,,
15.52.05.044,-101.4,25.4,0,3.0,,73578.4,13.59,-0.52,0.46,0.69,15.2,-6.1,11.0,35.81,,,,,,,,,,
15.52.05.053,-101.4,25.4,0,3.0,,76155.7,13.13,-0.53,0.48,0.7,18.2,-9.1,15.9,35.81,,,,,,,,,,
15.52.05.067,-93.1,23.3,0,3.0,,73846.9,13.54,-0.53,0.49,0.7,20.0,-3.8,17.9,35.81,,,,,,,,,,
15.52.05.077,-127.8,32.0,0,3.0,,74590.9,13.41,-0.55,0.51,0.7,20.0,-1.8,19.9,35.81,,,,,,,,,,
15.52.05.085,-162.1,40.5,0,3.0,,72934.4,13.71,-0.53,0.47,0.67,19.5,-2.6,19.6,35.81,,,,,,,,,,
15.52.05.097,-142.7,35.7,0,3.0,,76998.5,12.99,-0.5,0.4,0.68,13.7,-17.5,19.1,35.81,,,,,,,,,,
15.52.05.110,-146.8,36.7,0,3.0,,80167.6,12.47,-0.5,0.48,0.71,16.9,-35.4,31.5,35.81,,,,,,,,,,
15.52.05.122,-128.1,32.0,0,3.0,,77024.7,12.98,-0.5,0.48,0.73,27.7,-24.4,51.4,35.81,,,,,,,,,,
15.52.05.130,18.5,4.6,1,4.0,94.9,69834.4,14.32,-0.5,0.5,0.73,32.7,-10.9,65.1,35.81,,,,,,,,,,
15.52.05.142,106.5,26.6,0,4.0,,76530.3,13.07,-0.47,0.59,0.7,33.9,-9.2,54.7,35.81,,,,,,,,,,
15.52.05.155,197.6,49.4,0,4.0,,75196.7,13.3,-0.47,0.62,0.71,23.3,-8.7,29.2,35.81,,,,,,,,,,
15.52.05.164,229.3,57.3,0,4.0,,76333.0,13.1,-0.45,0.56,0.66,7.1,-10.1,7.9,35.81,,,,,,,,,,
15.52.05.176,233.1,58.3,0,4.0,,78645.4,12.72,-0.43,0.54,0.66,-0.6,-22.5,4.6,35.81,,,,,,,,,,
15.52.05.187,293.7,73.4,0,4.0,,76422.2,13.09,-0.43,0.57,0.7,3.4,-35.6,23.3,35.81,,,,,,,,,,
15.52.05.200,410.9,102.7,0,4.0,,77769.1,12.86,-0.45,0.52,0.73,17.2,-23.4,46.3,35.81,,,,,,,,,,
15.52.05.209,383.1,95.8,0,4.0,,76768.1,13.03,-0.43,0.55,0.73,26.2,-8.2,51.5,35.81,,,,,,,,,,
15.52.05.221,451.9,113.0,0,4.0,,73281.6,13.65,-0.42,0.58,0.71,21.4,-2.7,27.4,35.81,,,,,,,,,,
15.52.05.233,366.9,91.7,0,4.0,,77787.8,12.86,-0.42,0.61,0.71,-0.4,1.2,-4.1,35.81,,,,,,,,,,
15.52.05.241,435.6,108.9,0,4.0,,77650.2,12.88,-0.44,0.58,0.71,-12.9,2.8,-14.3,35.81,,,,,,,,,,
15.52.05.253,440.2,110.0,0,4.0,,75938.1,13.17,-0.43,0.54,0.71,-3.8,4.0,-6.4,35.81,,,,,,,,,,
15.52.05.294,255.0,63.8,0,4.0,,77940.4,12.83,-0.42,0.53,0.71,5.6,8.8,0.5,35.81,,,,,,,,,,
15.52.05.303,184.9,46.2,0,4.0,,77674.6,12.87,-0.42,0.55,0.71,-6.7,17.5,-8.8,35.81,,,,,,,,,,
15.52.05.315,129.9,32.5,0,4.0,,75619.4,13.22,-0.43,0.56,0.7,-4.8,19.6,-7.8,35.81,,,,,,,,,,
15.52.05.323,109.5,27.4,0,4.0,,74172.8,13.48,-0.43,0.57,0.7,-6.7,18.6,-9.6,35.81,,,,,,,,,,
15.52.05.335,33.6,8.4,0,4.0,,74568.2,13.41,-0.43,0.56,0.7,-10.2,17.2,-13.2,35.81,,,,,,,,,,
15.52.05.344,2.6,0.6,0,4.0,,78651.5,12.71,-0.43,0.55,0.7,-11.8,15.3,-13.8,35.81,,,,,,,,,,
15.52.05.356,17.8,4.4,0,4.0,,75062.9,13.32,-0.44,0.54,0.72,-9.2,13.1,-11.2,35.81,,,,,,,,,,
15.52.05.368,65.2,16.3,0,4.0,,77241.9,12.95,-0.45,0.52,0.72,-4.9,14.0,-7.9,35.81,,,,,,,,,,
15.52.05.376,69.8,17.4,0,4.0,,74612.0,13.4,-0.45,0.51,0.72,-2.8,14.5,-7.1,35.81,,,,,,,,,,
15.52.05.388,66.0,16.5,0,4.0,,75337.5,13.27,-0.44,0.52,0.7,-2.9,12.1,-8.3,35.81,,,,,,,,,,
15.52.05.396,86.5,21.6,0,4.0,,77771.5,12.86,-0.44,0.55,0.69,-1.9,9.2,-7.1,35.81,,,,,,,,,,
15.52.05.409,58.6,14.6,0,4.0,,77486.4,12.91,-0.44,0.56,0.69,0.8,9.1,-3.4,35.81,,,,,,,,,,
15.52.05.418,62.3,15.6,0,4.0,,75515.8,13.24,-0.45,0.56,0.69,2.8,11.2,-1.1,35.81,,,,,,,,,,
15.52.05.425,63.6,15.9,0,4.0,,78990.6,12.66,-0.46,0.56,0.69,1.2,12.2,-2.4,35.81,,,,,,,,,,
15.52.05.439,42.1,10.5,0,4.0,,74309.6,13.46,-0.46,0.54,0.7,-2.1,11.3,-4.7,35.81,,,,,,,,,,
15.52.05.450,18.9,4.7,0,4.0,,74115.9,13.49,-0.46,0.53,0.7,-3.2,9.5,-4.8,35.81,,,,,,,,,,
15.52.05.458,-10.8,2.7,0,4.0,,75824.7,13.19,-0.46,0.51,0.71,-1.3,8.7,-2.5,35.81,,,,,,,,,,
15.52.05.470,-10.5,2.6,0,4.0,,77767.5,12.86,-0.46,0.51,0.72,1.1,10.3,-1.3,35.81,,,,,,,,,,
15.52.05.478,-24.6,6.2,0,4.0,,80787.4,12.38,-0.46,0.53,0.7,0.7,10.6,-1.7,35.81,,,,,,,,,,
15.52.05.491,-42.4,10.6,0,4.0,,72520.7,13.79,-0.46,0.55,0.7,-1.0,9.4,-3.3,35.81,,,,,,,,,,
15.52.05.499,-30.0,7.5,0,4.0,,76079.7,13.14,-0.45,0.56,0.69,-2.1,9.1,-5.3,35.81,,,,,,,,,,
15.52.05.511,-29.3,7.3,0,4.0,,78834.8,12.68,-0.46,0.57,0.7,-3.3,10.2,-7.4,35.81,,,,,,,,,,
15.52.05.519,-46.1,11.5,0,4.0,,76387.3,13.09,-0.46,0.55,0.7,-3.9,11.2,-9.4,35.81,,,,,,,,,,
15.52.05.532,-38.9,9.7,0,4.0,,74457.8,13.43,-0.47,0.53,0.7,-4.8,9.6,-9.6,35.81,,,,,,,,,,
15.52.05.544,-33.0,8.2,0,4.0,,75538.7,13.24,-0.46,0.52,0.7,-4.5,5.3,-8.2,35.81,,,,,,,,,,
15.52.05.552,-67.1,16.8,0,4.0,,75703.0,13.21,-0.46,0.51,0.71,-0.9,2.8,-5.7,35.81,,,,,,,,,,
15.52.05.564,-48.3,12.1,0,4.0,,79183.9,12.63,-0.46,0.52,0.71,2.5,2.7,-2.1,35.81,,,,,,,,,,
15.52.05.573,-64.9,16.2,0,4.0,,79192.2,12.63,-0.46,0.54,0.71,4.2,0.6,-0.4,35.81,,,,,,,,,,
15.52.05.585,-62.4,15.6,0,4.0,,74264.1,13.47,-0.46,0.54,0.7,3.1,-2.3,-1.3,35.81,,,,,,,,,,
15.52.05.599,-63.4,15.8,0,4.0,,80096.0,12.49,-0.46,0.55,0.7,3.1,-3.2,-1.2,35.81,,,,,,,,,,
15.52.05.605,-70.7,17.7,0,4.0,,74889.9,13.35,-0.47,0.54,0.71,4.4,-3.0,-0.1,35.81,,,,,,,,,,
15.52.05.618,-100.0,25.0,0,4.0,,76747.8,13.03,-0.47,0.53,0.69,6.2,-4.7,1.9,35.81,,,,,,,,,,
15.52.05.626,-124.2,31.0,0,4.0,,76851.8,13.01,-0.46,0.48,0.69,7.3,-9.2,3.5,35.81,,,,,,,,,,
15.52.05.638,-75.3,18.8,0,4.0,,74535.3,13.42,-0.44,0.49,0.69,8.1,-17.0,6.0,35.81,,,,,,,,,,
15.52.05.646,-108.7,27.2,0,4.0,,77945.2,12.83,-0.45,0.52,0.7,13.4,-24.8,13.4,35.81,,,,,,,,,,
15.52.05.659,-135.3,33.8,0,4.0,,72768.1,13.74,-0.45,0.52,0.71,20.4,-26.3,21.7,35.81,,,,,,,,,,
15.52.05.672,-120.5,30.1,0,4.0,,76976.6,12.99,-0.44,0.54,0.72,25.1,-21.4,26.9,35.81,,,,,,,,,,
15.52.05.680,-105.4,26.4,0,4.0,,77720.7,12.87,-0.43,0.57,0.71,25.0,-17.7,26.4,35.81,,,,,,,,,,
15.52.05.691,-130.3,32.6,0,4.0,,77437.0,12.91,-0.42,0.58,0.69,19.3,-18.4,21.8,35.81,,,,,,,,,,
15.52.05.700,-148.7,37.2,0,4.0,,79271.5,12.61,-0.4,0.61,0.68,12.8,-25.9,20.6,35.81,,,,,,,,,,
15.52.05.714,-128.8,32.2,0,4.0,,75868.5,13.18,-0.39,0.6,0.71,12.9,-30.7,25.9,35.81,,,,,,,,,,
15.52.05.724,-147.3,36.8,0,4.0,,71345.3,14.02,-0.4,0.56,0.74,24.3,-24.1,30.7,35.81,,,,,,,,,,
15.52.05.732,-192.1,48.0,0,4.0,,79620.3,12.56,-0.39,0.56,0.74,28.9,-10.1,34.0,35.81,,,,,,,,,,
15.52.05.745,34.7,8.7,1,5.0,97.8,75386.7,13.26,-0.39,0.58,0.73,24.2,2.5,25.3,35.81,,,,,,,,,,
15.52.05.753,59.7,14.9,0,5.0,,75010.0,13.33,-0.4,0.6,0.73,11.0,9.5,7.9,35.81,,,,,,,,,,
15.52.05.766,121.0,30.2,0,5.0,,73959.2,13.52,-0.4,0.6,0.71,-5.3,13.0,-6.7,35.81,,,,,,,,,,
15.52.05.777,237.5,59.4,0,5.0,,72950.9,13.71,-0.4,0.59,0.71,-10.5,14.5,-11.4,35.81,,,,,,,,,,
15.52.05.786,274.5,68.6,0,5.0,,72168.6,13.86,-0.39,0.58,0.7,-5.8,15.8,-7.9,35.81,,,,,,,,,,
15.52.05.798,311.7,77.9,0,5.0,,76377.5,13.09,-0.39,0.57,0.7,-4.3,17.7,-6.8,35.81,,,,,,,,,,
15.52.05.806,376.6,94.2,0,5.0,,78415.2,12.75,-0.39,0.57,0.69,-8.7,20.3,-11.7,35.81,,,,,,,,,,
15.52.05.818,402.2,100.6,0,5.0,,74940.4,13.34,-0.38,0.58,0.69,-12.3,19.1,-15.0,35.81,,,,,,,,,,
15.52.05.831,417.9,104.5,0,5.0,,76831.3,13.02,-0.39,0.58,0.71,-12.6,17.9,-14.9,35.81,,,,,,,,,,
15.52.05.839,416.9,104.2,0,5.0,,79705.5,12.55,-0.4,0.58,0.71,-9.1,17.8,-13.4,35.81,,,,,,,,,,
15.52.05.851,365.9,91.5,0,5.0,,76254.6,13.11,-0.41,0.58,0.7,-6.6,15.3,-12.0,35.81,,,,,,,,,,
15.52.05.864,395.0,98.8,0,5.0,,73787.1,13.55,-0.41,0.58,0.7,-4.9,10.5,-10.7,35.81,,,,,,,,,,
15.52.05.872,357.8,89.4,0,5.0,,76490.4,13.07,-0.42,0.57,0.7,-3.6,6.5,-7.9,35.81,,,,,,,,,,
15.52.05.887,336.3,84.1,0,5.0,,74338.8,13.45,-0.41,0.55,0.7,-1.2,2.8,-3.7,35.81,,,,,,,,,,
15.52.05.896,327.3,81.8,0,5.0,,77105.1,12.97,-0.42,0.54,0.71,2.1,-0.2,-0.3,35.81,,,,,,,,,,
15.52.05.905,259.8,65.0,0,5.0,,73972.2,13.52,-0.42,0.54,0.71,5.3,-0.7,2.7,35.81,,,,,,,,,,
15.52.05.917,240.3,60.1,0,5.0,,72517.4,13.79,-0.42,0.56,0.71,6.9,-0.9,4.2,35.81,,,,,,,,,,
15.52.05.925,149.1,37.3,0,5.0,,78244.9,12.78,-0.41,0.57,0.7,6.8,-1.6,4.8,35.81,,,,,,,,,,
15.52.05.938,80.9,20.2,0,5.0,,76427.5,13.08,-0.41,0.58,0.71,5.9,-2.7,4.3,35.81,,,,,,,,,,
15.52.05.946,23.5,5.9,0,5.0,,77345.5,12.93,-0.41,0.57,0.71,5.1,-2.8,3.9,35.81,,,,,,,,,,
15.52.05.958,-3.7,0.9,0,5.0,,74379.6,13.44,-0.4,0.57,0.7,5.1,-3.4,4.5,35.81,,,,,,,,,,
15.52.05.969,37.1,9.3,0,5.0,,72585.5,13.78,-0.4,0.55,0.71,5.0,-4.1,3.9,35.81,,,,,,,,,,
15.52.05.978,53.0,13.2,0,5.0,,78024.0,12.82,-0.4,0.56,0.71,5.5,-2.2,3.9,35.81,,,,,,,,,,
15.52.05.991,83.8,21.0,0,5.0,,78252.5,12.78,-0.4,0.58,0.71,6.4,-1.7,4.8,35.81,,,,,,,,,,
15.52.05.999,49.5,12.4,0,5.0,,74001.6,13.51,-0.4,0.59,0.71,5.7,-0.2,4.4,35.81,,,,,,,,,,
15.52.06.011,73.6,18.4,0,5.0,,78502.4,12.74,-0.4,0.59,0.71,2.8,3.4,0.6,35.81,,,,,,,,,,
15.52.06.019,62.3,15.6,0,5.0,,76279.0,13.11,-0.4,0.59,0.71,-0.7,4.5,-2.3,35.81,,,,,,,,,,
15.52.06.031,83.0,20.8,0,5.0,,75590.6,13.23,-0.4,0.58,0.7,-1.1,4.1,-2.7,35.81,,,,,,,,,,
15.52.06.040,66.7,16.7,0,5.0,,74098.6,13.5,-0.4,0.56,0.7,-0.8,2.3,-2.1,35.81,,,,,,,,,,
15.52.06.052,4.9,1.2,0,5.0,,77356.3,12.93,-0.39,0.57,0.7,-0.7,-0.6,-0.7,35.81,,,,,,,,,,
15.52.06.060,27.5,6.9,0,5.0,,77163.3,12.96,-0.39,0.58,0.71,0.2,-3.3,0.9,35.81,,,,,,,,,,
15.52.06.097,-39.8,10.0,0,5.0,,77031.3,12.98,-0.39,0.58,0.71,2.0,-1.4,1.4,35.88,,,,,,,,,,
15.52.06.115,-20.2,5.0,0,5.0,,71020.2,14.08,-0.39,0.58,0.72,1.5,1.7,-0.8,35.88,,,,,,,,,,
15.52.06.122,-37.7,9.4,0,5.0,,74971.4,13.34,-0.39,0.56,0.72,3.5,2.1,0.0,35.88,,,,,,,,,,
15.52.06.130,-27.9,7.0,0,5.0,,76261.3,13.11,-0.39,0.57,0.71,4.8,2.9,1.1,35.88,,,,,,,,,,
15.52.06.142,-31.9,8.0,0,5.0,,76219.2,13.12,-0.39,0.58,0.7,5.1,2.1,1.9,35.88,,,,,,,,,,
15.52.06.150,-33.1,8.3,0,5.0,,72612.7,13.77,-0.39,0.58,0.71,4.9,2.6,2.4,35.88,,,,,,,,,,
15.52.06.163,-55.9,14.0,0,5.0,,77009.9,12.99,-0.39,0.58,0.71,4.8,3.9,1.8,35.88,,,,,,,,,,
15.52.06.175,-44.4,11.1,0,5.0,,78239.5,12.78,-0.39,0.58,0.71,3.4,4.9,0.3,35.88,,,,,,,,,,
15.52.06.183,-66.2,16.6,0,5.0,,71964.6,13.9,-0.39,0.6,0.7,1.5,5.4,-1.4,35.88,,,,,,,,,,
15.52.06.199,-72.1,18.0,0,5.0,,76246.1,13.12,-0.39,0.59,0.71,0.1,5.5,-2.7,35.88,,,,,,,,,,
15.52.06.210,-66.5,16.6,0,5.0,,73682.9,13.57,-0.39,0.58,0.71,-1.3,5.8,-3.7,35.88,,,,,,,,,,
15.52.06.216,-83.2,20.8,0,5.0,,76233.7,13.12,-0.38,0.58,0.71,-1.3,6.2,-4.1,35.88,,,,,,,,,,
15.52.06.224,-82.9,20.7,0,5.0,,73496.2,13.61,-0.38,0.58,0.71,-1.0,6.1,-4.0,35.88,,,,,,,,,,
15.52.06.236,-97.2,24.3,0,5.0,,75990.2,13.16,-0.38,0.58,0.71,-0.6,7.0,-3.8,35.88,,,,,,,,,,
15.52.06.254,-90.2,22.6,0,5.0,,75904.4,13.17,-0.38,0.59,0.71,-0.4,7.6,-4.1,35.88,,,,,,,,,,
15.52.06.265,-131.2,32.8,0,5.0,,79882.1,12.52,-0.38,0.59,0.71,-0.3,8.6,-4.5,35.88,,,,,,,,,,
15.52.06.269,-170.3,42.6,0,5.0,,78438.9,12.75,-0.39,0.59,0.72,-1.0,8.5,-5.5,35.88,,,,,,,,,,
15.52.06.280,-118.9,29.7,0,5.0,,79628.9,12.56,-0.4,0.58,0.72,-1.9,8.5,-6.4,35.88,,,,,,,,,,
15.52.06.290,-152.0,38.0,0,5.0,,74081.4,13.5,-0.39,0.58,0.71,-2.0,8.7,-5.7,35.88,,,,,,,,,,
15.52.06.298,-150.2,37.6,0,5.0,,71646.1,13.96,-0.4,0.58,0.7,-1.2,8.9,-5.0,35.88,,,,,,,,,,
15.52.06.311,-113.7,28.4,0,5.0,,72876.9,13.72,-0.4,0.57,0.71,-0.6,8.2,-4.8,35.88,,,,,,,,,,
15.52.06.318,-116.6,29.2,0,5.0,,73833.7,13.54,-0.4,0.58,0.7,-1.1,6.3,-4.5,35.88,,,,,,,,,,
15.52.06.331,-127.1,31.8,0,5.0,,76107.8,13.14,-0.4,0.56,0.71,-0.9,5.7,-4.5,35.88,,,,,,,,,,
15.52.06.346,-172.0,43.0,0,5.0,,79632.7,12.56,-0.4,0.57,0.71,-0.3,5.9,-3.8,35.88,,,,,,,,,,
15.52.06.351,-156.7,39.2,0,5.0,,75785.5,13.2,-0.39,0.58,0.71,-0.2,5.4,-3.5,35.88,,,,,,,,,,
15.52.06.363,48.5,12.1,1,6.0,95.7,76880.3,13.01,-0.4,0.58,0.7,-0.7,5.3,-3.3,35.88,,,,,,,,,,
15.52.06.372,161.2,40.3,0,6.0,,77898.6,12.84,-0.39,0.58,0.71,-1.1,4.9,-3.6,35.88,,,,,,,,,,
15.52.06.389,219.7,54.9,0,6.0,,74872.4,13.36,-0.4,0.57,0.71,-1.2,5.0,-4.0,35.88,,,,,,,,,,
15.52.06.399,255.4,63.8,0,6.0,,76213.0,13.12,-0.39,0.57,0.71,-1.3,4.4,-4.0,35.88,,,,,,,,,,
15.52.06.403,269.7,67.4,0,6.0,,73491.5,13.61,-0.4,0.56,0.72,-0.8,4.4,-2.9,35.88,,,,,,,,,,
15.52.06.412,291.6,72.9,0,6.0,,71361.9,14.01,-0.4,0.55,0.72,0.7,4.9,-2.1,35.88,,,,,,,,,,
15.52.06.425,377.2,94.3,0,6.0,,76484.4,13.07,-0.4,0.57,0.72,1.6,4.7,-0.8,35.88,,,,,,,,,,
15.52.06.433,351.8,88.0,0,6.0,,76049.3,13.15,-0.4,0.58,0.71,2.5,5.8,-0.1,35.88,,,,,,,,,,
15.52.06.445,393.4,98.4,0,6.0,,76322.8,13.1,-0.4,0.58,0.71,1.8,6.3,-0.7,35.88,,,,,,,,,,
15.52.06.453,399.2,99.8,0,6.0,,78211.0,12.79,-0.39,0.58,0.71,0.7,6.6,-1.8,35.88,,,,,,,,,,
15.52.06.466,440.3,110.1,0,6.0,,79087.9,12.64,-0.4,0.58,0.71,0.0,6.1,-2.3,35.88,,,,,,,,,,
15.52.06.474,363.4,90.8,0,6.0,,75758.0,13.2,-0.4,0.57,0.71,-0.4,5.7,-2.4,35.88,,,,,,,,,,
15.52.06.486,391.8,98.0,0,6.0,,73848.1,13.54,-0.39,0.57,0.71,0.1,4.9,-2.5,35.88,,,,,,,,,,
15.52.06.495,346.7,86.7,0,6.0,,74216.4,13.47,-0.39,0.57,0.71,1.2,6.0,-1.5,35.88,,,,,,,,,,
15.52.06.510,310.9,77.7,0,6.0,,72361.3,13.82,-0.39,0.57,0.7,1.2,7.0,-1.6,35.88,,,,,,,,,,
15.52.06.515,326.8,81.7,0,6.0,,79590.0,12.56,-0.4,0.57,0.71,-0.1,7.4,-2.6,35.88,,,,,,,,,,
15.52.06.527,211.3,52.8,0,6.0,,73482.9,13.61,-0.4,0.58,0.71,-0.7,7.1,-3.1,35.88,,,,,,,,,,
15.52.06.535,201.5,50.4,0,6.0,,76235.7,13.12,-0.4,0.58,0.71,-0.2,7.8,-2.9,35.88,,,,,,,,,,
15.52.06.553,114.1,28.5,0,6.0,,72272.1,13.84,-0.4,0.57,0.71,0.4,8.1,-3.0,35.88,,,,,,,,,,
15.52.06.558,72.4,18.1,0,6.0,,76380.6,13.09,-0.4,0.58,0.71,-0.3,7.0,-3.5,35.88,,,,,,,,,,
15.52.06.568,9.9,2.5,0,6.0,,75255.4,13.29,-0.39,0.57,0.7,-0.5,6.5,-3.7,35.88,,,,,,,,,,
15.52.06.586,49.8,12.4,0,6.0,,72374.4,13.82,-0.4,0.58,0.71,-1.0,5.4,-3.1,35.88,,,,,,,,,,
15.52.06.591,23.9,6.0,0,6.0,,73752.3,13.56,-0.39,0.57,0.71,-0.8,5.8,-3.1,35.88,,,,,,,,,,
15.52.06.601,81.1,20.3,0,6.0,,73929.0,13.53,-0.4,0.57,0.71,-0.6,5.7,-2.8,35.88,,,,,,,,,,
15.52.06.609,41.3,10.3,0,6.0,,76663.2,13.04,-0.4,0.56,0.72,-0.6,5.3,-3.2,35.88,,,,,,,,,,
15.52.06.622,84.4,21.1,0,6.0,,77408.0,12.92,-0.4,0.56,0.71,-0.1,4.8,-2.8,35.88,,,,,,,,,,
15.52.06.630,57.9,14.5,0,6.0,,76585.6,13.06,-0.4,0.58,0.71,0.7,4.4,-1.9,35.88,,,,,,,,,,
15.52.06.643,66.6,16.6,0,6.0,,75830.9,13.19,-0.4,0.57,0.71,1.1,5.1,-1.5,35.88,,,,,,,,,,
15.52.06.650,89.9,22.5,0,6.0,,76548.5,13.06,-0.4,0.57,0.71,0.1,6.3,-2.4,35.88,,,,,,,,,,
15.52.06.664,65.8,16.4,0,6.0,,73904.7,13.53,-0.4,0.58,0.71,-1.0,5.9,-3.1,35.88,,,,,,,,,,
15.52.06.670,58.8,14.7,0,6.0,,76226.1,13.12,-0.4,0.58,0.71,-0.8,5.1,-3.3,35.88,,,,,,,,,,
15.52.06.683,27.3,6.8,0,6.0,,75503.8,13.24,-0.39,0.57,0.71,-0.5,4.7,-3.3,35.88,,,,,,,,,,
15.52.06.691,-16.7,4.2,0,6.0,,75423.6,13.26,-0.39,0.56,0.71,-0.6,4.6,-3.5,35.88,,,,,,,,,,
15.52.06.709,0.5,0.1,0,6.0,,76283.9,13.11,-0.4,0.56,0.71,-0.7,5.2,-3.9,35.88,,,,,,,,,,
15.52.06.715,-28.9,7.2,0,6.0,,72952.8,13.71,-0.4,0.55,0.72,0.0,5.6,-3.6,35.88,,,,,,,,,,
15.52.06.724,-23.6,5.9,0,6.0,,72731.8,13.75,-0.4,0.56,0.71,1.0,6.5,-2.2,35.88,,,,,,,,,,
15.52.06.732,-17.2,4.3,0,6.0,,77572.8,12.89,-0.4,0.56,0.71,2.2,6.5,-0.4,35.88,,,,,,,,,,
15.52.06.752,4.9,1.2,0,6.0,,74650.1,13.4,-0.4,0.56,0.71,2.9,6.1,1.0,35.88,,,,,,,,,,
15.52.06.755,-22.8,5.7,0,6.0,,77464.7,12.91,-0.41,0.57,0.71,2.5,5.6,1.3,35.88,,,,,,,,,,
15.52.06.765,-21.3,5.3,0,6.0,,75589.5,13.23,-0.41,0.56,0.7,2.4,4.9,1.2,35.88,,,,,,,,,,
15.52.06.777,-59.8,15.0,0,6.0,,75745.0,13.2,-0.4,0.57,0.71,2.4,3.0,1.6,35.88,,,,,,,,,,
15.52.06.788,-33.3,8.3,0,6.0,,78734.0,12.7,-0.4,0.57,0.71,2.8,3.1,2.3,35.88,,,,,,,,,,
15.52.06.800,-76.3,19.1,0,6.0,,75982.5,13.16,-0.4,0.58,0.71,3.4,3.4,2.2,35.88,,,,,,,,,,
15.52.06.806,-76.4,19.1,0,6.0,,74593.8,13.41,-0.39,0.58,0.71,2.0,3.8,1.4,35.88,,,,,,,,,,
15.52.06.821,-63.2,15.8,0,6.0,,74847.3,13.36,-0.38,0.59,0.71,0.6,4.9,-0.4,35.88,,,,,,,,,,
15.52.06.827,-93.2,23.3,0,6.0,,77181.6,12.96,-0.38,0.58,0.71,-0.6,4.3,-1.8,35.88,,,,,,,,,,
15.52.06.839,-61.5,15.4,0,6.0,,72730.5,13.75,-0.38,0.57,0.71,-1.8,4.0,-3.4,35.88,,,,,,,,,,
15.52.06.847,-83.7,20.9,0,6.0,,74135.9,13.49,-0.39,0.57,0.72,-2.1,4.4,-4.2,35.88,,,,,,,,,,
15.52.06.859,-138.0,34.5,0,6.0,,72791.1,13.74,-0.39,0.56,0.72,-1.4,5.4,-4.1,35.88,,,,,,,,,,
15.52.06.875,-125.0,31.2,0,6.0,,74324.8,13.45,-0.39,0.56,0.71,-0.1,6.8,-4.1,35.88,,,,,,,,,,
15.52.06.904,-117.7,29.4,0,6.0,,75398.9,13.26,-0.4,0.56,0.71,0.4,8.0,-3.7,35.81,,,,,,,,,,
15.52.06.916,-141.1,35.3,0,6.0,,74963.3,13.34,-0.4,0.57,0.71,1.8,5.2,0.0,35.81,,,,,,,,,,
15.52.06.925,-137.9,34.5,0,6.0,,72919.3,13.71,-0.4,0.57,0.72,2.0,3.1,0.8,35.81,,,,,,,,,,
15.52.06.937,-126.8,31.7,0,6.0,,75974.1,13.16,-0.4,0.56,0.71,2.4,3.5,0.9,35.81,,,,,,,,,,
15.52.06.951,-116.9,29.2,0,6.0,,76567.5,13.06,-0.39,0.57,0.72,3.2,4.9,1.0,35.81,,,,,,,,,,
15.52.06.958,-154.1,38.5,0,6.0,,76182.0,13.13,-0.4,0.57,0.72,3.7,5.6,1.5,35.81,,,,,,,,,,
15.52.06.966,-149.7,37.4,0,6.0,,78863.7,12.68,-0.39,0.58,0.71,4.0,7.4,1.4,35.81,,,,,,,,,,
15.52.06.978,65.7,16.4,1,7.0,99.3,77282.1,12.94,-0.4,0.58,0.71,2.7,6.2,0.3,35.81,,,,,,,,,,
15.52.06.990,119.0,29.8,0,7.0,,75050.2,13.32,-0.4,0.58,0.71,2.0,6.4,-0.2,35.81,,,,,,,,,,
15.52.07.000,218.9,54.7,0,7.0,,82824.8,12.07,-0.39,0.58,0.71,1.7,5.8,-0.1,35.81,,,,,,,,,,
15.52.07.011,209.8,52.4,0,7.0,,72856.4,13.73,-0.39,0.58,0.71,1.3,5.6,0.3,35.81,,,,,,,,,,
15.52.07.023,317.5,79.4,0,7.0,,73820.7,13.55,-0.4,0.57,0.71,1.2,6.6,-0.1,35.81,,,,,,,,,,
15.52.07.031,350.7,87.7,0,7.0,,75023.8,13.33,-0.4,0.57,0.7,0.5,7.7,-1.0,35.81,,,,,,,,,,
15.52.07.043,338.4,84.6,0,7.0,,71875.0,13.91,-0.4,0.57,0.7,0.2,7.8,-0.9,35.81,,,,,,,,,,
15.52.07.056,421.1,105.3,0,7.0,,79149.5,12.63,-0.4,0.57,0.7,-0.4,6.6,-1.1,35.81,,,,,,,,,,
15.52.07.064,382.8,95.7,0,7.0,,73371.6,13.63,-0.4,0.58,0.71,-1.4,4.4,-1.8,35.81,,,,,,,,,,
15.52.07.076,384.5,96.1,0,7.0,,73930.8,13.53,-0.39,0.58,0.71,-1.6,3.1,-1.6,35.81,,,,,,,,,,
15.52.07.088,389.7,97.4,0,7.0,,75784.8,13.2,-0.39,0.58,0.71,-1.2,2.3,-1.8,35.81,,,,,,,,,,
15.52.07.101,402.3,100.6,0,7.0,,76569.3,13.06,-0.39,0.57,0.72,-1.4,1.9,-1.8,35.81,,,,,,,,,,
15.52.07.109,330.3,82.6,0,7.0,,73257.2,13.65,-0.39,0.57,0.71,-1.4,2.8,-2.3,35.81,,,,,,,,,,
15.52.07.121,299.4,74.8,0,7.0,,73529.7,13.6,-0.39,0.56,0.72,-0.6,3.0,-1.6,35.81,,,,,,,,,,
15.52.07.134,273.3,68.3,0,7.0,,76045.8,13.15,-0.39,0.57,0.71,0.4,3.6,-0.6,35.81,,,,,,,,,,
15.52.07.142,252.0,63.0,0,7.0,,75887.3,13.18,-0.4,0.57,0.71,0.5,3.0,-0.8,35.81,,,,,,,,,,
15.52.07.154,167.7,41.9,0,7.0,,78672.7,12.71,-0.39,0.58,0.72,0.4,1.8,-0.5,35.81,,,,,,,,,,
15.52.07.166,109.7,27.4,0,7.0,,76476.2,13.08,-0.39,0.57,0.71,0.4,2.4,-0.6,35.81,,,,,,,,,,
15.52.07.174,52.9,13.2,0,7.0,,76528.0,13.07,-0.39,0.57,0.72,0.2,3.3,-0.6,35.81,,,,,,,,,,
15.52.07.187,-4.3,1.1,0,7.0,,76662.0,13.04,-0.39,0.57,0.71,-0.1,3.5,-0.7,35.81,,,,,,,,,,
15.52.07.199,56.8,14.2,0,7.0,,76037.6,13.15,-0.39,0.57,0.72,0.5,4.1,-0.6,35.81,,,,,,,,,,
15.52.07.207,39.5,9.9,0,7.0,,73331.0,13.64,-0.39,0.56,0.71,1.5,5.0,-0.5,35.81,,,,,,,,,,
15.52.07.219,75.5,18.9,0,7.0,,76027.0,13.15,-0.39,0.57,0.72,1.7,5.4,-0.1,35.81,,,,,,,,,,
15.52.07.233,60.3,15.1,0,7.0,,74998.2,13.33,-0.39,0.57,0.72,2.3,5.5,0.2,35.81,,,,,,,,,,
15.52.07.244,63.1,15.8,0,7.0,,72847.2,13.73,-0.39,0.57,0.72,2.9,6.0,0.0,35.81,,,,,,,,,,
15.52.07.252,99.9,25.0,0,7.0,,76028.4,13.15,-0.38,0.57,0.71,2.9,7.8,0.2,35.81,,,,,,,,,,
15.52.07.264,61.2,15.3,0,7.0,,73535.7,13.6,-0.39,0.58,0.71,3.1,8.1,0.0,35.81,,,,,,,,,,
15.52.07.277,20.8,5.2,0,7.0,,77751.8,12.86,-0.39,0.58,0.71,2.6,7.3,0.1,35.81,,,,,,,,,,
15.52.07.285,30.5,7.6,0,7.0,,74792.2,13.37,-0.39,0.58,0.71,2.3,7.0,0.1,35.81,,,,,,,,,,
15.52.07.297,21.9,5.5,0,7.0,,78073.5,12.81,-0.39,0.57,0.71,2.0,6.7,0.4,35.81,,,,,,,,,,
15.52.07.305,16.7,4.2,0,7.0,,74343.0,13.45,-0.4,0.56,0.72,2.9,6.8,0.8,35.81,,,,,,,,,,
15.52.07.321,-28.9,7.2,0,7.0,,76476.5,13.08,-0.39,0.57,0.71,3.4,7.6,1.4,35.81,,,,,,,,,,
15.52.07.332,-9.0,2.2,0,7.0,,75536.6,13.24,-0.39,0.58,0.72,3.5,7.8,1.3,35.81,,,,,,,,,,
15.52.07.338,15.6,3.9,0,7.0,,74081.9,13.5,-0.39,0.58,0.71,3.5,8.1,1.0,35.81,,,,,,,,,,
15.52.07.350,-19.2,4.8,0,7.0,,75342.1,13.27,-0.39,0.59,0.71,2.7,8.0,0.3,35.81,,,,,,,,,,
15.52.07.363,-51.5,12.9,0,7.0,,75903.0,13.17,-0.39,0.58,0.71,2.1,7.7,-0.6,35.81,,,,,,,,,,
15.52.07.371,-52.2,13.0,0,7.0,,76299.2,13.11,-0.4,0.58,0.7,1.5,7.7,-1.2,35.81,,,,,,,,,,
15.52.07.383,-77.9,19.5,0,7.0,,72743.8,13.75,-0.39,0.58,0.71,0.9,7.4,-0.9,35.81,,,,,,,,,,
15.52.07.396,-52.4,13.1,0,7.0,,76904.0,13.0,-0.39,0.57,0.71,1.2,7.4,-0.8,35.81,,,,,,,,,,
15.52.07.411,-43.8,11.0,0,7.0,,75776.0,13.2,-0.39,0.56,0.71,1.2,6.8,-0.7,35.81,,,,,,,,,,
15.52.07.419,-87.4,21.8,0,7.0,,76271.9,13.11,-0.39,0.58,0.71,1.8,6.3,-0.4,35.81,,,,,,,,,,
15.52.07.429,-80.4,20.1,0,7.0,,74054.1,13.5,-0.39,0.59,0.71,2.0,6.4,-0.1,35.81,,,,,,,,,,
15.52.07.441,-57.7,14.4,0,7.0,,72872.7,13.72,-0.39,0.59,0.71,1.6,7.0,-0.9,35.81,,,,,,,,,,
15.52.07.450,-123.2,30.8,0,7.0,,73913.7,13.53,-0.39,0.58,0.71,0.5,7.2,-1.5,35.81,,,,,,,,,,
15.52.07.461,-85.0,21.2,0,7.0,,77581.6,12.89,-0.4,0.58,0.71,0.2,7.1,-2.0,35.81,,,,,,,,,,
15.52.07.473,-123.4,30.8,0,7.0,,70741.7,14.14,-0.39,0.58,0.7,0.1,6.5,-1.6,35.81,,,,,,,,,,
15.52.07.486,-79.0,19.8,0,7.0,,74997.0,13.33,-0.4,0.57,0.71,0.1,5.9,-1.5,35.81,,,,,,,,,,
15.52.07.494,-131.3,32.8,0,7.0,,78367.9,12.76,-0.39,0.57,0.71,0.3,5.3,-1.2,35.81,,,,,,,,,,
15.52.07.506,-111.1,27.8,0,7.0,,75156.7,13.31,-0.39,0.58,0.71,0.9,5.3,-0.1,35.81,,,,,,,,,,
15.52.07.519,-112.6,28.2,0,7.0,,75682.4,13.21,-0.39,0.57,0.71,1.0,5.4,-0.1,35.81,,,,,,,,,,
15.52.07.527,-138.8,34.7,0,7.0,,73082.7,13.68,-0.4,0.57,0.71,0.5,5.2,-0.3,35.81,,,,,,,,,,
15.52.07.543,-164.6,41.2,0,7.0,,76822.3,13.02,-0.39,0.57,0.71,0.7,4.5,-0.4,35.81,,,,,,,,,,
15.52.07.564,-117.1,29.3,0,7.0,,76648.0,13.05,-0.39,,0.71,1.4,3.9,0.3,35.81,,,,,,,,,,
15.52.07.575,-127.6,31.9,0,7.0,,74614.3,13.4,-0.38,0.58,0.71,1.8,4.2,0.7,35.81,,,,,,,,,,
15.52.07.586,-26.4,6.6,1,8.0,95.0,74833.0,13.36,-0.39,0.59,0.7,,5.4,5.5,35.81,,,,,,,,,,
15.52.07.590,77.0,19.2,0,8.0,,74196.3,13.48,-0.39,0.59,0.71,-0.4,5.4,-1.5,35.81,,,,,,,,,,
15.52.07.593,63.2,15.8,0,8.0,,78690.6,12.71,-0.39,0.58,0.71,-0.3,5.6,-2.0,35.81,,,,,,,,,,
15.52.07.605,122.8,30.7,0,8.0,,79141.2,12.64,-0.39,0.58,0.71,0.4,6.3,-1.7,35.81,,,,,,,,,,
15.52.07.617,193.4,48.4,0,8.0,,77159.3,12.96,-0.39,0.58,0.71,0.2,5.9,-1.7,35.81,,,,,,,,,,
15.52.07.630,256.0,64.0,0,8.0,,77380.2,12.92,-0.39,0.57,0.71,0.0,5.6,-1.5,35.81,,,,,,,,,,
15.52.07.637,299.1,74.8,0,8.0,,75460.7,13.25,-0.39,0.58,0.71,0.5,5.8,-1.1,35.81,,,,,,,,,,
15.52.07.650,358.8,89.7,0,8.0,,75986.1,13.16,-0.39,0.57,0.7,0.3,5.7,-1.0,35.81,,,,,,,,,,
15.52.07.662,370.2,92.6,0,8.0,,78513.1,12.74,-0.39,0.58,0.7,-0.2,4.5,-0.9,35.81,,,,,,,,,,
15.52.07.674,418.5,104.6,0,8.0,,71943.4,13.9,-0.39,0.58,0.71,1.4,4.4,-0.4,35.81,97.5,,,,,,,,,
15.52.07.711,412.6,103.2,0,8.0,,74392.5,13.44,-0.38,0.58,0.71,-0.5,5.0,-2.0,35.88,,,,,,,,,,
15.52.07.724,365.3,91.3,0,8.0,,74657.3,13.39,-0.39,0.58,0.71,0.5,5.8,-1.6,35.88,,,,,,,,,,
15.52.07.736,354.5,88.6,0,8.0,,75017.6,13.33,-0.39,0.58,0.71,0.8,6.8,-1.5,35.88,,,,,,,,,,
15.52.07.744,344.0,86.0,0,8.0,,77537.6,12.9,-0.39,0.58,0.71,0.0,6.2,-2.1,35.88,,,,,,,,,,
15.52.07.756,295.1,73.8,0,8.0,,76635.8,13.05,-0.39,0.58,0.7,-0.5,5.7,-2.2,35.88,,,,,,,,,,
15.52.07.769,177.8,44.4,0,8.0,,76710.2,13.04,-0.39,0.57,0.71,-0.2,5.6,-1.9,35.88,,,,,,,,,,
15.52.07.777,139.5,34.9,0,8.0,,77365.4,12.93,-0.39,0.56,0.71,0.7,5.3,-1.2,35.88,,,,,,,,,,
15.52.07.789,79.3,19.8,0,8.0,,76820.3,13.02,-0.39,0.58,0.71,2.0,5.2,-0.3,35.88,,,,,,,,,,
15.52.07.801,13.0,3.2,0,8.0,,73749.8,13.56,-0.39,0.58,0.71,1.8,5.0,-0.2,35.88,,,,,,,,,,
15.52.07.811,39.0,9.8,0,8.0,,76756.1,13.03,-0.38,0.58,0.71,1.1,4.9,-0.8,35.88,,,,,,,,,,
15.52.07.822,18.5,4.6,0,8.0,,72361.3,13.82,-0.39,0.59,0.71,0.9,5.8,-1.1,35.88,,,,,,,,,,
15.52.07.841,45.1,11.3,0,8.0,,76434.8,13.08,-0.38,0.58,0.7,1.2,6.2,-1.1,35.88,,,,,,,,,,
15.52.07.844,74.7,18.7,0,8.0,,76096.1,13.14,-0.39,0.58,0.71,0.8,6.3,-1.5,35.88,,,,,,,,,,
15.52.07.854,83.9,21.0,0,8.0,,74659.2,13.39,-0.39,0.57,0.71,0.0,6.3,-2.4,35.88,,,,,,,,,,
15.52.07.868,70.4,17.6,0,8.0,,75974.8,13.16,-0.39,0.58,0.71,0.2,6.4,-2.2,35.88,,,,,,,,,,
15.52.07.879,48.6,12.2,0,8.0,,72018.5,13.89,-0.39,0.58,0.71,0.7,6.2,-1.7,35.88,,,,,,,,,,
15.52.07.888,55.8,14.0,0,8.0,,78307.7,12.77,-0.39,0.58,0.7,0.7,5.9,-1.7,35.88,,,,,,,,,,
15.52.07.899,55.4,13.8,0,8.0,,76035.0,13.15,-0.39,0.58,0.7,0.1,6.0,-2.4,35.88,,,,,,,,,,
15.52.07.912,28.8,7.2,0,8.0,,78158.1,12.79,-0.39,0.59,0.7,0.4,5.6,-1.6,35.88,,,,,,,,,,
15.52.07.920,-27.2,6.8,0,8.0,,71130.4,14.06,-0.39,0.58,0.71,0.7,5.4,-1.2,35.88,,,,,,,,,,
15.52.07.933,-7.3,1.8,0,8.0,,73477.3,13.61,-0.39,0.58,0.71,0.4,5.2,-1.3,35.88,,,,,,,,,,
15.52.07.952,-14.2,3.6,0,8.0,,76202.1,13.12,-0.39,0.57,0.71,0.0,5.0,-1.4,35.88,,,,,,,,,,
15.52.07.955,-24.9,6.2,0,8.0,,76029.7,13.15,-0.39,0.57,0.71,0.8,5.3,-1.0,35.88,,,,,,,,,,
15.52.07.965,1.7,0.4,0,8.0,,71482.9,13.99,-0.39,0.57,0.71,0.9,5.3,-1.1,35.88,,,,,,,,,,
15.52.07.978,-12.8,3.2,0,8.0,,75039.4,13.33,-0.38,0.57,0.71,0.9,5.3,-0.6,35.88,,,,,,,,,,
15.52.07.986,-32.0,8.0,0,8.0,,74027.3,13.51,-0.39,0.59,0.7,0.8,5.7,-1.0,35.88,,,,,,,,,,
15.52.07.998,-51.0,12.8,0,8.0,,77794.4,12.85,-0.39,0.58,0.71,0.9,6.4,-1.2,35.88,,,,,,,,,,
15.52.08.011,-55.6,13.9,0,8.0,,78421.7,12.75,-0.39,0.59,0.71,0.0,6.3,-2.1,35.88,,,,,,,,,,
15.52.08.022,-84.2,21.0,0,8.0,,79591.5,12.56,-0.39,0.58,0.71,-0.5,5.9,-2.1,35.88,,,,,,,,,,
15.52.08.034,-64.9,16.2,0,8.0,,75277.9,13.28,-0.39,0.58,0.71,0.1,5.3,-1.5,35.88,,,,,,,,,,
15.52.08.043,-98.5,24.6,0,8.0,,75509.0,13.24,-0.39,0.58,0.71,0.5,4.9,-1.4,35.88,,,,,,,,,,
15.52.08.055,-81.6,20.4,0,8.0,,73067.1,13.69,-0.39,0.57,0.71,0.1,4.8,-1.2,35.88,,,,,,,,,,
15.52.08.068,-66.3,16.6,0,8.0,,80667.4,12.4,-0.39,0.57,0.71,0.5,5.1,-1.1,35.88,,,,,,,,,,
15.52.08.076,-70.9,17.7,0,8.0,,79068.2,12.65,-0.39,0.58,0.71,2.1,5.7,-0.5,35.88,,,,,,,,,,
15.52.08.091,-94.2,23.6,0,8.0,,73528.2,13.6,-0.39,0.58,0.72,1.8,5.8,-0.6,35.88,,,,,,,,,,
15.52.08.101,-117.8,29.4,0,8.0,,77465.0,12.91,-0.39,0.58,0.7,0.9,4.8,-1.0,35.88,,,,,,,,,,
15.52.08.112,-98.1,24.5,0,8.0,,80399.3,12.44,-0.39,0.58,0.71,0.5,5.1,-1.1,35.88,,,,,,,,,,
15.52.08.121,-152.0,38.0,0,8.0,,73275.3,13.65,-0.39,0.58,0.7,1.3,4.6,-0.7,35.88,,,,,,,,,,
15.52.08.142,-131.8,33.0,0,8.0,,73527.8,13.6,-0.39,0.58,0.71,1.2,5.0,-0.2,35.88,,,,,,,,,,
15.52.08.146,-110.4,27.6,0,8.0,,76139.3,13.13,-0.38,0.58,0.71,0.9,5.3,-0.8,35.88,,,,,,,,,,
15.52.08.158,-127.0,31.8,0,8.0,,75631.9,13.22,-0.38,0.58,0.71,1.1,5.6,-0.9,35.88,,,,,,,,,,
15.52.08.166,-139.7,34.9,0,8.0,,76271.3,13.11,-0.39,0.58,0.71,1.5,6.1,-1.0,35.88,,,,,,,,,,
15.52.08.178,-191.5,47.9,0,8.0,,79702.8,12.55,-0.39,0.58,0.71,1.7,6.1,-0.5,35.88,,,,,,,,,,
15.52.08.190,-142.5,35.6,0,8.0,,76159.4,13.13,-0.39,0.58,0.71,1.4,6.6,-1.0,35.88,,,,,,,,,,
15.52.08.204,40.8,10.2,1,9.0,99.4,75034.9,13.33,-0.39,0.58,0.71,0.8,6.2,-1.9,35.88,,,,,,,,,,
15.52.08.211,75.5,18.9,0,9.0,,76006.9,13.16,-0.39,0.58,0.7,0.9,5.3,-1.1,35.88,,,,,,,,,,
15.52.08.230,154.9,38.7,0,9.0,,75886.0,13.18,-0.39,0.58,0.7,1.4,5.5,-1.2,35.88,,,,,,,,,,
15.52.08.235,184.0,46.0,0,9.0,,75799.1,13.19,-0.39,0.58,0.7,0.5,6.2,-1.2,35.88,,,,,,,,,,
15.52.08.244,233.4,58.4,0,9.0,,74652.3,13.4,-0.38,0.58,0.71,0.2,6.5,-1.6,35.88,,,,,,,,,,
15.52.08.256,292.5,73.1,0,9.0,,74851.4,13.36,-0.39,0.58,0.71,0.4,6.1,-1.4,35.88,,,,,,,,,,
15.52.08.268,342.4,85.6,0,9.0,,74916.6,13.35,-0.39,0.57,0.71,1.0,5.6,-0.8,35.88,,,,,,,,,,
15.52.08.287,378.0,94.5,0,9.0,,74861.2,13.36,-0.39,0.57,0.72,1.4,5.1,-1.0,35.88,,,,,,,,,,
15.52.08.291,408.1,102.0,0,9.0,,77466.3,12.91,-0.39,0.58,0.71,0.6,4.6,-1.1,35.88,,,,,,,,,,
15.52.08.302,403.0,100.8,0,9.0,,74085.0,13.5,-0.39,0.58,0.71,0.7,4.7,-0.9,35.88,,,,,,,,,,
15.52.08.313,411.8,103.0,0,9.0,,74305.7,13.46,-0.39,0.59,0.71,1.2,6.1,-0.6,35.88,,,,,,,,,,
15.52.08.326,424.8,106.2,0,9.0,,77659.7,12.88,-0.39,0.58,0.71,1.2,6.4,-0.6,35.88,,,,,,,,,,
15.52.08.334,354.1,88.5,0,9.0,,75443.9,13.25,-0.39,0.57,0.72,0.5,6.1,-1.3,35.88,,,,,,,,,,
15.52.08.347,310.7,77.7,0,9.0,,74282.7,13.46,-0.39,0.58,0.71,0.7,5.5,-1.2,35.88,,,,,,,,,,
15.52.08.358,336.6,84.2,0,9.0,,77114.5,12.97,-0.38,0.58,0.71,1.2,5.5,-0.8,35.88,,,,,,,,,,
15.52.08.367,299.9,75.0,0,9.0,,82811.1,12.08,-0.38,0.58,0.71,1.3,5.4,-0.6,35.88,,,,,,,,,,
15.52.08.382,224.3,56.1,0,9.0,,77179.2,12.96,-0.38,0.59,0.71,0.7,6.2,-1.5,35.88,,,,,,,,,,
15.52.08.391,145.5,36.4,0,9.0,,75302.6,13.28,-0.38,0.57,0.71,0.3,6.3,-2.1,35.88,,,,,,,,,,
15.52.08.404,65.0,16.2,0,9.0,,77688.2,12.87,-0.38,0.57,0.7,1.6,7.2,-1.6,35.88,,,,,,,,,,
15.52.08.412,2.0,0.5,0,9.0,,79257.7,12.62,-0.41,0.6,0.73,0.0,6.4,-0.4,35.88,,,,,,,,,,
15.52.08.425,20.6,5.2,0,9.0,,72762.3,13.74,-0.38,0.58,0.69,2.3,7.8,-1.5,35.88,,,,,,,,,,
15.52.08.436,41.1,10.3,0,9.0,,77157.3,12.96,-0.4,0.58,0.7,1.5,8.0,-1.7,35.88,,,,,,,,,,
15.52.08.449,37.7,9.4,0,9.0,,76719.6,13.03,-0.4,0.58,0.71,-0.4,8.4,-2.2,35.88,,,,,,,,,,
15.52.08.457,80.4,20.1,0,9.0,,77857.3,12.84,-0.39,0.58,0.7,0.2,7.4,-2.1,35.88,,,,,,,,,,
15.52.08.471,70.5,17.6,0,9.0,,72715.7,13.75,-0.4,0.58,0.71,-0.3,7.7,-2.0,35.88,,,,,,,,,,
15.52.08.511,43.0,10.8,0,9.0,,74403.1,13.44,-0.39,0.58,0.7,-0.8,6.6,-2.2,35.81,,,,,,,,,,
15.52.08.518,25.6,6.4,0,9.0,,75825.3,13.19,-0.38,0.58,0.71,0.2,5.6,-1.2,35.81,,,,,,,,,,
15.52.08.534,14.8,3.7,0,9.0,,77042.6,12.98,-0.39,0.58,0.71,-0.1,6.3,-1.8,35.81,,,,,,,,,,
15.52.08.543,40.4,10.1,0,9.0,,73777.7,13.55,-0.39,0.57,0.71,0.0,6.1,-1.8,35.81,,,,,,,,,,
15.52.08.556,-22.9,5.7,0,9.0,,77243.1,12.95,-0.4,0.57,0.71,0.4,6.2,-1.6,35.81,,,,,,,,,,
15.52.08.563,-2.9,0.7,0,9.0,,75308.3,13.28,-0.4,0.57,0.71,0.5,5.8,-2.0,35.81,,,,,,,,,,
15.52.08.576,-8.7,2.2,0,9.0,,73571.0,13.59,-0.4,0.58,0.71,0.4,5.4,-1.4,35.81,,,,,,,,,,
15.52.08.584,-12.5,3.1,0,9.0,,79303.0,12.61,-0.39,0.58,0.7,1.1,4.6,-0.5,35.81,,,,,,,,,,
15.52.08.597,-35.4,8.8,0,9.0,,76430.2,13.08,-0.38,0.58,0.71,0.8,4.1,-0.7,35.81,,,,,,,,,,
15.52.08.608,-63.3,15.8,0,9.0,,77135.0,12.96,-0.38,0.59,0.71,0.3,3.7,-0.8,35.81,,,,,,,,,,
15.52.08.620,-52.5,13.1,0,9.0,,78767.4,12.7,-0.38,0.59,0.71,0.3,3.7,-1.1,35.81,,,,,,,,,,
15.52.08.631,-19.0,4.8,0,9.0,,75903.7,13.17,-0.38,0.58,0.71,0.7,5.0,-1.1,35.81,,,,,,,,,,
15.52.08.643,-76.5,19.1,0,9.0,,75746.2,13.2,-0.38,0.58,0.72,0.9,5.9,-1.5,35.81,,,,,,,,,,
15.52.08.651,-56.7,14.2,0,9.0,,77126.7,12.97,-0.39,0.58,0.71,1.0,5.9,-1.3,35.81,,,,,,,,,,
15.52.08.664,-64.8,16.2,0,9.0,,75820.7,13.19,-0.38,0.57,0.71,1.5,6.3,-1.3,35.81,,,,,,,,,,
15.52.08.668,-89.3,22.3,0,9.0,,75970.3,13.16,-0.39,0.58,0.71,0.8,6.2,-1.5,35.81,,,,,,,,,,
15.52.08.686,-78.2,19.6,0,9.0,,77635.1,12.88,-0.39,0.58,0.71,0.4,7.0,-2.0,35.81,,,,,,,,,,
15.52.08.691,-75.5,18.9,0,9.0,,76343.7,13.1,-0.39,0.58,0.7,-0.1,8.0,-2.7,35.81,,,,,,,,,,
15.52.08.698,-112.2,28.0,0,9.0,,74732.8,13.38,-0.39,0.58,0.7,-0.4,8.1,-3.0,35.81,,,,,,,,,,
15.52.08.707,-90.5,22.6,0,9.0,,73370.8,13.63,-0.38,0.59,0.71,0.1,8.4,-2.6,35.81,,,,,,,,,,
15.52.08.719,-98.0,24.5,0,9.0,,72998.7,13.7,-0.4,0.59,0.7,0.1,8.1,-2.5,35.81,,,,,,,,,,
15.52.08.727,-111.8,28.0,0,9.0,,75723.8,13.21,-0.4,0.57,0.71,-0.1,7.2,-2.4,35.81,,,,,,,,,,
15.52.08.739,-135.6,33.9,0,9.0,,74974.3,13.34,-0.4,0.56,0.71,-0.2,6.4,-2.4,35.81,,,,,,,,,,
15.52.08.748,-122.3,30.6,0,9.0,,72014.9,13.89,-0.39,0.57,0.71,0.2,6.0,-1.9,35.81,,,,,,,,,,
15.52.08.760,-117.6,29.4,0,9.0,,75571.4,13.23,-0.4,0.57,0.71,1.2,5.2,-0.1,35.81,,,,,,,,,,
15.52.08.768,-102.5,25.6,0,9.0,,78731.3,12.7,-0.4,0.57,0.71,1.8,4.5,0.5,35.81,,,,,,,,,,
15.52.08.781,-137.5,34.4,0,9.0,,75005.3,13.33,-0.39,0.58,0.71,1.7,4.5,0.4,35.81,,,,,,,,,,
15.52.08.789,-168.5,42.1,0,9.0,,75528.7,13.24,-0.39,0.59,0.7,2.0,4.6,0.5,35.81,,,,,,,,,,
15.52.08.801,-147.9,37.0,0,9.0,,75228.0,13.29,-0.39,0.59,0.7,1.8,5.1,0.0,35.81,,,,,,,,,,
15.52.08.809,-161.2,40.3,0,9.0,,79866.9,12.52,-0.4,0.59,0.69,1.0,5.9,-0.4,35.81,,,,,,,,,,
15.52.08.821,13.6,3.4,1,10.0,94.0,76194.6,13.12,-0.39,0.58,0.71,0.5,6.2,-0.8,35.81,,,,,,,,,,
15.52.08.830,90.8,22.7,0,10.0,,74695.6,13.39,-0.4,0.57,0.72,0.1,5.4,-0.8,35.81,,,,,,,,,,
15.52.08.843,171.5,42.9,0,10.0,,76459.1,13.08,-0.4,0.57,0.71,0.0,4.7,-0.6,35.81,,,,,,,,,,
15.52.08.852,199.0,49.8,0,10.0,,75316.7,13.28,-0.39,0.57,0.71,0.4,3.8,0.1,35.81,,,,,,,,,,
15.52.08.863,266.8,66.7,0,10.0,,71258.2,14.03,-0.39,0.58,0.7,0.6,3.1,-0.4,35.81,,,,,,,,,,
15.52.08.871,309.7,77.4,0,10.0,,74829.3,13.36,-0.39,0.59,0.7,0.6,3.6,-0.3,35.81,,,,,,,,,,
15.52.08.883,392.9,98.2,0,10.0,,75259.2,13.29,-0.39,0.59,0.71,0.2,4.6,-1.0,35.81,,,,,,,,,,
15.52.08.896,370.7,92.7,0,10.0,,73140.3,13.67,-0.38,0.59,0.71,-0.4,5.0,-1.7,35.81,,,,,,,,,,
15.52.08.908,368.2,92.0,0,10.0,,75119.2,13.31,-0.38,0.59,0.71,-0.6,5.9,-2.0,35.81,,,,,,,,,,
15.52.08.916,417.0,104.2,0,10.0,,74162.5,13.48,-0.38,0.58,0.71,-0.5,6.9,-2.5,35.81,,,,,,,,,,
15.52.08.924,343.8,86.0,0,10.0,,73566.0,13.59,-0.38,0.57,0.72,-0.7,7.0,-2.8,35.81,,,,,,,,,,
15.52.08.936,396.1,99.0,0,10.0,,75349.6,13.27,-0.38,0.58,0.71,-0.6,8.5,-2.8,35.81,,,,,,,,,,
15.52.08.944,392.1,98.0,0,10.0,,76338.4,13.1,-0.39,0.57,0.71,-0.7,8.8,-3.3,35.81,,,,,,,,,,
15.52.08.957,316.1,79.0,0,10.0,,78005.6,12.82,-0.39,0.58,0.71,-1.0,8.3,-3.4,35.81,,,,,,,,,,
15.52.08.965,310.3,77.6,0,10.0,,75047.0,13.32,-0.4,0.58,0.71,0.6,9.0,-3.1,35.81,,,,,,,,,,
15.52.08.977,279.0,69.8,0,10.0,,78037.8,12.81,-0.39,0.58,0.71,0.4,8.3,-2.6,35.81,,,,,,,,,,
15.52.08.985,244.4,61.1,0,10.0,,74703.3,13.39,-0.39,0.59,0.71,-1.0,7.2,-2.7,35.81,,,,,,,,,,
15.52.08.998,165.9,41.5,0,10.0,,69282.2,14.43,-0.39,0.57,0.71,-1.0,6.8,-3.3,35.81,,,,,,,,,,
15.52.09.009,97.5,24.4,0,10.0,,78701.6,12.71,-0.4,0.57,0.72,-1.1,6.1,-3.4,35.81,,,,,,,,,,
15.52.09.019,56.4,14.1,0,10.0,,78368.6,12.76,-0.39,0.57,0.7,-0.4,5.8,-2.2,35.81,,,,,,,,,,
15.52.09.031,-20.9,5.2,0,10.0,,72936.9,13.71,-0.4,0.57,0.71,1.0,4.9,-0.7,35.81,,,,,,,,,,
15.52.09.044,35.9,9.0,0,10.0,,77430.9,12.91,-0.4,0.57,0.71,1.6,4.6,-0.1,35.81,,,,,,,,,,
15.52.09.047,39.8,10.0,0,10.0,,76790.7,13.02,-0.39,0.58,0.7,1.5,5.1,-0.4,35.81,,,,,,,,,,
15.52.09.059,51.3,12.8,0,10.0,,75073.8,13.32,-0.39,0.57,0.7,0.6,4.5,-1.0,35.81,,,,,,,,,,
15.52.09.067,60.3,15.1,0,10.0,,77659.1,12.88,-0.39,0.58,0.71,0.9,4.4,-0.7,35.81,,,,,,,,,,
15.52.09.079,67.3,16.8,0,10.0,,75226.2,13.29,-0.39,0.58,0.71,0.7,4.5,-0.5,35.81,,,,,,,,,,
15.52.09.088,102.3,25.6,0,10.0,,76918.5,13.0,-0.39,0.58,0.71,0.1,4.4,-1.1,35.81,,,,,,,,,,
15.52.09.100,41.5,10.4,0,10.0,,75999.6,13.16,-0.39,0.58,0.7,-1.0,4.1,-2.4,35.81,,,,,,,,,,
15.52.09.109,54.3,13.6,0,10.0,,77372.4,12.92,-0.39,0.58,0.72,-1.4,4.2,-2.7,35.81,,,,,,,,,,
15.52.09.121,65.3,16.3,0,10.0,,74029.5,13.51,-0.4,0.58,0.71,-0.9,4.6,-2.1,35.81,,,,,,,,,,
15.52.09.129,21.5,5.4,0,10.0,,77953.2,12.83,-0.39,0.57,0.71,-0.5,4.5,-1.8,35.81,,,,,,,,,,
15.52.09.141,44.6,11.2,0,10.0,,77135.8,12.96,-0.39,0.58,0.72,-0.1,4.8,-1.8,35.81,,,,,,,,,,
15.52.09.150,-20.7,5.2,0,10.0,,78472.1,12.74,-0.39,0.58,0.71,0.3,4.9,-1.7,35.81,,,,,,,,,,
15.52.09.163,-28.1,7.0,0,10.0,,75389.3,13.26,-0.39,0.59,0.71,0.8,4.9,-0.9,35.81,,,,,,,,,,
15.52.09.170,-37.0,9.2,0,10.0,,78311.2,12.77,-0.38,0.58,0.72,0.7,6.0,-1.4,35.81,,,,,,,,,,
15.52.09.182,0.8,0.2,0,10.0,,75266.4,13.29,-0.39,0.58,0.71,-0.1,6.0,-2.0,35.81,,,,,,,,,,
15.52.09.190,-20.1,5.0,0,10.0,,74581.5,13.41,-0.38,0.57,0.73,-0.2,7.1,-2.1,35.81,,,,,,,,,,
15.52.09.202,-51.9,13.0,0,10.0,,73802.1,13.55,-0.39,0.57,0.71,0.0,7.8,-2.4,35.81,,,,,,,,,,
15.52.09.211,-53.9,13.5,0,10.0,,76564.7,13.06,-0.39,0.57,0.71,0.1,8.4,-2.5,35.81,,,,,,,,,,
15.52.09.221,-47.1,11.8,0,10.0,,77147.1,12.96,-0.4,0.57,0.71,-0.2,8.7,-3.2,35.81,,,,,,,,,,
15.52.09.232,-59.6,14.9,0,10.0,,69779.4,14.33,-0.4,0.57,0.71,-0.5,8.6,-2.7,35.81,,,,,,,,,,
15.52.09.243,-62.1,15.5,0,10.0,,79451.7,12.59,-0.39,0.57,0.71,0.0,7.9,-1.8,35.81,,,,,,,,,,
15.52.09.251,-42.4,10.6,0,10.0,,76421.0,13.09,-0.4,0.57,0.71,0.9,7.5,-1.6,35.81,,,,,,,,,,
15.52.09.264,-105.7,26.4,0,10.0,,77260.9,12.94,-0.39,0.57,0.71,0.8,6.6,-1.3,35.81,,,,,,,,,,
15.52.09.272,-53.5,13.4,0,10.0,,73724.1,13.56,-0.39,0.58,0.71,0.3,6.4,-1.7,35.81,,,,,,,,,,
15.52.09.280,-60.7,15.2,0,10.0,,75970.7,13.16,-0.39,0.57,0.72,0.2,6.4,-1.6,35.81,,,,,,,,,,
15.52.09.318,-106.8,26.7,0,10.0,,76601.6,13.05,-0.39,0.57,0.71,1.6,7.7,-1.2,35.88,,,,,,,,,,
15.52.09.330,-108.8,27.2,0,10.0,,73649.2,13.58,-0.4,0.59,0.71,-3.1,10.4,-6.3,35.88,,,,,,,,,,
15.52.09.338,-104.9,26.2,0,10.0,,80875.3,12.36,-0.4,0.58,0.7,-4.1,9.9,-7.4,35.88,,,,,,,,,,
15.52.09.353,-109.5,27.4,0,10.0,,74075.2,13.5,-0.41,0.58,0.71,-4.2,9.1,-6.9,35.88,,,,,,,,,,
15.52.09.358,-115.5,28.9,0,10.0,,75885.1,13.18,-0.4,0.58,0.7,-4.0,8.1,-7.2,35.88,,,,,,,,,,
15.52.09.370,-145.8,36.4,0,10.0,,77562.8,12.89,-0.4,0.57,0.71,-4.7,6.7,-7.7,35.88,,,,,,,,,,
15.52.09.387,-197.7,49.4,0,10.0,,75275.8,13.28,-0.4,0.57,0.71,-4.8,3.8,-8.1,35.88,,,,,,,,,,
15.52.09.397,-128.2,32.0,0,10.0,,73628.6,13.58,-0.39,0.57,0.71,-4.1,3.6,-7.1,35.88,,,,,,,,,,
15.52.09.407,-152.5,38.1,0,10.0,,74868.0,13.36,-0.39,0.57,0.71,-3.1,3.8,-6.2,35.88,,,,,,,,,,
15.52.09.415,-129.8,32.4,0,10.0,,74518.5,13.42,-0.4,0.55,0.72,-2.1,4.3,-5.6,35.88,,,,,,,,,,
15.52.09.430,-201.0,50.2,0,10.0,,74543.1,13.42,-0.4,0.55,0.72,-0.9,5.4,-4.3,35.88,,,,,,,,,,
15.52.09.443,83.3,20.8,1,11.0,95.5,75842.5,13.19,-0.4,0.54,0.72,1.1,6.1,-2.3,35.88,,,,,,,,,,
15.52.09.448,112.0,28.0,0,11.0,,77026.3,12.98,-0.41,0.54,0.72,3.0,5.3,-0.3,35.88,,,,,,,,,,
15.52.09.461,175.4,43.8,0,11.0,,76677.5,13.04,-0.41,0.55,0.72,4.4,5.6,1.3,35.88,,,,,,,,,,
15.52.09.474,234.0,58.5,0,11.0,,74039.4,13.51,-0.41,0.56,0.72,4.9,6.6,2.1,35.88,,,,,,,,,,
15.52.09.481,268.4,67.1,0,11.0,,76420.9,13.09,-0.4,0.57,0.7,5.0,6.9,1.9,35.88,,,,,,,,,,
15.52.09.498,340.3,85.1,0,11.0,,74025.8,13.51,-0.41,0.57,0.71,4.5,6.5,2.5,35.88,,,,,,,,,,
15.52.09.502,351.0,87.8,0,11.0,,78324.9,12.77,-0.4,0.58,0.71,4.2,7.8,2.5,35.88,,,,,,,,,,
15.52.09.514,428.5,107.1,0,11.0,,77090.0,12.97,-0.41,0.58,0.71,3.9,9.4,2.6,35.88,,,,,,,,,,
15.52.09.532,375.8,94.0,0,11.0,,76921.6,13.0,-0.41,0.58,0.71,3.1,8.8,2.4,35.88,,,,,,,,,,
15.52.09.536,454.4,113.6,0,11.0,,73661.6,13.58,-0.41,0.58,0.7,2.4,6.6,1.6,35.88,,,,,,,,,,
15.52.09.551,410.2,102.6,0,11.0,,77729.7,12.87,-0.41,0.58,0.7,1.5,4.8,1.5,35.88,,,,,,,,,,
15.52.09.560,362.4,90.6,0,11.0,,77930.8,12.83,-0.41,0.58,0.7,1.4,2.6,1.8,35.88,,,,,,,,,,
15.52.09.567,340.5,85.1,0,11.0,,74599.3,13.4,-0.41,0.57,0.7,0.9,1.6,2.0,35.88,,,,,,,,,,
15.52.09.585,336.0,84.0,0,11.0,,74239.6,13.47,-0.4,0.57,0.7,0.6,1.1,1.9,35.88,,,,,,,,,,
15.52.09.594,301.8,75.4,0,11.0,,75941.6,13.17,-0.4,0.57,0.72,0.6,0.0,2.5,35.88,,,,,,,,,,
15.52.09.600,248.0,62.0,0,11.0,,74812.8,13.37,-0.4,0.57,0.71,0.6,-0.4,2.6,35.88,,,,,,,,,,
15.52.09.613,201.0,50.2,0,11.0,,76177.1,13.13,-0.4,0.57,0.71,0.1,-0.5,2.5,35.88,,,,,,,,,,
15.52.09.624,112.5,28.1,0,11.0,,74835.3,13.36,-0.39,0.57,0.72,0.2,0.5,2.4,35.88,,,,,,,,,,
15.52.09.637,45.8,11.4,0,11.0,,75843.5,13.19,-0.39,0.57,0.72,0.3,1.3,2.6,35.88,,,,,,,,,,
15.52.09.645,9.2,2.3,0,11.0,,72813.3,13.73,-0.39,0.57,0.72,0.4,1.3,2.3,35.88,,,,,,,,,,
15.52.09.658,30.8,7.7,0,11.0,,75427.6,13.26,-0.38,0.58,0.72,1.3,2.0,2.9,35.88,,,,,,,,,,
15.52.09.669,30.9,7.7,0,11.0,,74610.2,13.4,-0.37,0.57,0.72,2.2,3.1,3.6,35.88,,,,,,,,,,
15.52.09.678,111.0,27.8,0,11.0,,75136.2,13.31,-0.37,0.57,0.72,2.9,4.9,2.8,35.88,,,,,,,,,,
15.52.09.694,84.1,21.0,0,11.0,,76736.1,13.03,-0.38,0.58,0.72,3.6,7.6,2.0,35.88,,,,,,,,,,
15.52.09.702,83.0,20.8,0,11.0,,74249.4,13.47,-0.38,0.58,0.72,4.0,11.1,1.1,35.88,,,,,,,,,,
15.52.09.710,42.4,10.6,0,11.0,,80714.4,12.39,-0.38,0.58,0.71,3.3,14.4,0.1,35.88,,,,,,,,,,
15.52.09.730,43.9,11.0,0,11.0,,79526.6,12.57,-0.39,0.58,0.7,1.8,15.9,-1.6,35.88,,,,,,,,,,
15.52.09.743,79.6,19.9,0,11.0,,79247.3,12.62,-0.4,0.58,0.71,0.4,14.9,-3.3,35.88,,,,,,,,,,
15.52.09.747,27.9,7.0,0,11.0,,72604.9,13.77,-0.4,0.58,0.7,-0.1,13.8,-4.0,35.88,,,,,,,,,,
15.52.09.757,33.2,8.3,0,11.0,,76337.6,13.1,-0.4,0.58,0.7,0.6,11.2,-3.2,35.88,,,,,,,,,,
15.52.09.773,3.6,0.9,0,11.0,,72031.8,13.88,-0.4,0.59,0.7,0.5,9.6,-3.0,35.88,,,,,,,,,,
15.52.09.776,11.5,2.9,0,11.0,,72726.0,13.75,-0.4,0.59,0.7,-0.1,8.7,-3.7,35.88,,,,,,,,,,
15.52.09.789,-46.4,11.6,0,11.0,,72487.2,13.8,-0.4,0.6,0.7,-0.4,6.9,-3.8,35.88,,,,,,,,,,
15.52.09.801,4.2,1.0,0,11.0,,77114.1,12.97,-0.4,0.58,0.7,-0.9,4.7,-3.2,35.88,,,,,,,,,,
15.52.09.814,-30.1,7.5,0,11.0,,73844.3,13.54,-0.4,0.57,0.7,-0.9,2.2,-2.1,35.88,,,,,,,,,,
15.52.09.821,-8.0,2.0,0,11.0,,73193.9,13.66,-0.4,0.56,0.71,0.1,-0.4,-1.0,35.88,,,,,,,,,,
15.52.09.841,-20.5,5.1,0,11.0,,74338.4,13.45,-0.4,0.55,0.71,0.9,-2.5,0.1,35.88,,,,,,,,,,
15.52.09.851,-40.9,10.2,0,11.0,,76831.0,13.02,-0.4,0.56,0.7,2.2,-3.6,1.9,35.88,,,,,,,,,,
15.52.09.855,-36.5,9.1,0,11.0,,75074.9,13.32,-0.4,0.57,0.71,3.3,-4.4,4.0,35.88,,,,,,,,,,
15.52.09.867,-74.6,18.6,0,11.0,,78398.8,12.76,-0.39,0.58,0.7,4.2,-4.3,5.0,35.88,,,,,,,,,,
15.52.09.878,-65.4,16.4,0,11.0,,77287.2,12.94,-0.39,0.58,0.72,3.9,-3.8,5.6,35.88,,,,,,,,,,
15.52.09.887,-77.4,19.4,0,11.0,,76744.5,13.03,-0.38,0.58,0.71,3.6,-3.1,5.9,35.88,,,,,,,,,,
15.52.09.899,-43.5,10.9,0,11.0,,79530.9,12.57,-0.39,0.58,0.72,4.2,-1.9,6.1,35.88,,,,,,,,,,
15.52.09.912,-103.7,25.9,0,11.0,,77247.4,12.95,-0.38,0.59,0.71,3.9,0.2,5.6,35.88,,,,,,,,,,
15.52.09.920,-72.4,18.1,0,11.0,,73229.4,13.66,-0.37,0.59,0.71,2.8,1.9,4.0,35.88,,,,,,,,,,
15.52.09.931,-113.0,28.2,0,11.0,,75358.7,13.27,-0.37,0.59,0.71,1.7,3.0,2.3,35.88,,,,,,,,,,
15.52.09.945,-102.5,25.6,0,11.0,,78406.0,12.75,-0.37,0.58,0.71,1.6,5.3,1.3,35.88,,,,,,,,,,
15.52.09.952,-100.7,25.2,0,11.0,,79438.0,12.59,-0.36,0.58,0.72,2.6,7.2,0.5,35.88,,,,,,,,,,
15.52.09.964,-138.0,34.5,0,11.0,,73631.5,13.58,-0.37,0.58,0.71,2.5,10.4,-1.1,35.88,,,,,,,,,,
15.52.09.976,-155.5,38.9,0,11.0,,75960.6,13.16,-0.38,0.59,0.71,2.0,13.6,-2.7,35.88,,,,,,,,,,
15.52.09.985,-140.7,35.2,0,11.0,,81078.2,12.33,-0.38,0.59,0.71,0.8,15.6,-3.6,35.88,,,,,,,,,,
15.52.09.997,-129.6,32.4,0,11.0,,71027.4,14.08,-0.38,0.6,0.7,-0.5,16.3,-5.2,35.88,,,,,,,,,,
15.52.10.010,-159.7,39.9,0,11.0,,73325.8,13.64,-0.39,0.6,0.71,-2.0,15.2,-6.6,35.88,,,,,,,,,,
15.52.10.022,-133.4,33.4,0,11.0,,71448.2,14.0,-0.4,0.59,0.71,-3.7,14.0,-8.4,35.88,,,,,,,,,,
15.52.10.030,-167.6,41.9,0,11.0,,77688.4,12.87,-0.4,0.58,0.7,-4.2,13.3,-9.6,35.88,,,,,,,,,,
15.52.10.042,-203.8,51.0,0,11.0,,72757.3,13.74,-0.4,0.57,0.7,-4.2,12.0,-8.2,35.88,,,,,,,,,,
15.52.10.054,54.8,13.7,1,12.0,102.0,75452.7,13.25,-0.4,0.58,0.7,-2.6,9.0,-6.4,35.88,,,,,,,,,,
15.52.10.063,93.1,23.3,0,12.0,,79585.7,12.57,-0.4,0.58,0.7,-1.8,6.2,-5.0,35.88,,,,,,,,,,
15.52.10.075,168.5,42.1,0,12.0,,75001.3,13.33,-0.4,0.58,0.71,-2.2,3.5,-4.8,35.88,,,,,,,,,,
15.52.10.087,211.6,52.9,0,12.0,,74402.0,13.44,-0.4,0.58,0.7,-1.2,2.2,-3.8,35.88,,,,,,,,,,
15.52.10.129,409.0,102.2,0,12.0,,77050.8,12.98,-0.39,0.57,0.7,1.1,-2.2,0.6,35.88,,,,,,,,,,
15.52.10.142,394.5,98.6,0,12.0,,75956.2,13.17,-0.39,0.56,0.7,1.5,-4.1,1.8,35.88,,,,,,,,,,
15.52.10.149,380.6,95.2,0,12.0,,78060.3,12.81,-0.39,0.57,0.71,1.5,-5.1,2.5,35.88,,,,,,,,,,
15.52.10.161,415.1,103.8,0,12.0,,81284.1,12.3,-0.38,0.57,0.72,1.0,-4.9,2.6,35.88,,,,,,,,,,
15.52.10.174,391.9,98.0,0,12.0,,75477.4,13.25,-0.38,0.58,0.72,1.3,-5.5,2.6,35.88,,,,,,,,,,
15.52.10.182,360.2,90.0,0,12.0,,74200.8,13.48,-0.37,0.58,0.72,2.4,-4.4,3.4,35.88,,,,,,,,,,
15.52.10.194,293.8,73.4,0,12.0,,81874.3,12.21,-0.37,0.59,0.73,2.9,-2.2,2.7,35.88,,,,,,,,,,
15.52.10.202,304.9,76.2,0,12.0,,78398.6,12.76,-0.36,0.58,0.73,2.3,0.5,1.8,35.88,,,,,,,,,,
15.52.10.214,274.0,68.5,0,12.0,,79473.2,12.58,-0.37,0.58,0.73,2.3,3.2,0.4,35.88,,,,,,,,,,
15.52.10.222,217.9,54.5,0,12.0,,76700.0,13.04,-0.37,0.59,0.73,2.3,5.3,-0.6,35.88,,,,,,,,,,
15.52.10.235,156.0,39.0,0,12.0,,71909.5,13.91,-0.37,0.59,0.72,2.4,8.0,-1.3,35.88,,,,,,,,,,
15.52.10.248,84.2,21.0,0,12.0,,74378.7,13.44,-0.37,0.6,0.71,1.4,10.6,-2.9,35.88,,,,,,,,,,
15.52.10.259,23.8,6.0,0,12.0,,74678.1,13.39,-0.37,0.59,0.71,-0.2,12.0,-4.4,35.88,,,,,,,,,,
15.52.10.267,31.5,7.9,0,12.0,,79242.2,12.62,-0.38,0.59,0.7,-1.2,12.8,-5.5,35.88,,,,,,,,,,
15.52.10.280,39.8,10.0,0,12.0,,75400.6,13.26,-0.39,0.58,0.7,-2.0,12.9,-6.3,35.88,,,,,,,,,,
15.52.10.292,63.4,15.8,0,12.0,,76306.9,13.1,-0.38,0.57,0.7,-3.2,11.1,-7.2,35.88,,,,,,,,,,
15.52.10.300,19.0,4.8,0,12.0,,73418.9,13.62,-0.39,0.57,0.71,-4.0,8.5,-7.4,35.88,,,,,,,,,,
15.52.10.312,82.8,20.7,0,12.0,,77995.1,12.82,-0.39,0.57,0.7,-3.4,6.3,-6.3,35.88,,,,,,,,,,
15.52.10.325,70.7,17.7,0,12.0,,78710.1,12.7,-0.39,0.57,0.71,-2.7,4.4,-4.9,35.88,,,,,,,,,,
15.52.10.333,80.3,20.1,0,12.0,,75996.4,13.16,-0.39,0.56,0.71,-2.5,3.6,-4.2,35.88,,,,,,,,,,
15.52.10.345,52.3,13.1,0,12.0,,75970.2,13.16,-0.39,0.56,0.71,-2.1,2.6,-3.1,35.88,,,,,,,,,,
15.52.10.357,28.2,7.0,0,12.0,,76788.3,13.02,-0.38,0.57,0.71,-1.3,0.5,-1.3,35.88,,,,,,,,,,
15.52.10.366,21.4,5.4,0,12.0,,76041.8,13.15,-0.38,0.57,0.72,0.6,0.0,0.0,35.88,,,,,,,,,,
15.52.10.385,-32.7,8.2,0,12.0,,77819.2,12.85,-0.38,0.56,0.72,1.8,-1.1,1.3,35.88,,,,,,,,,,
15.52.10.390,15.8,4.0,0,12.0,,76662.9,13.04,-0.38,0.57,0.72,2.4,-0.2,1.2,35.88,,,,,,,,,,
15.52.10.398,-3.4,0.8,0,12.0,,76391.5,13.09,-0.37,0.57,0.72,2.7,0.3,1.2,35.88,,,,,,,,,,
15.52.10.418,-16.5,4.1,0,12.0,,75444.9,13.25,-0.37,0.57,0.73,3.8,1.8,1.8,35.88,,,,,,,,,,
15.52.10.421,-15.2,3.8,0,12.0,,76314.2,13.1,-0.38,0.57,0.72,4.1,4.6,1.3,35.88,,,,,,,,,,
15.52.10.435,-69.1,17.3,0,12.0,,75267.6,13.29,-0.37,0.58,0.72,3.7,6.1,0.7,35.88,,,,,,,,,,
15.52.10.444,-35.4,8.8,0,12.0,,76541.6,13.06,-0.37,0.58,0.72,3.3,7.6,0.1,35.88,,,,,,,,,,
15.52.10.456,-26.4,6.6,0,12.0,,74829.2,13.36,-0.38,0.58,0.72,2.7,8.5,-0.8,35.88,,,,,,,,,,
15.52.10.464,-30.3,7.6,0,12.0,,74820.0,13.37,-0.39,0.58,0.72,2.5,9.1,-1.0,35.88,,,,,,,,,,
15.52.10.478,-57.8,14.4,0,12.0,,76486.3,13.07,-0.39,0.59,0.72,2.5,10.7,-1.5,35.88,,,,,,,,,,
15.52.10.489,-54.4,13.6,0,12.0,,77537.5,12.9,-0.39,0.6,0.71,1.1,10.5,-2.4,35.88,,,,,,,,,,
15.52.10.497,-77.6,19.4,0,12.0,,70685.3,14.15,-0.38,0.59,0.72,-0.9,9.4,-3.8,35.88,,,,,,,,,,
15.52.10.509,-52.6,13.2,0,12.0,,74887.8,13.35,-0.39,0.58,0.71,-1.6,8.4,-4.0,35.88,,,,,,,,,,
15.52.10.523,-89.6,22.4,0,12.0,,74894.4,13.35,-0.38,0.58,0.71,-1.2,8.4,-3.3,35.88,,,,,,,,,,
15.52.10.534,-82.0,20.5,0,12.0,,76476.3,13.08,-0.38,0.58,0.71,-1.6,6.6,-2.9,35.88,,,,,,,,,,
15.52.10.546,-95.8,24.0,0,12.0,,76868.4,13.01,-0.38,0.57,0.71,-1.8,5.3,-2.7,35.88,,,,,,,,,,
15.52.10.554,-90.4,22.6,0,12.0,,80174.6,12.47,-0.39,0.57,0.72,-1.3,4.9,-2.4,35.88,,,,,,,,,,
15.52.10.573,-111.3,27.8,0,12.0,,74288.3,13.46,-0.39,0.56,0.72,-0.9,4.2,-1.6,35.88,,,,,,,,,,
15.52.10.586,-147.3,36.8,0,12.0,,79717.0,12.54,-0.39,0.56,0.71,0.1,4.2,-0.8,35.88,,,,,,,,,,
15.52.10.590,-117.0,29.2,0,12.0,,71239.4,14.04,-0.38,0.57,0.72,0.1,3.9,-0.2,35.88,,,,,,,,,,
15.52.10.600,-125.6,31.4,0,12.0,,72301.4,13.83,-0.38,0.57,0.72,0.7,3.0,0.3,35.88,,,,,,,,,,
15.52.10.612,-92.1,23.0,0,12.0,,73032.5,13.69,-0.38,0.57,0.72,1.3,4.1,0.2,35.88,,,,,,,,,,
15.52.10.628,-135.7,33.9,0,12.0,,78710.8,12.7,-0.38,0.58,0.72,1.4,4.7,0.1,35.88,,,,,,,,,,
15.52.10.634,-160.5,40.1,0,12.0,,76749.0,13.03,-0.38,0.58,0.71,0.7,4.5,-0.8,35.88,,,,,,,,,,
15.52.10.644,-143.4,35.8,0,12.0,,78563.8,12.73,-0.38,0.58,0.71,0.8,5.0,-0.4,35.88,,,,,,,,,,
15.52.10.657,-143.7,35.9,0,12.0,,79425.5,12.59,-0.38,0.57,0.71,1.0,5.7,-0.3,35.88,,,,,,,,,,
15.52.10.669,32.2,8.0,1,13.0,98.2,75537.7,13.24,-0.38,0.57,0.72,1.4,6.2,-0.3,35.88,,,,,,,,,,
15.52.10.677,77.6,19.4,0,13.0,,75997.1,13.16,-0.37,0.57,0.71,1.2,5.8,-0.8,35.88,,,,,,,,,,
15.52.10.690,174.3,43.6,0,13.0,,75771.0,13.2,-0.38,0.57,0.71,0.9,6.5,-1.5,35.88,,,,,,,,,,
15.52.10.707,252.8,63.2,0,13.0,,76627.8,13.05,-0.38,0.57,0.72,0.7,6.9,-1.9,35.88,,,,,,,,,,
15.52.10.719,309.1,77.3,0,13.0,,78215.9,12.79,-0.38,0.59,0.72,0.5,6.9,-2.0,35.88,,,,,,,,,,
15.52.10.722,353.6,88.4,0,13.0,,75523.5,13.24,-0.38,0.58,0.72,-0.3,7.1,-2.6,35.88,,,,,,,,,,
15.52.10.735,383.2,95.8,0,13.0,,77769.1,12.86,-0.38,0.58,0.71,-1.0,6.5,-3.1,35.88,,,,,,,,,,
15.52.10.747,433.5,108.4,0,13.0,,76574.4,13.06,-0.38,0.57,0.72,-0.6,5.7,-2.9,35.88,,,,,,,,,,
15.52.10.759,444.8,111.2,0,13.0,,79060.4,12.65,-0.38,0.57,0.72,0.5,6.4,-1.7,35.88,,,,,,,,,,
15.52.10.767,450.5,112.6,0,13.0,,73491.0,13.61,-0.38,0.57,0.71,0.8,6.8,-1.4,35.88,,,,,,,,,,
15.52.10.780,397.3,99.3,0,13.0,,77196.9,12.95,-0.39,0.57,0.72,0.8,6.0,-0.8,35.88,,,,,,,,,,
15.52.10.792,367.7,91.9,0,13.0,,71588.3,13.97,-0.38,0.57,0.72,1.6,5.7,-0.4,35.88,,,,,,,,,,
15.52.10.804,352.9,88.2,0,13.0,,73864.9,13.54,-0.38,0.57,0.72,2.2,6.2,-0.1,35.88,,,,,,,,,,
15.52.10.817,327.3,81.8,0,13.0,,74447.7,13.43,-0.38,0.57,0.72,2.1,5.8,0.0,35.88,,,,,,,,,,
15.52.10.825,298.7,74.7,0,13.0,,75701.7,13.21,-0.38,0.58,0.71,1.9,6.1,0.0,35.88,,,,,,,,,,
15.52.10.840,208.7,52.2,0,13.0,,78864.2,12.68,-0.38,0.58,0.71,1.5,6.7,-0.4,35.88,,,,,,,,,,
15.52.10.851,157.6,39.4,0,13.0,,75290.4,13.28,-0.38,0.58,0.72,1.2,6.8,-0.9,35.88,,,,,,,,,,
15.52.10.859,119.4,29.8,0,13.0,,73085.1,13.68,-0.39,0.58,0.72,1.1,6.9,-0.8,35.88,,,,,,,,,,
15.52.10.870,50.0,12.5,0,13.0,,79067.9,12.65,-0.39,0.58,0.71,0.8,6.4,-0.6,35.88,,,,,,,,,,
15.52.10.882,22.1,5.5,0,13.0,,73299.8,13.64,-0.38,0.58,0.72,0.8,6.0,-0.8,35.88,,,,,,,,,,
15.52.10.890,29.8,7.4,0,13.0,,77968.2,12.83,-0.38,0.57,0.71,0.6,5.8,-0.8,35.88,,,,,,,,,,
15.52.10.931,55.8,14.0,0,13.0,,71812.1,13.93,-0.38,0.58,0.72,-0.6,5.0,-1.6,35.88,,,,,,,,,,
15.52.10.942,108.7,27.2,0,13.0,,74026.5,13.51,-0.37,0.57,0.72,-0.1,3.9,-1.8,35.88,,,,,,,,,,
15.52.10.956,71.2,17.8,0,13.0,,74880.7,13.35,-0.37,0.57,0.72,0.9,4.2,-1.5,35.88,,,,,,,,,,
15.52.10.964,72.0,18.0,0,13.0,,73942.0,13.52,-0.37,0.56,0.72,2.0,5.8,-1.8,35.88,,,,,,,,,,
15.52.10.977,37.2,9.3,0,13.0,,77683.4,12.87,-0.37,0.56,0.72,2.1,7.5,-2.0,35.88,,,,,,,,,,
15.52.10.989,6.6,1.6,0,13.0,,71768.2,13.93,-0.38,0.56,0.72,2.6,9.7,-2.1,35.88,,,,,,,,,,
15.52.11.001,7.6,1.9,0,13.0,,75778.8,13.2,-0.39,0.56,0.72,3.4,12.4,-1.7,35.88,,,,,,,,,,
15.52.11.009,-41.0,10.2,0,13.0,,75219.9,13.29,-0.39,0.58,0.7,3.8,12.5,-1.0,35.88,,,,,,,,,,
15.52.11.022,30.2,7.6,0,13.0,,76040.9,13.15,-0.39,0.6,0.7,2.6,10.5,-1.7,35.88,,,,,,,,,,
15.52.11.040,-27.3,6.8,0,13.0,,75169.0,13.3,-0.39,0.6,0.7,0.1,7.5,-2.9,35.88,,,,,,,,,,
15.52.11.043,-20.4,5.1,0,13.0,,75970.2,13.16,-0.39,0.59,0.7,-1.3,4.4,-3.4,35.88,,,,,,,,,,
15.52.11.054,-45.5,11.4,0,13.0,,73825.7,13.55,-0.38,0.59,0.71,-1.0,3.0,-3.0,35.88,,,,,,,,,,
15.52.11.062,-30.7,7.7,0,13.0,,75219.8,13.29,-0.38,0.57,0.71,-0.3,2.2,-2.2,35.88,,,,,,,,,,
15.52.11.074,-38.9,9.7,0,13.0,,75955.7,13.17,-0.39,0.56,0.71,-0.4,1.8,-2.4,35.88,,,,,,,,,,
15.52.11.084,-71.6,17.9,0,13.0,,76841.9,13.01,-0.39,0.56,0.72,-0.6,2.5,-1.6,35.88,,,,,,,,,,
15.52.11.099,-80.4,20.1,0,13.0,,79936.2,12.51,-0.39,0.56,0.71,0.5,3.0,0.0,35.88,,,,,,,,,,
15.52.11.103,-38.9,9.7,0,13.0,,76302.1,13.11,-0.39,0.57,0.72,1.0,2.4,1.1,35.88,,,,,,,,,,
15.52.11.116,-30.2,7.6,0,13.0,,79711.7,12.55,-0.39,0.58,0.72,1.1,0.5,2.1,35.88,,,,,,,,,,
15.52.11.124,-108.0,27.0,0,13.0,,75042.8,13.33,-0.38,0.58,0.72,1.1,-0.4,2.8,35.88,,,,,,,,,,
15.52.11.136,-88.9,22.2,0,13.0,,74520.3,13.42,-0.37,0.58,0.72,1.4,-0.3,3.0,35.88,,,,,,,,,,
15.52.11.145,-117.8,29.4,0,13.0,,73862.5,13.54,-0.37,0.58,0.73,1.6,-0.8,3.3,35.88,,,,,,,,,,
15.52.11.157,-104.2,26.0,0,13.0,,74456.6,13.43,-0.36,0.57,0.73,3.0,1.4,3.4,35.88,,,,,,,,,,
15.52.11.165,-65.8,16.4,0,13.0,,73214.7,13.66,-0.36,0.58,0.73,4.3,5.2,3.3,35.88,,,,,,,,,,
15.52.11.177,-97.8,24.4,0,13.0,,70128.7,14.26,-0.37,0.58,0.72,5.3,8.1,3.1,35.88,,,,,,,,,,
15.52.11.185,-67.0,16.8,0,13.0,,74873.9,13.36,-0.37,0.58,0.72,5.1,12.8,2.0,35.88,,,,,,,,,,
15.52.11.201,-114.3,28.6,0,13.0,,78078.5,12.81,-0.37,0.57,0.72,4.0,14.5,0.4,35.88,,,,,,,,,,
15.52.11.207,-127.4,31.8,0,13.0,,79218.5,12.62,-0.38,0.58,0.71,3.7,14.7,0.0,35.88,,,,,,,,,,
15.52.11.218,-119.1,29.8,0,13.0,,76974.1,12.99,-0.38,0.58,0.7,4.2,13.9,0.5,35.88,,,,,,,,,,
15.52.11.226,-150.9,37.7,0,13.0,,73313.4,13.64,-0.38,0.59,0.7,4.7,13.1,0.6,35.88,,,,,,,,,,
15.52.11.239,-155.0,38.8,0,13.0,,73483.5,13.61,-0.38,0.6,0.69,2.8,12.5,-0.6,35.88,,,,,,,,,,
15.52.11.246,-123.7,30.9,0,13.0,,75574.6,13.23,-0.39,0.61,0.69,0.9,11.4,-2.2,35.88,,,,,,,,,,
15.52.11.259,-165.3,41.3,0,13.0,,75963.1,13.16,-0.39,0.6,0.7,-1.3,10.3,-4.0,35.88,,,,,,,,,,
15.52.11.272,-162.9,40.7,0,13.0,,76670.0,13.04,-0.39,0.59,0.71,-1.7,8.5,-4.5,35.88,,,,,,,,,,
15.52.11.279,20.7,5.2,1,14.0,102.2,72893.1,13.72,-0.39,0.58,0.71,-1.9,5.4,-3.3,35.88,,,,,,,,,,
15.52.11.292,81.0,20.2,0,14.0,,74587.9,13.41,-0.39,0.58,0.71,-2.4,3.1,-3.0,35.88,,,,,,,,,,
15.52.11.300,154.0,38.5,0,14.0,,74852.1,13.36,-0.39,0.58,0.71,-2.5,1.2,-2.5,35.88,,,,,,,,,,
15.52.11.312,210.1,52.5,0,14.0,,76312.0,13.1,-0.39,0.58,0.71,-1.1,0.1,-1.4,35.88,,,,,,,,,,
15.52.11.320,226.6,56.6,0,14.0,,76986.2,12.99,-0.38,0.57,0.71,-0.2,0.0,-0.4,35.88,,,,,,,,,,
15.52.11.340,281.4,70.4,0,14.0,,77541.2,12.9,-0.37,0.58,0.71,-0.3,0.3,-0.2,35.88,,,,,,,,,,
15.52.11.345,398.3,99.6,0,14.0,,77756.5,12.86,-0.38,0.58,0.71,-0.4,-0.4,-0.7,35.88,,,,,,,,,,
15.52.11.353,370.8,92.7,0,14.0,,75674.4,13.21,-0.37,0.57,0.72,0.3,0.0,0.2,35.88,,,,,,,,,,
15.52.11.362,360.2,90.0,0,14.0,,74616.6,13.4,-0.37,0.56,0.72,1.7,1.3,1.0,35.88,,,,,,,,,,
15.52.11.374,435.5,108.9,0,14.0,,77993.3,12.82,-0.37,0.57,0.72,3.5,3.7,1.4,35.88,,,,,,,,,,
15.52.11.386,342.8,85.7,0,14.0,,76186.4,13.13,-0.37,0.58,0.72,3.8,5.5,1.3,35.88,,,,,,,,,,
15.52.11.394,398.4,99.6,0,14.0,,74124.2,13.49,-0.37,0.59,0.71,3.6,6.9,0.2,35.88,,,,,,,,,,
15.52.11.407,422.0,105.5,0,14.0,,79424.0,12.59,-0.38,0.59,0.71,2.8,7.9,-0.5,35.88,,,,,,,,,,
15.52.11.420,373.9,93.5,0,14.0,,76825.9,13.02,-0.37,0.6,0.71,1.4,8.6,-1.6,35.88,,,,,,,,,,
15.52.11.427,399.2,99.8,0,14.0,,73445.0,13.62,-0.38,0.59,0.71,0.6,7.8,-2.3,35.88,,,,,,,,,,
15.52.11.439,256.9,64.2,0,14.0,,78186.0,12.79,-0.38,0.59,0.71,-0.5,6.9,-2.7,35.88,,,,,,,,,,
15.52.11.451,227.2,56.8,0,14.0,,75277.7,13.28,-0.39,0.59,0.72,-0.7,6.0,-2.1,35.88,,,,,,,,,,
15.52.11.464,148.1,37.0,0,14.0,,75723.1,13.21,-0.39,0.59,0.71,-0.9,5.1,-2.1,35.88,,,,,,,,,,
15.52.11.474,132.6,33.2,0,14.0,,74353.7,13.45,-0.38,0.58,0.72,-1.2,3.9,-1.8,35.88,,,,,,,,,,
15.52.11.484,52.1,13.0,0,14.0,,78572.4,12.73,-0.39,0.59,0.72,-1.8,2.5,-2.0,35.88,,,,,,,,,,
15.52.11.496,16.7,4.2,0,14.0,,75434.8,13.26,-0.38,0.59,0.72,-1.5,2.0,-1.7,35.88,,,,,,,,,,
15.52.11.505,12.7,3.2,0,14.0,,76032.6,13.15,-0.37,0.58,0.71,-1.0,2.4,-1.4,35.88,,,,,,,,,,
15.52.11.517,28.4,7.1,0,14.0,,77359.9,12.93,-0.37,0.58,0.73,-0.7,3.2,-1.7,35.88,,,,,,,,,,
15.52.11.532,91.6,22.9,0,14.0,,73902.1,13.53,-0.37,0.58,0.72,-0.3,5.5,-1.6,35.88,,,,,,,,,,
15.52.11.542,61.1,15.3,0,14.0,,74585.8,13.41,-0.38,0.57,0.72,0.6,8.6,-1.7,35.88,,,,,,,,,,
15.52.11.550,78.1,19.5,0,14.0,,75442.8,13.26,-0.38,0.58,0.71,1.2,10.3,-1.6,35.88,,,,,,,,,,
15.52.11.562,97.7,24.4,0,14.0,,71767.5,13.93,-0.38,0.58,0.71,1.2,10.4,-1.9,35.88,,,,,,,,,,
15.52.11.574,51.2,12.8,0,14.0,,81445.8,12.28,-0.38,0.59,0.71,0.5,9.3,-2.3,35.88,,,,,,,,,,
15.52.11.583,52.7,13.2,0,14.0,,74729.0,13.38,-0.38,0.59,0.71,0.2,7.8,-2.3,35.88,,,,,,,,,,
15.52.11.595,37.9,9.5,0,14.0,,74368.3,13.45,-0.38,0.59,0.71,-0.3,6.5,-2.7,35.88,,,,,,,,,,
15.52.11.607,-6.3,1.6,0,14.0,,76046.4,13.15,-0.37,0.58,0.71,-1.3,5.3,-3.1,35.88,,,,,,,,,,
15.52.11.615,20.3,5.1,0,14.0,,77004.9,12.99,-0.38,0.57,0.71,-1.6,5.0,-3.2,35.88,,,,,,,,,,
15.52.11.627,-14.2,3.6,0,14.0,,75363.2,13.27,-0.38,0.57,0.71,-0.7,4.1,-2.3,35.88,,,,,,,,,,
15.52.11.640,-37.3,9.3,0,14.0,,76182.6,13.13,-0.38,0.56,0.71,0.9,4.1,-0.9,35.88,,,,,,,,,,
15.52.11.652,-8.2,2.0,0,14.0,,76011.9,13.16,-0.38,0.56,0.71,1.7,3.7,0.3,35.88,,,,,,,,,,
15.52.11.662,-24.2,6.0,0,14.0,,76169.5,13.13,-0.38,0.57,0.71,2.1,2.5,0.8,35.88,,,,,,,,,,
15.52.11.673,-21.2,5.3,0,14.0,,76861.2,13.01,-0.38,0.57,0.71,2.3,1.5,1.3,35.88,,,,,,,,,,
15.52.11.687,-61.8,15.4,0,14.0,,81357.5,12.29,-0.38,0.57,0.72,2.1,1.9,1.6,35.88,,,,,,,,,,
15.52.11.697,-63.5,15.9,0,14.0,,79667.4,12.55,-0.37,0.58,0.72,2.2,3.5,1.4,35.88,,,,,,,,,,
15.52.11.734,-91.6,22.9,0,14.0,,77110.7,12.97,-0.37,0.59,0.71,1.3,7.6,-1.8,35.88,,,,,,,,,,
15.52.11.751,-50.0,12.5,0,14.0,,76679.1,13.04,-0.38,0.59,0.71,1.4,8.7,-2.3,35.88,,,,,,,,,,
15.52.11.755,-120.4,30.1,0,14.0,,74184.0,13.48,-0.37,0.59,0.71,1.0,8.9,-2.6,35.88,,,,,,,,,,
15.52.11.767,-70.3,17.6,0,14.0,,72132.1,13.86,-0.38,0.59,0.71,0.6,9.1,-2.7,35.88,,,,,,,,,,
15.52.11.779,-107.7,26.9,0,14.0,,77090.8,12.97,-0.38,0.58,0.71,0.5,8.2,-2.8,35.88,,,,,,,,,,
15.52.11.788,-94.3,23.6,0,14.0,,77401.1,12.92,-0.38,0.58,0.71,0.6,7.0,-2.0,35.88,,,,,,,,,,
15.52.11.800,-91.7,22.9,0,14.0,,76070.6,13.15,-0.38,0.58,0.72,0.8,6.2,-1.5,35.88,,,,,,,,,,
15.52.11.812,-96.4,24.1,0,14.0,,69682.7,14.35,-0.39,0.59,0.71,0.5,5.1,-1.1,35.88,,,,,,,,,,
15.52.11.820,-121.2,30.3,0,14.0,,74466.6,13.43,-0.38,0.59,0.71,0.2,4.7,-1.2,35.88,,,,,,,,,,
15.52.11.832,-142.5,35.6,0,14.0,,76166.5,13.13,-0.38,0.59,0.72,0.2,4.8,-0.9,35.88,,,,,,,,,,
15.52.11.845,-109.2,27.3,0,14.0,,72497.3,13.79,-0.39,0.59,0.71,-0.1,4.6,-1.2,35.88,,,,,,,,,,
15.52.11.853,-142.6,35.6,0,14.0,,77858.4,12.84,-0.38,0.58,0.71,-0.2,4.4,-1.2,35.88,,,,,,,,,,
15.52.11.866,-138.4,34.6,0,14.0,,75871.5,13.18,-0.38,0.57,0.72,-0.5,4.2,-1.2,35.88,,,,,,,,,,
15.52.11.877,-178.5,44.6,0,14.0,,73410.9,13.62,-0.38,0.57,0.71,-0.5,3.6,-1.0,35.88,,,,,,,,,,
15.52.11.895,14.2,3.6,1,15.0,96.6,72493.2,13.79,-0.38,0.57,0.71,-0.2,4.3,-0.7,35.88,,,,,,,,,,
15.52.11.908,69.7,17.4,0,15.0,,75814.8,13.19,-0.37,0.58,0.72,0.3,4.6,-1.0,35.88,,,,,,,,,,
15.52.11.912,124.2,31.0,0,15.0,,76936.3,13.0,-0.37,0.59,0.71,0.3,5.5,-1.1,35.88,,,,,,,,,,
15.52.11.928,195.1,48.8,0,15.0,,72538.8,13.79,-0.37,0.59,0.71,-0.2,6.0,-2.0,35.88,,,,,,,,,,
15.52.11.933,220.2,55.0,0,15.0,,74936.2,13.34,-0.37,0.59,0.71,-0.7,6.6,-3.2,35.88,,,,,,,,,,
15.52.11.943,260.0,65.0,0,15.0,,76771.8,13.03,-0.38,0.58,0.71,-0.4,6.8,-3.3,35.88,,,,,,,,,,
15.52.11.956,320.1,80.0,0,15.0,,73114.0,13.68,-0.38,0.58,0.71,-0.1,6.8,-3.1,35.88,,,,,,,,,,
15.52.11.963,364.6,91.2,0,15.0,,77835.3,12.85,-0.38,0.58,0.71,0.0,7.0,-2.7,35.88,,,,,,,,,,
15.52.11.976,395.4,98.8,0,15.0,,75750.9,13.2,-0.38,0.57,0.71,-0.3,6.4,-2.4,35.88,,,,,,,,,,
15.52.11.988,381.3,95.3,0,15.0,,75398.1,13.26,-0.38,0.57,0.71,0.7,5.9,-1.8,35.88,,,,,,,,,,
15.52.11.996,423.7,105.9,0,15.0,,77822.2,12.85,-0.38,0.57,0.71,2.2,5.3,-0.6,35.88,,,,,,,,,,
15.52.12.009,394.5,98.6,0,15.0,,78328.5,12.77,-0.37,0.59,0.71,1.8,5.5,-0.4,35.88,,,,,,,,,,
15.52.12.021,397.4,99.4,0,15.0,,73165.9,13.67,-0.37,0.58,0.71,0.9,5.0,-1.1,35.88,,,,,,,,,,
15.52.12.029,378.1,94.5,0,15.0,,78253.9,12.78,-0.37,0.59,0.71,0.9,5.4,-1.4,35.88,,,,,,,,,,
15.52.12.042,383.9,96.0,0,15.0,,79019.8,12.66,-0.37,0.58,0.71,1.1,6.3,-1.7,35.88,,,,,,,,,,
15.52.12.053,247.0,61.8,0,15.0,,74132.6,13.49,-0.38,0.58,0.71,1.1,7.4,-2.0,35.88,,,,,,,,,,
15.52.12.062,227.6,56.9,0,15.0,,77130.1,12.97,-0.38,0.58,0.72,0.3,7.1,-2.6,35.88,,,,,,,,,,
15.52.12.074,186.3,46.6,0,15.0,,75236.2,13.29,-0.38,0.57,0.72,0.7,7.7,-2.4,35.88,,,,,,,,,,
15.52.12.086,124.4,31.1,0,15.0,,75619.8,13.22,-0.38,0.58,0.72,1.8,7.7,-1.7,35.88,,,,,,,,,,
15.52.12.094,107.0,26.8,0,15.0,,76274.6,13.11,-0.38,0.58,0.72,1.7,6.9,-1.4,35.88,,,,,,,,,,
15.52.12.107,-4.8,1.2,0,15.0,,71804.3,13.93,-0.38,0.58,0.72,1.2,6.4,-1.8,35.88,,,,,,,,,,
15.52.12.120,32.1,8.0,0,15.0,,71634.4,13.96,-0.38,0.59,0.71,0.3,6.8,-2.2,35.88,,,,,,,,,,
15.52.12.128,34.1,8.5,0,15.0,,71909.3,13.91,-0.38,0.59,0.71,0.3,6.7,-2.3,35.88,,,,,,,,,,
15.52.12.140,68.3,17.1,0,15.0,,78509.0,12.74,-0.38,0.58,0.71,0.6,6.6,-2.2,35.88,,,,,,,,,,
15.52.12.152,79.1,19.8,0,15.0,,76510.9,13.07,-0.38,0.57,0.71,0.4,7.4,-2.1,35.88,,,,,,,,,,
15.52.12.160,79.4,19.8,0,15.0,,74895.8,13.35,-0.39,0.57,0.72,0.7,6.6,-2.0,35.88,,,,,,,,,,
15.52.12.173,60.5,15.1,0,15.0,,78889.7,12.68,-0.38,0.56,0.71,1.4,6.2,-1.8,35.88,,,,,,,,,,
15.52.12.185,49.2,12.3,0,15.0,,77029.3,12.98,-0.38,0.57,0.71,2.6,6.4,-1.1,35.88,,,,,,,,,,
15.52.12.193,51.0,12.8,0,15.0,,77707.6,12.87,-0.38,0.59,0.7,2.3,5.7,-0.4,35.88,,,,,,,,,,
15.52.12.206,73.7,18.4,0,15.0,,79106.3,12.64,-0.38,0.59,0.71,1.3,6.0,-0.7,35.88,,,,,,,,,,
15.52.12.217,37.8,9.4,0,15.0,,69594.6,14.37,-0.38,0.59,0.71,0.6,5.1,-0.8,35.88,,,,,,,,,,
15.52.12.226,15.6,3.9,0,15.0,,75237.6,13.29,-0.38,0.59,0.71,1.0,4.8,-0.6,35.88,,,,,,,,,,
15.52.12.238,-19.4,4.8,0,15.0,,78149.1,12.8,-0.38,0.59,0.71,1.0,5.2,-1.0,35.88,,,,,,,,,,
15.52.12.250,-2.2,0.6,0,15.0,,77767.4,12.86,-0.38,0.59,0.7,0.5,5.8,-2.1,35.88,,,,,,,,,,
15.52.12.262,-13.7,3.4,0,15.0,,73662.4,13.58,-0.38,0.59,0.72,-0.5,6.1,-2.7,35.88,,,,,,,,,,
15.52.12.271,-25.0,6.2,0,15.0,,74770.2,13.37,-0.38,0.58,0.71,-0.4,6.5,-2.5,35.88,,,,,,,,,,
15.52.12.283,-23.2,5.8,0,15.0,,76073.0,13.15,-0.39,0.58,0.72,-0.4,5.9,-2.3,35.88,,,,,,,,,,
15.52.12.291,-58.6,14.6,0,15.0,,76602.2,13.05,-0.39,0.58,0.72,-0.2,5.6,-1.7,35.88,,,,,,,,,,
15.52.12.304,-36.8,9.2,0,15.0,,76749.2,13.03,-0.38,0.58,0.72,-0.6,5.1,-1.7,35.88,,,,,,,,,,
15.52.12.316,-63.1,15.8,0,15.0,,75548.9,13.24,-0.38,0.58,0.72,0.4,4.5,-1.1,35.88,,,,,,,,,,
15.52.12.331,-70.0,17.5,0,15.0,,74722.3,13.38,-0.38,0.58,0.72,1.2,5.1,-0.4,35.88,,,,,,,,,,
15.52.12.337,-43.9,11.0,0,15.0,,75084.8,13.32,-0.38,0.58,0.71,1.5,6.1,-0.1,35.88,,,,,,,,,,
15.52.12.349,-48.6,12.2,0,15.0,,80774.7,12.38,-0.38,0.58,0.71,0.9,7.2,-0.9,35.88,,,,,,,,,,
15.52.12.372,-101.0,25.2,0,15.0,,73738.6,13.56,-0.38,0.58,0.71,0.7,8.6,-1.3,35.88,,,,,,,,,,
15.52.12.375,-108.3,27.1,0,15.0,,74790.5,13.37,-0.38,0.59,0.71,0.5,8.3,-1.1,35.88,,,,,,,,,,
15.52.12.387,-72.2,18.0,0,15.0,,78049.7,12.81,-0.38,0.58,0.71,-0.1,7.8,-1.6,35.88,,,,,,,,,,
15.52.12.394,-104.5,26.1,0,15.0,,75441.0,13.26,-0.38,0.58,0.71,0.0,7.3,-1.9,35.88,,,,,,,,,,
15.52.12.406,-82.6,20.6,0,15.0,,74948.2,13.34,-0.38,0.58,0.71,-0.7,6.8,-1.4,35.88,,,,,,,,,,
15.52.12.414,-89.6,22.4,0,15.0,,74452.8,13.43,-0.39,0.58,0.71,-0.6,5.9,-1.2,35.88,,,,,,,,,,
15.52.12.430,-122.9,30.7,0,15.0,,77915.1,12.83,-0.39,0.58,0.72,-0.1,5.1,-0.9,35.88,,,,,,,,,,
15.52.12.438,-126.7,31.7,0,15.0,,76772.2,13.03,-0.39,0.58,0.72,0.2,4.9,-0.4,35.88,,,,,,,,,,
15.52.12.447,-119.7,29.9,0,15.0,,78337.5,12.77,-0.39,0.58,0.72,0.4,4.0,-0.2,35.88,,,,,,,,,,
15.52.12.460,-142.9,35.7,0,15.0,,75011.9,13.33,-0.38,0.59,0.71,0.8,3.2,0.2,35.88,,,,,,,,,,
15.52.12.471,-132.6,33.2,0,15.0,,80051.5,12.49,-0.37,0.59,0.71,0.6,2.9,0.5,35.88,,,,,,,,,,
15.52.12.484,-164.5,41.1,0,15.0,,74827.3,13.36,-0.38,0.59,0.7,0.7,3.0,0.2,35.88,,,,,,,,,,
15.52.12.492,-140.4,35.1,0,15.0,,75362.2,13.27,-0.38,0.59,0.71,0.3,3.8,0.0,35.88,,,,,,,,,,
15.52.12.533,157.8,39.4,1,16.0,93.9,79718.2,12.54,-0.38,0.58,0.71,-0.2,5.4,-0.9,35.88,,,,,,,,,,
15.52.12.541,185.8,46.4,0,16.0,,76046.0,13.15,-0.37,0.58,0.71,-0.1,3.5,-0.8,35.88,,,,,,,,,,
15.52.12.554,229.3,57.3,0,16.0,,75733.5,13.2,-0.37,0.59,0.71,-0.5,3.6,-1.0,35.88,,,,,,,,,,
15.52.12.566,313.0,78.2,0,16.0,,72355.9,13.82,-0.37,0.59,0.72,-1.0,4.0,-2.2,35.88,,,,,,,,,,
15.52.12.575,356.9,89.2,0,16.0,,75501.5,13.24,-0.36,0.59,0.72,-0.9,5.6,-2.4,35.88,,,,,,,,,,
15.52.12.586,341.0,85.2,0,16.0,,78791.1,12.69,-0.36,0.58,0.71,-0.6,6.9,-2.7,35.88,,,,,,,,,,
15.52.12.595,389.9,97.5,0,16.0,,73793.7,13.55,-0.37,0.57,0.72,-0.1,8.1,-2.9,35.88,,,,,,,,,,
15.52.12.607,404.9,101.2,0,16.0,,70940.0,14.1,-0.38,0.57,0.73,-0.7,8.4,-2.8,35.88,,,,,,,,,,
15.52.12.616,420.9,105.2,0,16.0,,75864.8,13.18,-0.38,0.56,0.72,0.4,9.5,-2.8,35.88,,,,,,,,,,
15.52.12.629,407.9,102.0,0,16.0,,71535.4,13.98,-0.38,0.57,0.71,0.6,8.7,-2.1,35.88,,,,,,,,,,
15.52.12.637,358.6,89.6,0,16.0,,77406.8,12.92,-0.38,0.57,0.71,0.7,8.3,-1.9,35.88,,,,,,,,,,
15.52.12.648,355.1,88.8,0,16.0,,77500.9,12.9,-0.38,0.58,0.71,1.2,7.5,-1.1,35.88,,,,,,,,,,
15.52.12.656,310.1,77.5,0,16.0,,80528.8,12.42,-0.38,0.57,0.71,1.4,6.7,-0.5,35.88,,,,,,,,,,
15.52.12.668,266.2,66.6,0,16.0,,77377.7,12.92,-0.38,0.59,0.7,1.7,6.7,0.1,35.88,,,,,,,,,,
15.52.12.680,242.1,60.5,0,16.0,,77147.7,12.96,-0.39,0.59,0.72,1.4,6.2,0.3,35.88,96.1,,,,,,,,,
15.52.12.688,201.2,50.3,0,16.0,,74172.0,13.48,-0.39,0.58,0.71,0.7,6.3,-0.4,35.88,,,,,,,,,,
15.52.12.701,168.3,42.1,0,16.0,,71952.8,13.9,-0.37,0.56,0.7,1.8,6.6,-1.1,35.88,,,,,,,,,,
15.52.12.709,76.7,19.2,0,16.0,,74722.2,13.38,-0.39,0.59,0.73,0.7,5.2,0.3,35.88,,,,,,,,,,
15.52.12.725,-3.9,1.0,0,16.0,,76999.2,12.99,-0.38,0.58,0.7,1.4,5.9,-0.7,35.88,,,,,,,,,,
15.52.12.736,11.4,2.8,0,16.0,,78242.6,12.78,-0.38,0.58,0.71,1.3,6.0,-0.8,35.88,,,,,,,,,,
15.52.12.742,34.6,8.6,0,16.0,,76965.7,12.99,-0.39,0.57,0.72,0.0,6.5,-1.4,35.88,,,,,,,,,,
15.52.12.754,62.1,15.5,0,16.0,,76384.0,13.09,-0.37,0.58,0.7,0.3,7.1,-0.7,35.88,,,,,,,,,,
15.52.12.766,55.8,14.0,0,16.0,,78914.4,12.67,-0.39,0.6,0.73,-0.7,5.8,-1.5,35.88,,,,,,,,,,
15.52.12.779,58.9,14.7,0,16.0,,75524.3,13.24,-0.38,0.57,0.71,-0.9,6.1,-2.3,35.88,,,,,,,,,,
15.52.12.787,99.0,24.8,0,16.0,,78041.1,12.81,-0.38,0.58,0.71,-0.9,5.0,-1.6,35.88,,,,,,,,,,
15.52.12.799,67.7,16.9,0,16.0,,74200.5,13.48,-0.37,0.57,0.71,-0.1,5.9,-1.8,35.88,,,,,,,,,,
15.52.12.812,46.9,11.7,0,16.0,,77837.0,12.85,-0.37,0.57,0.71,0.7,5.3,-1.3,35.88,,,,,,,,,,
15.52.12.820,43.5,10.9,0,16.0,,74955.5,13.34,-0.38,0.59,0.72,0.1,5.9,-1.3,35.88,,,,,,,,,,
15.52.12.832,18.1,4.5,0,16.0,,75419.9,13.26,-0.37,0.59,0.71,0.0,6.2,-1.6,35.88,,,,,,,,,,
15.52.12.844,-10.5,2.6,0,16.0,,76868.9,13.01,-0.38,0.59,0.71,0.1,7.1,-1.7,35.88,,,,,,,,,,
15.52.12.852,-14.4,3.6,0,16.0,,78211.4,12.79,-0.37,0.58,0.71,0.1,8.4,-2.5,35.88,,,,,,,,,,
15.52.12.865,11.5,2.9,0,16.0,,77239.5,12.95,-0.38,0.57,0.71,-0.4,8.5,-2.8,35.88,,,,,,,,,,
15.52.12.877,-12.2,3.0,0,16.0,,77103.9,12.97,-0.39,0.57,0.72,-0.6,7.5,-2.8,35.88,,,,,,,,,,
15.52.12.889,-50.0,12.5,0,16.0,,75840.8,13.19,-0.38,0.57,0.72,-1.3,7.7,-2.3,35.88,,,,,,,,,,
15.52.12.897,-31.8,8.0,0,16.0,,76694.3,13.04,-0.39,0.57,0.72,-1.1,6.9,-2.3,35.88,,,,,,,,,,
15.52.12.910,-22.2,5.6,0,16.0,,73123.7,13.68,-0.39,0.57,0.72,-0.8,5.6,-1.8,35.88,,,,,,,,,,
15.52.12.925,-65.2,16.3,0,16.0,,77214.0,12.95,-0.38,0.58,0.72,0.3,5.5,-1.1,35.88,,,,,,,,,,
15.52.12.936,-50.7,12.7,0,16.0,,76103.0,13.14,-0.38,0.58,0.7,0.8,6.1,-0.7,35.88,,,,,,,,,,
15.52.12.947,-37.8,9.4,0,16.0,,72856.4,13.73,-0.38,0.59,0.7,1.0,6.2,-0.5,35.88,,,,,,,,,,
15.52.12.959,-60.5,15.1,0,16.0,,72993.1,13.7,-0.4,0.6,0.73,-0.5,5.7,-0.8,35.88,,,,,,,,,,
15.52.12.967,-98.6,24.6,0,16.0,,80155.7,12.48,-0.38,0.56,0.71,-0.6,6.1,-1.7,35.88,,,,,,,,,,
15.52.12.980,-42.6,10.6,0,16.0,,77494.2,12.9,-0.39,0.56,0.71,0.1,5.7,-0.7,35.88,,,,,,,,,,
15.52.12.992,-108.3,27.1,0,16.0,,76917.8,13.0,-0.39,0.57,0.72,0.5,3.7,-0.4,35.88,,,,,,,,,,
15.52.13.000,-101.6,25.4,0,16.0,,73767.3,13.56,-0.38,0.57,0.72,0.5,3.0,-0.5,35.88,,,,,,,,,,
15.52.13.012,-78.7,19.7,0,16.0,,79550.1,12.57,-0.38,0.58,0.72,0.0,4.1,-1.1,35.88,,,,,,,,,,
15.52.13.024,-97.9,24.5,0,16.0,,73717.2,13.57,-0.38,0.59,0.71,-0.8,4.4,-1.9,35.88,,,,,,,,,,
15.52.13.033,-91.4,22.8,0,16.0,,75958.0,13.17,-0.38,0.58,0.71,-0.8,4.7,-2.0,35.88,,,,,,,,,,
15.52.13.045,-81.9,20.5,0,16.0,,76130.8,13.14,-0.37,0.58,0.71,-1.2,4.6,-1.9,35.88,,,,,,,,,,
15.52.13.059,-144.8,36.2,0,16.0,,69780.2,14.33,-0.38,0.59,0.72,-1.1,4.1,-2.3,35.88,,,,,,,,,,
15.52.13.070,-153.2,38.3,0,16.0,,75123.2,13.31,-0.37,0.57,0.71,-0.6,4.2,-1.9,35.88,,,,,,,,,,
15.52.13.078,-105.3,26.3,0,16.0,,77535.0,12.9,-0.36,0.59,0.72,0.0,5.3,-1.4,35.88,,,,,,,,,,
15.52.13.090,-163.4,40.8,0,16.0,,77217.9,12.95,-0.39,0.58,0.71,0.5,6.3,-1.8,35.88,,,,,,,,,,
15.52.13.103,-132.4,33.1,0,16.0,,74992.9,13.33,-0.37,0.58,0.71,0.3,7.1,-2.4,35.88,,,,,,,,,,
15.52.13.114,-150.6,37.6,0,16.0,,75032.7,13.33,-0.39,0.56,0.74,-0.9,7.3,-3.5,35.88,,,,,,,,,,
15.52.13.123,-180.3,45.1,0,16.0,,75400.8,13.26,-0.38,0.55,0.71,0.9,7.9,-2.4,35.88,,,,,,,,,,
15.52.13.135,30.7,7.7,1,17.0,95.6,75892.9,13.18,-0.39,0.59,0.73,1.1,6.1,-1.6,35.88,,,,,,,,,,
15.52.13.147,151.8,38.0,0,17.0,,74793.3,13.37,-0.38,0.56,0.71,0.2,5.9,-3.0,35.88,,,,,,,,,,
15.52.13.156,195.4,48.8,0,17.0,,76664.0,13.04,-0.37,0.57,0.71,0.9,7.0,-1.5,35.88,,,,,,,,,,
15.52.13.168,208.3,52.1,0,17.0,,77006.1,12.99,-0.4,0.6,0.75,-0.6,7.2,-1.3,35.88,,,,,,,,,,
15.52.13.180,327.1,81.8,0,17.0,,77747.3,12.86,-0.37,0.58,0.7,2.1,7.4,-1.2,35.88,,,,,,,,,,
15.52.13.192,326.6,81.6,0,17.0,,77456.3,12.91,-0.4,0.59,0.73,1.1,8.0,-1.0,35.88,,,,,,,,,,
15.52.13.203,354.3,88.6,0,17.0,,79209.3,12.62,-0.39,0.58,0.7,0.2,7.2,-1.7,35.88,,,,,,,,,,
15.52.13.218,381.4,95.4,0,17.0,,74591.3,13.41,-0.39,0.57,0.71,0.6,6.1,-1.6,35.88,,,,,,,,,,
15.52.13.226,455.3,113.8,0,17.0,,76300.2,13.11,-0.39,0.56,0.72,-0.3,5.6,-1.6,35.88,,,,,,,,,,
15.52.13.239,445.8,111.4,0,17.0,,74229.8,13.47,-0.38,0.56,0.72,0.0,5.4,-1.3,35.88,,,,,,,,,,
15.52.13.247,367.2,91.8,0,17.0,,75064.8,13.32,-0.39,0.57,0.72,0.7,4.1,-0.3,35.88,,,,,,,,,,
15.52.13.258,377.3,94.3,0,17.0,,75471.8,13.25,-0.38,0.58,0.71,2.1,4.8,0.5,35.88,,,,,,,,,,
15.52.13.274,363.5,90.9,0,17.0,,74587.4,13.41,-0.37,0.58,0.7,1.9,5.9,-0.4,35.88,,,,,,,,,,
15.52.13.278,319.5,79.9,0,17.0,,78162.6,12.79,-0.38,0.59,0.71,0.2,6.7,-1.1,35.88,,,,,,,,,,
15.52.13.291,268.1,67.0,0,17.0,,76040.8,13.15,-0.38,0.57,0.71,0.1,7.4,-2.2,35.88,,,,,,,,,,
15.52.13.303,213.2,53.3,0,17.0,,75884.4,13.18,-0.38,0.59,0.72,0.3,7.9,-1.2,35.88,,,,,,,,,,
15.52.13.345,33.2,8.3,0,17.0,,77195.6,12.95,-0.38,0.56,0.71,0.6,6.9,-1.8,35.88,,,,,,,,,,
15.52.13.353,30.6,7.6,0,17.0,,77069.5,12.98,-0.39,0.57,0.71,1.4,7.8,-1.4,35.88,,,,,,,,,,
15.52.13.365,30.2,7.6,0,17.0,,75599.4,13.23,-0.39,0.58,0.72,-0.3,7.3,-2.0,35.88,,,,,,,,,,
15.52.13.377,72.9,18.2,0,17.0,,75785.2,13.2,-0.38,0.57,0.72,-0.8,7.4,-2.8,35.88,,,,,,,,,,
15.52.13.390,78.6,19.6,0,17.0,,81113.9,12.33,-0.39,0.57,0.71,0.1,6.6,-2.0,35.88,,,,,,,,,,
15.52.13.397,96.0,24.0,0,17.0,,74729.4,13.38,-0.38,0.58,0.71,0.8,6.1,-1.6,35.88,,,,,,,,,,
15.52.13.410,59.4,14.8,0,17.0,,75206.1,13.3,-0.38,0.58,0.7,1.3,6.8,-1.5,35.88,,,,,,,,,,
15.52.13.422,75.5,18.9,0,17.0,,73698.0,13.57,-0.39,0.59,0.71,-0.2,7.2,-2.0,35.88,,,,,,,,,,
15.52.13.435,52.4,13.1,0,17.0,,78190.5,12.79,-0.39,0.57,0.72,-1.3,7.9,-3.7,35.88,,,,,,,,,,
15.52.13.443,34.8,8.7,0,17.0,,72925.0,13.71,-0.39,0.56,0.72,-1.1,8.8,-3.3,35.88,,,,,,,,,,
15.52.13.455,17.1,4.3,0,17.0,,76557.3,13.06,-0.42,0.58,0.75,-2.4,5.7,-2.1,35.88,,,,,,,,,,
15.52.13.472,-22.4,5.6,0,17.0,,73229.0,13.66,-0.39,0.59,0.7,-0.2,5.8,-0.6,35.88,,,,,,,,,,
15.52.13.483,-20.5,5.1,0,17.0,,79966.8,12.51,-0.38,0.58,0.69,1.9,4.8,-0.2,35.88,,,,,,,,,,
15.52.13.495,-5.9,1.5,0,17.0,,71492.3,13.99,-0.39,0.59,0.72,-0.9,6.3,-1.5,35.88,,,,,,,,,,
15.52.13.500,-12.2,3.0,0,17.0,,73961.7,13.52,-0.38,0.58,0.7,-2.2,8.2,-3.2,35.88,,,,,,,,,,
15.52.13.516,0.0,0.0,0,17.0,,75309.6,13.28,-0.39,0.58,0.71,-3.4,8.0,-2.9,35.88,,,,,,,,,,
15.52.13.529,-54.9,13.7,0,17.0,,78622.4,12.72,-0.39,0.59,0.72,-6.2,7.8,-3.4,35.88,,,,,,,,,,
15.52.13.536,-30.7,7.7,0,17.0,,71792.7,13.93,-0.38,0.58,0.72,-8.5,8.9,-4.9,35.88,,,,,,,,,,
15.52.13.545,-44.3,11.1,0,17.0,,75642.3,13.22,-0.39,0.58,0.73,-10.2,12.5,-6.9,35.88,,,,,,,,,,
15.52.13.562,-70.2,17.6,0,17.0,,73905.5,13.53,-0.4,0.57,0.73,-12.4,14.7,-10.0,35.88,,,,,,,,,,
15.52.13.570,-41.4,10.4,0,17.0,,76573.7,13.06,-0.4,0.57,0.73,-14.5,17.9,-12.5,35.88,,,,,,,,,,
15.52.13.586,-71.9,18.0,0,17.0,,75900.0,13.18,-0.4,0.56,0.72,-15.0,20.0,-13.8,35.88,,,,,,,,,,
15.52.13.597,-96.8,24.2,0,17.0,,75571.4,13.23,-0.4,0.55,0.72,-15.4,21.2,-14.1,35.88,,,,,,,,,,
15.52.13.607,-91.3,22.8,0,17.0,,75336.8,13.27,-0.4,0.56,0.72,-14.8,21.8,-13.4,35.88,,,,,,,,,,
15.52.13.616,-78.0,19.5,0,17.0,,75218.2,13.29,-0.42,0.54,0.73,-14.4,22.0,-14.3,35.88,,,,,,,,,,
15.52.13.627,-72.7,18.2,0,17.0,,73227.4,13.66,-0.41,0.53,0.73,-13.6,20.7,-15.3,35.88,,,,,,,,,,
15.52.13.639,-98.6,24.6,0,17.0,,70588.1,14.17,-0.42,0.52,0.72,-12.6,20.1,-15.5,35.88,,,,,,,,,,
15.52.13.651,-98.7,24.7,0,17.0,,74867.8,13.36,-0.42,0.53,0.72,-11.7,18.9,-15.8,35.88,,,,,,,,,,
15.52.13.660,-104.9,26.2,0,17.0,,76398.8,13.09,-0.42,0.53,0.73,-10.8,17.1,-15.8,35.88,,,,,,,,,,
15.52.13.673,-113.1,28.3,0,17.0,,77207.2,12.95,-0.42,0.53,0.74,-10.1,18.3,-16.1,35.88,,,,,,,,,,
15.52.13.680,-132.9,33.2,0,17.0,,74356.1,13.45,-0.42,0.53,0.72,-9.5,17.8,-16.7,35.88,,,,,,,,,,
15.52.13.693,-139.8,35.0,0,17.0,,77896.7,12.84,-0.42,0.52,0.72,-7.1,18.0,-18.8,35.88,,,,,,,,,,
15.52.13.705,-150.6,37.6,0,17.0,,72186.3,13.85,-0.43,0.53,0.73,-7.4,17.9,-20.5,35.88,,,,,,,,,,
15.52.13.713,-147.0,36.8,0,17.0,,76702.3,13.04,-0.43,0.53,0.72,-8.5,19.2,-21.5,35.88,,,,,,,,,,
15.52.13.725,-122.5,30.6,0,17.0,,78156.4,12.79,-0.44,0.53,0.73,-7.4,20.3,-21.6,35.88,,,,,,,,,,
15.52.13.734,-135.5,33.9,0,17.0,,75526.3,13.24,-0.44,0.55,0.71,-7.5,22.9,-22.6,35.88,,,,,,,,,,
15.52.13.745,,,1,18.0,96.0,,,,,,,,,,,,,,,,,,,
15.52.13.762,,,0,18.0,,,,,,,,,,,,35.86,,,,,,,,
15.52.13.774,172.3,43.1,0,18.0,,74406.4,13.44,-0.47,0.49,0.72,-20.1,20.4,-44.9,35.88,,,,,,,,,,
15.52.13.787,286.1,71.5,0,18.0,,79321.4,12.61,-0.49,0.48,0.74,-18.5,15.7,-44.2,35.88,,,,,,,,,,
15.52.13.795,275.7,68.9,0,18.0,,74409.1,13.44,-0.48,0.47,0.71,-16.3,17.6,-38.0,35.88,,,,,,,,,,
15.52.13.807,405.7,101.4,0,18.0,,74548.2,13.41,-0.49,0.49,0.72,-11.2,14.6,-32.4,35.88,,,,,,,,,,
15.52.13.828,370.2,92.6,0,18.0,,77815.5,12.85,-0.49,0.51,0.71,-10.8,14.7,-26.0,35.88,,,,,,,,,,
15.52.13.832,382.2,95.6,0,18.0,,76156.0,13.13,-0.5,0.48,0.72,-11.5,14.5,-25.0,35.88,,,,,,,,,,
15.52.13.851,367.1,91.8,0,18.0,,76175.9,13.13,-0.51,0.44,0.73,-14.6,14.8,-25.4,35.88,,,,,,,,,,
15.52.13.856,403.9,101.0,0,18.0,,74126.4,13.49,-0.51,0.44,0.73,-12.3,13.1,-25.4,35.88,,,,,,,,,,
15.52.13.860,400.8,100.2,0,18.0,,73506.0,13.6,-0.52,0.41,0.74,-12.6,12.7,-23.4,35.88,,,,,,,,,,
15.52.13.869,393.2,98.3,0,18.0,,75648.3,13.22,-0.51,0.43,0.74,-8.9,12.7,-19.6,35.88,,,,,,,,,,
15.52.13.881,386.4,96.6,0,18.0,,72990.0,13.7,-0.5,0.45,0.73,-5.8,11.7,-14.0,35.88,,,,,,,,,,
15.52.13.893,310.9,77.7,0,18.0,,77204.1,12.95,-0.51,0.45,0.72,-4.4,11.1,-10.5,35.88,,,,,,,,,,
15.52.13.902,267.4,66.8,0,18.0,,74671.1,13.39,-0.5,0.47,0.72,-2.5,11.0,-11.1,35.88,,,,,,,,,,
15.52.13.914,232.6,58.2,0,18.0,,74059.5,13.5,-0.5,0.46,0.72,-4.3,11.8,-11.1,35.88,,,,,,,,,,
15.52.13.922,215.0,53.8,0,18.0,,78989.4,12.66,-0.5,0.46,0.71,-5.2,12.0,-10.9,35.88,,,,,,,,,,
15.52.13.934,122.1,30.5,0,18.0,,77354.0,12.93,-0.51,0.45,0.72,-4.2,10.9,-11.3,35.88,,,,,,,,,,
15.52.13.943,38.4,9.6,0,18.0,,73456.1,13.61,-0.51,0.43,0.73,-4.6,10.6,-11.2,35.88,,,,,,,,,,
15.52.13.954,5.6,1.4,0,18.0,,73310.8,13.64,-0.52,0.44,0.73,-3.1,10.2,-11.6,35.88,,,,,,,,,,
15.52.13.967,32.0,8.0,0,18.0,,73357.6,13.63,-0.52,0.43,0.73,-2.0,10.5,-13.4,35.88,,,,,,,,,,
15.52.13.975,51.2,12.8,0,18.0,,77608.8,12.89,-0.52,0.43,0.74,-3.4,10.7,-12.6,35.88,,,,,,,,,,
15.52.13.995,62.7,15.7,0,18.0,,74457.7,13.43,-0.52,0.44,0.73,-3.1,9.9,-13.1,35.88,,,,,,,,,,
15.52.14.007,38.8,9.7,0,18.0,,,,-0.52,0.45,0.72,-1.2,9.4,-12.0,35.88,,,,,,,,,,
15.52.14.012,92.1,23.0,0,18.0,,73750.0,13.56,-0.52,0.45,0.73,-1.7,9.4,-13.0,35.88,,,,,,,,,,
15.52.14.016,74.9,18.7,0,18.0,,77000.0,12.99,-0.52,0.45,0.71,-4.2,10.3,-12.4,35.88,,,,,,,,,,
15.52.14.030,69.0,17.2,0,18.0,,80510.9,12.42,-0.52,0.45,0.72,-4.4,9.5,-13.8,35.88,,,,,,,,,,
15.52.14.041,37.0,9.2,0,18.0,,75601.3,13.23,-0.53,0.43,0.73,-3.8,6.9,-16.5,35.88,,,,,,,,,,
15.52.14.049,62.6,15.6,0,18.0,,74239.1,13.47,-0.54,0.43,0.73,-7.7,8.1,-13.5,35.88,,,,,,,,,,
15.52.14.061,10.4,2.6,0,18.0,,74466.9,13.43,-0.53,0.43,0.72,-4.3,7.5,-10.9,35.88,,,,,,,,,,
15.52.14.075,9.7,2.4,0,18.0,,77488.1,12.91,-0.54,0.41,0.72,-2.3,6.5,-10.2,35.88,,,,,,,,,,
15.52.14.086,14.4,3.6,0,18.0,,73664.4,13.58,-0.52,0.4,0.73,-2.2,6.7,-7.4,35.88,,,,,,,,,,
15.52.14.097,-57.5,14.4,0,18.0,,76393.6,13.09,-0.52,0.43,0.73,-0.7,6.6,-6.5,35.88,,,,,,,,,,
15.52.14.102,-11.1,2.8,0,18.0,,80571.3,12.41,-0.53,0.43,0.71,0.4,6.0,-4.8,35.88,,,,,,,,,,
15.52.14.139,-41.9,10.5,0,18.0,,79470.2,12.58,-0.53,0.42,0.73,1.7,5.8,-2.9,35.88,,,,,,,,,,
15.52.14.151,-33.0,8.2,0,18.0,,78095.3,12.8,-0.53,0.43,0.73,-1.3,6.5,-5.4,35.88,,,,,,,,,,
15.52.14.160,-23.0,5.8,0,18.0,,76414.4,13.09,-0.54,0.43,0.73,-1.0,6.3,-7.8,35.88,,,,,,,,,,
15.52.14.172,-48.3,12.1,0,18.0,,74535.0,13.42,-0.54,0.42,0.73,-2.6,6.3,-6.8,35.88,,,,,,,,,,
15.52.14.180,-45.3,11.3,0,18.0,,75678.8,13.21,-0.54,0.41,0.73,-1.7,6.1,-5.8,35.88,,,,,,,,,,
15.52.14.192,-74.1,18.5,0,18.0,,70983.6,14.09,-0.54,0.41,0.74,0.3,7.6,-4.7,35.88,,,,,,,,,,
15.52.14.200,-71.9,18.0,0,18.0,,74083.9,13.5,-0.53,0.41,0.73,1.0,7.9,-2.2,35.88,,,,,,,,,,
15.52.14.213,-70.2,17.6,0,18.0,,79496.7,12.58,-0.53,0.43,0.73,1.8,8.3,-0.4,35.88,,,,,,,,,,
15.52.14.221,-72.4,18.1,0,18.0,,81627.7,12.25,-0.54,0.43,0.72,1.5,7.7,-0.1,35.88,,,,,,,,,,
15.52.14.239,-92.9,23.2,0,18.0,,75454.1,13.25,-0.54,0.43,0.73,0.3,7.4,-0.8,35.88,,,,,,,,,,
15.52.14.243,-148.1,37.0,0,18.0,,68741.3,14.55,-0.54,0.42,0.72,0.0,8.3,-1.5,35.88,,,,,,,,,,
15.52.14.254,-110.9,27.7,0,18.0,,75447.4,13.25,-0.54,0.42,0.72,-0.3,8.4,-1.2,35.88,,,,,,,,,,
15.52.14.266,-157.7,39.4,0,18.0,,79171.1,12.63,-0.54,0.42,0.72,-0.2,7.9,-1.0,35.88,,,,,,,,,,
15.52.14.274,-126.8,31.7,0,18.0,,77938.7,12.83,-0.53,0.42,0.73,-0.2,7.8,-1.8,35.88,,,,,,,,,,
15.52.14.293,-154.5,38.6,0,18.0,,79125.5,12.64,-0.53,0.42,0.73,-1.2,6.4,-2.8,35.88,,,,,,,,,,
15.52.14.297,-108.9,27.2,0,18.0,,75695.1,13.21,-0.53,0.42,0.72,-1.3,6.3,-4.0,35.88,,,,,,,,,,
15.52.14.308,-145.8,36.4,0,18.0,,76008.4,13.16,-0.54,0.42,0.73,-0.1,6.8,-4.4,35.88,,,,,,,,,,
15.52.14.320,-144.1,36.0,0,18.0,,74022.9,13.51,-0.54,0.41,0.72,0.0,6.6,-4.3,35.88,,,,,,,,,,
15.52.14.331,-144.0,36.0,0,18.0,,77154.5,12.96,-0.54,0.42,0.72,0.4,5.9,-4.2,35.88,,,,,,,,,,
15.52.14.336,-167.2,41.8,0,18.0,,75292.9,13.28,-0.53,0.42,0.72,1.1,6.2,-3.9,35.88,,,,,,,,,,
15.52.14.348,-147.7,36.9,0,18.0,,76389.2,13.09,-0.54,0.44,0.72,0.7,6.7,-2.3,35.88,,,,,,,,,,
15.52.14.356,1.9,0.5,1,19.0,101.2,76713.0,13.04,-0.55,0.43,0.72,0.3,6.9,-2.9,35.88,,,,,,,,,,
15.52.14.369,92.3,23.1,0,19.0,,75173.1,13.3,-0.55,0.43,0.73,-1.3,7.3,-4.3,35.88,,,,,,,,,,
15.52.14.383,153.9,38.5,0,19.0,,79322.8,12.61,-0.54,0.41,0.72,-1.9,7.7,-5.9,35.88,,,,,,,,,,
15.52.14.389,236.0,59.0,0,19.0,,77322.1,12.93,-0.57,0.41,0.74,-1.0,5.9,-7.2,35.88,,,,,,,,,,
15.52.14.397,248.1,62.0,0,19.0,,75405.8,13.26,-0.52,0.39,0.71,-0.2,6.6,-5.2,35.88,,,,,,,,,,
15.52.14.409,299.4,74.8,0,19.0,,74079.3,13.5,-0.55,0.43,0.73,-0.1,3.7,-1.8,35.88,,,,,,,,,,
15.52.14.418,356.9,89.2,0,19.0,,73465.6,13.61,-0.54,0.42,0.71,3.3,4.3,0.7,35.88,,,,,,,,,,
15.52.14.430,394.1,98.5,0,19.0,,74086.0,13.5,-0.56,0.42,0.74,2.3,6.3,0.7,35.88,,,,,,,,,,
15.52.14.438,364.5,91.1,0,19.0,,74917.0,13.35,-0.53,0.4,0.71,1.6,6.7,-0.7,35.88,,,,,,,,,,
15.52.14.450,432.4,108.1,0,19.0,,74190.4,13.48,-0.55,0.42,0.74,0.8,4.9,-0.6,35.88,,,,,,,,,,
15.52.14.459,424.9,106.2,0,19.0,,72959.5,13.71,-0.54,0.41,0.73,1.7,4.2,-0.1,35.88,,,,,,,,,,
15.52.14.471,405.5,101.4,0,19.0,,78585.1,12.73,-0.55,0.42,0.72,1.8,4.1,0.5,35.88,,,,,,,,,,
15.52.14.480,317.2,79.3,0,19.0,,75130.4,13.31,-0.53,0.43,0.72,1.2,4.4,-0.2,35.88,,,,,,,,,,
15.52.14.492,372.9,93.2,0,19.0,,77567.1,12.89,-0.54,0.42,0.72,0.4,4.9,-1.6,35.88,,,,,,,,,,
15.52.14.499,358.2,89.6,0,19.0,,75073.0,13.32,-0.53,0.42,0.73,0.0,5.0,-1.5,35.88,,,,,,,,,,
15.52.14.512,284.9,71.2,0,19.0,,72337.7,13.82,-0.54,0.42,0.72,1.1,6.4,-1.2,35.88,,,,,,,,,,
15.52.14.520,249.4,62.4,0,19.0,,72106.9,13.87,-0.54,0.4,0.73,1.6,5.8,-0.8,35.88,,,,,,,,,,
15.52.14.533,248.1,62.0,0,19.0,,73499.9,13.61,-0.53,0.41,0.73,1.8,4.0,0.0,35.88,,,,,,,,,,
15.52.14.540,191.3,47.8,0,19.0,,77290.2,12.94,-0.54,0.42,0.72,3.4,2.5,0.9,35.88,,,,,,,,,,
15.52.14.553,117.5,29.4,0,19.0,,75904.8,13.17,-0.54,0.41,0.71,4.6,3.2,1.9,35.88,,,,,,,,,,
15.52.14.565,28.3,7.1,0,19.0,,77896.9,12.84,-0.54,0.41,0.72,3.9,4.7,0.8,35.88,,,,,,,,,,
15.52.14.573,25.9,6.5,0,19.0,,75652.6,13.22,-0.54,0.43,0.72,3.0,4.5,0.4,35.88,,,,,,,,,,
15.52.14.585,2.2,0.6,0,19.0,,74741.1,13.38,-0.54,0.44,0.72,2.2,4.5,0.2,35.88,,,,,,,,,,
15.52.14.594,31.9,8.0,0,19.0,,77673.5,12.87,-0.54,0.42,0.73,2.1,5.5,-0.5,35.88,,,,,,,,,,
15.52.14.606,32.0,8.0,0,19.0,,77337.1,12.93,-0.54,0.42,0.72,2.9,4.9,-0.2,35.88,,,,,,,,,,
15.52.14.614,42.2,10.6,0,19.0,,76492.0,13.07,-0.53,0.39,0.72,5.2,4.7,1.2,35.88,,,,,,,,,,
15.52.14.627,79.6,19.9,0,19.0,,77585.5,12.89,-0.52,0.38,0.72,5.3,0.5,1.9,35.88,,,,,,,,,,
15.52.14.634,52.6,13.2,0,19.0,,73419.3,13.62,-0.53,0.43,0.71,8.2,-2.9,6.5,35.88,,,,,,,,,,
15.52.14.647,61.4,15.4,0,19.0,,75353.4,13.27,-0.54,0.44,0.74,12.2,1.5,12.1,35.88,,,,,,,,,,
15.52.14.655,54.2,13.6,0,19.0,,78070.3,12.81,-0.53,0.44,0.74,12.3,8.8,11.3,35.88,,,,,,,,,,
15.52.14.667,30.1,7.5,0,19.0,,75873.1,13.18,-0.54,0.46,0.73,6.5,9.9,3.5,35.88,,,,,,,,,,
15.52.14.676,10.2,2.6,0,19.0,,78342.0,12.76,-0.54,0.46,0.72,-0.6,7.6,-3.5,35.88,,,,,,,,,,
15.52.14.689,40.6,10.2,0,19.0,,77711.0,12.87,-0.54,0.44,0.72,-3.1,7.4,-5.3,35.88,,,,,,,,,,
15.52.14.696,-0.5,0.1,0,19.0,,78576.4,12.73,-0.53,0.43,0.71,-0.8,9.6,-3.1,35.88,,,,,,,,,,
15.52.14.708,-18.0,4.5,0,19.0,,79511.6,12.58,-0.53,0.43,0.72,0.1,12.2,-2.2,35.88,,,,,,,,,,
15.52.14.717,-18.2,4.6,0,19.0,,74334.1,13.45,-0.53,0.43,0.71,-1.5,12.1,-4.3,35.88,,,,,,,,,,
15.52.14.729,-7.2,1.8,0,19.0,,81717.7,12.24,-0.54,0.43,0.72,-2.5,12.3,-4.9,35.88,,,,,,,,,,
15.52.14.737,4.9,1.2,0,19.0,,76064.6,13.15,-0.53,0.43,0.72,-1.4,13.5,-3.8,35.88,,,,,,,,,,
15.52.14.749,-25.6,6.4,0,19.0,,76645.5,13.05,-0.54,0.43,0.71,0.0,12.7,-2.1,35.88,,,,,,,,,,
15.52.14.761,-44.8,11.2,0,19.0,,78835.9,12.68,-0.53,0.43,0.71,0.9,10.4,-1.7,35.88,,,,,,,,,,
15.52.14.773,-38.5,9.6,0,19.0,,76485.0,13.07,-0.54,0.43,0.72,1.4,11.2,-1.4,35.88,,,,,,,,,,
15.52.14.782,-59.1,14.8,0,19.0,,76945.8,13.0,-0.54,0.43,0.72,1.4,13.8,-1.2,35.88,,,,,,,,,,
15.52.14.790,-40.5,10.1,0,19.0,,78840.1,12.68,-0.55,0.42,0.72,0.5,14.7,-0.6,35.88,,,,,,,,,,
15.52.14.803,-69.8,17.4,0,19.0,,72111.0,13.87,-0.54,0.43,0.72,1.8,13.6,0.5,35.88,,,,,,,,,,
15.52.14.811,-60.5,15.1,0,19.0,,78064.7,12.81,-0.54,0.42,0.73,3.7,15.2,1.8,35.88,,,,,,,,,,
15.52.14.823,-97.8,24.4,0,19.0,,75701.2,13.21,-0.54,0.43,0.72,3.6,17.9,1.6,35.88,,,,,,,,,,
15.52.14.831,-87.2,21.8,0,19.0,,76708.9,13.04,-0.55,0.43,0.7,1.2,19.3,-1.1,35.88,,,,,,,,,,
15.52.14.844,-105.3,26.3,0,19.0,,78086.3,12.81,-0.56,0.44,0.71,-1.5,18.1,-3.1,35.88,,,,,,,,,,
15.52.14.852,-116.1,29.0,0,19.0,,72692.5,13.76,-0.55,0.43,0.7,-2.0,17.8,-3.1,35.88,,,,,,,,,,
15.52.14.864,-103.6,25.9,0,19.0,,71375.6,14.01,-0.56,0.43,0.71,-0.8,19.0,-2.2,35.88,,,,,,,,,,
15.52.14.873,-93.7,23.4,0,19.0,,80122.1,12.48,-0.55,0.41,0.72,0.3,18.9,-1.7,35.88,,,,,,,,,,
15.52.14.885,-159.0,39.8,0,19.0,,77450.7,12.91,-0.56,0.41,0.71,0.5,19.2,-1.9,35.88,,,,,,,,,,
15.52.14.897,-114.9,28.7,0,19.0,,72059.2,13.88,-0.55,0.41,0.7,2.7,16.4,-0.1,35.88,,,,,,,,,,
15.52.14.905,-161.1,40.3,0,19.0,,81204.6,12.31,-0.56,0.43,0.69,6.4,12.9,3.8,35.88,,,,,,,,,,
15.52.14.942,-146.2,36.6,0,19.0,,75823.2,13.19,-0.56,0.44,0.7,9.7,10.8,6.6,35.88,,,,,,,,,,
15.52.14.954,-127.5,31.9,0,19.0,,76401.0,13.09,-0.58,0.45,0.69,14.7,8.2,10.5,35.88,,,,,,,,,,
15.52.14.962,-181.5,45.4,0,19.0,,77987.6,12.82,-0.58,0.43,0.7,20.4,7.4,15.0,35.88,,,,,,,,,,
15.52.14.974,26.4,6.6,1,20.0,98.6,76650.7,13.05,-0.57,0.4,0.69,26.1,4.2,18.8,35.88,,,,,,,,,,
15.52.14.983,72.5,18.1,0,20.0,,71519.9,13.98,-0.55,0.32,0.66,31.8,-2.4,23.3,35.88,,,,,,,,,,
15.52.14.995,146.2,36.6,0,20.0,,70870.5,14.11,-0.52,0.25,0.67,31.4,-20.8,30.1,35.88,,,,,,,,,,
15.52.15.006,195.9,49.0,0,20.0,,82259.7,12.16,-0.53,0.45,0.71,38.3,-41.0,53.2,35.88,,,,,,,,,,
15.52.15.019,240.5,60.1,0,20.0,,78301.0,12.77,-0.53,0.53,0.71,54.1,-28.3,89.8,35.88,,,,,,,,,,
15.52.15.032,283.4,70.8,0,20.0,,76731.4,13.03,-0.58,0.52,0.72,60.3,-9.9,118.2,35.88,,,,,,,,,,
15.52.15.039,329.3,82.3,0,20.0,,74069.4,13.5,-0.55,0.56,0.69,64.5,-7.0,109.6,35.88,,,,,,,,,,
15.52.15.049,362.1,90.5,0,20.0,,76116.2,13.14,-0.47,0.62,0.68,54.1,-10.6,75.9,35.88,,,,,,,,,,
15.52.15.057,371.5,92.9,0,20.0,,73042.8,13.69,-0.47,0.55,0.64,37.3,-26.2,38.7,35.88,,,,,,,,,,
15.52.15.069,354.6,88.6,0,20.0,,77793.7,12.85,-0.43,0.48,0.65,20.1,-47.6,37.2,35.88,,,,,,,,,,
15.52.15.077,404.0,101.0,0,20.0,,73753.5,13.56,-0.43,0.58,0.67,33.7,-71.8,75.7,35.88,,,,,,,,,,
15.52.15.094,393.0,98.2,0,20.0,,74546.0,13.41,-0.42,0.61,0.7,56.1,-61.3,136.9,35.88,,,,,,,,,,
15.52.15.102,318.9,79.7,0,20.0,,79606.2,12.56,-0.39,0.67,0.74,123.6,-43.5,121.2,35.88,,,,,,,,,,
15.52.15.117,344.1,86.0,0,20.0,,75001.1,13.33,-0.39,0.71,0.7,110.1,-22.7,74.2,35.88,,,,,,,,,,
15.52.15.119,318.9,79.7,0,20.0,,76521.4,13.07,-0.35,0.78,0.62,40.9,-12.1,12.8,35.88,,,,,,,,,,
15.52.15.131,302.4,75.6,0,20.0,,74425.9,13.44,-0.38,0.77,0.65,-11.6,-0.9,-29.7,35.88,,,,,,,,,,
15.52.15.150,189.1,47.3,0,20.0,,75367.4,13.27,-0.4,0.64,0.65,-15.8,-5.3,-32.9,35.88,,,,,,,,,,
15.52.15.160,187.2,46.8,0,20.0,,73796.3,13.55,-0.41,0.56,0.68,11.5,-12.0,-15.5,35.88,,,,,,,,,,
15.52.15.172,68.3,17.1,0,20.0,,81496.0,12.27,-0.37,0.56,0.65,25.7,-3.8,-3.6,35.88,,,,,,,,,,
15.52.15.175,76.0,19.0,0,20.0,,73536.8,13.6,-0.41,0.65,0.63,11.2,-5.3,-7.1,35.88,,,,,,,,,,
15.52.15.183,27.4,6.8,0,20.0,,77015.8,12.98,-0.4,0.66,0.66,-13.7,0.8,-16.8,35.88,,,,,,,,,,
15.52.15.196,26.3,6.6,0,20.0,,77506.8,12.9,-0.4,0.63,0.69,-23.0,23.2,-29.3,35.88,,,,,,,,,,
15.52.15.205,47.4,11.8,0,20.0,,76816.2,13.02,-0.41,0.61,0.66,-28.7,30.4,-36.2,35.88,,,,,,,,,,
15.52.15.217,88.5,22.1,0,20.0,,75668.7,13.22,-0.43,0.61,0.68,-33.4,21.6,-38.2,35.88,,,,,,,,,,
15.52.15.225,65.7,16.4,0,20.0,,76134.3,13.13,-0.43,0.61,0.69,-30.5,18.0,-37.0,35.88,,,,,,,,,,
15.52.15.238,50.4,12.6,0,20.0,,77521.1,12.9,-0.43,0.6,0.68,-25.4,18.8,-33.2,35.88,,,,,,,,,,
15.52.15.250,83.1,20.8,0,20.0,,72605.2,13.77,-0.43,0.59,0.66,-22.3,16.7,-26.2,35.88,,,,,,,,,,
15.52.15.257,69.3,17.3,0,20.0,,72639.2,13.77,-0.42,0.58,0.65,-21.4,15.9,-18.3,35.88,,,,,,,,,,
15.52.15.274,25.3,6.3,0,20.0,,74561.0,13.41,-0.43,0.58,0.65,-17.6,15.7,-12.0,35.88,,,,,,,,,,
15.52.15.278,33.7,8.4,0,20.0,,75095.4,13.32,-0.45,0.57,0.67,-14.7,16.7,-7.9,35.88,,,,,,,,,,
15.52.15.290,61.1,15.3,0,20.0,,74652.9,13.4,-0.44,0.56,0.7,-11.7,19.8,-6.6,35.88,,,,,,,,,,
15.52.15.298,4.6,1.2,0,20.0,,75892.6,13.18,-0.45,0.55,0.7,-10.1,21.9,-6.0,35.88,,,,,,,,,,
15.52.15.311,30.0,7.5,0,20.0,,75268.2,13.29,-0.44,0.54,0.68,-8.6,19.5,-4.9,35.88,,,,,,,,,,
15.52.15.319,25.9,6.5,0,20.0,,75208.2,13.3,-0.44,0.54,0.67,-6.9,15.3,-2.1,35.88,,,,,,,,,,
15.52.15.339,-19.9,5.0,0,20.0,,74401.3,13.44,-0.43,0.5,0.67,-5.3,13.7,-0.2,35.88,,,,,,,,,,
15.52.15.343,6.1,1.5,0,20.0,,76353.5,13.1,-0.43,0.54,0.66,-5.5,15.0,1.9,35.88,,,,,,,,,,
15.52.15.352,-58.3,14.6,0,20.0,,76125.7,13.14,-0.44,0.58,0.66,-3.6,15.1,4.3,35.88,,,,,,,,,,
15.52.15.360,-44.3,11.1,0,20.0,,77905.2,12.84,-0.44,0.62,0.69,-2.3,19.6,4.5,35.88,,,,,,,,,,
15.52.15.372,-32.8,8.2,0,20.0,,74275.7,13.46,-0.44,0.62,0.69,-2.7,26.2,-1.8,35.88,,,,,,,,,,
15.52.15.381,-42.5,10.6,0,20.0,,75475.3,13.25,-0.44,0.62,0.67,-7.1,26.6,-9.0,35.88,,,,,,,,,,
15.52.15.392,-65.2,16.3,0,20.0,,72110.7,13.87,-0.44,0.6,0.67,-11.4,23.8,-14.5,35.88,,,,,,,,,,
15.52.15.406,-30.0,7.5,0,20.0,,78727.7,12.7,-0.45,0.58,0.67,-10.7,19.9,-17.1,35.88,,,,,,,,,,
15.52.15.413,-59.3,14.8,0,20.0,,77670.8,12.87,-0.47,0.58,0.67,-11.3,17.5,-14.3,35.88,,,,,,,,,,
15.52.15.425,-63.9,16.0,0,20.0,,79540.9,12.57,-0.46,0.55,0.67,-9.8,16.1,-12.6,35.88,,,,,,,,,,
15.52.15.434,-102.1,25.5,0,20.0,,77680.2,12.87,-0.46,0.53,0.67,-9.2,14.5,-10.5,35.88,,,,,,,,,,
15.52.15.446,-70.0,17.5,0,20.0,,76663.9,13.04,-0.47,0.55,0.66,-7.7,10.7,-7.5,35.88,,,,,,,,,,
15.52.15.454,-66.4,16.6,0,20.0,,76682.7,13.04,-0.5,0.54,0.65,-1.2,11.1,-5.5,35.88,,,,,,,,,,
15.52.15.466,-90.9,22.7,0,20.0,,77989.3,12.82,-0.46,0.54,0.7,-3.0,7.9,-0.1,35.88,,,,,,,,,,
15.52.15.474,-119.8,30.0,0,20.0,,74746.7,13.38,-0.48,0.6,0.7,-2.2,5.7,4.7,35.88,,,,,,,,,,
15.52.15.487,-104.2,26.0,0,20.0,,77132.9,12.96,-0.48,0.56,0.66,3.8,9.6,4.8,35.88,,,,,,,,,,
15.52.15.495,-115.9,29.0,0,20.0,,78360.8,12.76,-0.46,0.49,0.67,4.1,2.8,4.3,35.88,,,,,,,,,,
15.52.15.516,-140.6,35.2,0,20.0,,75163.2,13.3,-0.47,0.53,0.7,3.6,-5.6,12.2,35.88,,,,,,,,,,
15.52.15.521,-115.3,28.8,0,20.0,,75214.5,13.3,-0.48,0.57,0.69,11.5,-1.7,18.7,35.88,,,,,,,,,,
15.52.15.539,-154.6,38.6,0,20.0,,70885.6,14.11,-0.46,0.56,0.67,14.3,-2.9,20.6,35.88,,,,,,,,,,
15.52.15.550,-122.9,30.7,0,20.0,,77118.8,12.97,-0.44,0.57,0.69,10.3,-5.3,19.8,35.88,,,,,,,,,,
15.52.15.561,-114.0,28.5,0,20.0,,79589.5,12.56,-0.45,0.62,0.69,9.3,-0.5,18.2,35.88,,,,,,,,,,
15.52.15.563,-169.3,42.3,0,20.0,,76405.6,13.09,-0.44,0.6,0.66,10.9,5.1,13.0,35.88,,,,,,,,,,
15.52.15.572,-177.1,44.3,0,20.0,,75835.9,13.19,-0.44,0.61,0.67,4.1,5.2,7.1,35.88,,,,,,,,,,
15.52.15.585,-132.2,33.0,0,20.0,,73571.0,13.59,-0.44,0.62,0.68,-1.5,6.8,4.6,35.88,,,,,,,,,,
15.52.15.597,61.2,15.3,1,21.0,98.9,78728.2,12.7,-0.43,0.57,0.65,-1.8,14.1,1.2,35.88,,,,,,,,,,
15.52.15.610,146.6,36.6,0,21.0,,78471.9,12.74,-0.46,0.55,0.68,-4.6,14.6,0.5,35.88,,,,,,,,,,
15.52.15.618,202.5,50.6,0,21.0,,79056.0,12.65,-0.46,0.59,0.69,-5.9,17.7,0.9,35.88,,,,,,,,,,
15.52.15.630,247.7,61.9,0,21.0,,78575.1,12.73,-0.46,0.58,0.69,-5.7,23.5,-1.4,35.88,,,,,,,,,,
15.52.15.642,248.9,62.2,0,21.0,,77936.3,12.83,-0.45,0.57,0.67,-8.2,23.0,-5.4,35.88,,,,,,,,,,
15.52.15.655,327.4,81.8,0,21.0,,73549.9,13.6,-0.46,0.56,0.66,-9.6,20.5,-5.9,35.88,,,,,,,,,,
15.52.15.667,383.1,95.8,0,21.0,,72849.2,13.73,-0.46,0.59,0.66,-9.2,21.9,-3.3,35.88,,,,,,,,,,
15.52.15.675,384.1,96.0,0,21.0,,76405.5,13.09,-0.46,0.58,0.65,-9.0,24.3,-2.7,35.88,,,,,,,,,,
15.52.15.694,408.2,102.0,0,21.0,,76488.2,13.07,-0.46,0.57,0.65,-10.9,24.5,-3.9,35.88,,,,,,,,,,
15.52.15.699,387.0,96.8,0,21.0,,71102.6,14.06,-0.46,0.57,0.66,-10.6,25.2,-4.7,35.88,,,,,,,,,,
15.52.15.712,366.7,91.7,0,21.0,,77736.6,12.86,-0.47,0.57,0.69,-9.9,26.4,-5.8,35.88,,,,,,,,,,
15.52.15.760,221.6,55.4,0,21.0,,79905.4,12.51,-0.47,0.54,0.67,-16.3,24.2,-14.6,35.81,,,,,,,,,,
15.52.15.763,234.5,58.6,0,21.0,,78744.7,12.7,-0.49,0.56,0.64,-14.3,23.4,-12.6,35.81,,,,,,,,,,
15.52.15.774,149.1,37.3,0,21.0,,77418.0,12.92,-0.49,0.58,0.66,-10.5,20.2,-8.9,35.81,,,,,,,,,,
15.52.15.786,94.2,23.6,0,21.0,,74469.3,13.43,-0.5,0.58,0.66,-7.7,24.5,-10.4,35.81,,,,,,,,,,
15.52.15.798,23.9,6.0,0,21.0,,73733.0,13.56,-0.49,0.56,0.66,-10.2,26.0,-14.4,35.81,,,,,,,,,,
15.52.15.806,1.2,0.3,0,21.0,,75924.8,13.17,-0.51,0.54,0.65,-14.5,21.6,-19.7,35.81,,,,,,,,,,
15.52.15.819,3.7,0.9,0,21.0,,79275.4,12.61,-0.52,0.51,0.68,-13.7,15.8,-21.5,35.81,,,,,,,,,,
15.52.15.831,76.8,19.2,0,21.0,,78499.1,12.74,-0.51,0.5,0.66,-13.3,16.9,-16.0,35.81,,,,,,,,,,
15.52.15.843,55.3,13.8,0,21.0,,71953.1,13.9,-0.53,0.51,0.65,-2.6,10.0,-6.5,35.81,,,,,,,,,,
15.52.15.851,72.2,18.0,0,21.0,,74303.6,13.46,-0.52,0.54,0.65,2.6,5.8,2.1,35.81,,,,,,,,,,
15.52.15.864,68.3,17.1,0,21.0,,70382.4,14.21,-0.52,0.55,0.65,5.3,7.4,4.1,35.81,,,,,,,,,,
15.52.15.872,75.0,18.8,0,21.0,,73343.7,13.63,-0.52,0.51,0.63,4.1,3.5,3.5,35.81,,,,,,,,,,
15.52.15.884,52.5,13.1,0,21.0,,75294.9,13.28,-0.51,0.51,0.64,4.0,-4.0,5.6,35.81,,,,,,,,,,
15.52.15.896,27.0,6.8,0,21.0,,73816.9,13.55,-0.51,0.52,0.67,8.5,-8.8,11.8,35.81,,,,,,,,,,
15.52.15.905,9.3,2.3,0,21.0,,77083.2,12.97,-0.52,0.52,0.68,12.7,-11.0,17.4,35.81,,,,,,,,,,
15.52.15.918,29.4,7.4,0,21.0,,77056.3,12.98,-0.51,0.54,0.68,14.5,-12.2,20.8,35.81,,,,,,,,,,
15.52.15.925,50.0,12.5,0,21.0,,76839.6,13.01,-0.5,0.55,0.67,14.5,-12.4,21.2,35.81,,,,,,,,,,
15.52.15.938,25.9,6.5,0,21.0,,79590.3,12.56,-0.5,0.55,0.67,14.8,-13.4,20.8,35.81,,,,,,,,,,
15.52.15.950,-22.4,5.6,0,21.0,,77010.0,12.99,-0.49,0.54,0.65,15.1,-15.3,20.7,35.81,,,,,,,,,,
15.52.15.958,-38.3,9.6,0,21.0,,75856.5,13.18,-0.45,0.53,0.63,12.3,-21.1,22.8,35.81,,,,,,,,,,
15.52.15.971,-31.6,7.9,0,21.0,,75791.6,13.19,-0.47,0.59,0.66,11.0,-29.7,30.3,35.81,,,,,,,,,,
15.52.15.978,-35.9,9.0,0,21.0,,77514.5,12.9,-0.48,0.62,0.7,18.0,-24.0,38.3,35.81,,,,,,,,,,
15.52.15.991,-42.5,10.6,0,21.0,,77111.3,12.97,-0.46,0.62,0.7,24.9,-9.4,38.0,35.81,,,,,,,,,,
15.52.16.005,-59.3,14.8,0,21.0,,78616.6,12.72,-0.46,0.59,0.65,22.4,-6.2,27.7,35.81,,,,,,,,,,
15.52.16.015,-43.9,11.0,0,21.0,,71669.9,13.95,-0.47,0.58,0.66,12.9,-15.6,16.9,35.81,,,,,,,,,,
15.52.16.023,-44.5,11.1,0,21.0,,79323.6,12.61,-0.47,0.58,0.67,10.3,-19.5,14.8,35.81,,,,,,,,,,
15.52.16.031,-49.8,12.4,0,21.0,,72960.3,13.71,-0.45,0.56,0.66,15.6,-18.1,20.8,35.81,,,,,,,,,,
15.52.16.044,-71.9,18.0,0,21.0,,77056.7,12.98,-0.45,0.53,0.65,22.9,-27.9,29.7,35.81,,,,,,,,,,
15.52.16.052,-99.0,24.8,0,21.0,,77903.0,12.84,-0.41,0.51,0.64,24.2,-40.8,38.7,35.81,,,,,,,,,,
15.52.16.064,-129.7,32.4,0,21.0,,77270.2,12.94,-0.4,0.59,0.65,26.4,-55.8,51.0,35.81,,,,,,,,,,
15.52.16.077,-104.9,26.2,0,21.0,,76575.7,13.06,-0.39,0.68,0.69,41.4,-65.1,67.1,35.81,,,,,,,,,,
15.52.16.085,-67.7,16.9,0,21.0,,76894.5,13.0,-0.39,0.68,0.73,67.2,-61.6,71.7,35.81,,,,,,,,,,
15.52.16.105,-136.9,34.2,0,21.0,,74319.7,13.46,-0.36,0.64,0.67,57.7,-43.6,73.7,35.81,,,,,,,,,,
15.52.16.110,-101.4,25.4,0,21.0,,76538.8,13.07,-0.37,0.63,0.66,46.6,-44.5,59.1,35.81,,,,,,,,,,
15.52.16.118,-81.8,20.4,0,21.0,,77413.5,12.92,-0.23,0.64,0.59,11.9,-75.0,28.7,35.81,,,,,,,,,,
15.52.16.130,-130.8,32.7,0,21.0,,77725.8,12.87,-0.36,0.85,1.26,18.3,103.4,15.8,35.81,,,,,,,,,,
15.52.16.139,-145.6,36.4,0,21.0,,76625.3,13.05,-0.39,0.67,0.22,-42.9,16.1,-43.0,35.81,,,,,,,,,,
15.52.16.150,-148.0,37.0,0,21.0,,78337.0,12.77,-0.24,0.7,0.7,-38.8,-78.5,-24.3,35.81,,,,,,,,,,
15.52.16.162,-139.0,34.8,0,21.0,,78571.5,12.73,-0.31,0.75,0.84,-8.4,-49.2,1.5,35.81,,,,,,,,,,
15.52.16.176,-143.1,35.8,0,21.0,,77531.1,12.9,-0.32,0.62,0.64,-4.0,-7.5,-12.7,35.81,,,,,,,,,,
15.52.16.183,-129.8,32.4,0,21.0,,77034.5,12.98,-0.35,0.62,0.68,-22.5,-3.2,-19.7,35.81,,,,,,,,,,
15.52.16.196,-186.8,46.7,0,21.0,,73191.6,13.66,-0.33,0.55,0.66,-20.0,7.9,-15.7,35.81,,,,,,,,,,
15.52.16.204,9.2,2.3,1,22.0,93.0,73458.2,13.61,-0.37,0.56,0.72,-1.2,19.9,-0.9,35.81,,,,,,,,,,
15.52.16.216,61.2,15.3,0,22.0,,79322.9,12.61,-0.37,0.58,0.71,12.7,20.7,10.6,35.81,,,,,,,,,,
15.52.16.228,163.0,40.8,0,22.0,,76334.7,13.1,-0.35,0.59,0.7,16.1,18.7,10.2,35.81,,,,,,,,,,
15.52.16.236,213.7,53.4,0,22.0,,78203.2,12.79,-0.32,0.64,0.7,9.0,16.6,6.6,35.81,,,,,,,,,,
15.52.16.249,220.1,55.0,0,22.0,,79860.5,12.52,-0.32,0.68,0.67,5.1,13.5,4.3,35.81,,,,,,,,,,
15.52.16.257,318.0,79.5,0,22.0,,75840.5,13.19,-0.33,0.69,0.67,3.1,17.5,2.7,35.81,,,,,,,,,,
15.52.16.269,346.3,86.6,0,22.0,,79011.9,12.66,-0.33,0.68,0.66,2.7,12.1,4.2,35.81,,,,,,,,,,
15.52.16.278,374.8,93.7,0,22.0,,75474.2,13.25,-0.34,0.62,0.64,-4.9,3.4,0.0,35.81,,,,,,,,,,
15.52.16.294,431.1,107.8,0,22.0,,73165.5,13.67,-0.36,0.63,0.67,-2.7,-2.2,3.9,35.81,,,,,,,,,,
15.52.16.305,407.1,101.8,0,22.0,,77449.6,12.91,-0.36,0.63,0.68,6.9,-9.7,12.8,35.81,,,,,,,,,,
15.52.16.310,440.8,110.2,0,22.0,,78998.7,12.66,-0.34,0.63,0.68,11.1,-11.2,17.3,35.81,,,,,,,,,,
15.52.16.322,482.9,120.7,0,22.0,,79345.8,12.6,-0.35,0.58,0.68,14.5,-28.7,24.8,35.81,,,,,,,,,,
15.52.16.338,346.3,86.6,0,22.0,,76514.3,13.07,-0.31,0.63,0.69,13.5,-27.2,21.6,35.81,,,,,,,,,,
15.52.16.349,341.1,85.3,0,22.0,,75201.6,13.3,-0.29,0.66,0.72,13.8,-17.3,19.8,35.81,,,,,,,,,,
15.52.16.361,314.1,,0,22.0,,74010.2,13.51,-0.28,0.65,0.7,19.4,-22.7,23.2,35.81,,,,,,,,,,
15.52.16.365,233.9,58.5,0,22.0,,74096.9,13.5,-0.27,0.69,0.7,24.1,-19.8,21.0,35.81,,,,,,,,,,
15.52.16.376,227.8,57.0,0,22.0,,76837.0,13.01,-0.27,0.68,0.7,23.1,-7.7,17.8,35.81,,,,,,,,,,
15.52.16.384,188.8,47.2,0,22.0,,82767.0,12.08,-0.27,0.68,0.66,15.2,-4.1,14.6,35.81,,,,,,,,,,
15.52.16.396,118.8,29.7,0,22.0,,77286.3,12.94,-0.28,0.7,0.67,12.6,-2.7,11.5,35.81,,,,,,,,,,
15.52.16.404,46.0,11.5,0,22.0,,76947.4,13.0,-0.28,0.71,0.66,8.7,-1.9,8.4,35.81,,,,,,,,,,
15.52.16.417,15.6,3.9,0,22.0,,77426.9,12.92,-0.29,0.69,0.66,8.4,-2.2,7.7,35.81,,,,,,,,,,
15.52.16.426,3.2,0.8,0,22.0,,75704.1,13.21,-0.27,0.67,0.67,9.6,-1.1,7.3,35.81,,,,,,,,,,
15.52.16.437,33.8,8.4,0,22.0,,77981.0,12.82,-0.28,0.67,0.66,5.0,2.2,6.9,35.81,,,,,,,,,,
15.52.16.445,67.6,16.9,0,22.0,,75526.9,13.24,-0.27,0.68,0.66,2.4,2.0,4.2,35.81,,,,,,,,,,
15.52.16.458,71.5,17.9,0,22.0,,79589.2,12.56,-0.26,0.7,0.66,-0.1,1.0,3.3,35.81,,,,,,,,,,
15.52.16.473,51.4,12.8,0,22.0,,74874.7,13.36,-0.25,0.7,0.67,-1.3,4.5,1.3,35.81,,,,,,,,,,
15.52.16.478,80.3,20.1,0,22.0,,75129.4,13.31,-0.26,0.69,0.67,-2.0,6.2,0.0,35.81,,,,,,,,,,
15.52.16.486,89.0,22.2,0,22.0,,76793.1,13.02,-0.27,0.69,0.67,-1.1,5.9,-0.5,35.81,,,,,,,,,,
15.52.16.504,56.3,14.1,0,22.0,,75855.3,13.18,-0.27,0.68,0.67,-0.3,6.5,-0.7,35.81,,,,,,,,,,
15.52.16.507,103.7,25.9,0,22.0,,78168.6,12.79,-0.27,0.67,0.68,-0.9,5.5,-1.1,35.81,,,,,,,,,,
15.52.16.521,6.9,1.7,0,22.0,,77739.7,12.86,-0.27,0.67,0.67,-1.0,4.9,-1.8,35.81,,,,,,,,,,
15.52.16.560,-16.8,4.2,0,22.0,,76407.0,13.09,-0.27,0.68,0.68,-0.9,5.4,-1.7,35.81,,,,,,,,,,
15.52.16.574,-24.9,6.2,0,22.0,,76470.3,13.08,-0.26,0.69,0.67,-0.5,5.5,-1.6,35.81,,,,,,,,,,
15.52.16.578,-49.3,12.3,0,22.0,,75932.6,13.17,-0.27,0.68,0.67,-1.6,6.3,-2.5,35.81,,,,,,,,,,
15.52.16.589,-33.4,8.4,0,22.0,,76319.4,13.1,-0.28,0.67,0.69,-1.4,6.5,-2.4,35.81,,,,,,,,,,
15.52.16.597,-32.2,8.0,0,22.0,,71985.8,13.89,-0.28,0.66,0.68,-0.1,6.6,-1.6,35.81,,,,,,,,,,
15.52.16.610,-43.1,10.8,0,22.0,,72134.3,13.86,-0.27,0.66,0.68,0.7,6.1,-1.2,35.81,,,,,,,,,,
15.52.16.618,-30.2,7.6,0,22.0,,71571.1,13.97,-0.26,0.67,0.66,0.9,6.1,-1.1,35.81,,,,,,,,,,
15.52.16.629,-54.0,13.5,0,22.0,,76981.3,12.99,-0.26,0.69,0.67,-0.2,5.9,-0.6,35.81,,,,,,,,,,
15.52.16.638,-54.9,13.7,0,22.0,,78029.5,12.82,-0.26,0.7,0.66,-0.8,6.9,-0.9,35.81,,,,,,,,,,
15.52.16.650,-64.3,16.1,0,22.0,,74110.3,13.49,-0.27,0.69,0.67,-1.5,7.5,-1.3,35.81,,,,,,,,,,
15.52.16.658,-66.0,16.5,0,22.0,,76907.8,13.0,-0.27,0.69,0.68,-2.4,7.9,-1.8,35.81,,,,,,,,,,
15.52.16.671,-59.4,14.8,0,22.0,,79553.0,12.57,-0.28,0.68,0.67,-2.6,7.5,-2.5,35.81,,,,,,,,,,
15.52.16.679,-85.9,21.5,0,22.0,,77679.1,12.87,-0.28,0.67,0.68,-3.0,6.3,-2.6,35.81,,,,,,,,,,
15.52.16.695,-74.1,18.5,0,22.0,,74689.0,13.39,-0.28,0.66,0.67,-3.1,5.3,-2.9,35.81,,,,,,,,,,
15.52.16.706,-109.8,27.4,0,22.0,,72390.7,13.81,-0.27,0.67,0.68,-2.8,4.8,-2.2,35.81,,,,,,,,,,
15.52.16.713,-83.5,20.9,0,22.0,,76387.0,13.09,-0.27,0.68,0.68,-1.4,6.4,-1.8,35.81,,,,,,,,,,
15.52.16.720,-121.5,30.4,0,22.0,,76919.8,13.0,-0.26,0.68,0.68,-0.6,6.8,-1.8,35.81,,,,,,,,,,
15.52.16.732,-109.1,27.3,0,22.0,,75827.7,13.19,-0.27,0.69,0.67,-1.6,6.5,-1.9,35.81,,,,,,,,,,
15.52.16.745,-167.7,41.9,0,22.0,,73987.4,13.52,-0.27,0.67,0.68,-2.7,6.3,-2.9,35.81,,,,,,,,,,
15.52.16.753,-119.0,29.8,0,22.0,,78649.5,12.71,-0.27,0.67,0.68,-2.4,6.5,-3.1,35.81,,,,,,,,,,
15.52.16.771,-144.3,36.1,0,22.0,,78787.3,12.69,-0.27,0.67,0.68,-0.7,6.9,-2.5,35.81,,,,,,,,,,
15.52.16.776,-126.6,31.6,0,22.0,,77367.6,12.93,-0.27,0.67,0.68,0.7,7.3,-1.8,35.81,,,,,,,,,,
15.52.16.786,-136.1,34.0,0,22.0,,72507.6,13.79,-0.27,0.67,0.68,1.2,6.8,-2.5,35.81,,,,,,,,,,
15.52.16.794,-145.0,36.2,0,22.0,,74422.0,13.44,-0.27,0.67,0.68,0.8,7.0,-2.5,35.81,,,,,,,,,,
15.52.16.806,-182.8,45.7,0,22.0,,78068.4,12.81,-0.27,0.68,0.68,1.3,7.8,-1.9,35.81,,,,,,,,,,
15.52.16.818,9.1,2.3,1,23.0,93.1,76243.0,13.12,-0.27,0.68,0.67,2.0,8.4,-1.6,35.81,,,,,,,,,,
15.52.16.827,90.6,22.6,0,23.0,,73599.3,13.59,-0.27,0.69,0.67,1.5,7.0,-1.5,35.81,,,,,,,,,,
15.52.16.834,81.3,20.3,0,23.0,,75850.7,13.18,-0.28,0.68,0.66,-0.2,6.6,-2.3,35.81,,,,,,,,,,
15.52.16.847,186.4,46.6,0,23.0,,78117.6,12.8,-0.28,0.67,0.69,0.8,8.2,-2.4,35.81,,,,,,,,,,
15.52.16.855,226.0,56.5,0,23.0,,74435.6,13.43,-0.28,0.66,0.67,-0.5,8.8,-4.1,35.81,,,,,,,,,,
15.52.16.868,261.3,65.3,0,23.0,,80126.1,12.48,-0.27,0.68,0.68,0.2,7.8,-4.2,35.81,,,,,,,,,,
15.52.16.882,308.0,77.0,0,23.0,,75577.8,13.23,-0.27,0.68,0.67,1.5,9.2,-4.0,35.81,,,,,,,,,,
15.52.16.893,397.5,99.4,0,23.0,,75575.9,13.23,-0.27,0.69,0.66,0.8,8.4,-3.7,35.81,,,,,,,,,,
15.52.16.904,430.4,107.6,0,23.0,,76962.7,12.99,-0.27,0.69,0.67,-0.3,7.9,-3.8,35.81,,,,,,,,,,
15.52.16.909,364.2,91.0,0,23.0,,77007.0,12.99,-0.27,0.68,0.67,-1.2,7.8,-4.2,35.81,,,,,,,,,,
15.52.16.916,382.9,95.7,0,23.0,,75058.9,13.32,-0.28,0.67,0.68,-1.1,8.0,-3.8,35.81,,,,,,,,,,
15.52.16.929,399.6,99.9,0,23.0,,72982.1,13.7,-0.29,0.65,0.68,-0.3,7.3,-2.8,35.81,,,,,,,,,,
15.52.16.937,373.9,93.5,0,23.0,,76238.3,13.12,-0.29,0.65,0.68,1.3,7.1,-1.6,35.81,,,,,,,,,,
15.52.16.949,434.0,108.5,0,23.0,,77514.5,12.9,-0.29,0.66,0.68,2.3,7.3,-0.8,35.81,,,,,,,,,,
15.52.16.958,375.5,93.9,0,23.0,,76195.9,13.12,-0.28,0.68,0.66,2.1,7.2,-0.7,35.81,,,,,,,,,,
15.52.16.970,340.6,85.2,0,23.0,,73124.4,13.68,-0.28,0.69,0.67,1.4,6.1,-0.9,35.81,,,,,,,,,,
15.52.16.982,275.2,68.8,0,23.0,,74544.8,13.41,-0.28,0.68,0.68,0.2,6.0,-1.3,35.81,,,,,,,,,,
15.52.16.991,239.7,59.9,0,23.0,,78744.1,12.7,-0.28,0.68,0.68,1.6,7.0,-1.0,35.81,,,,,,,,,,
15.52.17.003,178.4,44.6,0,23.0,,75420.7,13.26,-0.27,0.67,0.67,2.3,7.7,-0.5,35.81,,,,,,,,,,
15.52.17.015,121.4,30.4,0,23.0,,74029.0,13.51,-0.28,0.67,0.68,2.0,7.4,-0.8,35.81,,,,,,,,,,
15.52.17.029,33.5,8.4,0,23.0,,75572.1,13.23,-0.28,0.68,0.68,1.3,8.0,-1.0,35.81,,,,,,,,,,
15.52.17.036,25.9,6.5,0,23.0,,73777.9,13.55,-0.28,0.67,0.66,1.8,8.6,-1.5,35.81,,,,,,,,,,
15.52.17.044,-29.0,7.2,0,23.0,,75951.4,13.17,-0.28,0.67,0.67,1.3,7.3,-1.4,35.81,,,,,,,,,,
15.52.17.056,46.8,11.7,0,23.0,,76125.1,13.14,-0.28,0.67,0.67,1.0,6.5,-1.4,35.81,,,,,,,,,,
15.52.17.068,61.0,15.2,0,23.0,,78342.5,12.76,-0.28,0.68,0.67,1.1,7.0,-1.6,35.81,,,,,,,,,,
15.52.17.077,66.9,16.7,0,23.0,,75559.6,13.23,-0.28,0.67,0.68,0.8,6.8,-1.5,35.81,,,,,,,,,,
15.52.17.089,93.9,23.5,0,23.0,,75006.1,13.33,-0.28,0.68,0.68,1.1,6.5,-1.8,35.81,,,,,,,,,,
15.52.17.107,64.7,16.2,0,23.0,,71209.9,14.04,-0.28,0.68,0.68,0.8,7.0,-1.5,35.81,,,,,,,,,,
15.52.17.112,88.6,22.2,0,23.0,,80373.7,12.44,-0.28,0.68,0.67,-0.7,7.3,-2.7,35.81,,,,,,,,,,
15.52.17.121,56.5,14.1,0,23.0,,77857.8,12.84,-0.28,0.67,0.68,-1.0,8.1,-3.8,35.81,,,,,,,,,,
15.52.17.134,32.6,8.2,0,23.0,,78405.7,12.75,-0.28,0.67,0.67,-0.1,8.1,-3.6,35.81,,,,,,,,,,
15.52.17.150,-4.7,1.2,0,23.0,,76817.0,13.02,-0.28,0.67,0.67,1.1,8.8,-2.7,35.81,,,,,,,,,,
15.52.17.154,8.6,2.2,0,23.0,,75839.0,13.19,-0.29,0.67,0.68,0.5,9.6,-2.9,35.81,,,,,,,,,,
15.52.17.166,-51.8,13.0,0,23.0,,75411.4,13.26,-0.28,0.68,0.66,-1.2,9.2,-3.6,35.81,,,,,,,,,,
15.52.17.179,-2.6,0.6,0,23.0,,72796.7,13.74,-0.28,0.68,0.67,-1.2,9.3,-3.9,35.81,,,,,,,,,,
15.52.17.194,-30.0,7.5,0,23.0,,69994.6,14.29,-0.29,0.67,0.67,-2.2,8.6,-4.5,35.81,,,,,,,,,,
15.52.17.200,-26.9,6.7,0,23.0,,76079.5,13.14,-0.29,0.67,0.67,-2.6,10.5,-5.9,35.81,,,,,,,,,,
15.52.17.211,-18.7,4.7,0,23.0,,77032.3,12.98,-0.28,0.68,0.66,-4.0,10.8,-7.4,35.81,,,,,,,,,,
15.52.17.220,-34.7,8.7,0,23.0,,75090.7,13.32,-0.29,0.69,0.67,-3.7,8.5,-6.3,35.81,,,,,,,,,,
15.52.17.232,-49.8,12.4,0,23.0,,77041.3,12.98,-0.29,0.67,0.67,-2.0,7.0,-5.5,35.81,,,,,,,,,,
15.52.17.244,-61.4,15.4,0,23.0,,74633.3,13.4,-0.3,0.65,0.67,-2.0,7.9,-4.9,35.81,,,,,,,,,,
15.52.17.253,-55.3,13.8,0,23.0,,77784.7,12.86,-0.3,0.66,0.68,-2.1,8.3,-4.8,35.81,,,,,,,,,,
15.52.17.264,-78.3,19.6,0,23.0,,75887.1,13.18,-0.29,0.67,0.68,-1.2,7.8,-4.4,35.81,,,,,,,,,,
15.52.17.281,-60.8,15.2,0,23.0,,77724.5,12.87,-0.29,0.67,0.67,-0.3,8.1,-3.2,35.81,,,,,,,,,,
15.52.17.293,-83.6,20.9,0,23.0,,76792.0,13.02,-0.29,0.67,0.67,-1.1,8.6,-4.5,35.81,,,,,,,,,,
15.52.17.305,-84.7,21.2,0,23.0,,71324.1,14.02,-0.29,0.67,0.68,-3.1,8.0,-5.5,35.81,,,,,,,,,,
15.52.17.313,-148.4,37.1,0,23.0,,74468.9,13.43,-0.3,0.67,0.67,-3.8,7.6,-5.6,35.81,,,,,,,,,,
15.52.17.322,-89.5,22.4,0,23.0,,76241.2,13.12,-0.3,0.66,0.68,-2.8,6.6,-5.2,35.81,,,,,,,,,,
15.52.17.360,-143.6,35.9,0,23.0,,74531.1,13.42,-0.3,0.68,0.67,0.1,6.2,-2.1,35.88,,,,,,,,,,
15.52.17.374,-115.8,29.0,0,23.0,,76868.6,13.01,-0.3,0.67,0.68,-0.9,6.8,-3.2,35.88,,,,,,,,,,
15.52.17.385,-96.4,24.1,0,23.0,,75135.7,13.31,-0.3,0.66,0.67,-1.3,7.1,-3.4,35.88,,,,,,,,,,
15.52.17.396,-169.2,42.3,0,23.0,,77100.6,12.97,-0.3,0.66,0.67,-0.4,7.1,-2.9,35.88,,,,,,,,,,
15.52.17.406,-120.0,30.0,0,23.0,,74513.4,13.42,-0.3,0.66,0.68,-0.3,6.8,-3.2,35.88,,,,,,,,,,
