timestamp,ppg,threshold,beat,beat_count,inst_bpm,gsr_resistance_ohm,gsr_conductance_us,accel_x,accel_y,accel_z,gyro_x,gyro_y,gyro_z,temp_c,window_bpm,window_temp_c,status_message,SpO2,bmi,age,height,weight,env_temp_c,env_humidity_pct
13.48.28.739,,,0,,,92464.4,10.81,-0.64,0.6,0.44,2.3,4.0,-1.1,33.88,104.5,,,98.0,29.5,23.0,144.78,61.9,29.23,32.0
13.48.28.743,18.3,4.6,0,,,92352.6,10.83,-0.64,0.6,0.45,3.0,3.8,-0.5,33.88,,,,,,,,,,
13.48.28.751,66.6,16.6,0,,,90719.8,11.02,-0.64,0.61,0.45,3.9,4.5,0.1,33.88,,,,,,,,,,
13.48.28.759,97.1,24.3,0,,,92484.1,10.81,-0.65,0.61,0.45,3.5,4.8,0.1,33.88,,,,,,,,,,
13.48.28.771,149.3,37.3,0,,,91093.6,10.98,-0.65,0.62,0.44,3.4,4.8,0.5,33.88,,,,,,,,,,
13.48.28.779,202.9,50.7,0,,,91406.1,10.94,-0.64,0.62,0.45,3.4,5.0,0.9,33.88,,,,,,,,,,
13.48.28.791,229.0,57.2,0,,,90803.7,11.01,-0.64,0.62,0.45,3.2,4.2,0.9,33.88,,,,,,,,,,
13.48.28.800,249.1,62.3,0,,,92405.5,10.82,-0.64,0.61,0.44,3.4,4.5,0.7,33.88,,,,,,,,,,
13.48.28.808,272.4,68.1,0,,,91126.1,10.97,-0.63,0.62,0.44,3.8,5.1,1.4,33.88,,,,,,,,,,
13.48.28.820,302.4,75.6,0,,,91054.0,10.98,-0.63,0.62,0.44,4.6,4.7,1.6,33.88,,,,,,,,,,
13.48.28.828,339.0,84.8,0,,,92118.4,10.86,-0.63,0.62,0.44,5.4,4.5,1.8,33.88,,,,,,,,,,
13.48.28.840,326.7,81.7,0,,,92452.6,10.82,-0.63,0.62,0.44,5.2,4.9,1.7,33.88,,,,,,,,,,
13.48.28.849,323.0,80.8,0,,,91431.5,10.94,-0.62,0.63,0.45,4.6,4.6,2.2,33.88,,,,,,,,,,
13.48.28.861,308.6,77.2,0,,,90483.2,11.05,-0.62,0.63,0.45,3.8,4.5,2.6,33.88,,,,,,,,,,
13.48.28.869,290.8,72.7,0,,,92294.1,10.83,-0.62,0.63,0.44,3.9,5.1,2.4,33.88,,,,,,,,,,
13.48.28.881,253.9,63.5,0,,,90803.2,11.01,-0.62,0.62,0.44,4.5,5.0,2.9,33.88,,,,,,,,,,
13.48.28.890,207.6,51.9,0,,,91155.4,10.97,-0.62,0.62,0.44,4.9,4.6,2.6,33.88,,,,,,,,,,
13.48.28.902,185.6,46.4,0,,,91274.0,10.96,-0.63,0.62,0.43,4.7,5.4,1.9,33.88,,,,,,,,,,
13.48.28.910,146.4,36.6,0,,,91116.6,10.97,-0.63,0.63,0.43,3.9,5.3,2.2,33.88,,,,,,,,,,
13.48.28.922,80.6,20.2,0,,,91229.8,10.96,-0.62,0.64,0.44,3.6,6.0,2.3,33.88,,,,,,,,,,
13.48.28.931,45.4,11.4,0,,,91760.1,10.9,-0.62,0.65,0.44,2.9,6.7,2.0,33.88,,,,,,,,,,
13.48.28.943,-2.3,0.6,0,,,91011.4,10.99,-0.63,0.65,0.44,1.6,6.3,1.5,33.88,,,,,,,,,,
13.48.28.951,14.6,3.6,0,,,90979.4,10.99,-0.63,0.65,0.43,0.1,7.0,1.0,33.88,,,,,,,,,,
13.48.28.963,29.3,7.3,0,,,91586.6,10.92,-0.62,0.65,0.43,-2.0,5.5,1.3,33.88,,,,,,,,,,
13.48.28.971,36.8,9.2,0,,,92116.3,10.86,-0.62,0.64,0.43,-2.2,5.2,1.5,33.88,,,,,,,,,,
13.48.29.013,52.4,13.1,0,,,91235.5,10.96,-0.62,0.63,0.43,-1.9,6.4,1.4,33.88,,,,,,,,,,
13.48.29.025,43.2,10.8,0,,,91209.7,10.96,-0.62,0.62,0.44,3.8,7.2,1.5,33.88,,,,,,,,,,
13.48.29.033,31.2,7.8,0,,,92081.4,10.86,-0.63,0.63,0.44,4.9,7.3,1.4,33.88,,,,,,,,,,
13.48.29.045,9.3,2.3,0,,,91410.0,10.94,-0.63,0.64,0.44,5.3,7.4,1.4,33.88,,,,,,,,,,
13.48.29.053,14.0,3.5,0,,,90718.9,11.02,-0.63,0.65,0.42,4.4,6.4,0.9,33.88,,,,,,,,,,
13.48.29.066,3.8,1.0,0,,,90041.6,11.11,-0.62,0.66,0.42,2.5,4.5,0.0,33.88,,,,,,,,,,
13.48.29.074,-15.4,3.8,0,,,90721.1,11.02,-0.62,0.65,0.43,0.8,4.5,0.1,33.88,,,,,,,,,,
13.48.29.086,-6.7,1.7,0,,,90773.7,11.02,-0.61,0.66,0.43,-0.3,4.5,0.3,33.88,,,,,,,,,,
13.48.29.098,-19.6,4.9,0,,,90797.8,11.01,-0.62,0.64,0.43,-1.2,5.3,0.1,33.88,,,,,,,,,,
13.48.29.107,-27.0,6.8,0,,,91247.9,10.96,-0.62,0.64,0.43,-1.1,5.5,0.2,33.88,,,,,,,,,,
13.48.29.119,-36.1,9.0,0,,,89541.0,11.17,-0.62,0.63,0.44,-0.5,5.1,0.6,33.88,,,,,,,,,,
13.48.29.132,-40.4,10.1,0,,,91593.9,10.92,-0.62,0.62,0.43,0.0,5.1,0.9,33.88,,,,,,,,,,
13.48.29.139,-41.7,10.4,0,,,91009.2,10.99,-0.62,0.63,0.44,0.7,4.8,1.3,33.88,,,,,,,,,,
13.48.29.152,-43.5,10.9,0,,,91859.8,10.89,-0.62,0.63,0.44,1.4,5.3,1.0,33.88,,,,,,,,,,
13.48.29.164,-47.4,11.8,0,,,92176.7,10.85,-0.61,0.64,0.44,2.1,5.1,0.6,33.88,,,,,,,,,,
13.48.29.172,-65.0,16.2,0,,,90566.7,11.04,-0.61,0.64,0.43,2.4,4.6,-0.1,33.88,,,,,,,,,,
13.48.29.185,-68.5,17.1,0,,,90836.2,11.01,-0.61,0.65,0.43,2.6,3.7,-0.5,33.88,,,,,,,,,,
13.48.29.197,-70.5,17.6,0,,,91450.1,10.93,-0.61,0.64,0.44,2.0,3.3,-0.6,33.88,,,,,,,,,,
13.48.29.205,-77.8,19.4,0,,,91258.7,10.96,-0.62,0.64,0.44,1.3,3.6,-1.2,33.88,,,,,,,,,,
13.48.29.217,-83.1,20.8,0,,,90452.2,11.06,-0.62,0.64,0.43,0.7,5.4,-0.9,33.88,,,,,,,,,,
13.48.29.230,-80.8,20.2,0,,,91073.8,10.98,-0.62,0.64,0.43,-0.2,5.4,-1.4,33.88,,,,,,,,,,
13.48.29.238,-87.3,21.8,0,,,91520.6,10.93,-0.62,0.64,0.44,-0.9,5.5,-1.3,33.88,,,,,,,,,,
13.48.29.250,-90.3,22.6,0,,,90374.3,11.07,-0.62,0.65,0.44,-0.8,6.8,-1.2,33.88,,,,,,,,,,
13.48.29.262,-105.8,26.4,0,,,90257.8,11.08,-0.61,0.65,0.42,-0.8,6.4,-0.3,33.88,,,,,,,,,,
13.48.29.271,-115.2,28.8,0,,,90218.2,11.08,-0.62,0.65,0.43,-0.8,6.4,-0.1,33.88,,,,,,,,,,
13.48.29.283,-112.9,28.2,0,,,89804.4,11.14,-0.62,0.64,0.43,-2.7,3.5,0.4,33.88,,,,,,,,,,
13.48.29.295,-101.5,25.4,0,,,90820.3,11.01,-0.62,0.64,0.45,-2.2,7.1,-0.5,33.88,,,,,,,,,,
13.48.29.304,-118.3,29.6,0,,,91468.2,10.93,-0.63,0.64,0.44,-1.8,6.5,-0.5,33.88,,,,,,,,,,
13.48.29.316,0.2,0.0,1,1.0,102.8,91217.3,10.96,-0.63,0.64,0.44,-2.4,2.8,-0.4,33.88,,,,,,,,,,
13.48.29.329,69.2,17.3,0,1.0,,89570.9,11.16,-0.63,0.64,0.44,-1.8,3.8,-0.8,33.88,,,,,,,,,,
13.48.29.336,99.9,25.0,0,1.0,,89753.6,11.14,-0.62,0.64,0.43,-1.1,5.2,-0.8,33.88,,,,,,,,,,
13.48.29.348,160.1,40.0,0,1.0,,90222.5,11.08,-0.62,0.64,0.43,-1.2,4.6,-0.4,33.88,,,,,,,,,,
13.48.29.361,234.7,58.7,0,1.0,,90947.8,11.0,-0.62,0.64,0.44,-1.0,5.1,-0.4,33.88,,,,,,,,,,
13.48.29.369,242.0,60.5,0,1.0,,90444.4,11.06,-0.62,0.64,0.43,-1.0,6.1,-0.6,33.88,,,,,,,,,,
13.48.29.381,290.8,72.7,0,1.0,,89717.2,11.15,-0.63,0.63,0.43,-1.9,5.2,-0.8,33.88,,,,,,,,,,
13.48.29.393,275.5,68.9,0,1.0,,90315.1,11.07,-0.63,0.64,0.44,-2.9,4.5,-0.6,33.88,,,,,,,,,,
13.48.29.406,351.5,87.9,0,1.0,,90707.4,11.02,-0.63,0.63,0.45,-3.4,4.6,-0.3,33.88,,,,,,,,,,
13.48.29.414,348.8,87.2,0,1.0,,91042.7,10.98,-0.63,0.64,0.45,-3.0,4.6,-0.4,33.88,,,,,,,,,,
13.48.29.426,308.7,77.2,0,1.0,,89341.4,11.19,-0.62,0.65,0.45,-3.3,4.1,-0.8,33.88,,,,,,,,,,
13.48.29.439,314.0,78.5,0,1.0,,91932.8,10.88,-0.62,0.65,0.45,-3.2,3.7,-1.7,33.88,,,,,,,,,,
13.48.29.447,268.2,67.0,0,1.0,,90385.6,11.06,-0.61,0.64,0.44,-4.0,3.3,-1.6,33.88,,,,,,,,,,
13.48.29.459,263.9,66.0,0,1.0,,92185.0,10.85,-0.62,0.63,0.44,-4.3,3.6,-1.4,33.88,,,,,,,,,,
13.48.29.471,200.9,50.2,0,1.0,,91955.3,10.87,-0.62,0.62,0.45,-4.7,4.8,-1.8,33.88,,,,,,,,,,
13.48.29.480,183.4,45.8,0,1.0,,90296.9,11.07,-0.62,0.62,0.45,-3.2,4.9,-1.7,33.88,,,,,,,,,,
13.48.29.492,120.0,30.0,0,1.0,,91784.9,10.9,-0.62,0.62,0.44,-1.1,3.8,-2.1,33.88,,,,,,,,,,
13.48.29.504,67.2,16.8,0,1.0,,91733.3,10.9,-0.61,0.63,0.45,-1.1,2.7,-2.7,33.88,,,,,,,,,,
13.48.29.513,22.0,5.5,0,1.0,,90708.0,11.02,-0.61,0.64,0.45,-1.4,3.1,-3.6,33.88,,,,,,,,,,
13.48.29.525,4.7,1.2,0,1.0,,91307.3,10.95,-0.62,0.65,0.44,-2.5,3.8,-3.8,33.88,,,,,,,,,,
13.48.29.537,41.3,10.3,0,1.0,,91513.9,10.93,-0.63,0.65,0.44,-3.8,3.2,-3.2,33.88,,,,,,,,,,
13.48.29.545,38.2,9.6,0,1.0,,91539.1,10.92,-0.63,0.66,0.44,-4.9,3.1,-2.6,33.88,,,,,,,,,,
13.48.29.557,50.6,12.6,0,1.0,,90484.8,11.05,-0.63,0.65,0.44,-4.8,2.7,-3.0,33.88,,,,,,,,,,
13.48.29.570,65.8,16.4,0,1.0,,91804.6,10.89,-0.62,0.64,0.45,-4.1,1.9,-3.1,33.88,,,,,,,,,,
13.48.29.582,44.0,11.0,0,1.0,,91231.9,10.96,-0.63,0.64,0.45,-5.1,1.0,-4.4,33.88,,,,,,,,,,
13.48.29.590,52.4,13.1,0,1.0,,91150.0,10.97,-0.61,0.64,0.46,-6.0,-0.1,-5.6,33.88,,,,,,,,,,
13.48.29.603,34.0,8.5,0,1.0,,88399.3,11.31,-0.61,0.64,0.47,-6.8,-0.2,-6.5,33.88,,,,,,,,,,
13.48.29.615,20.4,5.1,0,1.0,,92572.2,10.8,-0.62,0.63,0.46,-7.4,-0.7,-7.1,33.88,,,,,,,,,,
13.48.29.623,11.2,2.8,0,1.0,,89964.4,11.12,-0.62,0.62,0.46,-8.7,-1.9,-7.6,33.88,,,,,,,,,,
13.48.29.636,-1.3,0.3,0,1.0,,91724.9,10.9,-0.64,0.61,0.48,-8.1,-2.5,-9.5,33.88,,,,,,,,,,
13.48.29.647,-12.9,3.2,0,1.0,,91731.8,10.9,-0.63,0.58,0.48,-9.1,-1.3,-10.9,33.88,,,,,,,,,,
13.48.29.660,-4.9,1.2,0,1.0,,90947.0,11.0,-0.63,0.61,0.47,-6.7,-1.3,-8.1,33.88,,,,,,,,,,
13.48.29.668,-14.6,3.6,0,1.0,,91193.8,10.97,-0.62,0.63,0.48,-4.1,-4.1,-7.5,33.88,,,,,,,,,,
13.48.29.680,-29.0,7.2,0,1.0,,90575.3,11.04,-0.62,0.62,0.47,-5.4,-5.0,-7.9,33.88,,,,,,,,,,
13.48.29.694,-26.7,6.7,0,1.0,,91350.2,10.95,-0.61,0.61,0.47,-5.3,-7.1,-7.3,33.88,,,,,,,,,,
13.48.29.705,-33.1,8.3,0,1.0,,91137.8,10.97,-0.61,0.6,0.48,-2.9,-8.2,-5.8,33.88,,,,,,,,,,
13.48.29.713,-36.1,9.0,0,1.0,,89697.3,11.15,-0.62,0.6,0.47,-2.2,-6.2,-5.6,33.88,,,,,,,,,,
13.48.29.725,-50.6,12.6,0,1.0,,90872.7,11.0,-0.62,0.6,0.47,-2.6,-6.8,-4.6,33.88,,,,,,,,,,
13.48.29.738,-54.4,13.6,0,1.0,,90567.3,11.04,-0.61,0.6,0.48,-1.6,-5.4,-4.2,33.88,,,,,,,,,,
13.48.29.750,-60.9,15.2,0,1.0,,91236.5,10.96,-0.62,0.6,0.48,1.4,-5.3,-3.8,33.88,,,,,,,,,,
13.48.29.758,-65.7,16.4,0,1.0,,92356.4,10.83,-0.62,0.62,0.47,2.0,-5.8,-4.1,33.88,,,,,,,,,,
13.48.29.770,-60.4,15.1,0,1.0,,91647.0,10.91,-0.62,0.62,0.48,3.8,-8.0,-5.2,33.88,,,,,,,,,,
13.48.29.783,-78.0,19.5,0,1.0,,90520.8,11.05,-0.61,0.62,0.49,4.4,-7.4,-6.4,33.88,,,,,,,,,,
13.48.29.824,-92.4,23.1,0,1.0,,91108.0,10.98,-0.59,0.6,0.51,2.7,-8.8,-8.3,33.88,,,,,,,,,,
13.48.29.832,-104.1,26.0,0,1.0,,89651.2,11.15,-0.6,0.59,0.49,4.4,-6.2,-10.3,33.88,,,,,,,,,,
13.48.29.844,-112.2,28.0,0,1.0,,91431.1,10.94,-0.58,0.6,0.48,4.3,-4.1,-6.6,33.88,,,,,,,,,,
13.48.29.856,-108.9,27.2,0,1.0,,90938.2,11.0,-0.58,0.63,0.49,5.4,-6.0,-1.0,33.88,,,,,,,,,,
13.48.29.866,-126.7,31.7,0,1.0,,89652.3,11.15,-0.61,0.62,0.49,3.8,-6.4,-0.5,33.88,,,,,,,,,,
13.48.29.877,-127.8,32.0,0,1.0,,93217.6,10.73,-0.6,0.64,0.49,1.0,-5.9,-1.0,33.88,,,,,,,,,,
13.48.29.889,-136.0,34.0,0,1.0,,92386.6,10.82,-0.6,0.64,0.49,1.4,-5.5,-1.4,33.88,,,,,,,,,,
13.48.29.897,30.7,7.7,1,2.0,103.1,90052.7,11.1,-0.61,0.64,0.48,0.3,-5.4,-4.0,33.88,,,,,,,,,,
13.48.29.910,107.6,26.9,0,2.0,,90717.5,11.02,-0.6,0.63,0.49,-2.3,-5.6,-7.3,33.88,,,,,,,,,,
13.48.29.922,159.6,39.9,0,2.0,,90855.8,11.01,-0.59,0.61,0.5,-0.9,-5.3,-6.6,33.88,,,,,,,,,,
13.48.29.935,193.1,48.3,0,2.0,,92784.0,10.78,-0.59,0.61,0.5,0.8,-3.4,-5.9,33.88,,,,,,,,,,
13.48.29.943,221.5,55.4,0,2.0,,91447.2,10.94,-0.58,0.61,0.5,0.0,-3.9,-5.5,33.88,,,,,,,,,,
13.48.29.955,276.9,69.2,0,2.0,,90230.5,11.08,-0.58,0.6,0.5,-0.9,-3.2,-5.1,33.88,,,,,,,,,,
13.48.29.967,264.6,66.2,0,2.0,,90901.8,11.0,-0.58,0.6,0.51,0.1,-3.5,-3.9,33.88,,,,,,,,,,
13.48.29.975,279.9,70.0,0,2.0,,91314.9,10.95,-0.58,0.6,0.51,0.2,-3.8,-3.2,33.88,,,,,,,,,,
13.48.29.988,344.0,86.0,0,2.0,,90144.9,11.09,-0.58,0.59,0.52,-1.5,-4.3,-4.1,33.88,,,,,,,,,,
13.48.30.000,323.9,81.0,0,2.0,,92234.2,10.84,-0.58,0.58,0.52,-3.3,-3.4,-3.2,33.88,,,,,,,,,,
13.48.30.012,311.5,77.9,0,2.0,,90932.0,11.0,-0.59,0.59,0.52,-1.0,-2.9,-6.3,33.88,,,,,,,,,,
13.48.30.020,267.7,66.9,0,2.0,,91034.6,10.98,-0.56,0.58,0.52,0.2,-0.4,-7.4,33.88,,,,,,,,,,
13.48.30.033,252.2,63.0,0,2.0,,91549.4,10.92,-0.57,0.61,0.52,-0.5,-0.9,-5.6,33.88,,,,,,,,,,
13.48.30.045,204.3,51.1,0,2.0,,89858.1,11.13,-0.59,0.64,0.52,-2.1,-2.5,-4.7,33.88,,,,,,,,,,
13.48.30.053,199.8,50.0,0,2.0,,89589.5,11.16,-0.59,0.61,0.52,-4.9,-3.7,-5.5,33.88,,,,,,,,,,
13.48.30.066,121.4,30.4,0,2.0,,91143.7,10.97,-0.58,0.63,0.53,-6.9,-3.9,-5.2,33.88,,,,,,,,,,
13.48.30.078,65.5,16.4,0,2.0,,91045.9,10.98,-0.58,0.61,0.52,-6.4,-2.2,-3.8,33.88,,,,,,,,,,
13.48.30.090,11.4,2.8,0,2.0,,91169.9,10.97,-0.59,0.61,0.52,-7.3,-2.1,-4.0,33.88,,,,,,,,,,
13.48.30.098,6.3,1.6,0,2.0,,90882.3,11.0,-0.58,0.6,0.53,-9.6,-3.5,-4.4,33.88,,,,,,,,,,
13.48.30.110,26.7,6.7,0,2.0,,91439.6,10.94,-0.59,0.58,0.53,-11.7,-2.9,-4.6,33.88,,,,,,,,,,
13.48.30.123,42.3,10.6,0,2.0,,90183.4,11.09,-0.59,0.57,0.53,-12.1,-2.0,-4.4,33.88,,,,,,,,,,
13.48.30.131,54.1,13.5,0,2.0,,91282.7,10.95,-0.59,0.56,0.53,-9.7,-0.7,-3.5,33.88,,,,,,,,,,
13.48.30.143,54.1,13.5,0,2.0,,90492.8,11.05,-0.59,0.56,0.54,-5.1,0.5,-3.5,33.88,,,,,,,,,,
13.48.30.156,55.9,14.0,0,2.0,,90522.0,11.05,-0.6,0.58,0.54,-2.5,-1.1,-4.2,33.88,,,,,,,,,,
13.48.30.164,45.9,11.5,0,2.0,,90594.4,11.04,-0.6,0.58,0.55,-1.7,-2.1,-4.9,33.88,,,,,,,,,,
13.48.30.176,47.9,12.0,0,2.0,,90731.8,11.02,-0.61,0.6,0.55,-0.8,-2.7,-5.0,33.88,,,,,,,,,,
13.48.30.188,32.3,8.1,0,2.0,,89748.8,11.14,-0.61,0.6,0.54,-1.2,-3.3,-3.7,33.88,,,,,,,,,,
13.48.30.201,15.2,3.8,0,2.0,,90709.8,11.02,-0.61,0.6,0.53,-4.0,-4.5,-3.5,33.88,,,,,,,,,,
13.48.30.209,-0.2,0.0,0,2.0,,91412.0,10.94,-0.61,0.59,0.53,-5.7,-4.1,-3.3,33.88,,,,,,,,,,
13.48.30.221,-5.0,1.2,0,2.0,,90613.5,11.04,-0.6,0.57,0.52,-6.4,-4.5,-2.6,33.88,,,,,,,,,,
13.48.30.233,-12.1,3.0,0,2.0,,90228.7,11.08,-0.6,0.56,0.52,-6.9,-4.6,-1.4,33.88,,,,,,,,,,
13.48.30.241,-5.8,1.4,0,2.0,,90872.3,11.0,-0.6,0.55,0.52,-6.2,-3.9,-1.1,33.88,,,,,,,,,,
13.48.30.254,-19.9,5.0,0,2.0,,90039.9,11.11,-0.61,0.55,0.53,-4.8,-4.7,-0.2,33.88,,,,,,,,,,
13.48.30.267,-30.5,7.6,0,2.0,,90926.6,11.0,-0.61,0.56,0.55,-2.4,-5.3,-2.0,33.88,,,,,,,,,,
13.48.30.278,-28.4,7.1,0,2.0,,91924.4,10.88,-0.59,0.57,0.56,-0.6,-4.3,-2.9,33.88,,,,,,,,,,
13.48.30.287,-44.8,11.2,0,2.0,,91724.0,10.9,-0.59,0.58,0.56,1.8,-3.4,-3.2,33.88,,,,,,,,,,
13.48.30.300,-54.1,13.5,0,2.0,,92369.9,10.83,-0.58,0.58,0.56,3.3,-3.4,-3.6,33.88,,,,,,,,,,
13.48.30.311,-52.1,13.0,0,2.0,,90678.0,11.03,-0.57,0.57,0.56,4.4,-3.6,-3.7,33.88,,,,,,,,,,
13.48.30.319,-51.5,12.9,0,2.0,,91088.0,10.98,-0.57,0.57,0.56,5.4,-4.2,-3.8,33.88,,,,,,,,,,
13.48.30.332,-68.8,17.2,0,2.0,,91155.5,10.97,-0.56,0.58,0.56,6.9,-3.2,-3.4,33.88,,,,,,,,,,
13.48.30.344,-63.9,16.0,0,2.0,,90385.2,11.06,-0.55,0.59,0.54,7.4,-3.3,-3.0,33.88,,,,,,,,,,
13.48.30.353,-87.3,21.8,0,2.0,,90012.8,11.11,-0.56,0.59,0.54,8.8,-4.7,-3.6,33.88,,,,,,,,,,
13.48.30.365,-73.4,18.4,0,2.0,,90388.8,11.06,-0.54,0.58,0.56,8.0,-4.3,-3.5,33.88,,,,,,,,,,
13.48.30.377,-78.2,19.6,0,2.0,,92968.8,10.76,-0.55,0.58,0.56,7.2,-2.2,-5.2,33.88,,,,,,,,,,
13.48.30.385,-95.7,23.9,0,2.0,,92168.3,10.85,-0.54,0.59,0.57,9.0,-1.4,-6.9,33.88,,,,,,,,,,
13.48.30.397,-88.8,22.2,0,2.0,,90182.8,11.09,-0.54,0.59,0.56,9.8,-1.7,-7.6,33.88,,,,,,,,,,
13.48.30.405,-95.9,24.0,0,2.0,,91133.1,10.97,-0.55,0.58,0.56,10.3,-1.0,-8.4,33.88,,,,,,,,,,
13.48.30.418,-97.5,24.4,0,2.0,,90866.5,11.01,-0.55,0.62,0.57,10.4,-1.8,-7.8,33.88,,,,,,,,,,
13.48.30.430,-116.9,29.2,0,2.0,,90542.2,11.04,-0.55,0.63,0.55,9.1,1.6,-7.4,33.88,,,,,,,,,,
13.48.30.438,-104.1,26.0,0,2.0,,90987.3,10.99,-0.55,0.64,0.54,6.4,1.0,-6.1,33.88,,,,,,,,,,
13.48.30.450,-111.2,27.8,0,2.0,,91129.4,10.97,-0.55,0.64,0.54,3.3,-0.4,-4.5,33.88,,,,,,,,,,
13.48.30.463,-126.3,31.6,0,2.0,,92901.2,10.76,-0.54,0.64,0.55,2.0,0.8,-3.5,33.88,,,,,,,,,,
13.48.30.471,8.8,2.2,1,3.0,100.6,91551.0,10.92,-0.55,0.62,0.54,-0.8,-0.4,-3.0,33.88,,,,,,,,,,
13.48.30.483,73.1,18.3,0,3.0,,91519.5,10.93,-0.55,0.6,0.55,-2.0,0.0,-3.3,33.88,,,,,,,,,,
13.48.30.495,122.8,30.7,0,3.0,,91356.9,10.95,-0.55,0.59,0.56,-1.6,0.9,-2.9,33.88,,,,,,,,,,
13.48.30.504,170.2,42.6,0,3.0,,92167.5,10.85,-0.55,0.57,0.55,-1.2,2.1,-3.2,33.88,,,,,,,,,,
13.48.30.516,211.2,52.8,0,3.0,,90564.4,11.04,-0.57,0.56,0.56,1.2,3.2,-4.5,33.88,,,,,,,,,,
13.48.30.528,233.8,58.4,0,3.0,,90654.1,11.03,-0.57,0.57,0.55,3.7,4.1,-4.0,33.88,,,,,,,,,,
13.48.30.537,272.5,68.1,0,3.0,,90913.8,11.0,-0.57,0.58,0.56,5.6,4.1,-4.8,33.88,,,,,,,,,,
13.48.30.549,328.7,82.2,0,3.0,,91951.2,10.88,-0.58,0.59,0.55,6.6,3.4,-4.4,33.88,,,,,,,,,,
13.48.30.561,335.6,83.9,0,3.0,,90838.1,11.01,-0.58,0.6,0.56,6.9,5.2,-4.1,33.88,,,,,,,,,,
13.48.30.569,305.0,76.2,0,3.0,,89951.0,11.12,-0.58,0.6,0.55,5.8,5.8,-3.3,33.88,,,,,,,,,,
13.48.30.582,319.0,79.8,0,3.0,,91376.2,10.94,-0.59,0.61,0.55,4.4,6.4,-3.2,33.88,,,,,,,,,,
13.48.30.622,237.1,59.3,0,3.0,,91748.2,10.9,-0.58,0.6,0.54,2.9,6.2,-1.7,33.88,,,,,,,,,,
13.48.30.631,187.8,47.0,0,3.0,,90017.7,11.11,-0.6,0.57,0.55,1.7,7.8,-0.8,33.88,,,,,,,,,,
13.48.30.639,135.8,34.0,0,3.0,,91474.6,10.93,-0.59,0.58,0.56,1.8,7.2,-1.1,33.88,,,,,,,,,,
13.48.30.651,98.7,24.7,0,3.0,,91572.7,10.92,-0.59,0.59,0.57,1.9,7.1,-0.7,33.88,,,,,,,,,,
13.48.30.664,28.0,7.0,0,3.0,,91078.7,10.98,-0.59,0.58,0.56,1.4,7.1,-0.6,33.88,,,,,,,,,,
13.48.30.672,-0.0,0.0,0,3.0,,91687.9,10.91,-0.59,0.58,0.57,1.5,5.9,-0.2,33.88,,,,,,,,,,
13.48.30.684,18.5,4.6,0,3.0,,91976.2,10.87,-0.59,0.57,0.56,2.2,6.3,0.2,33.88,,,,,,,,,,
13.48.30.692,35.3,8.8,0,3.0,,91269.8,10.96,-0.59,0.57,0.56,2.8,6.2,0.5,33.88,,,,,,,,,,
13.48.30.704,45.9,11.5,0,3.0,,91810.4,10.89,-0.59,0.56,0.56,4.0,5.3,0.2,33.88,,,,,,,,,,
13.48.30.717,59.4,14.8,0,3.0,,90543.3,11.04,-0.58,0.58,0.56,5.9,6.2,0.3,33.88,,,,,,,,,,
13.48.30.725,62.1,15.5,0,3.0,,90096.5,11.1,-0.58,0.58,0.56,7.2,6.1,0.2,33.88,,,,,,,,,,
13.48.30.737,55.4,13.8,0,3.0,,92247.8,10.84,-0.58,0.6,0.55,7.7,5.6,1.0,33.88,,,,,,,,,,
13.48.30.749,46.2,11.6,0,3.0,,90603.9,11.04,-0.58,0.6,0.55,8.4,5.5,2.1,33.88,,,,,,,,,,
13.48.30.758,33.0,8.2,0,3.0,,90997.0,10.99,-0.58,0.6,0.54,8.1,4.9,2.6,33.88,,,,,,,,,,
13.48.30.770,26.0,6.5,0,3.0,,90345.1,11.07,-0.59,0.6,0.55,7.4,5.3,1.7,33.88,,,,,,,,,,
13.48.30.778,4.8,1.2,0,3.0,,90241.6,11.08,-0.57,0.61,0.55,7.3,5.9,0.9,33.88,,,,,,,,,,
13.48.30.790,3.0,0.8,0,3.0,,91262.6,10.96,-0.57,0.62,0.55,7.3,5.1,1.6,33.88,,,,,,,,,,
13.48.30.803,2.7,0.7,0,3.0,,90966.5,10.99,-0.57,0.61,0.54,6.1,4.8,1.8,33.88,,,,,,,,,,
13.48.30.811,-16.3,4.1,0,3.0,,91058.8,10.98,-0.57,0.61,0.54,4.5,4.2,1.4,33.88,,,,,,,,,,
13.48.30.823,-19.1,4.8,0,3.0,,91087.0,10.98,-0.56,0.6,0.54,3.9,4.4,1.4,33.88,,,,,,,,,,
13.48.30.837,-27.2,6.8,0,3.0,,92620.0,10.8,-0.56,0.6,0.54,2.8,5.4,0.4,33.88,,,,,,,,,,
13.48.30.844,-23.7,5.9,0,3.0,,92145.5,10.85,-0.56,0.6,0.54,1.6,4.5,0.4,33.88,,,,,,,,,,
13.48.30.856,-38.4,9.6,0,3.0,,92231.3,10.84,-0.56,0.6,0.53,1.8,4.9,0.2,33.88,,,,,,,,,,
13.48.30.864,-31.8,8.0,0,3.0,,89545.0,11.17,-0.56,0.6,0.54,2.3,5.7,-0.4,33.88,,,,,,,,,,
13.48.30.876,-54.2,13.6,0,3.0,,91618.9,10.91,-0.56,0.61,0.54,3.4,5.9,-0.5,33.88,,,,,,,,,,
13.48.30.889,-46.3,11.6,0,3.0,,89730.4,11.14,-0.56,0.61,0.55,3.9,5.5,-0.6,33.88,,,,,,,,,,
13.48.30.897,-54.4,13.6,0,3.0,,90505.7,11.05,-0.57,0.62,0.54,2.7,5.7,-1.2,33.88,,,,,,,,,,
13.48.30.909,-54.7,13.7,0,3.0,,92399.1,10.82,-0.57,0.62,0.54,1.5,5.8,-1.3,33.88,,,,,,,,,,
13.48.30.922,-66.1,16.5,0,3.0,,92224.4,10.84,-0.57,0.61,0.54,1.4,4.9,-0.8,33.88,,,,,,,,,,
13.48.30.930,-78.0,19.5,0,3.0,,91826.9,10.89,-0.57,0.61,0.55,0.6,5.4,-0.5,33.88,,,,,,,,,,
13.48.30.942,-65.2,16.3,0,3.0,,91626.1,10.91,-0.57,0.6,0.54,0.3,5.8,-1.0,33.88,,,,,,,,,,
13.48.30.950,-86.7,21.7,0,3.0,,91314.1,10.95,-0.57,0.59,0.54,0.5,5.7,-0.8,33.88,,,,,,,,,,
13.48.30.962,-99.6,24.9,0,3.0,,91425.6,10.94,-0.57,0.6,0.54,0.4,5.3,-0.7,33.88,,,,,,,,,,
13.48.30.975,-87.7,21.9,0,3.0,,91937.5,10.88,-0.57,0.6,0.53,1.5,5.9,-0.6,33.88,,,,,,,,,,
13.48.30.983,-92.6,23.2,0,3.0,,89890.3,11.12,-0.57,0.61,0.54,2.4,5.9,-0.6,33.88,,,,,,,,,,
13.48.30.995,-111.0,27.8,0,3.0,,91304.5,10.95,-0.57,0.61,0.54,2.3,6.1,-0.9,33.88,,,,,,,,,,
13.48.31.008,-109.8,27.4,0,3.0,,90462.4,11.05,-0.58,0.61,0.54,1.8,5.4,-0.8,33.88,,,,,,,,,,
13.48.31.017,-127.2,31.8,0,3.0,,90771.0,11.02,-0.57,0.62,0.54,1.3,5.7,-1.2,33.88,,,,,,,,,,
13.48.31.028,-126.5,31.6,0,3.0,,90908.1,11.0,-0.57,0.61,0.54,0.6,6.0,-1.5,33.88,,,,,,,,,,
13.48.31.040,-119.1,29.8,0,3.0,,91108.2,10.98,-0.57,0.61,0.54,0.0,5.2,-0.9,33.88,,,,,,,,,,
13.48.31.049,17.9,4.5,1,4.0,106.0,90601.2,11.04,-0.57,0.6,0.54,-0.2,5.9,-1.1,33.88,,,,,,,,,,
13.48.31.061,94.0,23.5,0,4.0,,89215.5,11.21,-0.57,0.6,0.54,0.4,6.6,-0.9,33.88,,,,,,,,,,
13.48.31.073,137.6,34.4,0,4.0,,91137.4,10.97,-0.56,0.6,0.54,0.7,6.3,-0.3,33.88,,,,,,,,,,
13.48.31.082,175.6,43.9,0,4.0,,90692.7,11.03,-0.57,0.6,0.54,0.5,6.8,-0.4,33.88,,,,,,,,,,
13.48.31.094,213.0,53.2,0,4.0,,90811.9,11.01,-0.57,0.6,0.54,1.0,6.3,-0.3,33.88,,,,,,,,,,
13.48.31.102,254.6,63.6,0,4.0,,91610.3,10.92,-0.57,0.6,0.54,2.0,6.9,-0.1,33.88,,,,,,,,,,
13.48.31.114,303.2,75.8,0,4.0,,91234.4,10.96,-0.56,0.61,0.54,2.6,7.3,-1.0,33.88,,,,,,,,,,
13.48.31.126,291.6,72.9,0,4.0,,91158.8,10.97,-0.57,0.61,0.54,2.2,6.1,-0.9,33.88,,,,,,,,,,
13.48.31.136,307.5,76.9,0,4.0,,90939.0,11.0,-0.56,0.62,0.54,2.2,6.1,-0.8,33.88,,,,,,,,,,
13.48.31.147,324.6,81.2,0,4.0,,91021.7,10.99,-0.56,0.62,0.54,2.5,6.2,-0.4,33.88,,,,,,,,,,
13.48.31.159,345.4,86.4,0,4.0,,90225.7,11.08,-0.56,0.61,0.54,2.1,5.7,-0.5,33.88,,,,,,,,,,
13.48.31.171,275.1,68.8,0,4.0,,91162.9,10.97,-0.56,0.61,0.53,1.4,6.3,-1.1,33.88,,,,,,,,,,
13.48.31.180,274.9,68.7,0,4.0,,90323.3,11.07,-0.56,0.61,0.53,1.4,6.7,-1.2,33.88,,,,,,,,,,
13.48.31.192,244.2,61.0,0,4.0,,90593.8,11.04,-0.56,0.61,0.54,0.1,6.9,-1.2,33.88,,,,,,,,,,
13.48.31.204,207.0,51.8,0,4.0,,89991.4,11.11,-0.57,0.61,0.54,-0.8,6.6,-1.1,33.88,,,,,,,,,,
13.48.31.212,164.3,41.1,0,4.0,,91469.2,10.93,-0.57,0.6,0.54,-0.1,6.8,-0.3,33.88,,,,,,,,,,
13.48.31.225,98.4,24.6,0,4.0,,92621.6,10.8,-0.57,0.6,0.55,0.5,7.1,-0.6,33.88,,,,,,,,,,
13.48.31.237,51.6,12.9,0,4.0,,91478.7,10.93,-0.57,0.6,0.54,0.3,7.7,-0.7,33.88,,,,,,,,,,
13.48.31.245,7.9,2.0,0,4.0,,88864.0,11.25,-0.57,0.61,0.54,1.7,7.1,-1.3,33.88,,,,,,,,,,
13.48.31.257,16.5,4.1,0,4.0,,91298.8,10.95,-0.57,0.61,0.54,1.6,6.2,-0.7,33.88,,,,,,,,,,
13.48.31.270,30.0,7.5,0,4.0,,90813.8,11.01,-0.57,0.61,0.54,1.1,5.8,-1.2,33.88,,,,,,,,,,
13.48.31.278,52.1,13.0,0,4.0,,91227.0,10.96,-0.57,0.61,0.54,0.6,6.5,-1.1,33.88,,,,,,,,,,
13.48.31.292,46.1,11.5,0,4.0,,92067.8,10.86,-0.57,0.61,0.54,0.7,6.8,-1.5,33.88,,,,,,,,,,
13.48.31.303,53.9,13.5,0,4.0,,91259.4,10.96,-0.57,0.61,0.53,0.3,7.0,-1.3,33.88,,,,,,,,,,
13.48.31.311,48.8,12.2,0,4.0,,91749.1,10.9,-0.57,0.61,0.53,0.3,6.6,-1.8,33.88,,,,,,,,,,
13.48.31.323,45.3,11.3,0,4.0,,91385.1,10.94,-0.56,0.63,0.54,0.0,6.6,-1.8,33.88,,,,,,,,,,
13.48.31.335,38.1,9.5,0,4.0,,90117.3,11.1,-0.56,0.62,0.53,-0.2,6.9,-1.5,33.88,,,,,,,,,,
13.48.31.343,23.2,5.8,0,4.0,,91755.8,10.9,-0.57,0.61,0.53,-0.9,6.7,-1.5,33.88,,,,,,,,,,
13.48.31.356,0.4,0.1,0,4.0,,91705.8,10.9,-0.57,0.6,0.53,-0.9,6.5,-1.3,33.88,,,,,,,,,,
13.48.31.368,-1.7,0.4,0,4.0,,91083.1,10.98,-0.56,0.59,0.53,-0.3,6.9,-1.8,33.88,,,,,,,,,,
13.48.31.380,-6.0,1.5,0,4.0,,91811.2,10.89,-0.56,0.59,0.54,0.8,6.8,-1.5,33.88,,,,,,,,,,
13.48.31.389,-8.8,2.2,0,4.0,,91714.5,10.9,-0.57,0.59,0.53,1.5,7.4,-1.6,33.88,,,,,,,,,,
13.48.31.430,-39.0,9.8,0,4.0,,90967.1,10.99,-0.57,0.61,0.53,2.7,6.8,-0.5,33.94,,,,,,,,,,
13.48.31.442,-35.6,8.9,0,4.0,,90441.0,11.06,-0.57,0.61,0.54,3.2,6.5,-0.5,33.94,,,,,,,,,,
13.48.31.450,-42.6,10.6,0,4.0,,90584.8,11.04,-0.57,0.61,0.54,3.1,6.4,-0.5,33.94,,,,,,,,,,
13.48.31.462,-49.2,12.3,0,4.0,,92069.6,10.86,-0.57,0.62,0.54,3.0,6.9,-0.7,33.94,,,,,,,,,,
13.48.31.475,-52.6,13.2,0,4.0,,90764.6,11.02,-0.57,0.62,0.54,3.0,6.4,-0.6,33.94,,,,,,,,,,
13.48.31.483,-61.2,15.3,0,4.0,,91556.9,10.92,-0.58,0.62,0.54,2.7,6.1,-0.9,33.94,,,,,,,,,,
13.48.31.495,-74.0,18.5,0,4.0,,90600.6,11.04,-0.57,0.61,0.52,2.0,6.4,-0.9,33.94,,,,,,,,,,
13.48.31.507,-72.0,18.0,0,4.0,,90864.4,11.01,-0.57,0.61,0.53,1.6,6.7,-0.9,33.94,,,,,,,,,,
13.48.31.517,-77.7,19.4,0,4.0,,91749.4,10.9,-0.57,0.62,0.52,1.2,6.1,-0.8,33.94,,,,,,,,,,
13.48.31.528,-85.9,21.5,0,4.0,,91645.7,10.91,-0.57,0.61,0.53,1.2,6.6,-0.8,33.94,,,,,,,,,,
13.48.31.540,-94.1,23.5,0,4.0,,90929.1,11.0,-0.57,0.61,0.53,1.1,6.6,-1.1,33.94,,,,,,,,,,
13.48.31.553,-96.3,24.1,0,4.0,,92192.6,10.85,-0.56,0.61,0.53,1.2,6.8,-1.0,33.94,,,,,,,,,,
13.48.31.561,-98.7,24.7,0,4.0,,90490.4,11.05,-0.56,0.62,0.54,1.6,7.3,-1.2,33.94,,,,,,,,,,
13.48.31.573,-98.8,24.7,0,4.0,,90420.0,11.06,-0.57,0.61,0.54,0.9,6.9,-1.5,33.94,,,,,,,,,,
13.48.31.581,-114.9,28.7,0,4.0,,91041.3,10.98,-0.58,0.61,0.54,0.7,7.3,-1.4,33.94,,,,,,,,,,
13.48.31.593,-114.9,28.7,0,4.0,,91747.8,10.9,-0.57,0.61,0.52,1.0,6.9,-1.4,33.94,,,,,,,,,,
13.48.31.606,-105.9,26.5,0,4.0,,92845.9,10.77,-0.57,0.61,0.53,1.0,6.9,-1.4,33.94,,,,,,,,,,
13.48.31.615,-123.1,30.8,0,4.0,,89839.8,11.13,-0.57,0.62,0.53,0.5,6.5,-1.4,33.94,,,,,,,,,,
13.48.31.626,32.2,8.0,1,5.0,110.1,91133.9,10.97,-0.57,0.61,0.54,-0.4,6.4,-1.4,33.94,,,,,,,,,,
13.48.31.639,86.2,21.6,0,5.0,,92135.8,10.85,-0.57,0.61,0.53,0.1,6.5,-1.3,33.94,,,,,,,,,,
13.48.31.647,120.6,30.2,0,5.0,,91245.7,10.96,-0.57,0.61,0.53,0.6,6.7,-1.1,33.94,,,,,,,,,,
13.48.31.659,159.2,39.8,0,5.0,,90544.0,11.04,-0.57,0.61,0.53,0.1,6.3,-1.1,33.94,,,,,,,,,,
13.48.31.671,239.2,59.8,0,5.0,,90937.1,11.0,-0.57,0.61,0.53,0.1,6.9,-1.2,33.94,,,,,,,,,,
13.48.31.679,259.6,64.9,0,5.0,,90996.8,10.99,-0.57,0.61,0.53,0.5,6.5,-1.1,33.94,,,,,,,,,,
13.48.31.692,291.9,73.0,0,5.0,,92262.5,10.84,-0.57,0.61,0.53,0.5,6.2,-1.4,33.94,,,,,,,,,,
13.48.31.704,309.3,77.3,0,5.0,,92265.5,10.84,-0.57,0.61,0.54,0.0,5.4,-1.2,33.94,,,,,,,,,,
13.48.31.713,323.2,80.8,0,5.0,,90473.5,11.05,-0.57,0.61,0.53,0.4,5.3,-1.4,33.94,,,,,,,,,,
13.48.31.724,300.8,75.2,0,5.0,,92594.1,10.8,-0.57,0.61,0.54,0.1,5.1,-1.5,33.94,,,,,,,,,,
13.48.31.737,319.9,80.0,0,5.0,,90701.0,11.03,-0.57,0.61,0.53,-0.3,5.5,-1.6,33.94,,,,,,,,,,
13.48.31.745,283.3,70.8,0,5.0,,91376.5,10.94,-0.57,0.6,0.52,-0.3,5.1,-1.3,33.94,,,,,,,,,,
13.48.31.757,288.3,72.1,0,5.0,,91414.3,10.94,-0.57,0.6,0.52,0.2,5.7,-1.4,33.94,,,,,,,,,,
13.48.31.770,239.5,59.9,0,5.0,,90571.9,11.04,-0.57,0.6,0.53,0.3,6.2,-0.9,33.94,,,,,,,,,,
13.48.31.779,198.4,49.6,0,5.0,,91811.9,10.89,-0.58,0.61,0.53,0.6,5.7,-0.6,33.94,,,,,,,,,,
13.48.31.790,142.8,35.7,0,5.0,,89929.2,11.12,-0.58,0.62,0.53,0.6,5.6,-1.1,33.94,,,,,,,,,,
13.48.31.803,99.1,24.8,0,5.0,,91459.5,10.93,-0.57,0.62,0.54,1.0,4.8,-0.8,33.94,,,,,,,,,,
13.48.31.810,60.2,15.0,0,5.0,,91730.1,10.9,-0.57,0.62,0.54,1.0,5.3,-0.5,33.94,,,,,,,,,,
13.48.31.823,5.1,1.3,0,5.0,,91626.9,10.91,-0.57,0.62,0.53,0.6,4.7,-0.5,33.94,,,,,,,,,,
13.48.31.836,20.6,5.2,0,5.0,,92294.0,10.83,-0.57,0.61,0.53,0.7,4.7,-0.4,33.94,,,,,,,,,,
13.48.31.843,34.0,8.5,0,5.0,,91056.5,10.98,-0.57,0.6,0.53,1.1,5.4,-0.6,33.94,,,,,,,,,,
13.48.31.856,60.0,15.0,0,5.0,,89411.6,11.18,-0.57,0.6,0.53,1.1,5.5,-1.0,33.94,,,,,,,,,,
13.48.31.868,50.3,12.6,0,5.0,,92420.7,10.82,-0.57,0.6,0.53,1.6,5.0,-0.8,33.94,,,,,,,,,,
13.48.31.876,62.9,15.7,0,5.0,,90881.2,11.0,-0.57,0.6,0.53,1.9,5.2,-0.9,33.94,,,,,,,,,,
13.48.31.889,44.3,11.1,0,5.0,,90744.2,11.02,-0.57,0.6,0.53,1.9,5.6,-0.9,33.94,,,,,,,,,,
13.48.31.897,56.1,14.0,0,5.0,,90362.0,11.07,-0.57,0.61,0.53,2.0,5.2,-0.5,33.94,,,,,,,,,,
13.48.31.909,43.1,10.8,0,5.0,,89995.4,11.11,-0.57,0.61,0.52,1.3,5.1,-0.6,33.94,,,,,,,,,,
13.48.31.921,29.7,7.4,0,5.0,,89710.8,11.15,-0.57,0.62,0.53,1.1,5.3,-0.5,33.94,,,,,,,,,,
13.48.31.929,6.6,1.6,0,5.0,,91241.3,10.96,-0.56,0.61,0.53,1.5,4.9,-0.9,33.94,,,,,,,,,,
13.48.31.942,0.0,0.0,0,5.0,,91982.3,10.87,-0.57,0.62,0.53,1.4,4.6,-0.8,33.94,,,,,,,,,,
13.48.31.954,-12.5,3.1,0,5.0,,90718.7,11.02,-0.57,0.62,0.54,1.4,5.0,-1.1,33.94,,,,,,,,,,
13.48.31.962,-6.8,1.7,0,5.0,,91406.2,10.94,-0.57,0.62,0.53,1.4,5.3,-1.2,33.94,,,,,,,,,,
13.48.31.974,-19.5,4.9,0,5.0,,92451.4,10.82,-0.57,0.62,0.53,0.9,4.8,-0.7,33.94,,,,,,,,,,
13.48.31.988,-21.4,5.4,0,5.0,,91196.5,10.97,-0.57,0.62,0.53,1.1,4.8,-0.8,33.94,,,,,,,,,,
13.48.31.995,-26.6,6.6,0,5.0,,90299.2,11.07,-0.57,0.62,0.53,0.7,5.0,-0.4,33.94,,,,,,,,,,
13.48.32.007,-36.4,9.1,0,5.0,,91282.2,10.96,-0.57,0.62,0.53,0.9,5.4,-0.9,33.94,,,,,,,,,,
13.48.32.015,-42.4,10.6,0,5.0,,90499.7,11.05,-0.57,0.62,0.53,0.2,5.4,-0.6,33.94,,,,,,,,,,
13.48.32.028,-53.8,13.4,0,5.0,,91505.6,10.93,-0.56,0.61,0.53,-0.3,5.5,-1.3,33.94,,,,,,,,,,
13.48.32.040,-59.3,14.8,0,5.0,,90366.3,11.07,-0.57,0.61,0.53,-1.1,5.3,-1.2,33.94,,,,,,,,,,
13.48.32.048,-56.7,14.2,0,5.0,,89837.3,11.13,-0.56,0.6,0.53,-0.6,5.6,-1.5,33.94,,,,,,,,,,
13.48.32.060,-64.5,16.1,0,5.0,,91920.0,10.88,-0.57,0.6,0.53,-0.4,5.7,-1.5,33.94,,,,,,,,,,
13.48.32.073,-61.2,15.3,0,5.0,,91259.1,10.96,-0.57,0.61,0.53,-0.3,5.7,-1.4,33.94,,,,,,,,,,
13.48.32.081,-75.8,19.0,0,5.0,,91592.9,10.92,-0.57,0.61,0.52,0.8,5.6,-1.2,33.94,,,,,,,,,,
13.48.32.093,-76.6,19.2,0,5.0,,90514.3,11.05,-0.57,0.61,0.54,1.7,5.5,-0.9,33.94,,,,,,,,,,
13.48.32.106,-82.4,20.6,0,5.0,,89861.9,11.13,-0.57,0.61,0.53,1.8,5.4,-0.4,33.94,,,,,,,,,,
13.48.32.114,-88.3,22.1,0,5.0,,91839.5,10.89,-0.57,0.62,0.53,2.9,5.8,-0.1,33.94,,,,,,,,,,
13.48.32.126,-91.1,22.8,0,5.0,,91922.6,10.88,-0.57,0.62,0.53,2.9,5.7,-0.3,33.94,,,,,,,,,,
13.48.32.138,-96.2,24.0,0,5.0,,90376.8,11.06,-0.57,0.62,0.53,2.7,5.7,-0.5,33.94,,,,,,,,,,
13.48.32.147,-96.5,24.1,0,5.0,,92013.4,10.87,-0.57,0.62,0.54,2.3,4.7,-0.1,33.94,,,,,,,,,,
13.48.32.159,-107.9,27.0,0,5.0,,91204.9,10.96,-0.57,0.62,0.53,1.2,4.2,-1.0,33.94,,,,,,,,,,
13.48.32.167,-104.9,26.2,0,5.0,,90954.5,10.99,-0.57,0.61,0.53,0.5,4.6,-1.0,33.94,,,,,,,,,,
13.48.32.179,-113.8,28.4,0,5.0,,90411.9,11.06,-0.56,0.61,0.54,0.4,4.9,-1.2,33.94,,,,,,,,,,
13.48.32.191,-127.6,31.9,0,5.0,,91596.5,10.92,-0.56,0.61,0.54,0.0,5.2,-1.6,33.94,,,,,,,,,,
13.48.32.229,147.1,36.8,1,6.0,107.5,91526.3,10.93,-0.56,0.61,0.52,-0.3,4.6,-1.3,33.94,,,,,,,,,,
13.48.32.241,215.3,53.8,0,6.0,,91478.2,10.93,-0.57,0.62,0.53,1.1,5.5,-0.9,33.94,,,,,,,,,,
13.48.32.250,249.2,62.3,0,6.0,,89292.3,11.2,-0.57,0.63,0.53,1.3,6.0,-1.0,33.94,,,,,,,,,,
13.48.32.261,252.3,63.1,0,6.0,,90729.0,11.02,-0.57,0.63,0.53,1.0,5.6,-1.1,33.94,,,,,,,,,,
13.48.32.269,314.2,78.6,0,6.0,,91198.1,10.97,-0.57,0.63,0.53,-0.3,4.4,-0.8,33.94,,,,,,,,,,
13.48.32.282,303.8,76.0,0,6.0,,91182.7,10.97,-0.57,0.61,0.53,-0.6,5.5,-1.0,33.94,,,,,,,,,,
13.48.32.294,326.1,81.5,0,6.0,,89871.3,11.13,-0.57,0.6,0.53,-0.5,5.8,-0.6,33.94,,,,,,,,,,
13.48.32.302,352.9,88.2,0,6.0,,91470.2,10.93,-0.56,0.59,0.53,0.0,5.6,-1.2,33.94,,,,,,,,,,
13.48.32.314,339.6,84.9,0,6.0,,91917.3,10.88,-0.56,0.6,0.53,0.4,5.9,-1.4,33.94,,,,,,,,,,
13.48.32.327,225.8,56.4,0,6.0,,89635.5,11.16,-0.56,0.61,0.54,0.6,5.3,-1.4,33.94,,,,,,,,,,
13.48.32.335,259.0,64.8,0,6.0,,91192.4,10.97,-0.56,0.61,0.54,1.1,5.2,-1.3,33.94,,,,,,,,,,
13.48.32.347,227.9,57.0,0,6.0,,90260.3,11.08,-0.56,0.61,0.53,1.1,5.1,-1.4,33.94,,,,,,,,,,
13.48.32.355,207.1,51.8,0,6.0,,91187.8,10.97,-0.56,0.61,0.54,1.2,5.1,-1.5,33.94,,,,,,,,,,
13.48.32.368,159.9,40.0,0,6.0,,90192.3,11.09,-0.57,0.62,0.53,0.8,6.1,-1.8,33.94,,,,,,,,,,
13.48.32.380,104.0,26.0,0,6.0,,91099.2,10.98,-0.57,0.62,0.53,0.7,5.9,-1.7,33.94,,,,,,,,,,
13.48.32.388,68.5,17.1,0,6.0,,91068.0,10.98,-0.57,0.62,0.53,0.6,5.0,-0.7,33.94,,,,,,,,,,
13.48.32.400,-3.4,0.8,0,6.0,,92514.3,10.81,-0.57,0.62,0.53,-0.2,5.4,-1.2,33.94,,,,,,,,,,
13.48.32.413,27.8,7.0,0,6.0,,91989.5,10.87,-0.57,0.61,0.54,-0.2,5.5,-1.2,33.94,,,,,,,,,,
13.48.32.421,35.4,8.8,0,6.0,,92422.2,10.82,-0.57,0.62,0.54,0.5,5.1,-1.2,33.94,,,,,,,,,,
13.48.32.433,45.6,11.4,0,6.0,,90404.9,11.06,-0.56,0.61,0.53,1.3,5.6,-0.8,33.94,,,,,,,,,,
13.48.32.446,51.7,12.9,0,6.0,,89519.3,11.17,-0.56,0.61,0.53,1.7,5.3,-0.6,33.94,,,,,,,,,,
13.48.32.454,52.7,13.2,0,6.0,,89966.9,11.12,-0.56,0.61,0.53,1.8,5.0,-0.3,33.94,,,,,,,,,,
13.48.32.466,58.6,14.6,0,6.0,,90314.8,11.07,-0.56,0.62,0.53,2.2,5.4,-0.6,33.94,,,,,,,,,,
13.48.32.474,42.9,10.7,0,6.0,,91141.7,10.97,-0.56,0.62,0.53,1.7,5.5,-0.9,33.94,,,,,,,,,,
13.48.32.486,30.7,7.7,0,6.0,,92423.4,10.82,-0.56,0.62,0.54,1.2,5.8,-1.2,33.94,,,,,,,,,,
13.48.32.499,23.8,6.0,0,6.0,,91024.4,10.99,-0.57,0.62,0.53,0.7,5.2,-1.2,33.94,,,,,,,,,,
13.48.32.507,13.2,3.3,0,6.0,,91422.5,10.94,-0.56,0.62,0.53,0.0,5.3,-1.3,33.94,,,,,,,,,,
13.48.32.519,-3.5,0.9,0,6.0,,91792.8,10.89,-0.56,0.63,0.53,-0.3,5.1,-1.5,33.94,,,,,,,,,,
13.48.32.533,-12.0,3.0,0,6.0,,90692.3,11.03,-0.56,0.62,0.53,-0.7,5.3,-1.3,33.94,,,,,,,,,,
13.48.32.540,-15.7,3.9,0,6.0,,91179.8,10.97,-0.56,0.62,0.53,-0.5,5.4,-1.1,33.94,,,,,,,,,,
13.48.32.553,-19.3,4.8,0,6.0,,90190.1,11.09,-0.57,0.62,0.53,0.0,5.4,-1.0,33.94,,,,,,,,,,
13.48.32.564,-24.0,6.0,0,6.0,,89415.7,11.18,-0.56,0.61,0.53,0.5,5.7,-1.2,33.94,,,,,,,,,,
13.48.32.572,-34.3,8.6,0,6.0,,91278.3,10.96,-0.56,0.61,0.54,0.8,5.5,-1.0,33.94,,,,,,,,,,
13.48.32.585,-41.2,10.3,0,6.0,,91120.1,10.97,-0.57,0.61,0.53,0.6,5.5,-1.1,33.94,,,,,,,,,,
13.48.32.597,-37.1,9.3,0,6.0,,91219.5,10.96,-0.56,0.61,0.54,1.1,6.0,-1.3,33.94,,,,,,,,,,
13.48.32.605,-37.8,9.4,0,6.0,,91906.1,10.88,-0.57,0.62,0.53,1.3,4.9,-0.9,33.94,,,,,,,,,,
13.48.32.618,-57.4,14.4,0,6.0,,92225.0,10.84,-0.56,0.62,0.54,0.6,5.2,-1.0,33.94,,,,,,,,,,
13.48.32.631,-59.7,14.9,0,6.0,,91014.1,10.99,-0.56,0.61,0.53,0.5,5.6,-1.3,33.94,,,,,,,,,,
13.48.32.638,-65.6,16.4,0,6.0,,90319.5,11.07,-0.56,0.62,0.54,0.6,5.3,-1.3,33.94,,,,,,,,,,
13.48.32.651,-68.8,17.2,0,6.0,,90453.4,11.06,-0.56,0.61,0.53,1.1,6.3,-1.5,33.94,,,,,,,,,,
13.48.32.659,-69.8,17.4,0,6.0,,89778.8,11.14,-0.57,0.61,0.53,1.2,5.8,-1.3,33.94,,,,,,,,,,
13.48.32.671,-89.4,22.4,0,6.0,,92407.4,10.82,-0.57,0.62,0.53,1.5,5.8,-1.2,33.94,,,,,,,,,,
13.48.32.683,-72.3,18.1,0,6.0,,90186.6,11.09,-0.56,0.62,0.54,1.4,5.6,-0.5,33.94,,,,,,,,,,
13.48.32.691,-84.2,21.0,0,6.0,,91187.6,10.97,-0.56,0.62,0.53,1.3,5.7,-0.7,33.94,,,,,,,,,,
13.48.32.704,-85.8,21.4,0,6.0,,89746.2,11.14,-0.56,0.62,0.53,0.9,5.6,-0.6,33.94,,,,,,,,,,
13.48.32.716,-97.9,24.5,0,6.0,,91240.2,10.96,-0.56,0.62,0.53,0.2,4.9,-1.0,33.94,,,,,,,,,,
13.48.32.724,-104.5,26.1,0,6.0,,90831.0,11.01,-0.57,0.62,0.54,-0.1,5.3,-1.3,33.94,,,,,,,,,,
13.48.32.736,-94.1,23.5,0,6.0,,89783.3,11.14,-0.57,0.62,0.54,0.1,5.6,-1.8,33.94,,,,,,,,,,
13.48.32.745,-102.8,25.7,0,6.0,,90284.4,11.08,-0.56,0.62,0.53,-0.4,5.3,-1.9,33.94,,,,,,,,,,
13.48.32.757,-116.1,29.0,0,6.0,,90348.6,11.07,-0.57,0.61,0.53,-0.5,5.2,-1.8,33.94,,,,,,,,,,
13.48.32.769,-135.7,33.9,0,6.0,,91342.8,10.95,-0.56,0.61,0.54,-0.3,5.5,-1.7,33.94,,,,,,,,,,
13.48.32.781,37.9,9.5,1,7.0,108.3,91613.6,10.92,-0.56,0.61,0.53,0.0,5.9,-1.4,33.94,,,,,,,,,,
13.48.32.790,75.2,18.8,0,7.0,,91314.6,10.95,-0.57,0.62,0.53,-0.2,5.9,-1.5,33.94,,,,,,,,,,
13.48.32.802,147.7,36.9,0,7.0,,91040.1,10.98,-0.57,0.61,0.53,-0.2,6.0,-1.5,33.94,,,,,,,,,,
13.48.32.814,188.6,47.2,0,7.0,,91301.0,10.95,-0.57,0.61,0.53,0.1,6.2,-1.3,33.94,,,,,,,,,,
13.48.32.822,225.6,56.4,0,7.0,,90339.6,11.07,-0.56,0.62,0.53,0.0,6.5,-1.1,33.94,,,,,,,,,,
13.48.32.835,231.8,58.0,0,7.0,,91183.7,10.97,-0.57,0.61,0.53,0.1,6.0,-1.4,33.94,,,,,,,,,,
13.48.32.847,295.4,73.8,0,7.0,,90921.0,11.0,-0.57,0.61,0.54,0.0,6.1,-1.3,33.94,,,,,,,,,,
13.48.32.855,305.9,76.5,0,7.0,,90891.8,11.0,-0.57,0.61,0.53,0.4,6.3,-1.5,33.94,,,,,,,,,,
13.48.32.867,334.0,83.5,0,7.0,,91204.6,10.96,-0.57,0.61,0.53,0.5,5.6,-1.0,33.94,,,,,,,,,,
13.48.32.880,287.5,71.9,0,7.0,,89993.3,11.11,-0.56,0.62,0.53,1.2,6.3,-1.4,33.94,,,,,,,,,,
13.48.32.888,301.0,75.2,0,7.0,,89912.9,11.12,-0.56,0.61,0.53,0.5,5.9,-1.4,33.94,,,,,,,,,,
13.48.32.900,276.9,69.2,0,7.0,,91673.2,10.91,-0.56,0.62,0.53,0.8,5.4,-1.6,33.94,,,,,,,,,,
13.48.32.913,241.6,60.4,0,7.0,,90610.3,11.04,-0.56,0.62,0.53,1.0,6.1,-1.6,33.94,,,,,,,,,,
13.48.32.921,239.2,59.8,0,7.0,,91633.9,10.91,-0.56,0.62,0.53,0.2,6.2,-1.4,33.94,,,,,,,,,,
13.48.32.933,171.3,42.8,0,7.0,,90951.9,10.99,-0.57,0.62,0.53,-0.3,6.6,-1.5,33.94,,,,,,,,,,
13.48.32.945,145.0,36.2,0,7.0,,91008.4,10.99,-0.56,0.61,0.52,-0.2,6.8,-1.5,33.94,,,,,,,,,,
13.48.32.958,85.0,21.2,0,7.0,,92095.3,10.86,-0.56,0.61,0.52,-0.5,6.2,-1.4,33.94,,,,,,,,,,
13.48.32.966,47.2,11.8,0,7.0,,91094.7,10.98,-0.57,0.61,0.53,-0.2,6.7,-1.8,33.94,,,,,,,,,,
13.48.32.978,4.6,1.2,0,7.0,,90589.7,11.04,-0.57,0.62,0.53,0.1,6.7,-1.2,33.94,,,,,,,,,,
13.48.32.990,25.0,6.2,0,7.0,,90681.9,11.03,-0.57,0.62,0.53,0.3,6.1,-1.2,33.94,,,,,,,,,,
13.48.32.999,34.0,8.5,0,7.0,,91530.7,10.93,-0.56,0.62,0.53,0.5,6.0,-1.7,33.94,,,,,,,,,,
13.48.33.039,59.3,14.8,0,7.0,,89912.0,11.12,-0.56,0.61,0.54,0.3,6.9,-1.5,33.94,,,,,,,,,,
13.48.33.052,56.8,14.2,0,7.0,,90423.0,11.06,-0.56,0.62,0.54,0.6,6.9,-1.4,33.94,,,,,,,,,,
13.48.33.064,30.8,7.7,0,7.0,,89934.0,11.12,-0.57,0.61,0.54,1.3,6.9,-1.3,33.94,,,,,,,,,,
13.48.33.072,20.0,5.0,0,7.0,,90491.7,11.05,-0.56,0.62,0.53,1.1,6.8,-1.1,33.94,,,,,,,,,,
13.48.33.085,11.2,2.8,0,7.0,,90882.2,11.0,-0.56,0.61,0.53,0.6,6.4,-1.3,33.94,,,,,,,,,,
13.48.33.097,-4.8,1.2,0,7.0,,90723.7,11.02,-0.57,0.62,0.53,0.8,6.7,-1.4,33.94,,,,,,,,,,
13.48.33.109,-3.4,0.8,0,7.0,,89980.4,11.11,-0.56,0.61,0.53,0.2,6.7,-1.5,33.94,,,,,,,,,,
13.48.33.117,-13.9,3.5,0,7.0,,91091.2,10.98,-0.56,0.61,0.53,0.2,6.7,-1.9,33.94,,,,,,,,,,
13.48.33.130,-28.1,7.0,0,7.0,,91307.0,10.95,-0.57,0.61,0.54,0.1,6.5,-1.9,33.94,,,,,,,,,,
13.48.33.142,-24.4,6.1,0,7.0,,91166.8,10.97,-0.57,0.61,0.53,0.1,7.0,-1.8,33.94,,,,,,,,,,
13.48.33.150,-32.1,8.0,0,7.0,,92141.9,10.85,-0.56,0.62,0.54,0.4,7.2,-1.7,33.94,,,,,,,,,,
13.48.33.163,-33.6,8.4,0,7.0,,91566.8,10.92,-0.56,0.62,0.53,0.3,6.7,-1.5,33.94,,,,,,,,,,
13.48.33.175,-53.2,13.3,0,7.0,,90755.1,11.02,-0.57,0.61,0.53,0.2,7.0,-1.6,33.94,,,,,,,,,,
13.48.33.183,-42.6,10.6,0,7.0,,93582.2,10.69,-0.57,0.61,0.54,0.4,7.2,-1.5,33.94,,,,,,,,,,
13.48.33.195,-53.1,13.3,0,7.0,,89957.3,11.12,-0.57,0.6,0.53,0.6,7.2,-1.5,33.94,,,,,,,,,,
13.48.33.207,-61.7,15.4,0,7.0,,90307.9,11.07,-0.57,0.6,0.53,1.1,7.4,-1.2,33.94,,,,,,,,,,
13.48.33.216,-65.1,16.3,0,7.0,,90745.4,11.02,-0.57,0.61,0.53,1.8,7.1,-1.4,33.94,,,,,,,,,,
13.48.33.228,-69.2,17.3,0,7.0,,89600.3,11.16,-0.57,0.62,0.52,1.8,7.5,-1.3,33.94,,,,,,,,,,
13.48.33.240,-87.8,22.0,0,7.0,,92245.6,10.84,-0.57,0.62,0.54,1.2,7.6,-1.4,33.94,,,,,,,,,,
13.48.33.253,-70.9,17.7,0,7.0,,90144.5,11.09,-0.56,0.62,0.52,0.7,6.9,-1.3,33.94,,,,,,,,,,
13.48.33.261,-82.8,20.7,0,7.0,,90347.8,11.07,-0.57,0.62,0.53,0.1,6.7,-1.4,33.94,,,,,,,,,,
13.48.33.273,-87.2,21.8,0,7.0,,91022.0,10.99,-0.57,0.61,0.53,0.6,7.1,-1.7,33.94,,,,,,,,,,
13.48.33.285,-89.7,22.4,0,7.0,,91307.2,10.95,-0.56,0.62,0.54,0.2,5.8,-1.8,33.94,,,,,,,,,,
13.48.33.293,-105.0,26.2,0,7.0,,90102.8,11.1,-0.56,0.62,0.53,-0.3,6.3,-1.8,33.94,,,,,,,,,,
13.48.33.306,-108.9,27.2,0,7.0,,90201.9,11.09,-0.57,0.61,0.53,0.1,6.7,-1.8,33.94,,,,,,,,,,
13.48.33.318,-116.5,29.1,0,7.0,,91116.8,10.97,-0.57,0.61,0.53,0.7,7.0,-1.9,33.94,,,,,,,,,,
13.48.33.330,-125.3,31.3,0,7.0,,91059.1,10.98,-0.57,0.61,0.53,0.7,7.1,-2.1,33.94,,,,,,,,,,
13.48.33.339,-121.6,30.4,0,7.0,,92071.9,10.86,-0.57,0.61,0.52,1.2,6.9,-1.6,33.94,,,,,,,,,,
13.48.33.351,-0.4,0.1,1,8.0,103.6,91273.2,10.96,-0.58,0.61,0.53,1.5,7.0,-1.1,33.94,,,,,,,,,,
13.48.33.363,54.5,13.6,0,8.0,,91292.0,10.95,-0.57,0.61,0.53,1.2,7.1,-0.8,33.94,,,,,,,,,,
13.48.33.371,106.4,26.6,0,8.0,,91340.7,10.95,-0.57,0.61,0.53,1.4,7.5,-0.8,33.94,,,,,,,,,,
13.48.33.384,153.2,38.3,0,8.0,,91113.6,10.98,-0.57,0.62,0.53,1.7,6.8,-0.7,33.94,,,,,,,,,,
13.48.33.396,210.3,52.6,0,8.0,,90129.3,11.1,-0.57,0.61,0.53,1.5,6.9,-0.6,33.94,,,,,,,,,,
13.48.33.404,234.0,58.5,0,8.0,,91109.7,10.98,-0.57,0.61,0.53,1.6,6.5,-0.9,33.94,,,,,,,,,,
13.48.33.416,261.0,65.2,0,8.0,,90735.5,11.02,-0.57,0.62,0.52,1.7,6.0,-0.8,33.94,,,,,,,,,,
13.48.33.429,294.4,73.6,0,8.0,,89953.3,11.12,-0.57,0.62,0.53,1.4,6.3,-1.1,33.94,,,,,,,,,,
13.48.33.437,319.9,80.0,0,8.0,,91110.1,10.98,-0.57,0.61,0.52,1.2,6.1,-1.4,33.94,,,,,,,,,,
13.48.33.449,319.5,79.9,0,8.0,,90203.6,11.09,-0.57,0.61,0.53,1.3,6.6,-1.2,33.94,,,,,,,,,,
13.48.33.461,343.3,85.8,0,8.0,,91736.7,10.9,-0.57,0.62,0.53,1.1,6.8,-1.2,33.94,,,,,,,,,,
13.48.33.471,287.6,71.9,0,8.0,,90660.4,11.03,-0.57,0.62,0.52,0.9,6.2,-1.5,33.94,,,,,,,,,,
13.48.33.482,311.5,77.9,0,8.0,,91853.6,10.89,-0.57,0.61,0.52,1.1,6.7,-1.4,33.94,,,,,,,,,,
13.48.33.494,257.1,64.3,0,8.0,,90497.0,11.05,-0.57,0.62,0.52,1.4,7.3,-1.1,33.94,,,,,,,,,,
13.48.33.507,204.9,51.2,0,8.0,,91272.8,10.96,-0.57,0.62,0.52,0.7,6.3,-1.2,33.94,,,,,,,,,,
13.48.33.515,167.2,41.8,0,8.0,,90931.0,11.0,-0.57,0.62,0.53,-0.3,6.7,-1.9,33.94,,,,,,,,,,
13.48.33.527,124.8,31.2,0,8.0,,90402.0,11.06,-0.57,0.62,0.52,-0.7,6.4,-1.3,33.94,,,,,,,,,,
13.48.33.539,66.0,16.5,0,8.0,,90860.2,11.01,-0.57,0.62,0.52,-0.6,6.1,-1.3,33.94,,,,,,,,,,
13.48.33.548,16.9,4.2,0,8.0,,91064.2,10.98,-0.57,0.61,0.52,-0.7,6.9,-1.4,33.94,,,,,,,,,,
13.48.33.560,9.0,2.2,0,8.0,,91208.2,10.96,-0.56,0.61,0.53,-0.3,6.8,-2.0,33.94,,,,,,,,,,
13.48.33.572,30.3,7.6,0,8.0,,89915.3,11.12,-0.57,0.61,0.53,0.5,6.9,-2.0,33.94,,,,,,,,,,
13.48.33.580,41.7,10.4,0,8.0,,91428.0,10.94,-0.57,0.62,0.53,0.3,7.3,-2.3,33.94,,,,,,,,,,
13.48.33.593,47.6,11.9,0,8.0,,91017.8,10.99,-0.57,0.62,0.52,0.4,6.0,-1.7,33.94,,,,,,,,,,
13.48.33.605,54.8,13.7,0,8.0,,91198.1,10.97,-0.57,0.62,0.53,0.6,6.9,-1.5,33.94,,,,,,,,,,
13.48.33.614,54.3,13.6,0,8.0,,90391.6,11.06,-0.58,0.62,0.52,0.2,6.9,-1.7,33.94,,,,,,,,,,
13.48.33.625,48.9,12.2,0,8.0,,89962.0,11.12,-0.57,0.62,0.53,0.0,6.8,-1.6,33.94,,,,,,,,,,
13.48.33.638,49.4,12.4,0,8.0,,90340.5,11.07,-0.57,0.62,0.52,0.2,6.1,-1.7,33.94,,,,,,,,,,
13.48.33.650,19.8,5.0,0,8.0,,91674.2,10.91,-0.57,0.61,0.53,0.1,6.1,-1.8,33.94,,,,,,,,,,
13.48.33.658,17.8,4.4,0,8.0,,89187.0,11.21,-0.57,0.61,0.52,0.0,6.1,-1.9,33.94,,,,,,,,,,
13.48.33.671,-1.3,0.3,0,8.0,,90734.3,11.02,-0.57,0.61,0.52,0.2,6.1,-1.8,33.94,,,,,,,,,,
13.48.33.683,-5.9,1.5,0,8.0,,91960.1,10.87,-0.57,0.62,0.53,0.2,6.5,-2.0,33.94,,,,,,,,,,
13.48.33.691,-2.8,0.7,0,8.0,,90792.4,11.01,-0.57,0.62,0.52,0.5,5.7,-1.4,33.94,,,,,,,,,,
13.48.33.703,-21.5,5.4,0,8.0,,90983.5,10.99,-0.57,0.62,0.52,0.5,5.8,-1.4,33.94,,,,,,,,,,
13.48.33.715,-30.1,7.5,0,8.0,,90038.1,11.11,-0.57,0.61,0.52,0.6,6.4,-1.3,33.94,,,,,,,,,,
13.48.33.728,-24.9,6.2,0,8.0,,91397.9,10.94,-0.57,0.61,0.52,0.5,5.3,-0.9,33.94,,,,,,,,,,
13.48.33.736,-31.3,7.8,0,8.0,,91334.5,10.95,-0.57,0.61,0.53,1.0,5.8,-1.0,33.94,,,,,,,,,,
13.48.33.748,-40.6,10.2,0,8.0,,90594.9,11.04,-0.57,0.61,0.52,1.4,5.8,-1.1,33.94,100.4,,,,,,,,,
13.48.33.761,-45.0,11.2,0,8.0,,90674.4,11.03,-0.58,0.61,0.53,1.5,5.2,-0.7,33.94,,,,,,,,,,
13.48.33.769,-52.8,13.2,0,8.0,,90442.9,11.06,-0.58,0.62,0.52,2.1,5.3,-0.9,33.94,,,,,,,,,,
13.48.33.782,-48.0,12.0,0,8.0,,92077.1,10.86,-0.58,0.62,0.52,1.8,5.2,-0.7,33.94,,,,,,,,,,
13.48.33.793,-51.6,12.9,0,8.0,,92241.0,10.84,-0.57,0.62,0.52,1.3,4.4,-0.6,33.94,,,,,,,,,,
13.48.33.806,-69.2,17.3,0,8.0,,91520.2,10.93,-0.57,0.62,0.53,0.8,4.5,-0.9,33.94,,,,,,,,,,
13.48.33.842,-80.1,20.0,0,8.0,,91600.5,10.92,-0.57,0.61,0.53,2.3,4.0,-0.1,33.94,,,,,,,,,,
13.48.33.855,-96.9,24.2,0,8.0,,90902.5,11.0,-0.57,0.61,0.53,2.9,4.1,-0.5,33.94,,,,,,,,,,
13.48.33.867,-94.9,23.7,0,8.0,,91093.5,10.98,-0.57,0.62,0.53,2.5,4.0,-0.6,33.94,,,,,,,,,,
13.48.33.879,-113.4,28.4,0,8.0,,92012.3,10.87,-0.57,0.62,0.53,2.2,4.3,-0.6,33.94,,,,,,,,,,
13.48.33.888,-105.6,26.4,0,8.0,,89623.4,11.16,-0.57,0.63,0.53,1.4,4.2,-0.4,33.94,,,,,,,,,,
13.48.33.900,-130.3,32.6,0,8.0,,90513.9,11.05,-0.57,0.63,0.53,0.4,4.0,-0.5,33.94,,,,,,,,,,
13.48.33.912,-123.1,30.8,0,8.0,,90610.1,11.04,-0.57,0.63,0.53,-0.7,4.7,-1.5,33.94,,,,,,,,,,
13.48.33.920,-121.0,30.2,0,8.0,,90741.1,11.02,-0.57,0.62,0.52,-0.5,4.1,-1.3,33.94,,,,,,,,,,
13.48.33.934,41.5,10.4,1,9.0,103.4,91657.4,10.91,-0.56,0.61,0.53,-0.2,3.6,-0.8,33.94,,,,,,,,,,
13.48.33.945,89.3,22.3,0,9.0,,91329.5,10.95,-0.57,0.61,0.53,-0.3,4.3,-1.2,33.94,,,,,,,,,,
13.48.33.953,123.9,31.0,0,9.0,,91356.5,10.95,-0.57,0.61,0.52,0.3,4.1,-1.1,33.94,,,,,,,,,,
13.48.33.965,161.8,40.4,0,9.0,,91594.7,10.92,-0.57,0.61,0.52,1.3,4.1,-0.6,33.94,,,,,,,,,,
13.48.33.978,242.0,60.5,0,9.0,,91396.5,10.94,-0.57,0.62,0.52,1.5,3.8,-0.5,33.94,,,,,,,,,,
13.48.33.986,257.2,64.3,0,9.0,,90279.9,11.08,-0.57,0.62,0.52,1.4,3.5,-0.3,33.94,,,,,,,,,,
13.48.33.998,288.7,72.2,0,9.0,,91373.0,10.94,-0.56,0.62,0.52,1.7,3.9,-0.2,33.94,,,,,,,,,,
13.48.34.010,303.0,75.8,0,9.0,,89774.9,11.14,-0.57,0.62,0.53,1.7,4.2,-0.5,33.94,,,,,,,,,,
13.48.34.019,294.1,73.5,0,9.0,,91256.1,10.96,-0.57,0.62,0.53,1.6,3.9,-0.3,33.94,,,,,,,,,,
13.48.34.031,316.5,79.1,0,9.0,,91133.0,10.97,-0.57,0.62,0.53,1.3,4.1,-0.1,33.94,,,,,,,,,,
13.48.34.044,315.3,78.8,0,9.0,,90610.4,11.04,-0.57,0.62,0.53,1.6,4.8,-0.5,33.94,,,,,,,,,,
13.48.34.056,287.8,72.0,0,9.0,,91088.8,10.98,-0.57,0.62,0.52,1.2,4.0,0.1,33.94,,,,,,,,,,
13.48.34.064,273.1,68.3,0,9.0,,89650.1,11.15,-0.56,0.62,0.53,1.2,3.9,-0.2,33.94,,,,,,,,,,
13.48.34.076,249.0,62.2,0,9.0,,91937.0,10.88,-0.57,0.62,0.53,1.2,3.8,0.2,33.94,,,,,,,,,,
13.48.34.088,182.6,45.6,0,9.0,,91110.6,10.98,-0.56,0.62,0.53,1.0,3.5,-0.4,33.94,,,,,,,,,,
13.48.34.097,151.0,37.8,0,9.0,,91882.6,10.88,-0.56,0.62,0.53,1.0,4.2,-0.3,33.94,,,,,,,,,,
13.48.34.109,93.7,23.4,0,9.0,,89327.0,11.19,-0.56,0.62,0.53,1.0,4.4,-0.5,33.94,,,,,,,,,,
13.48.34.121,36.5,9.1,0,9.0,,90180.4,11.09,-0.56,0.62,0.53,0.8,4.1,-1.0,33.94,,,,,,,,,,
13.48.34.129,-2.4,0.6,0,9.0,,91171.2,10.97,-0.56,0.62,0.53,1.0,4.6,-1.3,33.94,,,,,,,,,,
13.48.34.142,17.5,4.4,0,9.0,,91108.5,10.98,-0.56,0.62,0.52,1.2,4.5,-1.1,33.94,,,,,,,,,,
13.48.34.154,35.5,8.9,0,9.0,,89455.1,11.18,-0.56,0.62,0.53,1.5,4.2,-1.1,33.94,,,,,,,,,,
13.48.34.162,43.6,10.9,0,9.0,,90748.3,11.02,-0.56,0.62,0.53,1.8,4.7,-1.4,33.94,,,,,,,,,,
13.48.34.174,40.7,10.2,0,9.0,,90380.3,11.06,-0.57,0.62,0.53,2.3,4.8,-1.0,33.94,,,,,,,,,,
13.48.34.187,62.6,15.6,0,9.0,,91750.0,10.9,-0.56,0.62,0.52,2.7,4.8,-0.5,33.94,,,,,,,,,,
13.48.34.195,59.3,14.8,0,9.0,,91978.1,10.87,-0.57,0.62,0.53,2.5,4.3,0.2,33.94,,,,,,,,,,
13.48.34.207,44.4,11.1,0,9.0,,92403.5,10.82,-0.57,0.62,0.53,2.2,4.4,-0.2,33.94,,,,,,,,,,
13.48.34.219,40.2,10.0,0,9.0,,90834.9,11.01,-0.56,0.63,0.52,3.0,4.6,-0.6,33.94,,,,,,,,,,
13.48.34.229,22.6,5.6,0,9.0,,90918.9,11.0,-0.56,0.63,0.53,3.1,4.3,-0.7,33.94,,,,,,,,,,
13.48.34.240,4.2,1.0,0,9.0,,90030.9,11.11,-0.59,0.63,0.53,2.3,4.5,-1.8,33.94,,,,,,,,,,
13.48.34.253,5.0,1.2,0,9.0,,92794.6,10.78,-0.53,0.6,0.52,2.2,5.9,-4.5,33.94,,,,,,,,,,
13.48.34.260,-9.8,2.4,0,9.0,,92213.0,10.84,-0.56,0.61,0.53,1.6,5.8,-0.5,33.94,,,,,,,,,,
13.48.34.273,-17.0,4.2,0,9.0,,90198.4,11.09,-0.56,0.64,0.53,6.5,4.3,0.4,33.94,,,,,,,,,,
13.48.34.285,-22.5,5.6,0,9.0,,91630.0,10.91,-0.56,0.63,0.52,1.6,5.3,-1.2,33.94,,,,,,,,,,
13.48.34.297,-32.9,8.2,0,9.0,,92697.0,10.79,-0.56,0.62,0.53,0.7,4.6,-0.6,33.94,,,,,,,,,,
13.48.34.305,-33.2,8.3,0,9.0,,90106.4,11.1,-0.56,0.62,0.52,2.3,5.6,0.1,33.94,,,,,,,,,,
13.48.34.318,-40.7,10.2,0,9.0,,90198.2,11.09,-0.56,0.62,0.53,0.5,6.2,-1.2,33.94,,,,,,,,,,
13.48.34.330,-48.3,12.1,0,9.0,,91147.8,10.97,-0.56,0.63,0.53,0.1,4.1,-0.9,33.94,,,,,,,,,,
13.48.34.338,-51.8,13.0,0,9.0,,90963.2,10.99,-0.56,0.63,0.53,1.4,5.8,-0.9,33.94,,,,,,,,,,
13.48.34.350,-55.1,13.8,0,9.0,,91195.7,10.97,-0.56,0.63,0.53,1.1,6.5,-1.7,33.94,,,,,,,,,,
13.48.34.363,-60.0,15.0,0,9.0,,92443.5,10.82,-0.56,0.63,0.52,0.1,4.6,-1.6,33.94,,,,,,,,,,
13.48.34.375,-65.5,16.4,0,9.0,,91154.9,10.97,-0.57,0.63,0.52,0.6,6.3,-1.5,33.94,,,,,,,,,,
13.48.34.383,-78.5,19.6,0,9.0,,90746.0,11.02,-0.56,0.63,0.52,0.7,5.7,-1.5,33.94,,,,,,,,,,
13.48.34.396,-76.6,19.2,0,9.0,,91099.4,10.98,-0.56,0.63,0.53,0.0,5.0,-1.3,33.94,,,,,,,,,,
13.48.34.408,-87.0,21.8,0,9.0,,91055.4,10.98,-0.56,0.62,0.53,0.3,6.2,-1.4,33.94,,,,,,,,,,
13.48.34.421,-71.6,17.9,0,9.0,,91023.8,10.99,-0.56,0.62,0.54,0.7,5.9,-1.3,33.94,,,,,,,,,,
13.48.34.428,-91.3,22.8,0,9.0,,90606.8,11.04,-0.56,0.62,0.53,0.4,5.3,-1.4,33.94,,,,,,,,,,
13.48.34.441,-94.8,23.7,0,9.0,,90679.1,11.03,-0.56,0.62,0.53,0.7,5.7,-1.3,33.94,,,,,,,,,,
13.48.34.449,-96.8,24.2,0,9.0,,90702.8,11.03,-0.56,0.62,0.53,1.3,5.9,-0.9,33.94,,,,,,,,,,
13.48.34.461,-101.4,25.4,0,9.0,,90682.6,11.03,-0.56,0.62,0.52,2.0,5.6,-0.8,33.94,,,,,,,,,,
13.48.34.469,-117.4,29.4,0,9.0,,91629.9,10.91,-0.56,0.62,0.53,2.3,5.4,-1.0,33.94,,,,,,,,,,
13.48.34.482,-119.2,29.8,0,9.0,,90400.3,11.06,-0.56,0.62,0.52,2.5,5.7,-0.4,33.94,,,,,,,,,,
13.48.34.490,-113.2,28.3,0,9.0,,90480.5,11.05,-0.56,0.62,0.52,2.9,4.9,-0.5,33.94,,,,,,,,,,
13.48.34.502,-128.3,32.1,0,9.0,,91700.1,10.91,-0.56,0.62,0.52,2.6,5.0,-0.5,33.94,,,,,,,,,,
13.48.34.510,39.4,9.8,1,10.0,109.2,90894.4,11.0,-0.56,0.63,0.53,2.1,4.8,-0.6,33.94,,,,,,,,,,
13.48.34.523,100.4,25.1,0,10.0,,90472.1,11.05,-0.56,0.63,0.52,2.0,4.9,-0.5,33.94,,,,,,,,,,
13.48.34.531,135.6,33.9,0,10.0,,91501.8,10.93,-0.56,0.62,0.53,2.2,5.0,-0.6,33.94,,,,,,,,,,
13.48.34.543,191.5,47.9,0,10.0,,93573.2,10.69,-0.56,0.63,0.53,1.9,5.0,-0.5,33.94,,,,,,,,,,
13.48.34.551,215.3,53.8,0,10.0,,91525.2,10.93,-0.56,0.63,0.53,1.6,4.8,-1.0,33.94,,,,,,,,,,
13.48.34.564,241.5,60.4,0,10.0,,90842.8,11.01,-0.56,0.63,0.53,1.5,5.1,-0.9,33.94,,,,,,,,,,
13.48.34.572,285.6,71.4,0,10.0,,91710.3,10.9,-0.56,0.63,0.53,1.8,5.0,-0.9,33.94,,,,,,,,,,
13.48.34.584,312.8,78.2,0,10.0,,92281.0,10.84,-0.56,0.63,0.52,1.4,4.5,-1.3,33.94,,,,,,,,,,
13.48.34.592,326.6,81.6,0,10.0,,89919.0,11.12,-0.56,0.63,0.52,1.3,5.3,-1.6,33.94,,,,,,,,,,
13.48.34.605,301.4,75.4,0,10.0,,91517.1,10.93,-0.56,0.63,0.52,1.1,5.1,-1.5,33.94,,,,,,,,,,
13.48.34.613,316.4,79.1,0,10.0,,91357.9,10.95,-0.55,0.63,0.53,1.0,5.2,-1.2,33.94,,,,,,,,,,
13.48.34.650,260.8,65.2,0,10.0,,91771.6,10.9,-0.56,0.63,0.53,0.7,5.9,-1.2,33.94,,,,,,,,,,
13.48.34.662,201.5,50.4,0,10.0,,89901.9,11.12,-0.56,0.62,0.53,0.5,6.0,-1.4,33.94,,,,,,,,,,
13.48.34.670,157.2,39.3,0,10.0,,90515.4,11.05,-0.56,0.63,0.52,0.6,5.6,-1.4,33.94,,,,,,,,,,
13.48.34.682,112.9,28.2,0,10.0,,91032.5,10.99,-0.56,0.62,0.52,1.1,5.5,-1.3,33.94,,,,,,,,,,
13.48.34.691,72.7,18.2,0,10.0,,91475.1,10.93,-0.56,0.62,0.53,1.2,5.1,-1.3,33.94,,,,,,,,,,
13.48.34.703,4.7,1.2,0,10.0,,90287.9,11.08,-0.56,0.62,0.52,1.7,5.6,-1.3,33.94,,,,,,,,,,
13.48.34.711,15.7,3.9,0,10.0,,91548.0,10.92,-0.56,0.62,0.53,2.1,5.6,-1.3,33.94,,,,,,,,,,
13.48.34.723,31.8,8.0,0,10.0,,90844.4,11.01,-0.56,0.63,0.52,2.4,5.4,-1.4,33.94,,,,,,,,,,
13.48.34.733,47.1,11.8,0,10.0,,90212.6,11.08,-0.56,0.63,0.52,2.2,5.8,-1.5,33.94,,,,,,,,,,
13.48.34.744,51.0,12.8,0,10.0,,92296.9,10.83,-0.56,0.63,0.52,2.1,5.2,-1.7,33.94,,,,,,,,,,
13.48.34.752,47.4,11.8,0,10.0,,91252.3,10.96,-0.56,0.63,0.52,2.3,5.2,-1.5,33.94,,,,,,,,,,
13.48.34.765,67.4,16.8,0,10.0,,91508.5,10.93,-0.56,0.64,0.53,2.0,5.7,-1.6,33.94,,,,,,,,,,
13.48.34.772,53.6,13.4,0,10.0,,92102.1,10.86,-0.56,0.64,0.52,1.3,5.7,-1.5,33.94,,,,,,,,,,
13.48.34.785,39.8,10.0,0,10.0,,91060.7,10.98,-0.56,0.63,0.52,1.3,6.1,-1.4,33.94,,,,,,,,,,
13.48.34.793,46.5,11.6,0,10.0,,91003.4,10.99,-0.56,0.63,0.53,0.8,5.7,-1.6,33.94,,,,,,,,,,
13.48.34.805,14.5,3.6,0,10.0,,91505.4,10.93,-0.56,0.62,0.53,0.8,6.0,-1.5,33.94,,,,,,,,,,
13.48.34.813,9.5,2.4,0,10.0,,91030.4,10.99,-0.56,0.62,0.52,1.1,6.1,-1.6,33.94,,,,,,,,,,
13.48.34.826,-11.3,2.8,0,10.0,,91084.8,10.98,-0.56,0.62,0.53,2.1,5.7,-1.3,33.94,,,,,,,,,,
13.48.34.834,-2.3,0.6,0,10.0,,91690.2,10.91,-0.55,0.62,0.52,2.3,6.1,-1.2,33.94,,,,,,,,,,
13.48.34.846,-9.6,2.4,0,10.0,,91220.5,10.96,-0.56,0.63,0.52,2.5,6.5,-1.1,33.94,,,,,,,,,,
13.48.34.854,-12.0,3.0,0,10.0,,90634.7,11.03,-0.56,0.63,0.52,2.8,6.6,-1.3,33.94,,,,,,,,,,
13.48.34.867,-14.3,3.6,0,10.0,,90139.4,11.09,-0.56,0.63,0.52,2.7,5.8,-1.5,33.94,,,,,,,,,,
13.48.34.875,-32.7,8.2,0,10.0,,90004.1,11.11,-0.56,0.63,0.52,2.2,5.7,-1.5,33.94,,,,,,,,,,
13.48.34.887,-37.2,9.3,0,10.0,,90995.0,10.99,-0.56,0.64,0.52,1.5,5.7,-1.2,33.94,,,,,,,,,,
13.48.34.895,-40.7,10.2,0,10.0,,90722.4,11.02,-0.55,0.64,0.52,0.4,5.4,-1.7,33.94,,,,,,,,,,
13.48.34.908,-44.7,11.2,0,10.0,,89646.3,11.15,-0.56,0.63,0.53,-0.2,6.1,-1.7,33.94,,,,,,,,,,
13.48.34.916,-51.6,12.9,0,10.0,,90939.5,11.0,-0.56,0.63,0.52,0.0,6.0,-1.6,33.94,,,,,,,,,,
13.48.34.928,-54.7,13.7,0,10.0,,92088.5,10.86,-0.56,0.62,0.53,-0.4,5.7,-1.8,33.94,,,,,,,,,,
13.48.34.936,-51.7,12.9,0,10.0,,90733.6,11.02,-0.56,0.62,0.53,-0.6,6.4,-2.4,33.94,,,,,,,,,,
13.48.34.949,-77.5,19.4,0,10.0,,90923.9,11.0,-0.56,0.62,0.52,0.3,6.2,-1.8,33.94,,,,,,,,,,
13.48.34.961,-65.5,16.4,0,10.0,,90814.5,11.01,-0.56,0.63,0.52,0.6,6.4,-1.8,33.94,,,,,,,,,,
13.48.34.973,-77.0,19.2,0,10.0,,92501.3,10.81,-0.55,0.63,0.53,0.4,6.6,-1.9,33.94,,,,,,,,,,
13.48.34.981,-87.6,21.9,0,10.0,,91165.9,10.97,-0.56,0.63,0.52,0.3,6.0,-2.2,33.94,,,,,,,,,,
13.48.34.994,-83.0,20.8,0,10.0,,90620.8,11.03,-0.56,0.63,0.52,0.5,6.2,-1.7,33.94,,,,,,,,,,
13.48.35.006,-90.7,22.7,0,10.0,,91262.0,10.96,-0.56,0.62,0.52,0.4,6.9,-1.8,33.94,,,,,,,,,,
13.48.35.014,-95.9,24.0,0,10.0,,90846.6,11.01,-0.56,0.63,0.52,0.7,6.6,-1.9,33.94,,,,,,,,,,
13.48.35.026,-109.2,27.3,0,10.0,,89370.7,11.19,-0.56,0.63,0.52,0.5,6.5,-1.6,33.94,,,,,,,,,,
13.48.35.039,-114.2,28.6,0,10.0,,90669.3,11.03,-0.56,0.63,0.52,0.5,6.4,-1.6,33.94,,,,,,,,,,
13.48.35.047,-95.8,24.0,0,10.0,,90825.6,11.01,-0.56,0.63,0.52,0.9,6.3,-1.6,33.94,,,,,,,,,,
13.48.35.059,-119.2,29.8,0,10.0,,90055.1,11.1,-0.56,0.63,0.52,0.8,6.6,-1.2,33.94,,,,,,,,,,
13.48.35.071,-122.8,30.7,0,10.0,,90774.6,11.02,-0.56,0.63,0.53,0.3,6.8,-1.6,33.94,,,,,,,,,,
13.48.35.084,26.5,6.6,1,11.0,104.0,90426.7,11.06,-0.56,0.64,0.52,0.4,6.8,-1.1,33.94,,,,,,,,,,
13.48.35.092,60.6,15.2,0,11.0,,90209.8,11.09,-0.56,0.63,0.52,0.6,6.6,-1.0,33.94,,,,,,,,,,
13.48.35.104,118.8,29.7,0,11.0,,90858.3,11.01,-0.56,0.63,0.51,0.4,6.7,-1.0,33.94,,,,,,,,,,
13.48.35.117,168.9,42.2,0,11.0,,91217.8,10.96,-0.56,0.63,0.52,0.0,6.4,-1.5,33.94,,,,,,,,,,
13.48.35.125,205.5,51.4,0,11.0,,91824.1,10.89,-0.56,0.63,0.52,-0.1,6.3,-2.1,33.94,,,,,,,,,,
13.48.35.137,255.1,63.8,0,11.0,,90748.2,11.02,-0.55,0.63,0.53,0.3,6.2,-2.1,33.94,,,,,,,,,,
13.48.35.149,293.8,73.4,0,11.0,,91835.7,10.89,-0.56,0.62,0.53,0.6,6.6,-2.1,33.94,,,,,,,,,,
13.48.35.158,316.7,79.2,0,11.0,,90623.2,11.03,-0.56,0.62,0.53,0.5,6.6,-1.8,33.94,,,,,,,,,,
13.48.35.170,329.8,82.4,0,11.0,,88651.8,11.28,-0.56,0.62,0.51,0.9,6.8,-1.5,33.94,,,,,,,,,,
13.48.35.182,339.9,85.0,0,11.0,,92077.0,10.86,-0.56,0.62,0.51,1.3,6.9,-1.4,33.94,,,,,,,,,,
13.48.35.194,323.7,80.9,0,11.0,,91955.9,10.87,-0.56,0.63,0.52,0.9,6.6,-1.3,33.94,,,,,,,,,,
13.48.35.203,282.2,70.6,0,11.0,,89980.7,11.11,-0.56,0.63,0.52,1.0,6.5,-1.4,33.94,,,,,,,,,,
13.48.35.215,248.8,62.2,0,11.0,,91614.8,10.92,-0.56,0.63,0.52,0.9,6.8,-1.3,33.94,,,,,,,,,,
13.48.35.227,237.5,59.4,0,11.0,,91382.0,10.94,-0.56,0.63,0.52,1.1,6.0,-1.5,33.94,,,,,,,,,,
13.48.35.236,200.4,50.1,0,11.0,,90757.7,11.02,-0.56,0.62,0.52,1.2,6.5,-1.4,33.94,,,,,,,,,,
13.48.35.248,165.5,41.4,0,11.0,,91697.7,10.91,-0.56,0.63,0.52,1.2,6.1,-1.6,33.94,,,,,,,,,,
13.48.35.260,92.2,23.0,0,11.0,,90813.0,11.01,-0.56,0.63,0.52,1.2,6.8,-1.7,33.94,,,,,,,,,,
13.48.35.268,67.3,16.8,0,11.0,,91428.4,10.94,-0.57,0.63,0.51,0.9,6.1,-1.7,33.94,,,,,,,,,,
13.48.35.280,1.6,0.4,0,11.0,,91094.2,10.98,-0.57,0.63,0.52,0.7,6.3,-1.5,33.94,,,,,,,,,,
13.48.35.293,22.8,5.7,0,11.0,,91593.3,10.92,-0.56,0.64,0.51,0.1,6.4,-1.8,33.94,,,,,,,,,,
13.48.35.305,35.5,8.9,0,11.0,,90377.7,11.06,-0.57,0.64,0.52,-0.5,5.4,-1.8,33.94,,,,,,,,,,
13.48.35.313,49.0,12.2,0,11.0,,91804.5,10.89,-0.57,0.63,0.52,0.1,6.6,-1.5,33.94,,,,,,,,,,
13.48.35.325,51.7,12.9,0,11.0,,91507.2,10.93,-0.56,0.63,0.53,-0.4,6.6,-1.6,33.94,,,,,,,,,,
13.48.35.338,59.2,14.8,0,11.0,,91993.1,10.87,-0.56,0.63,0.52,-0.2,6.7,-1.4,33.94,,,,,,,,,,
13.48.35.347,67.8,17.0,0,11.0,,90872.0,11.0,-0.56,0.62,0.52,0.7,7.1,-1.5,33.94,,,,,,,,,,
13.48.35.358,46.1,11.5,0,11.0,,91934.5,10.88,-0.57,0.62,0.52,0.8,6.6,-1.2,33.94,,,,,,,,,,
13.48.35.371,36.9,9.2,0,11.0,,90827.3,11.01,-0.57,0.62,0.52,0.9,6.4,-1.4,33.94,,,,,,,,,,
13.48.35.379,36.6,9.2,0,11.0,,90578.3,11.04,-0.56,0.62,0.52,1.1,6.5,-0.9,33.94,,,,,,,,,,
13.48.35.391,2.7,0.7,0,11.0,,90294.8,11.07,-0.56,0.62,0.52,1.0,6.2,-0.9,33.94,,,,,,,,,,
13.48.35.403,-3.8,1.0,0,11.0,,91299.3,10.95,-0.56,0.63,0.52,0.8,6.5,-0.9,33.94,,,,,,,,,,
13.48.35.411,-1.8,0.4,0,11.0,,91511.1,10.93,-0.56,0.63,0.52,0.5,6.0,-1.1,33.94,,,,,,,,,,
13.48.35.453,-22.8,5.7,0,11.0,,88831.9,11.26,-0.56,0.63,0.52,0.5,6.3,-1.3,33.94,,,,,,,,,,
13.48.35.465,-29.7,7.4,0,11.0,,92349.0,10.83,-0.56,0.62,0.52,0.5,5.9,-1.0,33.94,,,,,,,,,,
13.48.35.477,-43.9,11.0,0,11.0,,91246.9,10.96,-0.56,0.63,0.52,1.0,6.1,-1.4,33.94,,,,,,,,,,
13.48.35.485,-44.0,11.0,0,11.0,,91552.3,10.92,-0.56,0.63,0.52,0.6,6.0,-1.3,33.94,,,,,,,,,,
13.48.35.498,-60.1,15.0,0,11.0,,90266.2,11.08,-0.56,0.63,0.51,1.1,6.1,-1.0,33.94,,,,,,,,,,
13.48.35.510,-58.6,14.6,0,11.0,,91083.1,10.98,-0.53,0.63,0.52,3.2,5.6,-2.4,33.94,,,,,,,,,,
13.48.35.518,-56.7,14.2,0,11.0,,91312.4,10.95,-0.57,0.63,0.51,3.0,7.0,-2.4,33.94,,,,,,,,,,
13.48.35.530,-61.8,15.4,0,11.0,,90238.8,11.08,-0.53,0.64,0.5,-1.4,5.7,-0.5,33.94,,,,,,,,,,
13.48.35.543,-69.1,17.3,0,11.0,,92866.4,10.77,-0.54,0.54,0.46,6.7,6.1,-12.4,33.94,,,,,,,,,,
13.48.35.551,-77.6,19.4,0,11.0,,90393.6,11.06,-0.7,0.52,0.52,1.5,1.6,-6.1,33.94,,,,,,,,,,
13.48.35.563,-84.1,21.0,0,11.0,,91051.8,10.98,-0.51,0.59,0.63,20.6,4.0,-13.5,33.94,,,,,,,,,,
13.48.35.575,-97.9,24.5,0,11.0,,91661.8,10.91,-0.56,0.7,0.53,20.2,11.7,-6.6,33.94,,,,,,,,,,
13.48.35.588,-93.8,23.4,0,11.0,,90830.1,11.01,-0.59,0.79,0.56,13.0,7.0,-0.2,33.94,,,,,,,,,,
13.48.35.596,-100.8,25.2,0,11.0,,90231.1,11.08,-0.55,0.75,0.5,2.0,2.4,3.5,33.94,,,,,,,,,,
13.48.35.608,-103.7,25.9,0,11.0,,90681.8,11.03,-0.54,0.65,0.48,-2.6,4.0,4.5,33.94,,,,,,,,,,
13.48.35.620,-109.7,27.4,0,11.0,,90554.7,11.04,-0.56,0.6,0.44,-4.2,3.4,4.1,33.94,,,,,,,,,,
13.48.35.629,-120.6,30.2,0,11.0,,90563.6,11.04,-0.59,0.6,0.48,-8.2,5.3,3.1,33.94,,,,,,,,,,
13.48.35.641,-125.5,31.4,0,11.0,,91036.0,10.98,-0.56,0.61,0.52,-7.2,8.8,-0.9,33.94,,,,,,,,,,
13.48.35.653,-108.3,27.1,0,11.0,,91466.5,10.93,-0.54,0.58,0.53,-3.5,10.7,-3.0,33.94,,,,,,,,,,
13.48.35.666,56.3,14.1,1,12.0,105.1,91339.6,10.95,-0.53,0.58,0.5,4.6,7.1,-3.1,33.94,,,,,,,,,,
13.48.35.674,91.9,23.0,0,12.0,,90380.2,11.06,-0.57,0.58,0.48,7.1,5.4,-2.6,33.94,,,,,,,,,,
13.48.35.686,153.0,38.2,0,12.0,,91246.3,10.96,-0.58,0.66,0.5,6.3,3.2,-1.1,33.94,,,,,,,,,,
13.48.35.698,200.5,50.1,0,12.0,,90375.3,11.06,-0.58,0.7,0.51,4.5,7.7,2.4,33.94,,,,,,,,,,
13.48.35.707,229.8,57.4,0,12.0,,91938.5,10.88,-0.58,0.69,0.52,-0.5,7.9,3.4,33.94,,,,,,,,,,
13.48.35.719,248.2,62.0,0,12.0,,91489.5,10.93,-0.57,0.62,0.54,-2.0,1.7,0.6,33.94,,,,,,,,,,
13.48.35.731,307.0,76.8,0,12.0,,91428.2,10.94,-0.56,0.59,0.55,0.7,1.9,-2.9,33.94,,,,,,,,,,
13.48.35.743,300.3,75.1,0,12.0,,90242.7,11.08,-0.55,0.6,0.53,4.9,6.3,-2.8,33.94,,,,,,,,,,
13.48.35.752,292.0,73.0,0,12.0,,91722.0,10.9,-0.56,0.64,0.5,7.0,6.1,-2.5,33.94,,,,,,,,,,
13.48.35.764,326.2,81.6,0,12.0,,91795.1,10.89,-0.58,0.64,0.51,6.9,4.3,-2.6,33.94,,,,,,,,,,
13.48.35.776,277.2,69.3,0,12.0,,90583.6,11.04,-0.57,0.64,0.51,6.1,5.5,-3.7,33.94,,,,,,,,,,
13.48.35.784,293.0,73.2,0,12.0,,90452.7,11.06,-0.59,0.64,0.51,6.1,7.5,-4.5,33.94,,,,,,,,,,
13.48.35.797,276.3,69.1,0,12.0,,91071.6,10.98,-0.58,0.64,0.51,2.9,5.0,-2.5,33.94,,,,,,,,,,
13.48.35.809,217.4,54.4,0,12.0,,90661.1,11.03,-0.59,0.62,0.5,4.1,6.4,-4.3,33.94,,,,,,,,,,
13.48.35.817,170.1,42.5,0,12.0,,91157.2,10.97,-0.58,0.66,0.51,4.1,6.8,0.0,33.94,,,,,,,,,,
13.48.35.830,123.0,30.8,0,12.0,,90669.2,11.03,-0.58,0.67,0.49,-0.3,6.3,2.1,33.94,,,,,,,,,,
13.48.35.842,75.3,18.8,0,12.0,,91035.8,10.98,-0.59,0.7,0.51,-5.1,4.1,3.6,33.94,,,,,,,,,,
13.48.35.854,18.5,4.6,0,12.0,,89933.9,11.12,-0.59,0.7,0.51,-8.4,7.9,4.8,33.94,,,,,,,,,,
13.48.35.862,-0.1,0.0,0,12.0,,90884.5,11.0,-0.56,0.7,0.49,-12.8,9.6,9.8,33.94,,,,,,,,,,
13.48.35.874,31.3,7.8,0,12.0,,90587.2,11.04,-0.59,0.69,0.49,-17.0,6.4,12.2,33.94,,,,,,,,,,
13.48.35.887,50.1,12.5,0,12.0,,90778.5,11.02,-0.57,0.66,0.5,-21.1,5.9,12.9,33.94,,,,,,,,,,
13.48.35.895,57.7,14.4,0,12.0,,91360.3,10.95,-0.58,0.67,0.52,-27.5,6.6,17.9,33.94,,,,,,,,,,
13.48.35.907,55.7,13.9,0,12.0,,90456.0,11.06,-0.59,0.63,0.5,-27.0,9.0,18.3,33.94,,,,,,,,,,
13.48.35.920,53.1,13.3,0,12.0,,92806.9,10.78,-0.59,0.62,0.54,-26.6,8.0,18.3,33.94,,,,,,,,,,
13.48.35.932,37.8,9.4,0,12.0,,92374.9,10.83,-0.56,0.62,0.53,-23.9,8.1,17.7,33.94,,,,,,,,,,
13.48.35.940,32.1,8.0,0,12.0,,92273.3,10.84,-0.59,0.6,0.53,-22.1,9.0,16.8,33.94,,,,,,,,,,
13.48.35.952,29.3,7.3,0,12.0,,89857.8,11.13,-0.57,0.56,0.54,-21.2,4.8,12.9,33.94,,,,,,,,,,
13.48.35.961,25.3,6.3,0,12.0,,91215.1,10.96,-0.61,0.53,0.56,-20.4,4.7,10.7,33.94,,,,,,,,,,
13.48.35.973,-3.0,0.8,0,12.0,,89649.3,11.15,-0.55,0.56,0.58,-17.0,8.9,14.8,33.94,,,,,,,,,,
13.48.35.985,-6.2,1.6,0,12.0,,89901.8,11.12,-0.54,0.61,0.56,-10.3,14.4,19.8,33.94,,,,,,,,,,
13.48.35.993,-4.5,1.1,0,12.0,,89814.9,11.13,-0.54,0.65,0.51,-17.8,13.9,28.7,33.94,,,,,,,,,,
13.48.36.006,-19.7,4.9,0,12.0,,91497.4,10.93,-0.55,0.67,0.51,-23.0,6.6,36.6,33.94,,,,,,,,,,
13.48.36.014,-35.3,8.8,0,12.0,,90308.3,11.07,-0.53,0.66,0.5,-24.1,6.5,42.8,33.94,,,,,,,,,,
13.48.36.026,-21.6,5.4,0,12.0,,90071.8,11.1,-0.53,0.68,0.54,-20.1,8.9,43.3,33.94,,,,,,,,,,
13.48.36.034,-25.3,6.3,0,12.0,,90487.9,11.05,-0.55,0.73,0.55,-22.6,9.8,45.9,33.94,,,,,,,,,,
13.48.36.047,-32.9,8.2,0,12.0,,91394.3,10.94,-0.55,0.74,0.57,-29.6,10.7,48.7,33.94,,,,,,,,,,
13.48.36.055,-30.2,7.6,0,12.0,,90755.7,11.02,-0.53,0.7,0.56,-36.0,12.9,51.7,33.94,,,,,,,,,,
13.48.36.067,-50.7,12.7,0,12.0,,91964.4,10.87,-0.53,0.7,0.55,-40.6,13.4,54.3,33.94,,,,,,,,,,
13.48.36.079,-48.0,12.0,0,12.0,,91560.1,10.92,-0.52,0.7,0.56,-46.9,11.4,56.8,33.94,,,,,,,,,,
13.48.36.088,-62.4,15.6,0,12.0,,91362.7,10.95,-0.51,0.66,0.55,-52.5,11.2,55.3,33.94,,,,,,,,,,
13.48.36.100,-54.8,13.7,0,12.0,,92375.9,10.83,-0.48,0.61,0.55,-55.1,8.8,52.4,33.94,,,,,,,,,,
13.48.36.108,-72.3,18.1,0,12.0,,91545.5,10.92,-0.45,0.59,0.56,-51.2,8.9,49.7,33.94,,,,,,,,,,
13.48.36.120,-73.2,18.3,0,12.0,,90084.4,11.1,-0.43,0.55,0.55,-43.9,13.8,44.7,33.94,,,,,,,,,,
13.48.36.128,-71.5,17.9,0,12.0,,90858.7,11.01,-0.45,0.57,0.58,-37.6,9.9,39.2,33.94,,,,,,,,,,
13.48.36.141,-88.3,22.1,0,12.0,,91966.7,10.87,-0.47,0.59,0.6,-34.9,5.8,34.9,33.94,,,,,,,,,,
13.48.36.153,-93.7,23.4,0,12.0,,92342.0,10.83,-0.46,0.57,0.62,-31.2,6.9,26.5,33.94,,,,,,,,,,
13.48.36.161,-98.4,24.6,0,12.0,,90230.5,11.08,-0.43,0.55,0.63,-25.4,8.2,18.0,33.94,,,,,,,,,,
13.48.36.174,-96.9,24.2,0,12.0,,91077.4,10.98,-0.42,0.58,0.63,-14.4,10.5,14.0,33.94,,,,,,,,,,
13.48.36.182,-95.8,24.0,0,12.0,,92938.3,10.76,-0.42,0.6,0.61,-7.7,10.3,12.3,33.94,,,,,,,,,,
13.48.36.194,-101.7,25.4,0,12.0,,89283.5,11.2,-0.43,0.62,0.61,-6.3,8.1,9.3,33.94,,,,,,,,,,
13.48.36.203,-113.7,28.4,0,12.0,,90119.2,11.1,-0.45,0.62,0.59,-6.7,8.2,8.8,33.94,,,,,,,,,,
13.48.36.215,-122.4,30.6,0,12.0,,89436.4,11.18,-0.47,0.64,0.59,-6.8,10.1,12.5,33.94,,,,,,,,,,
13.48.36.252,83.5,20.9,1,13.0,109.1,91705.5,10.9,-0.37,0.71,0.67,-9.9,12.1,22.6,33.94,,,,,,,,,,
13.48.36.260,145.6,36.4,0,13.0,,89912.4,11.12,-0.42,0.62,0.6,-5.1,3.1,5.2,33.94,,,,,,,,,,
13.48.36.272,178.7,44.7,0,13.0,,90892.5,11.0,-0.43,0.64,0.61,-6.3,4.9,2.2,33.94,,,,,,,,,,
13.48.36.284,239.2,59.8,0,13.0,,92395.3,10.82,-0.42,0.64,0.63,-2.7,3.3,2.7,33.94,,,,,,,,,,
13.48.36.292,264.9,66.2,0,13.0,,90728.3,11.02,-0.43,0.65,0.63,0.3,3.0,4.6,33.94,,,,,,,,,,
13.48.36.305,297.2,74.3,0,13.0,,90510.3,11.05,-0.43,0.66,0.64,-3.8,5.7,1.8,33.94,,,,,,,,,,
13.48.36.313,303.5,75.9,0,13.0,,91473.4,10.93,-0.45,0.65,0.61,-8.6,8.4,-1.9,33.94,,,,,,,,,,
13.48.36.325,322.6,80.6,0,13.0,,91075.3,10.98,-0.47,0.64,0.59,-11.1,8.2,1.7,33.94,,,,,,,,,,
13.48.36.333,322.4,80.6,0,13.0,,91840.4,10.89,-0.45,0.65,0.61,-12.4,7.6,4.9,33.94,,,,,,,,,,
13.48.36.346,303.1,75.8,0,13.0,,93012.7,10.75,-0.44,0.66,0.62,-14.1,10.2,5.3,33.94,,,,,,,,,,
13.48.36.354,302.0,75.5,0,13.0,,90901.1,11.0,-0.48,0.65,0.61,-12.5,6.9,5.5,33.94,,,,,,,,,,
13.48.36.366,278.7,69.7,0,13.0,,90436.9,11.06,-0.45,0.6,0.61,-12.5,6.3,5.9,33.94,,,,,,,,,,
13.48.36.374,261.8,65.4,0,13.0,,93227.2,10.73,-0.46,0.62,0.63,-9.9,7.5,7.0,33.94,,,,,,,,,,
13.48.36.388,222.2,55.6,0,13.0,,91963.3,10.87,-0.46,0.61,0.63,-6.5,4.9,7.5,33.94,,,,,,,,,,
13.48.36.395,180.5,45.1,0,13.0,,92354.0,10.83,-0.44,0.61,0.63,-5.3,5.3,6.1,33.94,,,,,,,,,,
13.48.36.407,132.6,33.2,0,13.0,,91345.6,10.95,-0.44,0.63,0.63,-1.0,7.8,6.7,33.94,,,,,,,,,,
13.48.36.415,101.0,25.2,0,13.0,,89603.5,11.16,-0.43,0.63,0.62,2.2,6.9,6.8,33.94,,,,,,,,,,
13.48.36.428,31.6,7.9,0,13.0,,90501.4,11.05,-0.43,0.61,0.62,2.4,6.4,4.1,33.94,,,,,,,,,,
13.48.36.437,1.1,0.3,0,13.0,,90610.2,11.04,-0.43,0.62,0.62,1.4,6.9,2.2,33.94,,,,,,,,,,
13.48.36.448,19.1,4.8,0,13.0,,92269.9,10.84,-0.44,0.63,0.61,3.0,7.2,3.2,33.94,,,,,,,,,,
13.48.36.460,32.9,8.2,0,13.0,,90872.9,11.0,-0.45,0.63,0.62,1.8,6.8,2.9,33.94,,,,,,,,,,
13.48.36.468,49.2,12.3,0,13.0,,91202.4,10.96,-0.45,0.63,0.64,-1.1,8.4,2.2,33.94,,,,,,,,,,
13.48.36.481,62.7,15.7,0,13.0,,90152.2,11.09,-0.45,0.65,0.62,-2.4,7.8,2.8,33.94,,,,,,,,,,
13.48.36.493,62.4,15.6,0,13.0,,91816.3,10.89,-0.44,0.66,0.63,-1.7,6.0,3.2,33.94,,,,,,,,,,
13.48.36.505,48.6,12.2,0,13.0,,92076.2,10.86,-0.45,0.66,0.63,-2.4,5.6,2.4,33.94,,,,,,,,,,
13.48.36.514,42.4,10.6,0,13.0,,91089.4,10.98,-0.43,0.64,0.62,-3.1,5.3,1.0,33.94,,,,,,,,,,
13.48.36.526,31.1,7.8,0,13.0,,91079.8,10.98,-0.43,0.63,0.62,-2.3,4.8,-2.0,33.94,,,,,,,,,,
13.48.36.539,16.7,4.2,0,13.0,,91377.3,10.94,-0.43,0.62,0.63,-1.8,3.5,-4.1,33.94,,,,,,,,,,
13.48.36.546,-0.8,0.2,0,13.0,,91105.8,10.98,-0.43,0.62,0.63,-2.6,4.3,-3.6,33.94,,,,,,,,,,
13.48.36.559,-6.6,1.6,0,13.0,,91752.1,10.9,-0.44,0.63,0.63,-3.5,4.9,-1.8,33.94,,,,,,,,,,
13.48.36.571,-9.7,2.4,0,13.0,,91331.6,10.95,-0.43,0.63,0.63,-3.5,5.4,-1.2,33.94,,,,,,,,,,
13.48.36.583,-18.4,4.6,0,13.0,,91232.9,10.96,-0.43,0.61,0.62,-2.9,4.7,-1.6,33.94,,,,,,,,,,
13.48.36.591,-21.5,5.4,0,13.0,,90888.6,11.0,-0.43,0.6,0.61,-2.5,2.8,-0.8,33.94,,,,,,,,,,
13.48.36.604,-33.6,8.4,0,13.0,,91204.7,10.96,-0.45,0.62,0.61,-2.7,0.3,0.3,33.94,,,,,,,,,,
13.48.36.616,-31.2,7.8,0,13.0,,90824.1,11.01,-0.45,0.63,0.61,-2.7,1.1,0.2,33.94,,,,,,,,,,
13.48.36.628,-42.0,10.5,0,13.0,,91287.3,10.95,-0.45,0.64,0.61,-4.5,-3.8,1.5,33.94,,,,,,,,,,
13.48.36.636,-39.6,9.9,0,13.0,,90664.6,11.03,-0.45,0.64,0.62,-4.0,-7.9,1.0,33.94,,,,,,,,,,
13.48.36.649,-41.4,10.4,0,13.0,,90661.2,11.03,-0.44,0.63,0.63,-2.6,-5.0,-1.5,33.94,,,,,,,,,,
13.48.36.661,-55.5,13.9,0,13.0,,91267.1,10.96,-0.45,0.62,0.66,-2.0,-6.8,-2.7,33.94,,,,,,,,,,
13.48.36.673,-63.9,16.0,0,13.0,,91649.3,10.91,-0.44,0.62,0.64,-2.6,-7.9,-3.2,33.94,,,,,,,,,,
13.48.36.681,-63.9,16.0,0,13.0,,89157.6,11.22,-0.41,0.6,0.64,-4.8,-8.5,-4.4,33.94,,,,,,,,,,
13.48.36.695,-67.8,17.0,0,13.0,,90685.8,11.03,-0.44,0.63,0.63,-5.8,-10.2,-3.3,33.94,,,,,,,,,,
13.48.36.706,-78.4,19.6,0,13.0,,90688.1,11.03,-0.44,0.63,0.65,-3.0,-4.6,-2.2,33.94,,,,,,,,,,
13.48.36.719,-76.3,19.1,0,13.0,,91263.3,10.96,-0.44,0.65,0.64,0.5,-0.8,0.0,33.94,,,,,,,,,,
13.48.36.731,-82.9,20.7,0,13.0,,91405.8,10.94,-0.44,0.62,0.65,2.3,0.3,0.5,33.94,,,,,,,,,,
13.48.36.739,-93.6,23.4,0,13.0,,92608.1,10.8,-0.44,0.64,0.66,0.6,-0.7,2.3,33.94,,,,,,,,,,
13.48.36.752,-113.6,28.4,0,13.0,,90467.6,11.05,-0.43,0.61,0.66,1.6,-2.8,2.1,33.94,,,,,,,,,,
13.48.36.760,-107.2,26.8,0,13.0,,92441.6,10.82,-0.44,0.64,0.66,2.6,-0.4,0.8,33.94,,,,,,,,,,
13.48.36.772,-104.8,26.2,0,13.0,,89358.8,11.19,-0.43,0.65,0.65,3.1,5.9,-1.6,33.94,,,,,,,,,,
13.48.36.780,-105.2,26.3,0,13.0,,89745.0,11.14,-0.42,0.66,0.65,1.7,10.3,-3.2,33.94,,,,,,,,,,
13.48.36.792,-132.2,33.0,0,13.0,,90010.8,11.11,-0.41,0.65,0.64,2.5,11.5,-3.9,33.94,,,,,,,,,,
13.48.36.800,-133.6,33.4,0,13.0,,92075.6,10.86,-0.41,0.63,0.63,4.6,13.9,-6.0,33.94,,,,,,,,,,
13.48.36.813,34.8,8.7,1,14.0,94.8,91362.2,10.95,-0.4,0.6,0.63,4.2,13.6,-9.8,33.94,,,,,,,,,,
13.48.36.821,66.2,16.6,0,14.0,,92022.1,10.87,-0.4,0.6,0.64,4.0,13.1,-11.8,33.94,,,,,,,,,,
13.48.36.833,126.4,31.6,0,14.0,,92335.4,10.83,-0.42,0.6,0.63,3.7,10.6,-12.4,33.94,,,,,,,,,,
13.48.36.845,176.4,44.1,0,14.0,,90921.6,11.0,-0.42,0.62,0.64,1.0,9.2,-9.6,33.94,,,,,,,,,,
13.48.36.854,214.8,53.7,0,14.0,,91088.7,10.98,-0.43,0.63,0.63,-0.1,7.7,-6.2,33.94,,,,,,,,,,
13.48.36.866,251.5,62.9,0,14.0,,91006.4,10.99,-0.42,0.62,0.63,-0.4,4.9,-1.3,33.94,,,,,,,,,,
13.48.36.874,265.4,66.4,0,14.0,,91317.9,10.95,-0.42,0.63,0.64,0.5,2.0,3.3,33.94,,,,,,,,,,
13.48.36.886,309.2,77.3,0,14.0,,91895.4,10.88,-0.41,0.62,0.62,-5.4,-1.8,0.7,33.94,,,,,,,,,,
13.48.36.895,335.8,84.0,0,14.0,,90916.3,11.0,-0.42,0.61,0.62,-11.7,-4.9,-1.4,33.94,,,,,,,,,,
13.48.36.907,319.0,79.8,0,14.0,,91732.8,10.9,-0.44,0.62,0.64,-11.0,-5.4,-1.6,33.94,,,,,,,,,,
13.48.36.915,334.2,83.6,0,14.0,,91298.4,10.95,-0.45,0.63,0.65,-9.9,-3.2,-0.9,33.94,,,,,,,,,,
13.48.36.927,300.9,75.2,0,14.0,,92202.3,10.85,-0.43,0.63,0.66,-6.8,3.0,-3.7,33.94,,,,,,,,,,
13.48.36.936,291.4,72.8,0,14.0,,90177.1,11.09,-0.45,0.64,0.69,-1.1,8.2,-3.8,33.94,,,,,,,,,,
13.48.36.948,257.2,64.3,0,14.0,,91524.6,10.93,-0.43,0.64,0.66,6.5,11.6,-1.2,33.94,,,,,,,,,,
13.48.36.956,232.5,58.1,0,14.0,,89485.1,11.18,-0.45,0.63,0.68,12.1,13.0,-0.9,33.94,,,,,,,,,,
13.48.36.968,183.2,45.8,0,14.0,,90312.9,11.07,-0.44,0.62,0.65,11.3,16.5,-2.0,33.94,,,,,,,,,,
13.48.36.981,146.1,36.5,0,14.0,,90524.8,11.05,-0.43,0.63,0.64,8.7,15.2,-2.2,33.94,,,,,,,,,,
13.48.36.989,97.0,24.2,0,14.0,,90980.8,10.99,-0.43,0.61,0.63,5.3,12.5,-2.7,33.94,,,,,,,,,,
13.48.37.001,38.4,9.6,0,14.0,,92130.8,10.85,-0.44,0.61,0.62,4.8,10.0,-3.2,33.94,,,,,,,,,,
13.48.37.009,-5.5,1.4,0,14.0,,90831.2,11.01,-0.44,0.62,0.62,4.8,8.8,-2.2,33.94,,,,,,,,,,
13.48.37.022,12.2,3.0,0,14.0,,90029.2,11.11,-0.45,0.62,0.63,2.2,7.3,-2.9,33.94,,,,,,,,,,
13.48.37.059,46.5,11.6,0,14.0,,92204.7,10.85,-0.44,0.63,0.64,-0.4,6.9,-1.8,33.94,,,,,,,,,,
13.48.37.071,57.3,14.3,0,14.0,,90107.2,11.1,-0.43,0.62,0.62,-2.2,1.6,-0.1,33.94,,,,,,,,,,
13.48.37.080,63.6,15.9,0,14.0,,91804.8,10.89,-0.43,0.61,0.63,-0.5,1.5,-1.1,33.94,,,,,,,,,,
13.48.37.091,40.1,10.0,0,14.0,,89566.1,11.16,-0.43,0.62,0.63,-1.3,1.7,-3.9,33.94,,,,,,,,,,
13.48.37.104,27.4,6.8,0,14.0,,90371.3,11.07,-0.42,0.61,0.63,-3.7,2.6,-5.4,33.94,,,,,,,,,,
13.48.37.112,21.9,5.5,0,14.0,,90681.9,11.03,-0.43,0.62,0.63,-4.5,0.1,-5.3,33.94,,,,,,,,,,
13.48.37.124,-7.0,1.8,0,14.0,,90340.5,11.07,-0.42,0.61,0.63,-7.0,-4.1,-4.5,33.94,,,,,,,,,,
13.48.37.132,-12.0,3.0,0,14.0,,91701.0,10.91,-0.41,0.61,0.63,-11.9,-7.4,-3.5,33.94,,,,,,,,,,
13.48.37.144,-7.5,1.9,0,14.0,,89550.0,11.17,-0.44,0.59,0.62,-19.6,-14.3,-2.1,33.94,,,,,,,,,,
13.48.37.153,-5.5,1.4,0,14.0,,91008.3,10.99,-0.41,0.59,0.62,-29.8,-24.8,5.5,33.94,,,,,,,,,,
13.48.37.165,-16.1,4.0,0,14.0,,90805.1,11.01,-0.41,0.59,0.65,-35.1,-41.0,12.3,33.94,,,,,,,,,,
13.48.37.173,-19.5,4.9,0,14.0,,91103.6,10.98,-0.44,0.62,0.66,-37.3,-51.3,15.2,33.94,,,,,,,,,,
13.48.37.185,-28.1,7.0,0,14.0,,90786.5,11.01,-0.4,0.6,0.69,-23.2,-48.4,16.8,33.94,,,,,,,,,,
13.48.37.194,-35.8,9.0,0,14.0,,91077.8,10.98,-0.4,0.64,0.74,0.4,-33.6,20.8,33.94,,,,,,,,,,
13.48.37.206,-45.3,11.3,0,14.0,,90298.0,11.07,-0.37,0.6,0.7,13.1,-15.7,26.3,33.94,,,,,,,,,,
13.48.37.218,-52.6,13.2,0,14.0,,90804.9,11.01,-0.39,0.7,0.71,8.2,-7.5,36.6,33.94,,,,,,,,,,
13.48.37.226,-50.3,12.6,0,14.0,,91072.4,10.98,-0.52,0.81,0.81,-1.2,-5.8,20.0,33.94,,,,,,,,,,
13.48.37.239,-52.9,13.2,0,14.0,,91394.7,10.94,-0.37,0.73,0.69,-27.3,26.5,-20.7,33.94,,,,,,,,,,
13.48.37.247,-54.1,13.5,0,14.0,,92519.8,10.81,-0.48,0.89,0.79,-13.6,53.2,-12.3,33.94,,,,,,,,,,
13.48.37.259,-62.7,15.7,0,14.0,,91198.3,10.97,-0.32,0.52,0.64,20.9,55.8,-17.4,33.94,,,,,,,,,,
13.48.37.267,-60.1,15.0,0,14.0,,92438.1,10.82,-0.38,0.63,0.74,35.2,108.5,-28.0,33.94,,,,,,,,,,
13.48.37.280,-79.2,19.8,0,14.0,,90740.4,11.02,-0.3,0.52,0.39,24.7,114.0,-26.2,33.94,,,,,,,,,,
13.48.37.288,-80.9,20.2,0,14.0,,90550.3,11.04,-0.52,0.58,0.55,-21.2,11.7,0.5,33.94,,,,,,,,,,
13.48.37.300,-80.4,20.1,0,14.0,,90311.1,11.07,-0.37,0.6,0.74,-26.3,-33.8,-7.5,33.94,,,,,,,,,,
13.48.37.312,-95.3,23.8,0,14.0,,90527.1,11.05,-0.33,0.47,0.75,-1.8,14.7,-23.9,33.94,,,,,,,,,,
13.48.37.321,-106.3,26.6,0,14.0,,90075.4,11.1,-0.74,-0.01,0.86,13.9,26.3,-20.9,33.94,,,,,,,,,,
13.48.37.333,-102.2,25.6,0,14.0,,88953.2,11.24,-0.55,0.69,0.74,35.1,6.6,-15.0,33.94,,,,,,,,,,
13.48.37.341,-105.2,26.3,0,14.0,,90678.7,11.03,-0.31,0.97,0.61,44.2,11.6,-23.1,33.94,,,,,,,,,,
13.48.37.353,-127.9,32.0,0,14.0,,91844.0,10.89,-0.53,0.71,0.63,21.2,19.6,-17.7,33.94,,,,,,,,,,
13.48.37.362,-127.5,31.9,0,14.0,,92258.5,10.84,-0.56,0.57,0.71,19.2,5.4,-12.7,33.94,,,,,,,,,,
13.48.37.374,-122.4,30.6,0,14.0,,91442.4,10.94,-0.41,0.64,0.63,12.1,0.3,-4.4,33.94,,,,,,,,,,
13.48.37.382,-130.4,32.6,0,14.0,,90111.2,11.1,-0.55,1.05,0.36,-35.6,30.0,26.8,33.94,,,,,,,,,,
13.48.37.394,48.2,12.0,1,15.0,105.5,90173.0,11.09,-0.44,0.63,0.63,-11.6,8.9,1.5,33.94,,,,,,,,,,
13.48.37.403,107.5,26.9,0,15.0,,90933.4,11.0,-0.45,0.43,0.68,2.2,-2.2,-4.1,33.94,,,,,,,,,,
13.48.37.415,155.4,38.8,0,15.0,,91074.6,10.98,-0.4,0.55,0.63,-4.9,6.8,4.9,33.94,,,,,,,,,,
13.48.37.423,176.2,44.0,0,15.0,,91331.6,10.95,-0.52,0.48,0.75,-6.0,-1.5,5.7,33.94,,,,,,,,,,
13.48.37.435,238.4,59.6,0,15.0,,89958.2,11.12,-0.39,0.55,0.61,9.6,9.4,4.1,33.94,,,,,,,,,,
13.48.37.444,263.7,65.9,0,15.0,,90574.4,11.04,-0.45,0.66,0.59,4.2,20.9,-2.1,33.94,,,,,,,,,,
13.48.37.456,277.9,69.5,0,15.0,,90670.5,11.03,-0.44,0.63,0.63,4.0,8.2,-9.7,33.94,,,,,,,,,,
13.48.37.464,321.1,80.3,0,15.0,,91201.3,10.96,-0.42,0.59,0.66,12.7,8.6,-9.5,33.94,,,,,,,,,,
13.48.37.476,279.9,70.0,0,15.0,,91446.5,10.94,-0.41,0.65,0.62,13.1,8.0,-5.1,33.94,,,,,,,,,,
13.48.37.484,319.4,79.8,0,15.0,,91648.2,10.91,-0.42,0.65,0.62,10.7,2.3,-3.6,33.94,,,,,,,,,,
13.48.37.497,296.5,74.1,0,15.0,,91726.5,10.9,-0.4,0.65,0.65,10.3,-0.1,-4.0,33.94,,,,,,,,,,
13.48.37.506,299.9,75.0,0,15.0,,90969.3,10.99,-0.41,0.63,0.62,10.6,4.1,-5.5,33.94,,,,,,,,,,
13.48.37.517,304.4,76.1,0,15.0,,90584.7,11.04,-0.45,0.6,0.63,7.9,4.2,-6.0,33.94,,,,,,,,,,
13.48.37.530,241.4,60.4,0,15.0,,91812.5,10.89,-0.45,0.6,0.64,7.8,7.0,-6.4,33.94,,,,,,,,,,
13.48.37.538,199.9,50.0,0,15.0,,91155.4,10.97,-0.45,0.6,0.65,9.7,9.4,-7.2,33.94,,,,,,,,,,
13.48.37.546,172.6,43.2,0,15.0,,90405.5,11.06,-0.44,0.61,0.67,9.2,7.4,-6.9,33.94,,,,,,,,,,
13.48.37.558,151.8,38.0,0,15.0,,92332.7,10.83,-0.45,0.6,0.65,9.0,8.6,-5.7,33.94,,,,,,,,,,
13.48.37.567,95.0,23.8,0,15.0,,91387.9,10.94,-0.44,0.59,0.63,9.3,8.6,-4.5,33.94,,,,,,,,,,
13.48.37.579,25.4,6.4,0,15.0,,90158.4,11.09,-0.47,0.62,0.63,12.1,7.4,-3.6,33.94,,,,,,,,,,
13.48.37.587,8.9,2.2,0,15.0,,91882.4,10.88,-0.41,0.6,0.63,8.9,5.4,-4.3,33.94,,,,,,,,,,
13.48.37.599,29.0,7.2,0,15.0,,90824.8,11.01,-0.46,0.61,0.63,9.7,6.2,-9.0,33.94,,,,,,,,,,
13.48.37.608,31.4,7.8,0,15.0,,90986.7,10.99,-0.44,0.61,0.62,9.7,5.7,-8.2,33.94,,,,,,,,,,
13.48.37.620,38.0,9.5,0,15.0,,90488.7,11.05,-0.43,0.6,0.61,13.0,6.1,-10.9,33.94,,,,,,,,,,
13.48.37.628,59.1,14.8,0,15.0,,92022.8,10.87,-0.43,0.62,0.59,13.9,6.0,-13.2,33.94,,,,,,,,,,
13.48.37.640,54.6,13.6,0,15.0,,90881.8,11.0,-0.46,0.61,0.6,12.4,2.4,-17.3,33.94,,,,,,,,,,
13.48.37.655,54.4,13.6,0,15.0,,91099.1,10.98,-0.48,0.61,0.62,10.7,3.8,-18.1,33.94,,,,,,,,,,
13.48.37.661,,,0,15.0,,91581.8,10.92,,,,,,,,,,,,,,,,,
13.48.37.679,,,0,15.0,,90324.3,11.07,,,,,,,,,33.92,,,,,,,,
13.48.37.690,21.1,5.3,0,15.0,,90572.9,11.04,-0.46,0.64,0.63,16.8,6.2,-13.6,33.94,,,,,,,,,,
13.48.37.698,-0.8,0.2,0,15.0,,90884.5,11.0,-0.45,0.61,0.63,20.9,4.0,-14.9,33.94,,,,,,,,,,
13.48.37.710,-0.7,0.2,0,15.0,,89548.0,11.17,-0.51,0.56,0.6,23.2,-1.2,-23.2,33.94,,,,,,,,,,
13.48.37.718,-6.9,1.7,0,15.0,,93067.4,10.74,-0.46,0.58,0.6,24.8,4.0,-24.3,33.94,,,,,,,,,,
13.48.37.730,-12.0,3.0,0,15.0,,90624.9,11.03,-0.44,0.62,0.6,26.2,8.9,-19.0,33.94,,,,,,,,,,
13.48.37.743,-20.4,5.1,0,15.0,,90493.7,11.05,-0.57,0.66,0.59,23.5,3.3,-15.8,33.94,,,,,,,,,,
13.48.37.751,-29.5,7.4,0,15.0,,91103.9,10.98,-0.47,0.69,0.59,11.7,3.9,-11.2,33.94,,,,,,,,,,
13.48.37.763,-28.5,7.1,0,15.0,,91452.4,10.93,-0.5,0.73,0.63,5.6,4.3,-1.8,33.94,,,,,,,,,,
13.48.37.771,-35.5,8.9,0,15.0,,90855.4,11.01,-0.53,0.76,0.64,3.7,2.9,5.4,33.94,,,,,,,,,,
13.48.37.784,-38.6,9.6,0,15.0,,91153.3,10.97,-0.51,0.68,0.61,0.0,4.3,1.1,33.94,,,,,,,,,,
13.48.37.792,-34.2,8.6,0,15.0,,91091.2,10.98,-0.48,0.6,0.61,-1.3,4.3,-3.6,33.94,,,,,,,,,,
13.48.37.804,-60.4,15.1,0,15.0,,91148.5,10.97,-0.47,0.59,0.59,2.6,5.8,0.0,33.94,,,,,,,,,,
13.48.37.812,-59.1,14.8,0,15.0,,91400.0,10.94,-0.47,0.59,0.58,6.3,3.9,1.6,33.94,,,,,,,,,,
13.48.37.825,-63.3,15.8,0,15.0,,93035.0,10.75,-0.48,0.61,0.59,2.8,3.9,-0.3,33.94,,,,,,,,,,
13.48.37.833,-59.1,14.8,0,15.0,,92420.3,10.82,-0.48,0.61,0.6,3.6,5.5,-1.3,33.94,,,,,,,,,,
13.48.37.869,-82.7,20.7,0,15.0,,91490.5,10.93,-0.49,0.62,0.6,7.6,7.6,0.2,33.94,,,,,,,,,,
13.48.37.882,-92.8,23.2,0,15.0,,91333.5,10.95,-0.49,0.65,0.6,1.6,5.6,-0.5,33.94,,,,,,,,,,
13.48.37.890,-95.8,24.0,0,15.0,,90426.2,11.06,-0.49,0.63,0.6,3.0,6.8,-0.6,33.94,,,,,,,,,,
13.48.37.902,-105.7,26.4,0,15.0,,89680.0,11.15,-0.49,0.61,0.6,2.2,5.6,1.0,33.94,,,,,,,,,,
13.48.37.911,-100.5,25.1,0,15.0,,91483.2,10.93,-0.48,0.61,0.64,6.4,5.6,2.5,33.94,,,,,,,,,,
13.48.37.923,-107.2,26.8,0,15.0,,91596.0,10.92,-0.49,0.64,0.62,7.8,6.7,5.5,33.94,,,,,,,,,,
13.48.37.931,-116.4,29.1,0,15.0,,91112.1,10.98,-0.47,0.68,0.61,7.0,4.4,7.8,33.94,,,,,,,,,,
13.48.37.943,-121.9,30.5,0,15.0,,88789.2,11.26,-0.47,0.7,0.59,5.0,5.6,7.2,33.94,,,,,,,,,,
13.48.37.952,-119.7,29.9,0,15.0,,90528.8,11.05,-0.48,0.67,0.57,0.7,7.1,5.5,33.94,,,,,,,,,,
13.48.37.964,15.5,3.9,1,16.0,99.8,91146.9,10.97,-0.43,0.65,0.57,-1.8,7.1,4.1,33.94,,,,,,,,,,
13.48.37.972,54.2,13.6,0,16.0,,89812.6,11.13,-0.43,0.62,0.55,-1.5,8.4,4.0,33.94,,,,,,,,,,
13.48.37.984,121.7,30.4,0,16.0,,91762.1,10.9,-0.44,0.61,0.54,0.4,10.5,2.6,33.94,,,,,,,,,,
13.48.37.997,162.9,40.7,0,16.0,,91039.5,10.98,-0.42,0.6,0.55,5.3,11.2,-2.1,33.94,,,,,,,,,,
13.48.38.005,214.8,53.7,0,16.0,,90144.7,11.09,-0.47,0.6,0.58,8.5,8.4,-4.1,33.94,,,,,,,,,,
13.48.38.017,236.8,59.2,0,16.0,,89811.0,11.13,-0.47,0.6,0.61,11.1,7.5,-5.7,33.94,,,,,,,,,,
13.48.38.025,254.4,63.6,0,16.0,,91018.8,10.99,-0.48,0.62,0.6,14.5,10.8,-10.0,33.94,,,,,,,,,,
13.48.38.038,295.2,73.8,0,16.0,,91426.6,10.94,-0.49,0.65,0.61,12.9,7.1,-11.9,33.94,,,,,,,,,,
13.48.38.046,296.0,74.0,0,16.0,,89827.5,11.13,-0.49,0.65,0.6,13.7,6.1,-11.7,33.94,,,,,,,,,,
13.48.38.060,323.2,80.8,0,16.0,,90699.2,11.03,-0.49,0.65,0.59,14.2,8.7,-11.3,33.94,,,,,,,,,,
13.48.38.066,323.6,80.9,0,16.0,,91366.7,10.94,-0.5,0.66,0.58,13.0,6.6,-9.9,33.94,,,,,,,,,,
13.48.38.079,336.4,84.1,0,16.0,,90036.6,11.11,-0.5,0.66,0.58,12.4,6.1,-9.4,33.94,,,,,,,,,,
13.48.38.091,263.3,65.8,0,16.0,,91753.3,10.9,-0.49,0.67,0.58,10.8,7.4,-9.7,33.94,,,,,,,,,,
13.48.38.099,276.7,69.2,0,16.0,,90995.4,10.99,-0.49,0.66,0.58,9.2,6.4,-9.5,33.94,,,,,,,,,,
13.48.38.111,223.4,55.8,0,16.0,,90867.0,11.01,-0.49,0.66,0.58,8.7,5.0,-8.9,33.94,,,,,,,,,,
13.48.38.120,195.5,48.9,0,16.0,,91748.5,10.9,-0.48,0.63,0.58,9.3,5.3,-8.8,33.94,,,,,,,,,,
13.48.38.132,145.5,36.4,0,16.0,,91932.6,10.88,-0.49,0.64,0.59,10.1,3.9,-7.6,33.94,,,,,,,,,,
13.48.38.140,97.9,24.5,0,16.0,,90055.2,11.1,-0.48,0.62,0.58,11.4,3.7,-7.5,33.94,,,,,,,,,,
13.48.38.152,51.3,12.8,0,16.0,,91905.4,10.88,-0.49,0.62,0.58,12.5,2.4,-8.3,33.94,,,,,,,,,,
13.48.38.160,4.9,1.2,0,16.0,,92183.9,10.85,-0.48,0.62,0.57,13.7,3.1,-8.9,33.94,,,,,,,,,,
13.48.38.173,18.6,4.6,0,16.0,,90406.7,11.06,-0.49,0.63,0.58,14.4,3.3,-9.3,33.94,,,,,,,,,,
13.48.38.185,30.1,7.5,0,16.0,,91496.6,10.93,-0.48,0.61,0.57,14.3,3.9,-10.2,33.94,,,,,,,,,,
13.48.38.193,36.8,9.2,0,16.0,,90807.9,11.01,-0.48,0.62,0.58,14.4,3.7,-9.3,33.94,,,,,,,,,,
13.48.38.206,57.1,14.3,0,16.0,,90947.4,11.0,-0.48,0.62,0.57,15.1,4.5,-9.0,33.94,,,,,,,,,,
13.48.38.214,48.9,12.2,0,16.0,,91185.5,10.97,-0.47,0.63,0.57,15.7,4.4,-8.2,33.94,,,,,,,,,,
13.48.38.226,53.0,13.2,0,16.0,,89559.8,11.17,-0.48,0.63,0.57,17.1,3.1,-7.1,33.94,,,,,,,,,,
13.48.38.234,51.6,12.9,0,16.0,,89498.1,11.17,-0.47,0.64,0.57,17.7,3.7,-6.8,33.94,,,,,,,,,,
13.48.38.246,54.0,13.5,0,16.0,,89598.0,11.16,-0.48,0.65,0.57,17.1,5.0,-7.0,33.94,,,,,,,,,,
13.48.38.255,27.0,6.8,0,16.0,,91997.8,10.87,-0.48,0.64,0.57,17.9,4.1,-7.1,33.94,,,,,,,,,,
13.48.38.267,15.0,3.8,0,16.0,,91271.2,10.96,-0.48,0.65,0.58,18.2,3.2,-6.9,33.94,,,,,,,,,,
13.48.38.279,-14.7,3.7,0,16.0,,90683.9,11.03,-0.49,0.66,0.57,17.6,4.9,-7.1,33.94,,,,,,,,,,
13.48.38.288,-2.0,0.5,0,16.0,,92136.2,10.85,-0.48,0.65,0.56,16.1,6.1,-6.5,33.94,,,,,,,,,,
13.48.38.300,-11.7,2.9,0,16.0,,91459.6,10.93,-0.5,0.66,0.55,16.0,4.6,-4.9,33.94,,,,,,,,,,
13.48.38.308,-8.2,2.0,0,16.0,,91706.2,10.9,-0.5,0.65,0.55,16.0,5.3,-3.1,33.94,,,,,,,,,,
13.48.38.320,-26.5,6.6,0,16.0,,92214.8,10.84,-0.5,0.65,0.55,14.3,5.9,-2.3,33.94,,,,,,,,,,
13.48.38.328,-31.8,8.0,0,16.0,,88756.0,11.27,-0.5,0.65,0.54,13.1,5.4,-1.0,33.94,,,,,,,,,,
13.48.38.341,-27.4,6.8,0,16.0,,90808.0,11.01,-0.51,0.65,0.54,13.7,4.8,0.4,33.94,,,,,,,,,,
13.48.38.349,-49.5,12.4,0,16.0,,91866.7,10.89,-0.51,0.65,0.55,14.5,4.8,0.9,33.94,,,,,,,,,,
13.48.38.361,-41.1,10.3,0,16.0,,91727.8,10.9,-0.51,0.65,0.55,16.5,5.5,0.6,33.94,,,,,,,,,,
13.48.38.370,-42.5,10.6,0,16.0,,90235.1,11.08,-0.51,0.65,0.55,18.3,4.3,-0.4,33.94,,,,,,,,,,
13.48.38.382,-57.9,14.5,0,16.0,,90637.9,11.03,-0.5,0.66,0.56,18.6,4.0,-1.9,33.94,,,,,,,,,,
13.48.38.394,-63.4,15.8,0,16.0,,91111.6,10.98,-0.5,0.68,0.54,18.8,5.7,-2.9,33.94,,,,,,,,,,
13.48.38.402,-70.2,17.6,0,16.0,,91304.0,10.95,-0.49,0.68,0.53,18.1,4.5,-2.8,33.94,,,,,,,,,,
13.48.38.415,-78.5,19.6,0,16.0,,91357.4,10.95,-0.49,0.69,0.52,17.8,5.1,-2.4,33.94,,,,,,,,,,
13.48.38.423,-73.8,18.4,0,16.0,,90920.9,11.0,-0.49,0.69,0.51,18.1,6.5,-1.8,33.94,,,,,,,,,,
13.48.38.435,-89.1,22.3,0,16.0,,90620.3,11.04,-0.49,0.7,0.51,17.3,6.1,-1.5,33.94,,,,,,,,,,
13.48.38.443,-94.3,23.6,0,16.0,,90752.1,11.02,-0.48,0.71,0.5,16.6,5.9,-1.2,33.94,,,,,,,,,,
13.48.38.455,-77.4,19.4,0,16.0,,92821.1,10.77,-0.48,0.71,0.49,16.9,6.3,-0.9,33.94,,,,,,,,,,
13.48.38.464,-96.3,24.1,0,16.0,,90262.5,11.08,-0.48,0.71,0.48,16.6,6.7,-0.7,33.94,,,,,,,,,,
13.48.38.476,-100.7,25.2,0,16.0,,90645.0,11.03,-0.48,0.71,0.48,15.1,6.5,-0.5,33.94,,,,,,,,,,
13.48.38.484,-101.8,25.4,0,16.0,,91830.1,10.89,-0.48,0.72,0.47,13.5,6.1,0.2,33.94,,,,,,,,,,
13.48.38.496,-100.5,25.1,0,16.0,,90881.5,11.0,-0.48,0.71,0.48,12.2,6.4,0.0,33.94,,,,,,,,,,
13.48.38.506,-107.4,26.8,0,16.0,,90702.2,11.03,-0.48,0.7,0.49,11.0,7.2,-0.7,33.94,,,,,,,,,,
13.48.38.517,-143.3,35.8,0,16.0,,90522.0,11.05,-0.49,0.69,0.5,11.6,6.9,-0.9,33.94,,,,,,,,,,
13.48.38.525,-114.5,28.6,0,16.0,,91781.0,10.9,-0.49,0.67,0.51,12.4,6.9,-2.0,33.94,,,,,,,,,,
13.48.38.537,3.5,0.9,1,17.0,104.9,91365.4,10.95,-0.5,0.68,0.52,13.6,5.5,-3.2,33.94,,,,,,,,,,
13.48.38.546,45.9,11.5,0,17.0,,91934.6,10.88,-0.5,0.68,0.53,15.1,4.4,-4.7,33.94,,,,,,,,,,
13.48.38.558,102.7,25.7,0,17.0,,90725.2,11.02,-0.5,0.69,0.52,15.1,3.7,-6.4,33.94,,,,,,,,,,
13.48.38.566,143.9,36.0,0,17.0,,92557.8,10.8,-0.51,0.7,0.53,15.5,3.1,-7.3,33.94,,,,,,,,,,
13.48.38.578,196.1,49.0,0,17.0,,90658.0,11.03,-0.51,0.7,0.51,15.0,2.8,-7.9,33.94,,,,,,,,,,
13.48.38.587,227.5,56.9,0,17.0,,90852.5,11.01,-0.51,0.71,0.5,15.3,2.7,-8.4,33.94,,,,,,,,,,
13.48.38.600,272.6,68.2,0,17.0,,92436.5,10.82,-0.51,0.72,0.49,16.6,1.9,-7.4,33.94,,,,,,,,,,
13.48.38.607,259.0,64.8,0,17.0,,91101.1,10.98,-0.51,0.72,0.48,17.0,1.9,-6.9,33.94,,,,,,,,,,
13.48.38.619,312.5,78.1,0,17.0,,90987.4,10.99,-0.5,0.72,0.46,15.0,1.8,-6.8,33.94,,,,,,,,,,
13.48.38.627,312.0,78.0,0,17.0,,89759.1,11.14,-0.5,0.73,0.46,13.3,-0.3,-5.4,33.94,,,,,,,,,,
13.48.38.640,311.3,77.8,0,17.0,,90903.0,11.0,-0.51,0.73,0.46,10.8,-0.8,-4.4,33.94,,,,,,,,,,
13.48.38.676,265.5,66.4,0,17.0,,92099.1,10.86,-0.51,0.74,0.47,8.7,-0.9,-4.3,33.94,,,,,,,,,,
13.48.38.685,238.2,59.6,0,17.0,,90281.9,11.08,-0.5,0.72,0.5,3.7,-4.4,0.0,33.94,,,,,,,,,,
13.48.38.697,201.7,50.4,0,17.0,,89244.1,11.21,-0.5,0.71,0.5,4.4,-4.6,0.8,33.94,,,,,,,,,,
13.48.38.705,165.0,41.2,0,17.0,,91034.9,10.98,-0.5,0.7,0.5,5.7,-4.5,1.5,33.94,,,,,,,,,,
13.48.38.718,106.8,26.7,0,17.0,,89460.6,11.18,-0.49,0.7,0.5,7.8,-5.0,1.7,33.94,,,,,,,,,,
13.48.38.730,40.6,10.2,0,17.0,,91595.6,10.92,-0.48,0.7,0.5,9.8,-4.5,1.5,33.94,,,,,,,,,,
13.48.38.738,3.2,0.8,0,17.0,,91629.8,10.91,-0.47,0.71,0.49,11.6,-4.4,1.2,33.94,,,,,,,,,,
13.48.38.751,15.7,3.9,0,17.0,,92730.8,10.78,-0.47,0.71,0.49,13.5,-4.7,0.8,33.94,107.5,,,,,,,,,
13.48.38.759,29.3,7.3,0,17.0,,91584.9,10.92,-0.46,0.71,0.48,14.5,-4.1,0.3,33.94,,,,,,,,,,
13.48.38.771,38.5,9.6,0,17.0,,91501.3,10.93,-0.46,0.71,0.47,14.1,-4.0,-0.4,33.94,,,,,,,,,,
13.48.38.779,47.3,11.8,0,17.0,,90419.2,11.06,-0.45,0.72,0.48,14.4,-2.8,-0.1,33.94,,,,,,,,,,
13.48.38.792,59.3,14.8,0,17.0,,89612.1,11.16,-0.46,0.73,0.47,14.5,-4.0,0.1,33.94,,,,,,,,,,
13.48.38.804,60.4,15.1,0,17.0,,90619.2,11.04,-0.45,0.73,0.47,12.3,-3.0,-1.3,33.94,,,,,,,,,,
13.48.38.812,41.4,10.4,0,17.0,,91447.1,10.94,-0.44,0.75,0.48,10.8,0.5,-2.8,33.94,,,,,,,,,,
13.48.38.824,37.2,9.3,0,17.0,,91899.2,10.88,-0.44,0.75,0.46,10.3,0.5,-2.5,33.94,,,,,,,,,,
13.48.38.832,34.7,8.7,0,17.0,,91434.9,10.94,-0.44,0.76,0.47,10.2,-0.1,-1.8,33.94,,,,,,,,,,
13.48.38.845,11.5,2.9,0,17.0,,91223.3,10.96,-0.43,0.76,0.46,8.8,1.1,-1.9,33.94,,,,,,,,,,
13.48.38.854,-0.2,0.0,0,17.0,,92143.4,10.85,-0.44,0.76,0.46,6.9,2.6,-1.7,33.94,,,,,,,,,,
13.48.38.865,3.8,1.0,0,17.0,,90910.6,11.0,-0.43,0.76,0.45,4.8,3.2,-1.4,33.94,,,,,,,,,,
13.48.38.873,-17.6,4.4,0,17.0,,91825.8,10.89,-0.44,0.77,0.44,1.7,3.5,-1.3,33.94,,,,,,,,,,
13.48.38.886,-17.9,4.5,0,17.0,,90429.2,11.06,-0.43,0.77,0.46,-1.7,4.6,-1.4,33.94,,,,,,,,,,
13.48.38.894,-32.2,8.0,0,17.0,,91751.5,10.9,-0.44,0.77,0.46,-4.4,4.7,-1.7,33.94,,,,,,,,,,
13.48.38.906,-16.5,4.1,0,17.0,,90703.7,11.02,-0.43,0.75,0.46,-6.5,5.5,-1.8,33.94,,,,,,,,,,
13.48.38.914,-32.9,8.2,0,17.0,,90872.5,11.0,-0.44,0.74,0.48,-7.7,6.6,-2.6,33.94,,,,,,,,,,
13.48.38.927,-32.0,8.0,0,17.0,,91399.4,10.94,-0.45,0.74,0.48,-9.0,7.7,-3.4,33.94,,,,,,,,,,
13.48.38.935,-48.2,12.0,0,17.0,,91887.6,10.88,-0.46,0.73,0.48,-10.0,7.5,-3.7,33.94,,,,,,,,,,
13.48.38.947,-44.6,11.2,0,17.0,,91534.1,10.92,-0.47,0.72,0.48,-9.6,7.8,-4.0,33.94,,,,,,,,,,
13.48.38.955,-47.1,11.8,0,17.0,,91484.7,10.93,-0.47,0.71,0.49,-8.5,8.5,-4.1,33.94,,,,,,,,,,
13.48.38.968,-57.7,14.4,0,17.0,,91025.4,10.99,-0.48,0.71,0.48,-8.1,8.9,-4.3,33.94,,,,,,,,,,
13.48.38.980,-61.3,15.3,0,17.0,,91335.7,10.95,-0.48,0.7,0.49,-7.6,8.2,-4.9,33.94,,,,,,,,,,
13.48.38.988,-61.6,15.4,0,17.0,,90037.3,11.11,-0.49,0.7,0.49,-6.9,7.9,-4.8,33.94,,,,,,,,,,
13.48.39.000,-58.2,14.6,0,17.0,,91524.7,10.93,-0.49,0.7,0.5,-5.8,7.3,-5.2,33.94,,,,,,,,,,
13.48.39.008,-89.6,22.4,0,17.0,,91120.6,10.97,-0.49,0.69,0.49,-3.1,7.0,-4.6,33.94,,,,,,,,,,
13.48.39.021,-77.4,19.4,0,17.0,,89940.0,11.12,-0.48,0.68,0.49,0.2,5.9,-3.7,33.94,,,,,,,,,,
13.48.39.029,-81.5,20.4,0,17.0,,89989.7,11.11,-0.48,0.69,0.49,3.9,5.3,-3.2,33.94,,,,,,,,,,
13.48.39.041,-94.1,23.5,0,17.0,,92594.3,10.8,-0.48,0.7,0.49,7.0,5.6,-2.8,33.94,,,,,,,,,,
13.48.39.050,-90.9,22.7,0,17.0,,91626.4,10.91,-0.48,0.71,0.48,9.7,4.4,-1.9,33.94,,,,,,,,,,
13.48.39.062,-98.8,24.7,0,17.0,,91416.8,10.94,-0.48,0.71,0.48,11.8,4.5,-1.6,33.94,,,,,,,,,,
13.48.39.070,-118.2,29.6,0,17.0,,90271.1,11.08,-0.48,0.72,0.48,13.2,4.9,-1.0,33.94,,,,,,,,,,
13.48.39.082,-101.0,25.2,0,17.0,,92373.9,10.83,-0.49,0.73,0.47,11.8,4.4,-0.2,33.94,,,,,,,,,,
13.48.39.091,-119.4,29.8,0,17.0,,90252.8,11.08,-0.49,0.75,0.48,9.5,4.7,0.0,33.94,,,,,,,,,,
13.48.39.103,-128.1,32.0,0,17.0,,91067.6,10.98,-0.49,0.75,0.47,5.6,4.8,0.3,33.94,,,,,,,,,,
13.48.39.111,-134.8,33.7,0,17.0,,91130.4,10.97,-0.49,0.75,0.47,1.8,4.2,0.8,33.94,,,,,,,,,,
13.48.39.124,56.0,14.0,1,18.0,101.4,88821.1,11.26,-0.49,0.74,0.49,-0.9,5.5,1.1,33.94,,,,,,,,,,
13.48.39.131,97.6,24.4,0,18.0,,90764.0,11.02,-0.49,0.72,0.47,-2.8,5.7,0.9,33.94,,,,,,,,,,
13.48.39.144,148.2,37.0,0,18.0,,91641.0,10.91,-0.49,0.71,0.48,-4.3,5.0,0.8,33.94,,,,,,,,,,
13.48.39.152,188.8,47.2,0,18.0,,91525.6,10.93,-0.49,0.69,0.49,-4.5,5.6,0.6,33.94,,,,,,,,,,
13.48.39.164,244.7,61.2,0,18.0,,90716.5,11.02,-0.5,0.69,0.5,-4.0,5.5,0.2,33.94,,,,,,,,,,
13.48.39.172,246.2,61.6,0,18.0,,90730.9,11.02,-0.5,0.69,0.51,-2.6,5.3,-0.8,33.94,,,,,,,,,,
13.48.39.185,305.5,76.4,0,18.0,,90864.8,11.01,-0.5,0.69,0.51,-0.9,5.0,-1.3,33.94,,,,,,,,,,
13.48.39.193,327.2,81.8,0,18.0,,91043.6,10.98,-0.5,0.69,0.51,0.8,3.9,-1.6,33.94,,,,,,,,,,
13.48.39.206,323.5,80.9,0,18.0,,90643.8,11.03,-0.49,0.7,0.51,2.2,3.9,-1.5,33.94,,,,,,,,,,
13.48.39.213,329.0,82.2,0,18.0,,91324.0,10.95,-0.49,0.71,0.5,3.2,3.7,-1.8,33.94,,,,,,,,,,
13.48.39.226,339.0,84.8,0,18.0,,91448.4,10.94,-0.49,0.71,0.5,3.5,2.7,-1.9,33.94,,,,,,,,,,
13.48.39.238,312.1,78.0,0,18.0,,91717.9,10.9,-0.48,0.71,0.5,2.9,2.6,-2.0,33.94,,,,,,,,,,
13.48.39.246,283.7,70.9,0,18.0,,91612.0,10.92,-0.48,0.71,0.5,2.5,3.6,-2.5,33.94,,,,,,,,,,
13.48.39.258,237.6,59.4,0,18.0,,92249.4,10.84,-0.47,0.71,0.49,2.3,3.2,-1.9,33.94,,,,,,,,,,
13.48.39.267,233.6,58.4,0,18.0,,90570.1,11.04,-0.47,0.71,0.48,2.5,3.5,-2.1,33.94,,,,,,,,,,
13.48.39.279,158.9,39.7,0,18.0,,91191.5,10.97,-0.47,0.72,0.48,2.8,4.9,-2.7,33.94,,,,,,,,,,
13.48.39.291,112.7,28.2,0,18.0,,90438.6,11.06,-0.47,0.71,0.47,3.1,4.7,-2.9,33.94,,,,,,,,,,
13.48.39.300,69.1,17.3,0,18.0,,90742.2,11.02,-0.48,0.72,0.48,3.0,5.3,-2.8,33.94,,,,,,,,,,
13.48.39.312,24.1,6.0,0,18.0,,90890.2,11.0,-0.47,0.72,0.48,2.7,6.3,-3.1,33.94,,,,,,,,,,
13.48.39.320,14.7,3.7,0,18.0,,90568.5,11.04,-0.47,0.72,0.48,2.3,6.1,-3.1,33.94,,,,,,,,,,
13.48.39.332,28.4,7.1,0,18.0,,91868.6,10.89,-0.48,0.72,0.49,3.2,6.2,-2.7,33.94,,,,,,,,,,
13.48.39.340,39.3,9.8,0,18.0,,91097.0,10.98,-0.48,0.72,0.48,3.6,5.9,-2.4,33.94,,,,,,,,,,
13.48.39.353,50.4,12.6,0,18.0,,91040.1,10.98,-0.47,0.73,0.48,3.3,5.3,-2.1,33.94,,,,,,,,,,
13.48.39.361,55.2,13.8,0,18.0,,91516.8,10.93,-0.47,0.73,0.48,3.7,5.4,-1.9,33.94,,,,,,,,,,
13.48.39.373,60.1,15.0,0,18.0,,91470.9,10.93,-0.47,0.73,0.47,3.9,5.2,-2.1,33.94,,,,,,,,,,
13.48.39.381,64.8,16.2,0,18.0,,90936.3,11.0,-0.47,0.73,0.47,4.3,5.5,-1.7,33.94,,,,,,,,,,
13.48.39.394,46.2,11.6,0,18.0,,91003.8,10.99,-0.47,0.73,0.47,4.1,6.4,-2.1,33.94,,,,,,,,,,
13.48.39.403,37.8,9.4,0,18.0,,92941.5,10.76,-0.47,0.73,0.46,4.4,6.7,-2.1,33.94,,,,,,,,,,
13.48.39.414,27.7,6.9,0,18.0,,90619.8,11.04,-0.48,0.73,0.46,4.0,6.9,-1.5,33.94,,,,,,,,,,
13.48.39.422,15.0,3.8,0,18.0,,90793.2,11.01,-0.47,0.73,0.46,4.0,7.1,-1.1,33.94,,,,,,,,,,
13.48.39.435,-11.9,3.0,0,18.0,,90244.7,11.08,-0.48,0.73,0.47,4.1,6.3,-0.9,33.94,,,,,,,,,,
13.48.39.443,-14.1,3.5,0,18.0,,91878.3,10.88,-0.48,0.72,0.47,4.3,6.2,-0.8,33.94,,,,,,,,,,
13.48.39.480,-20.0,5.0,0,18.0,,89963.6,11.12,-0.48,0.72,0.47,4.4,6.1,-0.4,33.94,,,,,,,,,,
13.48.39.492,-27.8,7.0,0,18.0,,91284.3,10.95,-0.48,0.73,0.48,4.5,5.5,-0.2,33.94,,,,,,,,,,
13.48.39.500,-38.5,9.6,0,18.0,,90074.0,11.1,-0.48,0.72,0.47,5.5,5.3,0.5,33.94,,,,,,,,,,
13.48.39.512,-30.3,7.6,0,18.0,,92524.1,10.81,-0.48,0.72,0.47,6.7,4.7,0.4,33.94,,,,,,,,,,
13.48.39.521,-41.6,10.4,0,18.0,,89442.4,11.18,-0.47,0.72,0.46,7.1,5.1,0.4,33.94,,,,,,,,,,
13.48.39.529,-52.5,13.1,0,18.0,,90340.4,11.07,-0.47,0.72,0.47,7.5,5.1,0.3,33.94,,,,,,,,,,
13.48.39.541,-62.3,15.6,0,18.0,,90830.5,11.01,-0.48,0.74,0.47,7.5,5.1,-0.1,33.94,,,,,,,,,,
13.48.39.553,-61.9,15.5,0,18.0,,92035.1,10.87,-0.47,0.73,0.46,6.7,5.7,-1.0,33.94,,,,,,,,,,
13.48.39.566,-60.5,15.1,0,18.0,,89551.5,11.17,-0.48,0.74,0.47,5.9,4.9,-0.8,33.94,,,,,,,,,,
13.48.39.574,-69.4,17.4,0,18.0,,90951.4,10.99,-0.48,0.74,0.46,5.1,5.7,-0.9,33.94,,,,,,,,,,
13.48.39.586,-69.1,17.3,0,18.0,,90319.8,11.07,-0.48,0.74,0.47,4.2,5.8,-1.5,33.94,,,,,,,,,,
13.48.39.598,-84.5,21.1,0,18.0,,91290.0,10.95,-0.47,0.74,0.46,4.1,5.7,-1.6,33.94,,,,,,,,,,
13.48.39.607,-92.6,23.2,0,18.0,,91044.9,10.98,-0.48,0.74,0.47,4.2,6.0,-2.1,33.94,,,,,,,,,,
13.48.39.619,-83.1,20.8,0,18.0,,90925.4,11.0,-0.48,0.74,0.47,5.0,6.1,-2.5,33.94,,,,,,,,,,
13.48.39.631,-117.1,29.3,0,18.0,,90840.1,11.01,-0.48,0.74,0.46,5.2,5.7,-2.1,33.94,,,,,,,,,,
13.48.39.640,-107.6,26.9,0,18.0,,90796.9,11.01,-0.48,0.75,0.46,4.5,5.9,-2.3,33.94,,,,,,,,,,
13.48.39.652,-111.5,27.9,0,18.0,,90073.0,11.1,-0.48,0.74,0.45,3.6,6.2,-2.1,33.94,,,,,,,,,,
13.48.39.664,-110.2,27.6,0,18.0,,89113.2,11.22,-0.48,0.74,0.45,2.9,5.8,-1.7,33.94,,,,,,,,,,
13.48.39.672,-111.0,27.8,0,18.0,,90669.4,11.03,-0.48,0.74,0.46,1.5,6.2,-1.7,33.94,,,,,,,,,,
13.48.39.684,-116.8,29.2,0,18.0,,91226.1,10.96,-0.48,0.74,0.46,0.4,6.3,-1.6,33.94,,,,,,,,,,
13.48.39.697,51.4,12.8,1,19.0,103.9,91520.0,10.93,-0.49,0.72,0.46,1.2,6.1,-1.1,33.94,,,,,,,,,,
13.48.39.705,69.6,17.4,0,19.0,,90483.3,11.05,-0.48,0.72,0.47,1.1,5.1,-0.5,33.94,,,,,,,,,,
13.48.39.718,141.7,35.4,0,19.0,,91770.7,10.9,-0.49,0.72,0.47,1.5,5.3,-0.3,33.94,,,,,,,,,,
13.48.39.729,195.2,48.8,0,19.0,,89694.2,11.15,-0.5,0.72,0.47,2.1,4.4,-0.4,33.94,,,,,,,,,,
13.48.39.742,229.5,57.4,0,19.0,,91336.3,10.95,-0.49,0.72,0.47,2.5,3.1,-0.1,33.94,,,,,,,,,,
13.48.39.750,246.9,61.7,0,19.0,,91865.0,10.89,-0.49,0.72,0.47,2.8,2.9,-0.8,33.94,,,,,,,,,,
13.48.39.762,286.3,71.6,0,19.0,,90908.6,11.0,-0.47,0.73,0.46,2.5,3.0,-1.1,33.94,,,,,,,,,,
13.48.39.774,330.0,82.5,0,19.0,,90864.2,11.01,-0.48,0.73,0.48,2.3,3.2,-1.2,33.94,,,,,,,,,,
13.48.39.783,305.2,76.3,0,19.0,,91147.6,10.97,-0.47,0.73,0.47,2.2,4.4,-1.5,33.94,,,,,,,,,,
13.48.39.795,321.8,80.4,0,19.0,,90501.3,11.05,-0.47,0.74,0.46,1.5,4.2,-2.4,33.94,,,,,,,,,,
13.48.39.807,273.6,68.4,0,19.0,,92288.5,10.84,-0.47,0.74,0.46,1.3,4.5,-2.4,33.94,,,,,,,,,,
13.48.39.820,285.5,71.4,0,19.0,,90502.2,11.05,-0.47,0.73,0.46,1.5,5.2,-2.5,33.94,,,,,,,,,,
13.48.39.828,233.0,58.2,0,19.0,,90552.7,11.04,-0.47,0.73,0.46,0.9,5.9,-2.6,33.94,,,,,,,,,,
13.48.39.840,217.7,54.4,0,19.0,,91740.8,10.9,-0.47,0.75,0.46,0.9,5.8,-2.4,33.94,,,,,,,,,,
13.48.39.852,180.9,45.2,0,19.0,,91137.3,10.97,-0.47,0.75,0.47,0.1,6.0,-2.3,33.94,,,,,,,,,,
13.48.39.861,132.6,33.2,0,19.0,,91144.5,10.97,-0.47,0.74,0.46,-0.7,6.7,-2.6,33.94,,,,,,,,,,
13.48.39.873,83.8,21.0,0,19.0,,90399.2,11.06,-0.47,0.74,0.46,-0.7,6.8,-2.3,33.94,,,,,,,,,,
13.48.39.885,26.8,6.7,0,19.0,,90173.6,11.09,-0.47,0.73,0.46,-0.7,7.1,-2.6,33.94,,,,,,,,,,
13.48.39.897,6.8,1.7,0,19.0,,90952.6,10.99,-0.48,0.73,0.46,-0.9,7.0,-3.1,33.94,,,,,,,,,,
13.48.39.906,23.4,5.8,0,19.0,,89985.9,11.11,-0.47,0.73,0.46,-1.3,7.3,-3.2,33.94,,,,,,,,,,
13.48.39.918,44.1,11.0,0,19.0,,91518.3,10.93,-0.48,0.73,0.46,-0.8,7.5,-3.0,33.94,,,,,,,,,,
13.48.39.930,52.9,13.2,0,19.0,,90597.2,11.04,-0.48,0.74,0.46,-1.2,7.8,-2.7,33.94,,,,,,,,,,
13.48.39.938,56.0,14.0,0,19.0,,90374.7,11.07,-0.48,0.73,0.46,-0.7,7.2,-2.3,33.94,,,,,,,,,,
13.48.39.951,65.0,16.2,0,19.0,,92167.4,10.85,-0.49,0.73,0.46,0.1,6.2,-1.3,33.94,,,,,,,,,,
13.48.39.963,47.4,11.8,0,19.0,,91572.6,10.92,-0.49,0.73,0.47,0.6,6.2,-1.0,33.94,,,,,,,,,,
13.48.39.971,46.9,11.7,0,19.0,,90155.2,11.09,-0.49,0.72,0.47,1.4,5.9,-1.0,33.94,,,,,,,,,,
13.48.39.983,35.9,9.0,0,19.0,,90102.3,11.1,-0.49,0.72,0.46,1.6,5.6,-0.8,33.94,,,,,,,,,,
13.48.39.996,18.5,4.6,0,19.0,,90119.3,11.1,-0.49,0.72,0.47,1.7,5.3,-1.0,33.94,,,,,,,,,,
13.48.40.004,-0.4,0.1,0,19.0,,91665.2,10.91,-0.48,0.72,0.47,1.5,4.9,-0.7,33.94,,,,,,,,,,
13.48.40.016,1.0,0.2,0,19.0,,90519.3,11.05,-0.48,0.72,0.47,1.9,4.3,-1.1,33.94,,,,,,,,,,
13.48.40.028,-2.4,0.6,0,19.0,,91650.2,10.91,-0.48,0.73,0.47,2.6,4.7,-0.7,33.94,,,,,,,,,,
13.48.40.041,-12.3,3.1,0,19.0,,90261.9,11.08,-0.47,0.74,0.48,2.5,4.8,-0.8,33.94,,,,,,,,,,
13.48.40.049,-22.5,5.6,0,19.0,,91443.7,10.94,-0.48,0.74,0.47,1.6,4.7,-1.3,33.94,,,,,,,,,,
13.48.40.061,-25.3,6.3,0,19.0,,92720.3,10.79,-0.48,0.74,0.46,0.9,4.5,-1.4,33.94,,,,,,,,,,
13.48.40.074,-39.9,10.0,0,19.0,,90935.0,11.0,-0.48,0.75,0.46,0.7,5.1,-1.3,33.94,,,,,,,,,,
13.48.40.082,-34.6,8.6,0,19.0,,90439.6,11.06,-0.47,0.74,0.46,0.4,5.2,-1.8,33.94,,,,,,,,,,
13.48.40.094,-34.1,8.5,0,19.0,,90522.4,11.05,-0.46,0.73,0.45,0.5,5.4,-1.8,33.94,,,,,,,,,,
13.48.40.106,-43.8,11.0,0,19.0,,91621.0,10.91,-0.47,0.74,0.46,0.8,5.3,-1.9,33.94,,,,,,,,,,
13.48.40.115,-58.2,14.6,0,19.0,,90230.5,11.08,-0.47,0.74,0.46,1.4,6.3,-2.2,33.94,,,,,,,,,,
13.48.40.127,-55.7,13.9,0,19.0,,91222.9,10.96,-0.47,0.74,0.46,1.6,6.1,-2.1,33.94,,,,,,,,,,
13.48.40.139,-69.8,17.4,0,19.0,,92742.1,10.78,-0.47,0.74,0.46,2.2,5.9,-1.6,33.94,,,,,,,,,,
13.48.40.147,-70.0,17.5,0,19.0,,92341.6,10.83,-0.47,0.74,0.45,2.2,6.7,-1.5,33.94,,,,,,,,,,
13.48.40.160,-75.2,18.8,0,19.0,,91841.6,10.89,-0.47,0.75,0.46,1.1,6.9,-1.7,33.94,,,,,,,,,,
13.48.40.172,-86.0,21.5,0,19.0,,91230.3,10.96,-0.47,0.74,0.45,0.3,6.5,-1.6,33.94,,,,,,,,,,
13.48.40.180,-90.7,22.7,0,19.0,,90546.9,11.04,-0.47,0.74,0.45,-0.3,6.1,-1.4,33.94,,,,,,,,,,
13.48.40.192,-92.5,23.1,0,19.0,,90962.8,10.99,-0.47,0.73,0.45,-0.5,6.5,-1.6,33.94,,,,,,,,,,
13.48.40.205,-98.4,24.6,0,19.0,,89255.4,11.2,-0.48,0.73,0.46,0.2,6.5,-1.2,33.94,,,,,,,,,,
13.48.40.217,-101.7,25.4,0,19.0,,90382.8,11.06,-0.48,0.73,0.46,0.9,6.5,-1.4,33.94,,,,,,,,,,
13.48.40.225,-117.7,29.4,0,19.0,,92351.0,10.83,-0.47,0.73,0.46,2.1,6.6,-1.3,33.94,,,,,,,,,,
13.48.40.238,-107.1,26.8,0,19.0,,93125.9,10.74,-0.48,0.73,0.45,3.6,6.6,-0.8,33.94,,,,,,,,,,
13.48.40.250,-134.8,33.7,0,19.0,,90880.9,11.0,-0.48,0.73,0.45,4.4,6.3,-0.3,33.94,,,,,,,,,,
13.48.40.291,131.7,32.9,1,20.0,105.1,88439.8,11.31,-0.48,0.74,0.45,3.7,7.0,0.4,33.94,,,,,,,,,,
13.48.40.300,142.6,35.6,0,20.0,,90878.4,11.0,-0.48,0.74,0.45,3.7,6.6,0.3,33.94,,,,,,,,,,
13.48.40.311,187.8,47.0,0,20.0,,92232.4,10.84,-0.48,0.74,0.46,3.0,5.6,0.1,33.94,,,,,,,,,,
13.48.40.323,255.7,63.9,0,20.0,,91784.3,10.9,-0.48,0.74,0.46,3.0,7.0,-0.2,33.94,,,,,,,,,,
13.48.40.333,283.1,70.8,0,20.0,,92215.8,10.84,-0.48,0.74,0.45,2.2,7.0,-1.0,33.94,,,,,,,,,,
13.48.40.344,295.7,73.9,0,20.0,,90968.3,10.99,-0.48,0.74,0.46,1.1,6.4,-1.4,33.94,,,,,,,,,,
13.48.40.356,303.4,75.8,0,20.0,,91082.2,10.98,-0.48,0.74,0.46,0.5,6.6,-1.3,33.94,,,,,,,,,,
13.48.40.369,283.8,71.0,0,20.0,,90360.2,11.07,-0.48,0.74,0.46,1.0,6.6,-1.8,33.94,,,,,,,,,,
13.48.40.377,302.3,75.6,0,20.0,,91498.9,10.93,-0.48,0.73,0.46,1.4,6.5,-1.4,33.94,,,,,,,,,,
13.48.40.389,314.6,78.6,0,20.0,,90822.0,11.01,-0.49,0.73,0.46,1.5,6.1,-1.6,33.94,,,,,,,,,,
13.48.40.401,274.7,68.7,0,20.0,,91220.6,10.96,-0.48,0.73,0.46,1.7,6.2,-1.6,33.94,,,,,,,,,,
13.48.40.414,238.4,59.6,0,20.0,,91338.3,10.95,-0.48,0.74,0.46,1.0,5.8,-2.0,33.94,,,,,,,,,,
13.48.40.422,195.4,48.8,0,20.0,,90778.3,11.02,-0.48,0.74,0.45,1.1,6.1,-2.1,33.94,,,,,,,,,,
13.48.40.434,153.0,38.2,0,20.0,,92287.2,10.84,-0.48,0.74,0.46,0.1,6.2,-2.2,33.94,,,,,,,,,,
13.48.40.446,99.4,24.8,0,20.0,,91559.7,10.92,-0.48,0.74,0.46,-1.9,6.2,-2.2,33.94,,,,,,,,,,
13.48.40.459,31.3,7.8,0,20.0,,90862.8,11.01,-0.48,0.74,0.46,-3.3,7.0,-2.9,33.94,,,,,,,,,,
13.48.40.468,8.4,2.1,0,20.0,,90380.4,11.06,-0.48,0.74,0.46,-4.5,6.2,-3.0,33.94,,,,,,,,,,
13.48.40.479,20.5,5.1,0,20.0,,90157.2,11.09,-0.48,0.73,0.46,-4.5,5.7,-3.7,33.94,,,,,,,,,,
13.48.40.491,31.6,7.9,0,20.0,,90382.8,11.06,-0.47,0.73,0.46,-3.1,5.8,-4.3,33.94,,,,,,,,,,
13.48.40.500,36.3,9.1,0,20.0,,90684.9,11.03,-0.48,0.72,0.46,-3.2,5.0,-4.7,33.94,,,,,,,,,,
13.48.40.512,55.0,13.8,0,20.0,,90420.7,11.06,-0.48,0.74,0.46,-2.8,6.0,-5.6,33.94,,,,,,,,,,
13.48.40.524,57.8,14.4,0,20.0,,89973.1,11.11,-0.48,0.74,0.47,-3.7,6.2,-5.8,33.94,,,,,,,,,,
13.48.40.532,48.3,12.1,0,20.0,,92018.7,10.87,-0.48,0.75,0.46,-5.5,7.0,-6.5,33.94,,,,,,,,,,
13.48.40.545,37.4,9.4,0,20.0,,90762.4,11.02,-0.47,0.76,0.45,-8.2,6.4,-6.2,33.94,,,,,,,,,,
13.48.40.557,37.5,9.4,0,20.0,,91648.5,10.91,-0.47,0.75,0.45,-9.0,5.9,-6.4,33.94,,,,,,,,,,
13.48.40.565,27.1,6.8,0,20.0,,90741.5,11.02,-0.47,0.73,0.45,-8.8,7.4,-6.2,33.94,,,,,,,,,,
13.48.40.578,5.0,1.2,0,20.0,,89746.8,11.14,-0.48,0.73,0.46,-8.2,6.2,-5.9,33.94,,,,,,,,,,
13.48.40.590,-7.8,2.0,0,20.0,,89662.9,11.15,-0.48,0.74,0.46,-7.3,7.2,-5.9,33.94,,,,,,,,,,
13.48.40.602,-16.9,4.2,0,20.0,,90169.4,11.09,-0.48,0.74,0.47,-7.4,7.8,-7.0,33.94,,,,,,,,,,
13.48.40.610,-16.9,4.2,0,20.0,,91547.6,10.92,-0.47,0.73,0.46,-7.8,6.9,-7.5,33.94,,,,,,,,,,
13.48.40.623,-26.4,6.6,0,20.0,,91043.8,10.98,-0.48,0.72,0.46,-7.3,7.6,-8.3,33.94,,,,,,,,,,
13.48.40.635,-22.8,5.7,0,20.0,,91768.2,10.9,-0.48,0.7,0.47,-8.0,6.6,-7.9,33.94,,,,,,,,,,
13.48.40.643,-22.2,5.6,0,20.0,,90952.0,10.99,-0.49,0.71,0.47,-6.4,7.5,-8.2,33.94,,,,,,,,,,
13.48.40.655,-32.3,8.1,0,20.0,,90620.6,11.04,-0.49,0.71,0.46,-4.5,7.5,-7.9,33.94,,,,,,,,,,
13.48.40.668,-46.4,11.6,0,20.0,,91686.8,10.91,-0.5,0.72,0.46,-4.8,7.7,-7.7,33.94,,,,,,,,,,
13.48.40.680,-52.8,13.2,0,20.0,,91564.5,10.92,-0.5,0.72,0.47,-4.5,7.8,-7.5,33.94,,,,,,,,,,
13.48.40.688,-49.7,12.4,0,20.0,,91257.2,10.96,-0.5,0.72,0.47,-3.4,7.1,-7.2,33.94,,,,,,,,,,
13.48.40.701,-59.7,14.9,0,20.0,,91654.7,10.91,-0.5,0.73,0.47,-4.2,8.2,-7.1,33.94,,,,,,,,,,
13.48.40.713,-58.3,14.6,0,20.0,,90139.7,11.09,-0.51,0.73,0.46,-4.5,7.6,-7.7,33.94,,,,,,,,,,
13.48.40.721,-63.7,15.9,0,20.0,,90843.0,11.01,-0.51,0.73,0.48,-4.2,5.8,-7.7,33.94,,,,,,,,,,
13.48.40.733,-78.8,19.7,0,20.0,,91831.0,10.89,-0.51,0.74,0.49,-4.0,5.5,-7.8,33.94,,,,,,,,,,
13.48.40.746,-76.6,19.2,0,20.0,,91031.9,10.99,-0.52,0.73,0.48,-4.9,4.6,-9.2,33.94,,,,,,,,,,
13.48.40.754,-80.8,20.2,0,20.0,,91929.7,10.88,-0.52,0.74,0.48,-6.6,5.7,-10.7,33.94,,,,,,,,,,
13.48.40.766,-94.9,23.7,0,20.0,,91700.2,10.91,-0.52,0.73,0.48,-7.0,6.1,-11.4,33.94,,,,,,,,,,
13.48.40.778,-94.9,23.7,0,20.0,,92014.9,10.87,-0.52,0.73,0.48,-8.6,4.9,-11.4,33.94,,,,,,,,,,
13.48.40.791,-101.3,25.3,0,20.0,,92354.9,10.83,-0.49,0.7,0.48,-11.4,5.4,-11.7,33.94,,,,,,,,,,
13.48.40.799,-103.1,25.8,0,20.0,,90472.2,11.05,-0.5,0.71,0.49,-10.7,3.5,-10.7,33.94,,,,,,,,,,
13.48.40.811,-120.0,30.0,0,20.0,,93157.1,10.73,-0.51,0.69,0.49,-11.4,3.8,-11.8,33.94,,,,,,,,,,
13.48.40.823,-109.8,27.4,0,20.0,,91101.4,10.98,-0.5,0.74,0.5,-12.2,2.6,-14.6,33.94,,,,,,,,,,
13.48.40.836,-120.3,30.1,0,20.0,,91312.6,10.95,-0.5,0.73,0.49,-13.2,0.8,-17.5,33.94,,,,,,,,,,
13.48.40.844,15.2,3.8,1,21.0,99.3,92109.0,10.86,-0.5,0.72,0.47,-15.5,-0.8,-19.3,33.94,,,,,,,,,,
13.48.40.856,79.1,19.8,0,21.0,,91254.1,10.96,-0.5,0.71,0.49,-13.9,-2.8,-20.8,33.94,,,,,,,,,,
13.48.40.869,132.0,33.0,0,21.0,,91421.7,10.94,-0.58,0.66,0.47,-18.7,3.3,-21.8,33.94,,,,,,,,,,
13.48.40.881,183.1,45.8,0,21.0,,92110.5,10.86,-0.51,0.67,0.53,-19.3,4.7,-24.4,33.94,,,,,,,,,,
13.48.40.893,242.1,60.5,0,21.0,,89663.5,11.15,-0.52,0.66,0.51,-13.3,6.4,-30.2,33.94,,,,,,,,,,
13.48.40.901,243.9,61.0,0,21.0,,91828.5,10.89,-0.55,0.62,0.49,-14.2,5.5,-32.5,33.94,,,,,,,,,,
13.48.40.913,291.7,72.9,0,21.0,,90969.0,10.99,-0.55,0.63,0.49,-13.9,4.6,-31.9,33.94,,,,,,,,,,
13.48.40.926,307.9,77.0,0,21.0,,91335.4,10.95,-0.53,0.64,0.52,-9.8,4.4,-32.6,33.94,,,,,,,,,,
13.48.40.938,305.0,76.2,0,21.0,,91836.2,10.89,-0.53,0.64,0.51,-2.3,6.8,-36.1,33.94,,,,,,,,,,
13.48.40.950,345.2,86.3,0,21.0,,89874.8,11.13,-0.54,0.65,0.5,3.1,11.0,-34.0,33.94,,,,,,,,,,
13.48.40.958,304.6,76.2,0,21.0,,89395.9,11.19,-0.55,0.59,0.5,-0.2,5.4,-31.8,33.94,,,,,,,,,,
13.48.40.971,307.5,76.9,0,21.0,,92576.4,10.8,-0.53,0.62,0.51,-6.4,4.6,-27.0,33.94,,,,,,,,,,
13.48.40.983,268.5,67.1,0,21.0,,91605.0,10.92,-0.54,0.61,0.5,1.1,2.9,-21.8,33.94,,,,,,,,,,
13.48.40.995,220.9,55.2,0,21.0,,89644.4,11.16,-0.56,0.62,0.51,4.5,6.6,-20.9,33.94,,,,,,,,,,
13.48.41.003,180.0,45.0,0,21.0,,92970.0,10.76,-0.56,0.6,0.51,2.7,6.4,-22.8,33.94,,,,,,,,,,
13.48.41.016,139.8,35.0,0,21.0,,91013.0,10.99,-0.56,0.58,0.51,8.1,6.7,-26.0,33.94,,,,,,,,,,
13.48.41.028,67.6,16.9,0,21.0,,91223.1,10.96,-0.55,0.59,0.48,13.9,11.1,-23.2,33.94,,,,,,,,,,
13.48.41.041,3.3,0.8,0,21.0,,91800.0,10.89,-0.59,0.58,0.5,21.4,4.2,-21.8,33.94,,,,,,,,,,
13.48.41.049,8.7,2.2,0,21.0,,91313.8,10.95,-0.58,0.6,0.49,23.6,9.9,-21.7,33.94,,,,,,,,,,
13.48.41.090,49.8,12.4,0,21.0,,89448.0,11.18,-0.58,0.57,0.45,19.3,8.0,-8.6,34.0,,,,,,,,,,
13.48.41.102,55.9,14.0,0,21.0,,89211.8,11.21,-0.58,0.65,0.48,19.1,4.4,0.1,34.0,,,,,,,,,,
13.48.41.114,49.8,12.4,0,21.0,,93353.3,10.71,-0.6,0.66,0.47,13.9,9.1,2.5,34.0,,,,,,,,,,
13.48.41.126,45.0,11.2,0,21.0,,91913.8,10.88,-0.6,0.63,0.45,6.8,6.5,3.3,34.0,,,,,,,,,,
13.48.41.136,26.5,6.6,0,21.0,,91342.9,10.95,-0.6,0.65,0.47,8.4,4.2,4.7,34.0,,,,,,,,,,
13.48.41.147,12.6,3.2,0,21.0,,90375.0,11.07,-0.6,0.65,0.48,10.8,6.7,6.1,34.0,,,,,,,,,,
13.48.41.159,-3.5,0.9,0,21.0,,91119.2,10.97,-0.59,0.65,0.49,8.5,3.6,7.2,34.0,,,,,,,,,,
13.48.41.168,-9.5,2.4,0,21.0,,90001.6,11.11,-0.59,0.65,0.5,6.6,2.0,7.4,34.0,,,,,,,,,,
13.48.41.180,-14.2,3.6,0,21.0,,91729.1,10.9,-0.58,0.65,0.5,8.3,4.3,8.1,34.0,,,,,,,,,,
13.48.41.192,-18.7,4.7,0,21.0,,90260.0,11.08,-0.58,0.63,0.49,9.0,4.0,8.9,34.0,,,,,,,,,,
13.48.41.200,-16.6,4.2,0,21.0,,90548.1,11.04,-0.57,0.63,0.48,10.3,3.4,9.4,34.0,,,,,,,,,,
13.48.41.212,-25.6,6.4,0,21.0,,92388.1,10.82,-0.56,0.64,0.49,12.2,3.8,9.0,34.0,,,,,,,,,,
13.48.41.225,-39.7,9.9,0,21.0,,90713.5,11.02,-0.56,0.64,0.48,13.4,3.7,9.1,34.0,,,,,,,,,,
13.48.41.237,-40.9,10.2,0,21.0,,91266.3,10.96,-0.57,0.65,0.47,14.1,3.6,8.4,34.0,,,,,,,,,,
13.48.41.245,-44.5,11.1,0,21.0,,90504.3,11.05,-0.56,0.67,0.48,14.4,2.6,7.5,34.0,,,,,,,,,,
13.48.41.257,-47.4,11.8,0,21.0,,90846.6,11.01,-0.56,0.68,0.48,13.2,2.8,5.6,34.0,,,,,,,,,,
13.48.41.270,-53.6,13.4,0,21.0,,90275.3,11.08,-0.55,0.7,0.47,10.9,2.5,3.9,34.0,,,,,,,,,,
13.48.41.278,-63.1,15.8,0,21.0,,93075.1,10.74,-0.55,0.7,0.46,9.8,1.9,2.9,34.0,,,,,,,,,,
13.48.41.290,-58.9,14.7,0,21.0,,90180.9,11.09,-0.55,0.7,0.46,7.8,2.6,2.3,34.0,,,,,,,,,,
13.48.41.303,-71.7,17.9,0,21.0,,91445.9,10.94,-0.54,0.69,0.45,5.8,4.4,1.5,34.0,,,,,,,,,,
13.48.41.315,-72.3,18.1,0,21.0,,91624.4,10.91,-0.55,0.67,0.45,5.3,4.6,1.3,34.0,,,,,,,,,,
13.48.41.323,-77.1,19.3,0,21.0,,91373.3,10.94,-0.55,0.67,0.47,5.2,6.4,0.1,34.0,,,,,,,,,,
13.48.41.336,-89.6,22.4,0,21.0,,90956.0,10.99,-0.55,0.67,0.48,5.3,7.5,-0.7,34.0,,,,,,,,,,
13.48.41.348,-93.7,23.4,0,21.0,,91125.2,10.97,-0.54,0.68,0.47,6.5,8.4,-1.1,34.0,,,,,,,,,,
13.48.41.356,-93.0,23.2,0,21.0,,91629.5,10.91,-0.54,0.69,0.48,6.5,7.4,-0.9,34.0,,,,,,,,,,
13.48.41.368,-102.7,25.7,0,21.0,,89841.9,11.13,-0.55,0.69,0.48,6.6,6.1,-0.5,34.0,,,,,,,,,,
13.48.41.380,-112.8,28.2,0,21.0,,89854.2,11.13,-0.55,0.69,0.47,6.0,5.7,0.0,34.0,,,,,,,,,,
13.48.41.389,-116.9,29.2,0,21.0,,90553.0,11.04,-0.55,0.68,0.47,5.4,5.9,0.1,34.0,,,,,,,,,,
13.48.41.401,-114.4,28.6,0,21.0,,90747.3,11.02,-0.55,0.67,0.46,5.0,7.2,-0.5,34.0,,,,,,,,,,
13.48.41.413,-134.7,33.7,0,21.0,,90586.4,11.04,-0.55,0.66,0.46,5.1,7.7,-0.6,34.0,,,,,,,,,,
13.48.41.421,19.1,4.8,1,22.0,104.8,91037.1,10.98,-0.56,0.66,0.46,5.2,7.4,-0.9,34.0,,,,,,,,,,
13.48.41.434,90.7,22.7,0,22.0,,90810.0,11.01,-0.56,0.66,0.46,4.8,8.2,-0.5,34.0,,,,,,,,,,
13.48.41.446,146.7,36.7,0,22.0,,90788.2,11.01,-0.56,0.66,0.45,5.5,9.2,-1.2,34.0,,,,,,,,,,
13.48.41.454,168.2,42.0,0,22.0,,90494.7,11.05,-0.56,0.67,0.46,6.0,8.4,-1.5,34.0,,,,,,,,,,
13.48.41.467,227.5,56.9,0,22.0,,91204.6,10.96,-0.56,0.69,0.46,8.1,8.6,-1.5,34.0,,,,,,,,,,
13.48.41.479,273.7,68.4,0,22.0,,91121.7,10.97,-0.57,0.7,0.46,8.1,7.8,-1.3,34.0,,,,,,,,,,
13.48.41.487,292.3,73.1,0,22.0,,91768.8,10.9,-0.57,0.69,0.45,6.6,7.3,-1.9,34.0,,,,,,,,,,
13.48.41.499,334.0,83.5,0,22.0,,90449.0,11.06,-0.56,0.69,0.45,6.1,6.7,-1.3,34.0,,,,,,,,,,
13.48.41.512,307.1,76.8,0,22.0,,90885.1,11.0,-0.57,0.69,0.44,6.0,6.0,-0.5,34.0,,,,,,,,,,
13.48.41.520,309.0,77.2,0,22.0,,89661.6,11.15,-0.56,0.69,0.44,4.9,6.1,-0.7,34.0,,,,,,,,,,
13.48.41.532,295.6,73.9,0,22.0,,92067.8,10.86,-0.56,0.68,0.44,4.5,6.5,-0.2,34.0,,,,,,,,,,
13.48.41.544,305.0,76.2,0,22.0,,91683.4,10.91,-0.56,0.68,0.44,5.8,6.8,0.1,34.0,,,,,,,,,,
13.48.41.557,254.5,63.6,0,22.0,,92363.4,10.83,-0.56,0.68,0.44,6.6,6.2,-0.1,34.0,,,,,,,,,,
13.48.41.565,208.2,52.0,0,22.0,,91686.8,10.91,-0.56,0.68,0.45,7.3,6.7,0.4,34.0,,,,,,,,,,
13.48.41.577,193.1,48.3,0,22.0,,91317.2,10.95,-0.57,0.69,0.43,9.0,6.6,1.1,34.0,,,,,,,,,,
13.48.41.590,131.8,33.0,0,22.0,,91324.0,10.95,-0.56,0.7,0.45,9.0,5.9,1.8,34.0,,,,,,,,,,
13.48.41.598,95.8,24.0,0,22.0,,91799.1,10.89,-0.57,0.69,0.43,8.2,8.1,0.4,34.0,,,,,,,,,,
13.48.41.610,53.7,13.4,0,22.0,,90619.9,11.04,-0.57,0.69,0.43,9.5,4.5,2.3,34.0,,,,,,,,,,
13.48.41.622,10.2,2.6,0,22.0,,91487.6,10.93,-0.57,0.7,0.43,10.2,6.8,2.2,34.0,,,,,,,,,,
13.48.41.630,16.5,4.1,0,22.0,,91934.1,10.88,-0.57,0.7,0.43,9.8,6.7,2.1,34.0,,,,,,,,,,
13.48.41.643,27.2,6.8,0,22.0,,90771.3,11.02,-0.56,0.67,0.41,8.0,5.6,3.1,34.0,,,,,,,,,,
13.48.41.655,46.4,11.6,0,22.0,,90789.9,11.01,-0.57,0.72,0.45,9.4,5.9,3.4,34.0,,,,,,,,,,
13.48.41.663,53.7,13.4,0,22.0,,89215.7,11.21,-0.57,0.69,0.42,7.5,9.1,1.3,34.0,,,,,,,,,,
13.48.41.676,54.1,13.5,0,22.0,,91482.3,10.93,-0.56,0.71,0.44,5.6,4.6,2.9,34.0,,,,,,,,,,
13.48.41.688,54.3,13.6,0,22.0,,92380.7,10.82,-0.56,0.7,0.44,5.6,6.0,3.1,34.0,,,,,,,,,,
13.48.41.697,60.3,15.1,0,22.0,,91222.9,10.96,-0.55,0.7,0.44,4.1,6.6,2.2,34.0,,,,,,,,,,
13.48.41.708,39.6,9.9,0,22.0,,91015.7,10.99,-0.56,0.69,0.44,3.0,5.4,1.8,34.0,,,,,,,,,,
13.48.41.721,25.4,6.4,0,22.0,,90192.1,11.09,-0.56,0.69,0.45,3.3,5.8,1.1,34.0,,,,,,,,,,
13.48.41.733,-0.9,0.2,0,22.0,,92067.4,10.86,-0.55,0.7,0.44,4.7,6.2,1.2,34.0,,,,,,,,,,
13.48.41.741,-0.6,0.2,0,22.0,,91974.2,10.87,-0.55,0.7,0.44,4.1,4.8,0.5,34.0,,,,,,,,,,
13.48.41.753,-10.3,2.6,0,22.0,,92186.5,10.85,-0.55,0.71,0.44,3.7,5.4,-0.1,34.0,,,,,,,,,,
13.48.41.767,-17.9,4.5,0,22.0,,92011.6,10.87,-0.55,0.7,0.43,4.2,5.8,-0.4,34.0,,,,,,,,,,
13.48.41.774,-21.2,5.3,0,22.0,,91779.3,10.9,-0.55,0.71,0.42,3.9,4.7,-0.2,34.0,,,,,,,,,,
13.48.41.786,-25.5,6.4,0,22.0,,90184.2,11.09,-0.55,0.7,0.42,1.9,5.8,-0.9,34.0,,,,,,,,,,
13.48.41.798,-41.8,10.4,0,22.0,,89929.4,11.12,-0.55,0.7,0.42,1.2,5.0,-0.5,34.0,,,,,,,,,,
13.48.41.806,-32.2,8.0,0,22.0,,91222.5,10.96,-0.55,0.7,0.43,1.2,5.6,-1.0,34.0,,,,,,,,,,
13.48.41.820,-45.2,11.3,0,22.0,,91252.6,10.96,-0.55,0.7,0.43,0.9,5.9,-0.9,34.0,,,,,,,,,,
13.48.41.831,-45.8,11.4,0,22.0,,89294.1,11.2,-0.55,0.69,0.43,1.0,5.5,-0.4,34.0,,,,,,,,,,
13.48.41.839,-48.6,12.2,0,22.0,,91706.5,10.9,-0.56,0.7,0.44,1.4,5.6,-0.4,34.0,,,,,,,,,,
13.48.41.852,-56.5,14.1,0,22.0,,92495.0,10.81,-0.56,0.7,0.43,1.2,5.2,-0.6,34.0,,,,,,,,,,
13.48.41.892,-74.2,18.6,0,22.0,,92072.9,10.86,-0.54,0.7,0.42,2.9,7.0,-1.4,34.0,,,,,,,,,,
13.48.41.905,-85.3,21.3,0,22.0,,91590.4,10.92,-0.55,0.71,0.42,2.6,7.1,-1.3,34.0,,,,,,,,,,
13.48.41.913,-81.9,20.5,0,22.0,,90518.2,11.05,-0.55,0.71,0.42,1.7,7.2,-1.6,34.0,,,,,,,,,,
13.48.41.926,-91.0,22.8,0,22.0,,90250.4,11.08,-0.54,0.7,0.43,0.9,7.4,-2.0,34.0,,,,,,,,,,
13.48.41.938,-111.6,27.9,0,22.0,,91047.4,10.98,-0.55,0.7,0.42,1.1,7.6,-1.8,34.0,,,,,,,,,,
13.48.41.946,-114.9,28.7,0,22.0,,92265.7,10.84,-0.55,0.69,0.43,1.6,8.1,-1.5,34.0,,,,,,,,,,
13.48.41.958,-115.6,28.9,0,22.0,,91983.4,10.87,-0.55,0.69,0.43,2.5,8.5,-0.9,34.0,,,,,,,,,,
13.48.41.970,-110.1,27.5,0,22.0,,89603.0,11.16,-0.55,0.69,0.42,4.0,8.4,-1.1,34.0,,,,,,,,,,
13.48.41.984,-136.2,34.0,0,22.0,,90457.7,11.05,-0.55,0.69,0.42,4.8,8.4,-0.9,34.0,,,,,,,,,,
13.48.41.991,-127.1,31.8,0,22.0,,89031.8,11.23,-0.55,0.7,0.42,5.2,8.4,-0.5,34.0,,,,,,,,,,
13.48.42.003,50.7,12.7,1,23.0,101.8,90108.6,11.1,-0.55,0.7,0.42,4.8,7.9,-0.4,34.0,,,,,,,,,,
13.48.42.015,89.3,22.3,0,23.0,,90818.1,11.01,-0.55,0.71,0.42,4.4,8.0,-0.4,34.0,,,,,,,,,,
13.48.42.028,165.8,41.4,0,23.0,,90280.6,11.08,-0.55,0.71,0.42,4.6,8.0,0.4,34.0,,,,,,,,,,
13.48.42.036,199.8,50.0,0,23.0,,91468.3,10.93,-0.55,0.71,0.42,4.6,8.2,0.2,34.0,,,,,,,,,,
13.48.42.048,248.0,62.0,0,23.0,,91458.5,10.93,-0.55,0.7,0.42,3.8,7.0,0.6,34.0,,,,,,,,,,
13.48.42.060,294.8,73.7,0,23.0,,91379.7,10.94,-0.56,0.7,0.43,3.8,7.2,0.2,34.0,,,,,,,,,,
13.48.42.069,266.1,66.5,0,23.0,,92379.9,10.82,-0.56,0.7,0.43,3.6,7.8,-0.4,34.0,,,,,,,,,,
13.48.42.081,292.0,73.0,0,23.0,,91441.6,10.94,-0.56,0.71,0.43,3.2,7.8,-0.9,34.0,,,,,,,,,,
13.48.42.093,323.3,80.8,0,23.0,,91022.1,10.99,-0.56,0.71,0.42,4.1,7.7,-1.5,34.0,,,,,,,,,,
13.48.42.101,290.9,72.7,0,23.0,,90998.4,10.99,-0.55,0.71,0.41,4.4,7.1,-1.0,34.0,,,,,,,,,,
13.48.42.114,301.0,75.2,0,23.0,,91624.9,10.91,-0.55,0.71,0.41,3.8,6.3,-1.2,34.0,,,,,,,,,,
13.48.42.126,294.8,73.7,0,23.0,,91478.3,10.93,-0.56,0.71,0.41,2.6,5.9,-1.7,34.0,,,,,,,,,,
13.48.42.138,239.2,59.8,0,23.0,,92025.6,10.87,-0.56,0.72,0.42,1.3,5.6,-1.6,34.0,,,,,,,,,,
13.48.42.146,221.2,55.3,0,23.0,,89499.5,11.17,-0.56,0.72,0.42,0.0,6.4,-2.0,34.0,,,,,,,,,,
13.48.42.159,181.6,45.4,0,23.0,,92282.7,10.84,-0.56,0.72,0.41,-1.1,6.0,-2.1,34.0,,,,,,,,,,
13.48.42.172,99.5,24.9,0,23.0,,89968.7,11.11,-0.56,0.71,0.4,-1.3,4.7,-1.6,34.0,,,,,,,,,,
13.48.42.179,76.3,19.1,0,23.0,,91458.3,10.93,-0.56,0.71,0.41,-0.2,5.3,-1.4,34.0,,,,,,,,,,
13.48.42.192,22.5,5.6,0,23.0,,91766.0,10.9,-0.56,0.7,0.41,1.0,5.2,-1.0,34.0,,,,,,,,,,
13.48.42.204,18.8,4.7,0,23.0,,91535.8,10.92,-0.57,0.7,0.42,1.0,4.7,-0.6,34.0,,,,,,,,,,
13.48.42.216,31.3,7.8,0,23.0,,91283.2,10.95,-0.56,0.71,0.41,0.9,4.3,-0.5,34.0,,,,,,,,,,
13.48.42.224,36.4,9.1,0,23.0,,91399.1,10.94,-0.56,0.72,0.41,0.3,3.9,-0.4,34.0,,,,,,,,,,
13.48.42.237,57.1,14.3,0,23.0,,90462.8,11.05,-0.56,0.71,0.41,-0.2,4.1,-0.2,34.0,,,,,,,,,,
13.48.42.249,51.3,12.8,0,23.0,,91269.7,10.96,-0.55,0.71,0.42,-0.4,4.2,-0.3,34.0,,,,,,,,,,
13.48.42.257,69.3,17.3,0,23.0,,91587.8,10.92,-0.55,0.7,0.42,-0.3,4.3,-0.4,34.0,,,,,,,,,,
13.48.42.269,51.6,12.9,0,23.0,,91701.3,10.9,-0.55,0.7,0.43,-0.1,4.2,-0.7,34.0,,,,,,,,,,
13.48.42.282,51.0,12.8,0,23.0,,91301.1,10.95,-0.56,0.69,0.43,0.9,3.5,-0.4,34.0,,,,,,,,,,
13.48.42.294,22.4,5.6,0,23.0,,91923.5,10.88,-0.55,0.69,0.42,2.2,3.9,0.1,34.0,,,,,,,,,,
13.48.42.302,11.4,2.8,0,23.0,,92008.8,10.87,-0.56,0.69,0.42,3.1,4.0,0.5,34.0,,,,,,,,,,
13.48.42.314,-4.5,1.1,0,23.0,,91630.4,10.91,-0.55,0.7,0.41,3.2,3.1,0.8,34.0,,,,,,,,,,
13.48.42.327,-10.0,2.5,0,23.0,,91449.8,10.93,-0.55,0.7,0.42,4.0,3.3,1.1,34.0,,,,,,,,,,
13.48.42.335,-13.5,3.4,0,23.0,,90052.3,11.1,-0.55,0.7,0.42,3.9,4.0,1.4,34.0,,,,,,,,,,
13.48.42.347,-16.4,4.1,0,23.0,,90149.2,11.09,-0.55,0.71,0.41,3.6,3.6,1.3,34.0,,,,,,,,,,
13.48.42.360,-21.9,5.5,0,23.0,,92281.8,10.84,-0.55,0.71,0.42,3.8,3.9,0.8,34.0,,,,,,,,,,
13.48.42.369,-31.0,7.8,0,23.0,,91195.2,10.97,-0.55,0.71,0.43,3.5,3.9,0.2,34.0,,,,,,,,,,
13.48.42.380,-33.5,8.4,0,23.0,,91874.6,10.88,-0.55,0.71,0.42,3.2,3.9,0.2,34.0,,,,,,,,,,
13.48.42.392,-40.2,10.0,0,23.0,,92477.2,10.81,-0.54,0.7,0.42,2.7,3.6,-0.5,34.0,,,,,,,,,,
13.48.42.405,-48.6,12.2,0,23.0,,91015.4,10.99,-0.54,0.72,0.42,2.3,4.5,-0.6,34.0,,,,,,,,,,
13.48.42.413,-65.4,16.4,0,23.0,,92168.6,10.85,-0.54,0.71,0.41,1.8,3.9,-0.8,34.0,,,,,,,,,,
13.48.42.425,-56.4,14.1,0,23.0,,90882.1,11.0,-0.54,0.72,0.42,1.8,4.2,-1.2,34.0,,,,,,,,,,
13.48.42.437,-58.4,14.6,0,23.0,,90042.5,11.11,-0.53,0.72,0.41,1.1,5.3,-2.1,34.0,,,,,,,,,,
13.48.42.446,-60.0,15.0,0,23.0,,91600.3,10.92,-0.53,0.72,0.41,0.9,5.1,-2.4,34.0,,,,,,,,,,
13.48.42.458,-72.7,18.2,0,23.0,,92163.7,10.85,-0.54,0.72,0.41,0.6,5.7,-2.5,34.0,,,,,,,,,,
13.48.42.470,-75.8,19.0,0,23.0,,92289.8,10.84,-0.54,0.71,0.41,0.7,6.1,-2.4,34.0,,,,,,,,,,
13.48.42.478,-81.5,20.4,0,23.0,,91260.2,10.96,-0.54,0.71,0.41,0.6,5.8,-2.2,34.0,,,,,,,,,,
13.48.42.491,-101.9,25.5,0,23.0,,90782.8,11.02,-0.55,0.7,0.41,1.6,6.2,-1.8,34.0,,,,,,,,,,
13.48.42.503,-94.8,23.7,0,23.0,,90349.5,11.07,-0.55,0.71,0.41,2.5,5.9,-1.4,34.0,,,,,,,,,,
13.48.42.515,-98.1,24.5,0,23.0,,90381.0,11.06,-0.55,0.71,0.41,2.5,5.4,-1.1,34.0,,,,,,,,,,
13.48.42.523,-98.6,24.6,0,23.0,,91377.4,10.94,-0.55,0.71,0.41,2.3,5.7,-1.4,34.0,,,,,,,,,,
13.48.42.536,-103.9,26.0,0,23.0,,93533.7,10.69,-0.55,0.72,0.41,2.4,5.5,-1.4,34.0,,,,,,,,,,
13.48.42.548,-112.1,28.0,0,23.0,,91540.7,10.92,-0.54,0.73,0.42,2.6,5.3,-1.0,34.0,,,,,,,,,,
13.48.42.556,-128.4,32.1,0,23.0,,91417.4,10.94,-0.55,0.73,0.42,1.8,5.9,-0.8,34.0,,,,,,,,,,
13.48.42.568,-123.8,31.0,0,23.0,,91591.8,10.92,-0.55,0.72,0.41,1.1,5.5,-0.7,34.0,,,,,,,,,,
13.48.42.581,49.8,12.4,1,24.0,104.6,90965.3,10.99,-0.55,0.72,0.41,0.4,5.3,-0.7,34.0,,,,,,,,,,
13.48.42.590,99.3,24.8,0,24.0,,91793.2,10.89,-0.56,0.7,0.41,0.3,5.9,-0.7,34.0,,,,,,,,,,
13.48.42.601,144.3,36.1,0,24.0,,90900.8,11.0,-0.55,0.7,0.42,0.5,5.6,-0.8,34.0,,,,,,,,,,
13.48.42.614,200.2,50.0,0,24.0,,92377.9,10.83,-0.55,0.7,0.42,1.4,5.3,-0.4,34.0,,,,,,,,,,
13.48.42.623,239.6,59.9,0,24.0,,90663.5,11.03,-0.55,0.7,0.42,2.0,5.1,-0.8,34.0,,,,,,,,,,
13.48.42.634,267.8,67.0,0,24.0,,90756.1,11.02,-0.55,0.7,0.42,2.8,5.5,-0.8,34.0,,,,,,,,,,
13.48.42.646,344.7,86.2,0,24.0,,91361.1,10.95,-0.55,0.71,0.41,3.7,5.4,-0.7,34.0,,,,,,,,,,
13.48.42.659,296.8,74.2,0,24.0,,91020.0,10.99,-0.55,0.71,0.41,4.3,5.2,-0.6,34.0,,,,,,,,,,
13.48.42.695,302.9,75.7,0,24.0,,91861.2,10.89,-0.55,0.72,0.41,3.5,5.5,-0.4,34.0,,,,,,,,,,
13.48.42.708,270.4,67.6,0,24.0,,91705.2,10.9,-0.55,0.72,0.4,2.8,5.0,-0.9,34.0,,,,,,,,,,
13.48.42.720,245.6,61.4,0,24.0,,91220.5,10.96,-0.55,0.72,0.41,1.9,5.1,-1.0,34.0,,,,,,,,,,
13.48.42.728,214.9,53.7,0,24.0,,91243.5,10.96,-0.54,0.72,0.4,1.2,5.9,-1.1,34.0,,,,,,,,,,
13.48.42.741,135.3,33.8,0,24.0,,91047.9,10.98,-0.55,0.72,0.4,0.9,5.4,-1.2,34.0,,,,,,,,,,
13.48.42.753,91.6,22.9,0,24.0,,91188.5,10.97,-0.55,0.72,0.41,0.7,6.3,-1.4,34.0,,,,,,,,,,
13.48.42.765,25.6,6.4,0,24.0,,89612.7,11.16,-0.55,0.72,0.41,0.6,5.7,-1.0,34.0,,,,,,,,,,
13.48.42.774,1.3,0.3,0,24.0,,89666.6,11.15,-0.54,0.72,0.41,0.6,5.6,-1.3,34.0,,,,,,,,,,
13.48.42.786,19.1,4.8,0,24.0,,89461.8,11.18,-0.55,0.72,0.4,0.3,6.4,-1.3,34.0,,,,,,,,,,
13.48.42.798,39.1,9.8,0,24.0,,91429.1,10.94,-0.54,0.72,0.41,-0.1,5.5,-0.9,34.0,,,,,,,,,,
13.48.42.806,51.9,13.0,0,24.0,,91810.2,10.89,-0.55,0.71,0.41,-0.1,6.2,-1.1,34.0,,,,,,,,,,
13.48.42.818,51.0,12.8,0,24.0,,90385.0,11.06,-0.55,0.71,0.41,0.1,6.1,-1.3,34.0,,,,,,,,,,
13.48.42.831,59.3,14.8,0,24.0,,91402.3,10.94,-0.54,0.72,0.42,0.4,5.9,-0.9,34.0,,,,,,,,,,
13.48.42.843,50.6,12.6,0,24.0,,92364.1,10.83,-0.55,0.71,0.41,1.0,5.2,-1.0,34.0,,,,,,,,,,
13.48.42.851,51.3,12.8,0,24.0,,91682.7,10.91,-0.55,0.72,0.41,0.9,5.7,-0.6,34.0,,,,,,,,,,
13.48.42.863,25.4,6.4,0,24.0,,90595.3,11.04,-0.54,0.72,0.41,0.8,5.4,-0.9,34.0,,,,,,,,,,
13.48.42.876,13.0,3.2,0,24.0,,89759.6,11.14,-0.54,0.72,0.41,0.5,5.6,-0.9,34.0,,,,,,,,,,
13.48.42.884,5.4,1.4,0,24.0,,91212.7,10.96,-0.55,0.72,0.41,0.8,5.5,-0.7,34.0,,,,,,,,,,
13.48.42.896,2.0,0.5,0,24.0,,91406.5,10.94,-0.54,0.71,0.41,0.9,5.5,-1.1,34.0,,,,,,,,,,
13.48.42.909,-10.6,2.6,0,24.0,,91009.3,10.99,-0.55,0.71,0.42,0.5,5.0,-0.9,34.0,,,,,,,,,,
13.48.42.917,-25.1,6.3,0,24.0,,90340.1,11.07,-0.54,0.72,0.41,1.2,5.2,-0.7,34.0,,,,,,,,,,
13.48.42.929,-17.0,4.2,0,24.0,,92035.3,10.87,-0.54,0.71,0.41,1.6,5.6,-0.5,34.0,,,,,,,,,,
13.48.42.941,-28.0,7.0,0,24.0,,92085.4,10.86,-0.54,0.71,0.41,2.2,5.3,-0.3,34.0,,,,,,,,,,
13.48.42.954,-33.6,8.4,0,24.0,,91569.1,10.92,-0.54,0.71,0.41,3.0,5.0,-0.1,34.0,,,,,,,,,,
13.48.42.962,-30.9,7.7,0,24.0,,89801.8,11.14,-0.55,0.72,0.41,3.0,5.6,-0.2,34.0,,,,,,,,,,
13.48.42.974,-49.8,12.4,0,24.0,,90497.9,11.05,-0.54,0.72,0.4,3.1,5.6,-0.1,34.0,,,,,,,,,,
13.48.42.986,-49.0,12.2,0,24.0,,91823.9,10.89,-0.54,0.72,0.41,3.0,6.0,0.1,34.0,,,,,,,,,,
13.48.42.994,-52.5,13.1,0,24.0,,91160.1,10.97,-0.54,0.72,0.41,2.6,5.3,-0.3,34.0,,,,,,,,,,
13.48.43.007,-73.4,18.4,0,24.0,,90198.7,11.09,-0.54,0.72,0.4,1.2,5.5,-0.5,34.0,,,,,,,,,,
13.48.43.019,-74.9,18.7,0,24.0,,91017.3,10.99,-0.54,0.72,0.41,1.1,5.8,-0.6,34.0,,,,,,,,,,
13.48.43.027,-75.9,19.0,0,24.0,,91841.6,10.89,-0.54,0.72,0.41,0.9,5.9,-0.7,34.0,,,,,,,,,,
13.48.43.040,-72.2,18.0,0,24.0,,90502.7,11.05,-0.54,0.72,0.41,0.2,5.9,-1.1,34.0,,,,,,,,,,
13.48.43.052,-76.9,19.2,0,24.0,,92571.9,10.8,-0.54,0.72,0.41,0.5,6.1,-0.8,34.0,,,,,,,,,,
13.48.43.060,-91.2,22.8,0,24.0,,90918.0,11.0,-0.54,0.72,0.41,0.5,6.4,-1.1,34.0,,,,,,,,,,
13.48.43.072,-89.8,22.4,0,24.0,,90917.2,11.0,-0.54,0.73,0.41,-0.2,6.6,-1.3,34.0,,,,,,,,,,
13.48.43.085,-93.0,23.2,0,24.0,,91421.5,10.94,-0.55,0.72,0.4,-0.5,6.3,-1.4,34.0,,,,,,,,,,
13.48.43.097,-101.7,25.4,0,24.0,,91437.6,10.94,-0.54,0.72,0.4,-0.9,5.6,-0.9,34.0,,,,,,,,,,
13.48.43.105,-113.0,28.2,0,24.0,,90729.2,11.02,-0.54,0.72,0.41,-0.9,5.5,-1.5,34.0,,,,,,,,,,
13.48.43.118,-106.6,26.6,0,24.0,,89973.9,11.11,-0.55,0.72,0.41,-0.2,5.8,-1.1,34.0,,,,,,,,,,
13.48.43.131,-128.1,32.0,0,24.0,,91158.0,10.97,-0.55,0.71,0.41,0.3,6.0,-1.3,34.0,,,,,,,,,,
13.48.43.142,-102.5,25.6,0,24.0,,91622.0,10.91,-0.54,0.72,0.4,0.3,6.0,-1.3,34.0,,,,,,,,,,
13.48.43.150,18.1,4.5,1,25.0,106.6,91142.5,10.97,-0.55,0.72,0.41,1.0,6.2,-1.0,34.0,,,,,,,,,,
13.48.43.162,90.8,22.7,0,25.0,,90025.6,11.11,-0.55,0.72,0.41,1.2,6.1,-0.7,34.0,,,,,,,,,,
13.48.43.175,155.6,38.9,0,25.0,,90542.0,11.04,-0.54,0.72,0.41,1.1,5.5,-0.9,34.0,,,,,,,,,,
13.48.43.183,179.0,44.8,0,25.0,,92069.0,10.86,-0.54,0.72,0.41,1.3,5.6,-0.8,34.0,,,,,,,,,,
13.48.43.195,230.0,57.5,0,25.0,,90860.5,11.01,-0.55,0.71,0.42,1.8,5.7,-0.6,34.0,,,,,,,,,,
13.48.43.208,261.3,65.3,0,25.0,,90354.4,11.07,-0.55,0.72,0.41,1.5,5.3,-0.7,34.0,,,,,,,,,,
13.48.43.220,300.8,75.2,0,25.0,,90915.5,11.0,-0.55,0.72,0.41,1.3,5.1,-0.8,34.0,,,,,,,,,,
13.48.43.228,296.7,74.2,0,25.0,,90263.0,11.08,-0.54,0.72,0.41,0.6,5.2,-1.0,34.0,,,,,,,,,,
13.48.43.240,311.7,77.9,0,25.0,,91053.3,10.98,-0.55,0.72,0.4,0.3,4.8,-1.0,34.0,,,,,,,,,,
13.48.43.253,294.0,73.5,0,25.0,,91116.5,10.97,-0.54,0.72,0.4,0.3,5.5,-1.0,34.0,,,,,,,,,,
13.48.43.261,297.8,74.4,0,25.0,,91922.8,10.88,-0.54,0.72,0.41,0.5,5.5,-1.2,34.0,,,,,,,,,,
13.48.43.273,290.6,72.6,0,25.0,,90910.8,11.0,-0.54,0.72,0.41,0.7,5.3,-1.0,34.0,,,,,,,,,,
13.48.43.285,247.8,62.0,0,25.0,,90709.4,11.02,-0.54,0.72,0.4,0.8,5.7,-1.1,34.0,,,,,,,,,,
13.48.43.294,228.3,57.1,0,25.0,,89329.0,11.19,-0.54,0.72,0.4,0.9,5.8,-1.1,34.0,,,,,,,,,,
13.48.43.306,203.7,50.9,0,25.0,,92661.2,10.79,-0.55,0.73,0.41,0.8,6.0,-1.0,34.0,,,,,,,,,,
13.48.43.318,132.0,33.0,0,25.0,,91746.4,10.9,-0.54,0.72,0.4,0.4,6.1,-1.5,34.0,,,,,,,,,,
13.48.43.326,111.0,27.8,0,25.0,,91945.6,10.88,-0.54,0.72,0.41,0.2,6.2,-1.1,34.0,,,,,,,,,,
13.48.43.339,34.6,8.6,0,25.0,,91367.8,10.94,-0.54,0.72,0.41,0.2,6.1,-1.2,34.0,,,,,,,,,,
13.48.43.351,8.5,2.1,0,25.0,,91012.1,10.99,-0.54,0.73,0.41,0.4,6.2,-1.2,34.0,,,,,,,,,,
13.48.43.359,15.9,4.0,0,25.0,,90856.6,11.01,-0.54,0.72,0.41,0.1,6.3,-0.7,34.0,,,,,,,,,,
13.48.43.371,34.6,8.6,0,25.0,,89905.8,11.12,-0.54,0.72,0.41,0.4,5.9,-0.8,34.0,,,,,,,,,,
13.48.43.384,53.7,13.4,0,25.0,,88886.8,11.25,-0.54,0.72,0.42,0.1,6.0,-0.8,34.0,,,,,,,,,,
13.48.43.396,55.2,13.8,0,25.0,,91099.4,10.98,-0.54,0.71,0.41,0.3,6.0,-0.9,34.0,,,,,,,,,,
13.48.43.404,52.9,13.2,0,25.0,,91445.9,10.94,-0.55,0.71,0.41,0.6,5.7,-0.8,34.0,,,,,,,,,,
13.48.43.416,55.4,13.8,0,25.0,,90739.8,11.02,-0.55,0.71,0.42,0.9,5.8,-1.1,34.0,,,,,,,,,,
13.48.43.429,43.4,10.8,0,25.0,,91449.1,10.94,-0.54,0.71,0.41,1.4,5.0,-0.8,34.0,,,,,,,,,,
13.48.43.437,26.1,6.5,0,25.0,,90573.4,11.04,-0.54,0.72,0.42,1.9,5.4,-0.9,34.0,,,,,,,,,,
13.48.43.449,23.0,5.8,0,25.0,,91719.4,10.9,-0.54,0.72,0.41,2.4,5.5,-0.9,34.0,,,,,,,,,,
13.48.43.462,3.8,1.0,0,25.0,,91029.3,10.99,-0.54,0.72,0.41,1.8,5.1,-0.9,34.0,,,,,,,,,,
13.48.43.503,-21.0,5.2,0,25.0,,91697.4,10.91,-0.54,0.73,0.41,1.5,5.6,-1.4,34.0,,,,,,,,,,
13.48.43.511,-24.9,6.2,0,25.0,,91358.3,10.95,-0.54,0.73,0.4,1.5,6.0,-1.5,34.0,,,,,,,,,,
13.48.43.524,-27.2,6.8,0,25.0,,89369.9,11.19,-0.54,0.72,0.4,0.7,5.6,-1.6,34.0,,,,,,,,,,
13.48.43.536,-35.5,8.9,0,25.0,,90513.4,11.05,-0.54,0.72,0.41,0.3,6.1,-1.6,34.0,,,,,,,,,,
13.48.43.543,-49.8,12.4,0,25.0,,91157.9,10.97,-0.54,0.72,0.41,0.3,6.3,-1.6,34.0,,,,,,,,,,
13.48.43.556,-54.4,13.6,0,25.0,,90535.9,11.05,-0.54,0.72,0.41,0.5,6.1,-1.3,34.0,,,,,,,,,,
13.48.43.568,-49.0,12.2,0,25.0,,91385.9,10.94,-0.54,0.71,0.41,0.9,6.4,-1.7,34.0,,,,,,,,,,
13.48.43.576,-53.2,13.3,0,25.0,,90755.7,11.02,-0.54,0.71,0.41,0.7,6.1,-1.3,34.0,,,,,,,,,,
13.48.43.589,-65.6,16.4,0,25.0,,91470.2,10.93,-0.54,0.72,0.41,0.8,6.1,-1.4,34.0,,,,,,,,,,
13.48.43.601,-71.3,17.8,0,25.0,,90529.4,11.05,-0.55,0.72,0.41,0.9,6.4,-1.4,34.0,,,,,,,,,,
13.48.43.609,-68.4,17.1,0,25.0,,89499.4,11.17,-0.54,0.72,0.41,0.7,5.7,-1.3,34.0,,,,,,,,,,
13.48.43.621,-78.3,19.6,0,25.0,,90793.7,11.01,-0.54,0.72,0.4,1.1,5.5,-1.2,34.0,,,,,,,,,,
13.48.43.634,-93.4,23.4,0,25.0,,90677.9,11.03,-0.54,0.72,0.41,1.5,5.8,-1.2,34.0,,,,,,,,,,
13.48.43.643,-80.9,20.2,0,25.0,,92587.1,10.8,-0.54,0.72,0.4,1.6,5.4,-1.4,34.0,,,,,,,,,,
13.48.43.654,-102.3,25.6,0,25.0,,91176.4,10.97,-0.54,0.73,0.4,1.2,5.6,-1.4,34.0,,,,,,,,,,
13.48.43.666,-93.1,23.3,0,25.0,,90964.5,10.99,-0.54,0.72,0.41,0.6,5.8,-1.6,34.0,,,,,,,,,,
