timestamp,ppg,threshold,beat,beat_count,inst_bpm,gsr_resistance_ohm,gsr_conductance_us,accel_x,accel_y,accel_z,gyro_x,gyro_y,gyro_z,temp_c,window_bpm,window_temp_c,status_message,SpO2,bmi,age,height,weight,env_temp_c,env_humidity_pct
16.52.04.931,,,0,,,79728.0,12.54,-0.28,0.39,0.79,0.0,-4.0,-24.5,36.44,99.3,,,,18.6,22.0,160.02,47.9,36.0,71.0
16.52.04.940,41.9,10.5,0,,,79420.7,12.59,-0.26,0.39,0.8,7.0,-1.9,-21.5,36.44,,,,,,,,,,
16.52.04.948,96.6,24.2,0,,,74930.3,13.35,-0.26,0.4,0.77,20.0,-0.1,-27.0,36.44,,,,,,,,,,
16.52.04.960,174.3,43.6,0,,,79782.3,12.53,-0.25,0.44,0.76,27.6,-4.5,-27.7,36.44,,,,,,,,,,
16.52.04.968,164.0,41.0,0,,,75958.6,13.17,-0.25,0.48,0.8,32.6,-2.4,-26.2,36.44,,,,,,,,,,
16.52.04.981,263.0,65.8,0,,,76818.1,13.02,-0.28,0.52,0.77,34.3,-0.1,-23.9,36.44,,,,,,,,,,
16.52.04.993,285.3,71.3,0,,,75161.5,13.3,-0.28,0.59,0.77,24.3,-3.2,-12.1,36.44,,,,,,,,,,
16.52.05.001,341.8,85.4,0,,,79566.7,12.57,-0.31,0.78,0.92,11.0,-2.9,3.8,36.44,,,,,,,,,,
16.52.05.038,408.6,102.2,0,,,76048.4,13.15,-0.35,0.71,0.88,7.8,12.4,6.2,36.38,,,,,,,,,,
16.52.05.050,396.7,99.2,0,,,75850.2,13.18,-0.25,0.62,0.78,-6.9,6.8,3.5,36.38,,,,,,,,,,
16.52.05.058,374.8,93.7,0,,,78777.3,12.69,-0.25,0.58,0.79,3.2,8.9,0.0,36.38,,,,,,,,,,
16.52.05.071,335.6,83.9,0,,,79696.7,12.55,-0.29,0.55,0.87,-2.2,3.3,0.7,36.38,,,,,,,,,,
16.52.05.079,348.4,87.1,0,,,76888.5,13.01,-0.25,0.45,0.83,-17.6,4.7,-4.7,36.38,,,,,,,,,,
16.52.05.091,290.0,72.5,0,,,74280.7,13.46,-0.25,0.39,0.84,-27.9,-6.4,-9.0,36.38,,,,,,,,,,
16.52.05.099,240.7,60.2,0,,,79261.0,12.62,-0.26,0.36,0.89,-26.6,-6.6,-9.7,36.38,,,,,,,,,,
16.52.05.112,170.6,42.6,0,,,75161.0,13.3,-0.27,0.37,0.92,-16.5,1.8,-8.7,36.38,,,,,,,,,,
16.52.05.124,106.1,26.5,0,,,76129.7,13.14,-0.27,0.36,0.91,-10.0,3.5,-7.2,36.38,,,,,,,,,,
16.52.05.132,69.7,17.4,0,,,76456.0,13.08,-0.28,0.36,0.9,-8.2,0.1,-6.4,36.38,,,,,,,,,,
16.52.05.144,17.1,4.3,0,,,76023.0,13.15,-0.27,0.35,0.9,-4.6,1.3,-4.9,36.38,,,,,,,,,,
16.52.05.153,36.6,9.2,0,,,76334.5,13.1,-0.27,0.35,0.88,1.6,5.1,-3.6,36.38,,,,,,,,,,
16.52.05.165,23.3,5.8,0,,,77793.0,12.85,-0.27,0.37,0.89,5.9,7.3,-1.5,36.38,,,,,,,,,,
16.52.05.173,45.7,11.4,0,,,75734.1,13.2,-0.27,0.4,0.88,8.3,9.0,-0.4,36.38,,,,,,,,,,
16.52.05.186,30.7,7.7,0,,,75646.2,13.22,-0.27,0.41,0.87,8.9,8.1,0.7,36.38,,,,,,,,,,
16.52.05.194,62.6,15.6,0,,,77315.9,12.93,-0.26,0.41,0.86,8.6,7.0,1.4,36.38,,,,,,,,,,
16.52.05.206,80.6,20.2,0,,,78772.9,12.69,-0.27,0.41,0.87,7.2,7.8,1.7,36.38,,,,,,,,,,
16.52.05.214,66.4,16.6,0,,,76350.9,13.1,-0.27,0.41,0.87,6.9,8.4,1.4,36.38,,,,,,,,,,
16.52.05.226,49.5,12.4,0,,,76279.9,13.11,-0.26,0.41,0.86,4.7,7.0,0.6,36.38,,,,,,,,,,
16.52.05.239,54.1,13.5,0,,,78677.1,12.71,-0.26,0.41,0.87,3.4,5.6,-0.3,36.38,,,,,,,,,,
16.52.05.247,16.2,4.0,0,,,76830.8,13.02,-0.26,0.42,0.86,3.9,6.9,-1.1,36.38,,,,,,,,,,
16.52.05.259,27.4,6.8,0,,,74930.5,13.35,-0.26,0.42,0.87,3.0,6.8,-1.7,36.38,,,,,,,,,,
16.52.05.271,-16.2,4.0,0,,,73068.1,13.69,-0.27,0.42,0.88,0.4,5.7,-2.5,36.38,,,,,,,,,,
16.52.05.280,-18.7,4.7,0,,,74936.6,13.34,-0.27,0.41,0.87,-0.6,5.7,-2.6,36.38,,,,,,,,,,
16.52.05.292,42.2,10.6,0,,,75081.5,13.32,-0.27,0.41,0.86,-0.1,5.6,-2.0,36.38,,,,,,,,,,
16.52.05.304,-28.5,7.1,0,,,75147.7,13.31,-0.27,0.4,0.87,-1.3,5.3,-2.1,36.38,,,,,,,,,,
16.52.05.317,-5.8,1.4,0,,,76385.7,13.09,-0.27,0.4,0.87,-1.5,6.0,-2.3,36.38,,,,,,,,,,
16.52.05.325,-69.9,17.5,0,,,71691.9,13.95,-0.27,0.4,0.87,-0.3,6.6,-2.0,36.38,,,,,,,,,,
16.52.05.337,-24.5,6.1,0,,,77337.5,12.93,-0.27,0.4,0.88,1.1,6.8,-1.7,36.38,,,,,,,,,,
16.52.05.349,-32.5,8.1,0,,,75729.6,13.2,-0.27,0.4,0.86,1.2,6.6,-1.9,36.38,,,,,,,,,,
16.52.05.357,-44.4,11.1,0,,,78068.6,12.81,-0.26,0.4,0.86,1.2,5.0,-1.8,36.38,,,,,,,,,,
16.52.05.370,-72.1,18.0,0,,,78940.2,12.67,-0.26,0.4,0.88,1.9,6.4,-2.0,36.38,,,,,,,,,,
16.52.05.382,-49.3,12.3,0,,,74513.0,13.42,-0.27,0.42,0.88,3.3,6.3,-1.3,36.38,,,,,,,,,,
16.52.05.390,-60.2,15.0,0,,,75254.1,13.29,-0.26,0.43,0.87,1.6,4.1,-1.5,36.38,,,,,,,,,,
16.52.05.402,-85.6,21.4,0,,,76942.5,13.0,-0.26,0.42,0.87,-0.9,2.3,-2.0,36.38,,,,,,,,,,
16.52.05.415,-92.8,23.2,0,,,76416.1,13.09,-0.27,0.41,0.86,-0.6,2.3,-1.7,36.38,,,,,,,,,,
16.52.05.427,-107.3,26.8,0,,,74198.5,13.48,-0.27,0.41,0.87,0.3,2.1,-1.2,36.38,,,,,,,,,,
16.52.05.435,-88.9,22.2,0,,,75907.9,13.17,-0.26,0.39,0.86,0.3,2.3,-1.4,36.38,,,,,,,,,,
16.52.05.448,-96.5,24.1,0,,,77136.7,12.96,-0.26,0.39,0.87,1.5,1.9,-1.2,36.38,,,,,,,,,,
16.52.05.460,-129.3,32.3,0,,,73984.4,13.52,-0.26,0.4,0.88,3.3,5.7,-1.5,36.38,,,,,,,,,,
16.52.05.472,-121.7,30.4,0,,,73664.1,13.58,-0.26,0.41,0.87,3.8,6.7,-1.1,36.38,,,,,,,,,,
16.52.05.480,-106.4,26.6,0,,,73555.2,13.6,-0.26,0.42,0.86,2.9,6.5,-0.6,36.38,,,,,,,,,,
16.52.05.493,-118.2,29.6,0,,,72417.4,13.81,-0.27,0.42,0.87,2.4,6.6,-0.2,36.38,,,,,,,,,,
16.52.05.505,-170.7,42.7,0,,,75211.2,13.3,-0.27,0.42,0.87,2.4,7.0,0.6,36.38,,,,,,,,,,
16.52.05.518,-171.0,42.8,0,,,76993.2,12.99,-0.26,0.4,0.87,2.6,6.6,0.7,36.38,,,,,,,,,,
16.52.05.525,-131.8,33.0,0,,,76303.3,13.11,-0.26,0.4,0.87,3.2,5.9,0.8,36.38,,,,,,,,,,
16.52.05.538,-144.7,36.2,0,,,71775.6,13.93,-0.26,0.4,0.86,3.4,6.3,0.3,36.38,,,,,,,,,,
16.52.05.550,34.5,8.6,1,1.0,98.2,72278.3,13.84,-0.26,0.4,0.88,3.7,7.6,-0.5,36.38,,,,,,,,,,
16.52.05.558,65.7,16.4,0,1.0,,73567.8,13.59,-0.27,0.42,0.87,3.7,8.3,-0.7,36.38,,,,,,,,,,
16.52.05.571,122.5,30.6,0,1.0,,75562.3,13.23,-0.26,0.42,0.86,3.2,7.3,-1.0,36.38,,,,,,,,,,
16.52.05.583,178.6,44.6,0,1.0,,74178.3,13.48,-0.26,0.42,0.87,1.8,7.2,-1.2,36.38,,,,,,,,,,
16.52.05.595,206.8,51.7,0,1.0,,72178.3,13.85,-0.27,0.42,0.86,0.4,6.5,-1.7,36.38,,,,,,,,,,
16.52.05.603,310.1,77.5,0,1.0,,73822.9,13.55,-0.27,0.42,0.87,-0.4,6.1,-1.2,36.38,,,,,,,,,,
16.52.05.616,394.9,98.7,0,1.0,,74901.6,13.35,-0.27,0.42,0.88,-1.1,5.5,-1.9,36.38,,,,,,,,,,
16.52.05.628,373.6,93.4,0,1.0,,75823.8,13.19,-0.27,0.41,0.87,-1.4,3.9,-1.8,36.38,,,,,,,,,,
16.52.05.640,399.8,100.0,0,1.0,,71145.3,14.06,-0.26,0.41,0.87,-0.6,3.7,-1.8,36.38,,,,,,,,,,
16.52.05.652,393.7,98.4,0,1.0,,78271.8,12.78,-0.26,0.41,0.88,0.0,4.5,-2.1,36.38,,,,,,,,,,
16.52.05.661,413.3,103.3,0,1.0,,74017.1,13.51,-0.27,0.42,0.87,0.0,4.1,-1.5,36.38,,,,,,,,,,
16.52.05.673,370.7,92.7,0,1.0,,78965.6,12.66,-0.27,0.41,0.87,1.0,2.8,-0.6,36.38,,,,,,,,,,
16.52.05.681,377.2,94.3,0,1.0,,78334.0,12.77,-0.26,0.41,0.87,1.6,3.9,-0.7,36.38,,,,,,,,,,
16.52.05.693,367.9,92.0,0,1.0,,73773.5,13.56,-0.26,0.4,0.86,2.1,4.5,-0.5,36.38,,,,,,,,,,
16.52.05.702,353.0,88.2,0,1.0,,77865.5,12.84,-0.25,0.4,0.85,2.2,5.0,-0.4,36.38,,,,,,,,,,
16.52.05.714,285.0,71.2,0,1.0,,77723.6,12.87,-0.26,0.41,0.87,2.9,7.3,-0.8,36.38,,,,,,,,,,
16.52.05.726,228.4,57.1,0,1.0,,74904.2,13.35,-0.27,0.42,0.87,3.1,8.5,-1.0,36.38,,,,,,,,,,
16.52.05.734,145.5,36.4,0,1.0,,76552.3,13.06,-0.26,0.42,0.86,2.3,7.7,-1.0,36.38,,,,,,,,,,
16.52.05.747,73.2,18.3,0,1.0,,77120.6,12.97,-0.26,0.41,0.87,1.6,7.2,-0.7,36.38,,,,,,,,,,
16.52.05.755,28.4,7.1,0,1.0,,77190.0,12.96,-0.27,0.41,0.87,2.3,7.3,-0.3,36.38,,,,,,,,,,
16.52.05.767,0.6,0.2,0,1.0,,74290.8,13.46,-0.27,0.41,0.86,3.2,8.1,-0.2,36.38,,,,,,,,,,
16.52.05.775,24.4,6.1,0,1.0,,77920.4,12.83,-0.27,0.41,0.86,2.9,8.2,-0.6,36.38,,,,,,,,,,
16.52.05.788,76.4,19.1,0,1.0,,76345.6,13.1,-0.27,0.42,0.87,2.5,7.4,-0.8,36.38,,,,,,,,,,
16.52.05.796,71.2,17.8,0,1.0,,76120.4,13.14,-0.27,0.43,0.87,1.8,7.5,-1.1,36.38,,,,,,,,,,
16.52.05.808,59.8,15.0,0,1.0,,68556.0,14.59,-0.27,0.42,0.86,0.6,7.1,-1.7,36.38,,,,,,,,,,
16.52.05.845,43.8,11.0,0,1.0,,80031.8,12.5,-0.26,0.42,0.86,-0.4,6.3,-2.3,36.38,,,,,,,,,,
16.52.05.854,21.4,5.4,0,1.0,,72860.4,13.72,-0.26,0.41,0.87,-3.0,5.0,-4.2,36.38,,,,,,,,,,
16.52.05.866,68.9,17.2,0,1.0,,77701.7,12.87,-0.27,0.41,0.87,-1.4,5.3,-5.2,36.38,,,,,,,,,,
16.52.05.874,8.4,2.1,0,1.0,,77720.8,12.87,-0.26,0.42,0.87,-1.6,6.0,-4.7,36.38,,,,,,,,,,
16.52.05.886,-6.0,1.5,0,1.0,,75562.8,13.23,-0.27,0.42,0.87,-1.2,5.0,-4.7,36.38,,,,,,,,,,
16.52.05.894,2.5,0.6,0,1.0,,76241.5,13.12,-0.27,0.42,0.87,-1.8,4.5,-4.0,36.38,,,,,,,,,,
16.52.05.907,-5.6,1.4,0,1.0,,74540.7,13.42,-0.27,0.41,0.87,-1.8,3.8,-3.2,36.38,,,,,,,,,,
16.52.05.916,7.3,1.8,0,1.0,,76671.8,13.04,-0.27,0.41,0.87,-1.1,3.8,-2.4,36.38,,,,,,,,,,
16.52.05.927,-61.4,15.4,0,1.0,,76087.7,13.14,-0.27,0.4,0.87,0.0,4.2,-1.9,36.38,,,,,,,,,,
16.52.05.935,-45.0,11.2,0,1.0,,72126.4,13.86,-0.27,0.41,0.87,1.0,3.9,-1.1,36.38,,,,,,,,,,
16.52.05.951,-41.5,10.4,0,1.0,,75358.9,13.27,-0.26,0.4,0.87,2.9,4.3,-0.1,36.38,,,,,,,,,,
16.52.05.960,-48.6,12.2,0,1.0,,74519.3,13.42,-0.26,0.41,0.88,4.8,5.9,0.6,36.38,,,,,,,,,,
16.52.05.972,-77.7,19.4,0,1.0,,76359.5,13.1,-0.26,0.41,0.87,5.6,6.8,1.1,36.38,,,,,,,,,,
16.52.05.980,-47.4,11.8,0,1.0,,79439.3,12.59,-0.27,0.41,0.86,5.7,7.2,1.6,36.38,,,,,,,,,,
16.52.05.988,-36.1,9.0,0,1.0,,77488.5,12.91,-0.27,0.41,0.87,6.0,8.5,1.4,36.38,,,,,,,,,,
16.52.06.001,-44.6,11.2,0,1.0,,74391.6,13.44,-0.27,0.42,0.87,6.0,8.7,1.7,36.38,,,,,,,,,,
16.52.06.009,-84.4,21.1,0,1.0,,76006.7,13.16,-0.27,0.42,0.86,4.9,7.9,1.5,36.38,,,,,,,,,,
16.52.06.021,-70.0,17.5,0,1.0,,72000.5,13.89,-0.27,0.42,0.86,3.7,7.9,0.2,36.38,,,,,,,,,,
16.52.06.033,-57.8,14.4,0,1.0,,76895.4,13.0,-0.27,0.42,0.86,2.0,7.9,-1.3,36.38,,,,,,,,,,
16.52.06.042,-91.5,22.9,0,1.0,,75540.0,13.24,-0.27,0.43,0.86,0.5,6.9,-1.6,36.38,,,,,,,,,,
16.52.06.054,-133.0,33.2,0,1.0,,72003.8,13.89,-0.27,0.43,0.87,-1.1,6.2,-2.6,36.38,,,,,,,,,,
16.52.06.066,-85.0,21.2,0,1.0,,81808.4,12.22,-0.27,0.42,0.86,-3.2,5.4,-3.4,36.38,,,,,,,,,,
16.52.06.074,-123.1,30.8,0,1.0,,79523.2,12.57,-0.27,0.42,0.86,-3.7,4.7,-3.4,36.38,,,,,,,,,,
16.52.06.087,-138.5,34.6,0,1.0,,73105.1,13.68,-0.27,0.41,0.87,-3.9,4.5,-3.9,36.38,,,,,,,,,,
16.52.06.099,-117.3,29.3,0,1.0,,74933.5,13.35,-0.27,0.4,0.87,-3.8,5.2,-4.4,36.38,,,,,,,,,,
16.52.06.108,-135.0,33.8,0,1.0,,75313.9,13.28,-0.27,0.41,0.87,-2.9,5.1,-4.0,36.38,,,,,,,,,,
16.52.06.120,-146.8,36.7,0,1.0,,80616.5,12.4,-0.26,0.42,0.87,-1.7,5.1,-3.5,36.38,,,,,,,,,,
16.52.06.132,-150.2,37.6,0,1.0,,76940.5,13.0,-0.26,0.41,0.87,-1.1,5.0,-3.3,36.38,,,,,,,,,,
16.52.06.144,-173.0,43.2,0,1.0,,73594.6,13.59,-0.26,0.41,0.87,0.8,5.5,-2.3,36.38,,,,,,,,,,
16.52.06.152,-197.3,49.3,0,1.0,,75440.8,13.26,-0.26,0.41,0.87,2.4,6.1,-1.4,36.38,,,,,,,,,,
16.52.06.165,30.1,7.5,1,2.0,98.9,76576.8,13.06,-0.27,0.42,0.86,3.4,6.4,-0.3,36.38,,,,,,,,,,
16.52.06.177,123.2,30.8,0,2.0,,73359.5,13.63,-0.27,0.42,0.87,3.2,6.5,-0.2,36.38,,,,,,,,,,
16.52.06.185,166.3,41.6,0,2.0,,79105.0,12.64,-0.27,0.41,0.86,3.4,5.4,0.5,36.38,,,,,,,,,,
16.52.06.197,199.3,49.8,0,2.0,,75524.1,13.24,-0.27,0.4,0.86,3.6,5.9,0.3,36.38,,,,,,,,,,
16.52.06.210,274.5,68.6,0,2.0,,75806.3,13.19,-0.27,0.41,0.86,4.3,6.8,0.5,36.38,,,,,,,,,,
16.52.06.218,311.3,77.8,0,2.0,,77222.1,12.95,-0.27,0.41,0.87,4.7,7.8,0.1,36.38,,,,,,,,,,
16.52.06.230,342.2,85.6,0,2.0,,72571.2,13.78,-0.27,0.42,0.86,4.0,7.8,-0.1,36.38,,,,,,,,,,
16.52.06.243,355.9,89.0,0,2.0,,71832.5,13.92,-0.26,0.42,0.86,2.4,7.7,-0.9,36.38,,,,,,,,,,
16.52.06.251,419.6,104.9,0,2.0,,76106.6,13.14,-0.27,0.42,0.86,2.2,7.7,-1.2,36.38,,,,,,,,,,
16.52.06.263,411.5,102.9,0,2.0,,75837.9,13.19,-0.27,0.43,0.87,0.6,7.8,-1.7,36.38,,,,,,,,,,
16.52.06.275,383.7,95.9,0,2.0,,76178.9,13.13,-0.27,0.42,0.86,-0.6,7.3,-2.1,36.38,,,,,,,,,,
16.52.06.288,450.1,112.5,0,2.0,,75388.1,13.26,-0.27,0.42,0.87,-1.8,6.5,-2.6,36.38,,,,,,,,,,
16.52.06.296,423.9,106.0,0,2.0,,76920.9,13.0,-0.28,0.41,0.86,-2.1,6.4,-2.6,36.38,,,,,,,,,,
16.52.06.308,337.7,84.4,0,2.0,,73466.3,13.61,-0.27,0.41,0.87,-1.8,7.0,-3.5,36.38,,,,,,,,,,
16.52.06.320,328.1,82.0,0,2.0,,76489.4,13.07,-0.27,0.42,0.87,-2.4,7.5,-4.2,36.38,,,,,,,,,,
16.52.06.333,270.8,67.7,0,2.0,,74317.4,13.46,-0.27,0.42,0.86,-2.7,6.9,-4.9,36.38,,,,,,,,,,
16.52.06.341,193.7,48.4,0,2.0,,74397.8,13.44,-0.27,0.42,0.87,-3.8,6.0,-5.2,36.38,,,,,,,,,,
16.52.06.353,145.6,36.4,0,2.0,,74597.0,13.41,-0.28,0.42,0.87,-3.1,3.9,-5.0,36.38,,,,,,,,,,
16.52.06.366,92.7,23.2,0,2.0,,74975.0,13.34,-0.26,0.41,0.87,-1.6,2.3,-4.0,36.38,,,,,,,,,,
16.52.06.378,27.6,6.9,0,2.0,,72271.7,13.84,-0.27,0.42,0.88,-1.2,3.8,-3.8,36.38,,,,,,,,,,
16.52.06.387,33.9,8.5,0,2.0,,74914.5,13.35,-0.27,0.42,0.88,-1.6,3.1,-4.0,36.38,,,,,,,,,,
16.52.06.402,38.1,9.5,0,2.0,,76845.7,13.01,-0.27,0.41,0.86,-0.7,2.9,-3.7,36.38,,,,,,,,,,
16.52.06.410,49.1,12.3,0,2.0,,74649.9,13.4,-0.27,0.4,0.86,0.0,1.6,-1.7,36.38,,,,,,,,,,
16.52.06.423,64.6,16.2,0,2.0,,73592.0,13.59,-0.27,0.4,0.86,2.5,3.0,-0.8,36.38,,,,,,,,,,
16.52.06.431,88.3,22.1,0,2.0,,75361.9,13.27,-0.27,0.41,0.88,4.2,5.6,0.4,36.38,,,,,,,,,,
16.52.06.443,62.8,15.7,0,2.0,,73072.8,13.68,-0.27,0.4,0.87,4.2,6.2,0.2,36.38,,,,,,,,,,
16.52.06.451,70.5,17.6,0,2.0,,75511.4,13.24,-0.27,0.41,0.86,3.5,6.3,0.4,36.38,,,,,,,,,,
16.52.06.464,49.4,12.4,0,2.0,,78255.3,12.78,-0.27,0.41,0.87,3.9,7.0,0.5,36.38,,,,,,,,,,
16.52.06.472,54.5,13.6,0,2.0,,77704.4,12.87,-0.27,0.41,0.87,3.0,8.1,0.3,36.38,,,,,,,,,,
16.52.06.485,9.1,2.3,0,2.0,,79480.7,12.58,-0.27,0.41,0.86,2.8,7.1,0.5,36.38,,,,,,,,,,
16.52.06.493,-1.3,0.3,0,2.0,,74827.9,13.36,-0.27,0.42,0.87,2.5,7.7,0.3,36.38,,,,,,,,,,
16.52.06.505,6.3,1.6,0,2.0,,75955.6,13.17,-0.27,0.42,0.86,2.1,8.1,-0.5,36.38,,,,,,,,,,
16.52.06.513,-6.6,1.6,0,2.0,,76141.2,13.13,-0.27,0.41,0.86,0.6,7.2,-1.4,36.38,,,,,,,,,,
16.52.06.525,-41.6,10.4,0,2.0,,74022.9,13.51,-0.27,0.42,0.87,0.0,6.9,-2.1,36.38,,,,,,,,,,
16.52.06.533,6.1,1.5,0,2.0,,72999.1,13.7,-0.27,0.43,0.87,-1.0,7.7,-2.4,36.38,,,,,,,,,,
16.52.06.546,5.2,1.3,0,2.0,,74033.0,13.51,-0.27,0.42,0.87,-2.0,6.3,-2.6,36.38,,,,,,,,,,
16.52.06.554,-44.4,11.1,0,2.0,,81128.3,12.33,-0.27,0.42,0.86,-3.0,5.5,-3.1,36.38,,,,,,,,,,
16.52.06.566,-49.1,12.3,0,2.0,,78927.0,12.67,-0.27,0.42,0.87,-3.4,4.6,-3.0,36.38,,,,,,,,,,
16.52.06.575,-50.4,12.6,0,2.0,,73466.8,13.61,-0.27,0.41,0.87,-3.0,4.6,-3.1,36.38,,,,,,,,,,
16.52.06.587,-35.1,8.8,0,2.0,,76080.2,13.14,-0.27,0.41,0.88,-1.7,3.4,-2.9,36.38,,,,,,,,,,
16.52.06.597,-45.5,11.4,0,2.0,,75347.2,13.27,-0.26,0.41,0.87,-1.1,1.5,-2.8,36.38,,,,,,,,,,
16.52.06.608,-77.4,19.4,0,2.0,,74455.5,13.43,-0.26,0.4,0.87,-0.9,1.3,-2.7,36.38,,,,,,,,,,
16.52.06.644,-94.0,23.5,0,2.0,,75679.8,13.21,-0.27,0.39,0.87,0.8,1.0,-2.4,36.38,,,,,,,,,,
16.52.06.656,-112.3,28.1,0,2.0,,76070.5,13.15,-0.26,0.41,0.86,4.9,3.8,-0.8,36.38,,,,,,,,,,
16.52.06.664,-72.3,18.1,0,2.0,,80943.2,12.35,-0.26,0.41,0.86,4.8,4.8,-1.2,36.38,,,,,,,,,,
16.52.06.677,-124.4,31.1,0,2.0,,77230.3,12.95,-0.27,0.42,0.86,5.4,6.3,-1.7,36.38,,,,,,,,,,
16.52.06.685,-93.3,23.3,0,2.0,,77143.6,12.96,-0.27,0.42,0.86,5.4,6.0,-2.4,36.38,,,,,,,,,,
16.52.06.698,-102.5,25.6,0,2.0,,76696.6,13.04,-0.27,0.43,0.86,4.0,5.8,-3.4,36.38,,,,,,,,,,
16.52.06.705,-81.1,20.3,0,2.0,,78925.9,12.67,-0.27,0.42,0.86,2.2,4.5,-5.2,36.38,,,,,,,,,,
16.52.06.718,-136.2,34.0,0,2.0,,74517.3,13.42,-0.27,0.42,0.86,0.9,4.3,-6.4,36.38,,,,,,,,,,
16.52.06.726,-97.0,24.2,0,2.0,,74764.1,13.38,-0.27,0.41,0.87,-1.1,4.3,-7.4,36.38,,,,,,,,,,
16.52.06.738,-123.0,30.8,0,2.0,,75478.5,13.25,-0.27,0.41,0.86,-1.2,4.5,-8.6,36.38,,,,,,,,,,
16.52.06.746,-148.8,37.2,0,2.0,,78331.2,12.77,-0.27,0.42,0.86,-2.0,4.2,-9.4,36.38,,,,,,,,,,
16.52.06.760,-189.9,47.5,0,2.0,,75270.4,13.29,-0.27,0.42,0.85,-2.4,3.5,-10.5,36.38,,,,,,,,,,
16.52.06.777,15.5,3.9,1,3.0,99.4,72830.9,13.73,-0.26,0.41,0.86,-2.9,4.1,-10.2,36.38,,,,,,,,,,
16.52.06.780,5.8,1.4,0,3.0,,76750.4,13.03,-0.25,0.42,0.88,-3.6,3.2,-8.3,36.38,,,,,,,,,,
16.52.06.792,112.8,28.2,0,3.0,,77773.4,12.86,-0.26,0.41,0.88,-1.7,4.7,-7.9,36.38,,,,,,,,,,
16.52.06.800,140.5,35.1,0,3.0,,73014.7,13.7,-0.25,0.41,0.87,-0.4,5.8,-8.6,36.38,,,,,,,,,,
16.52.06.812,218.2,54.6,0,3.0,,77021.2,12.98,-0.26,0.41,0.87,-0.7,5.2,-7.1,36.38,,,,,,,,,,
16.52.06.821,276.1,69.0,0,3.0,,77291.1,12.94,-0.26,0.4,0.87,1.2,4.6,-5.1,36.38,,,,,,,,,,
16.52.06.833,295.5,73.9,0,3.0,,75932.7,13.17,-0.27,0.4,0.87,3.2,4.1,-2.0,36.38,,,,,,,,,,
16.52.06.842,346.0,86.5,0,3.0,,77608.2,12.89,-0.27,0.39,0.87,7.3,5.2,0.3,36.38,,,,,,,,,,
16.52.06.853,385.5,96.4,0,3.0,,78401.1,12.75,-0.27,0.39,0.87,9.9,6.1,1.7,36.38,,,,,,,,,,
16.52.06.862,358.2,89.6,0,3.0,,76458.4,13.08,-0.28,0.4,0.87,9.4,6.1,2.0,36.38,,,,,,,,,,
16.52.06.878,417.0,104.2,0,3.0,,77945.2,12.83,-0.28,0.41,0.86,8.7,6.5,0.7,36.38,,,,,,,,,,
16.52.06.886,374.3,93.6,0,3.0,,74460.7,13.43,-0.28,0.42,0.87,8.1,5.7,0.7,36.38,,,,,,,,,,
16.52.06.894,358.2,89.6,0,3.0,,73232.2,13.66,-0.28,0.43,0.85,6.4,7.5,0.2,36.38,,,,,,,,,,
16.52.06.907,377.9,94.5,0,3.0,,79148.3,12.63,-0.28,0.44,0.85,4.8,7.7,-1.1,36.38,,,,,,,,,,
16.52.06.915,401.7,100.4,0,3.0,,74627.7,13.4,-0.28,0.45,0.85,1.2,6.3,-2.1,36.38,,,,,,,,,,
16.52.06.933,330.5,82.6,0,3.0,,75709.0,13.21,-0.28,0.44,0.86,-3.2,6.7,-3.9,36.38,,,,,,,,,,
16.52.06.936,327.5,81.9,0,3.0,,73916.0,13.53,-0.28,0.42,0.85,-5.6,5.5,-5.3,36.38,,,,,,,,,,
16.52.06.947,289.3,72.3,0,3.0,,73631.6,13.58,-0.27,0.42,0.86,-6.9,4.2,-7.5,36.38,,,,,,,,,,
16.52.06.956,211.5,52.9,0,3.0,,76439.4,13.08,-0.27,0.42,0.86,-8.3,3.6,-10.2,36.38,,,,,,,,,,
16.52.06.968,133.7,33.4,0,3.0,,75625.3,13.22,-0.27,0.41,0.87,-9.3,4.7,-10.9,36.38,,,,,,,,,,
16.52.06.980,66.5,16.6,0,3.0,,75879.0,13.18,-0.27,0.41,0.86,-9.1,3.5,-10.3,36.38,,,,,,,,,,
16.52.06.988,32.4,8.1,0,3.0,,75956.8,13.17,-0.27,0.4,0.87,-8.4,1.8,-8.4,36.38,,,,,,,,,,
16.52.07.003,67.7,16.9,0,3.0,,80172.7,12.47,-0.26,0.39,0.88,-5.8,3.7,-7.7,36.38,,,,,,,,,,
16.52.07.012,40.7,10.2,0,3.0,,78867.9,12.68,-0.27,0.39,0.88,-3.3,6.7,-6.6,36.38,,,,,,,,,,
16.52.07.023,53.6,13.4,0,3.0,,79103.9,12.64,-0.27,0.4,0.88,-2.1,7.3,-4.7,36.38,,,,,,,,,,
16.52.07.029,49.7,12.4,0,3.0,,71716.6,13.94,-0.27,0.4,0.88,-0.9,8.0,-3.8,36.38,,,,,,,,,,
16.52.07.042,95.4,23.8,0,3.0,,77420.1,12.92,-0.28,0.4,0.87,0.1,10.0,-3.7,36.38,,,,,,,,,,
16.52.07.050,99.1,24.8,0,3.0,,72226.7,13.85,-0.28,0.4,0.86,0.6,7.8,-2.3,36.38,,,,,,,,,,
16.52.07.067,73.9,18.5,0,3.0,,74358.9,13.45,-0.28,0.41,0.87,0.1,7.9,-1.4,36.38,,,,,,,,,,
16.52.07.077,36.7,9.2,0,3.0,,79565.8,12.57,-0.28,0.42,0.87,-0.2,8.4,-1.2,36.38,,,,,,,,,,
16.52.07.080,45.3,11.3,0,3.0,,79085.5,12.64,-0.28,0.41,0.87,-0.7,5.9,-1.2,36.38,,,,,,,,,,
16.52.07.091,51.1,12.8,0,3.0,,77992.3,12.82,-0.28,0.39,0.88,-0.3,5.2,-0.4,36.38,,,,,,,,,,
16.52.07.103,8.0,2.0,0,3.0,,77440.3,12.91,-0.28,0.39,0.88,1.7,5.7,0.3,36.38,,,,,,,,,,
16.52.07.111,-7.4,1.8,0,3.0,,76582.4,13.06,-0.28,0.39,0.87,3.7,6.0,0.8,36.38,,,,,,,,,,
16.52.07.123,-18.0,4.5,0,3.0,,76889.0,13.01,-0.28,0.4,0.87,5.2,4.8,1.7,36.38,,,,,,,,,,
16.52.07.132,-19.2,4.8,0,3.0,,78297.0,12.77,-0.27,0.41,0.87,4.4,4.5,1.6,36.38,,,,,,,,,,
16.52.07.146,-4.6,1.2,0,3.0,,72667.2,13.76,-0.28,0.42,0.87,3.3,4.3,1.3,36.38,,,,,,,,,,
16.52.07.152,6.8,1.7,0,3.0,,76556.3,13.06,-0.27,0.41,0.86,2.1,3.9,0.8,36.38,,,,,,,,,,
16.52.07.167,-26.7,6.7,0,3.0,,74240.5,13.47,-0.27,0.41,0.86,0.5,3.7,0.5,36.38,,,,,,,,,,
16.52.07.172,-30.7,7.7,0,3.0,,75089.3,13.32,-0.27,0.4,0.86,0.7,3.8,-0.2,36.38,,,,,,,,,,
16.52.07.185,-48.2,12.0,0,3.0,,75466.4,13.25,-0.27,0.41,0.87,0.2,5.0,-0.9,36.38,,,,,,,,,,
16.52.07.193,-53.1,13.3,0,3.0,,76016.8,13.15,-0.27,0.41,0.87,-0.7,5.9,-1.7,36.38,,,,,,,,,,
16.52.07.206,-55.6,13.9,0,3.0,,74622.7,13.4,-0.27,0.4,0.88,-1.7,5.2,-2.4,36.38,,,,,,,,,,
16.52.07.214,-68.0,17.0,0,3.0,,70812.0,14.12,-0.27,0.4,0.87,-1.3,5.1,-2.6,36.38,,,,,,,,,,
16.52.07.226,-55.6,13.9,0,3.0,,76097.4,13.14,-0.28,0.4,0.86,-1.8,5.1,-2.6,36.38,,,,,,,,,,
16.52.07.234,-70.5,17.6,0,3.0,,74874.5,13.36,-0.27,0.41,0.87,-2.0,5.2,-2.3,36.38,,,,,,,,,,
16.52.07.246,-106.6,26.6,0,3.0,,75202.4,13.3,-0.27,0.4,0.86,-1.9,5.1,-2.5,36.38,,,,,,,,,,
16.52.07.255,-76.3,19.1,0,3.0,,77398.1,12.92,-0.27,0.41,0.87,-2.1,4.5,-2.8,36.38,,,,,,,,,,
16.52.07.267,-106.8,26.7,0,3.0,,76364.5,13.1,-0.28,0.4,0.88,-2.3,5.0,-3.3,36.38,,,,,,,,,,
16.52.07.279,-97.6,24.4,0,3.0,,76156.7,13.13,-0.27,0.39,0.86,-2.1,5.5,-3.4,36.38,,,,,,,,,,
16.52.07.289,-97.0,24.2,0,3.0,,75552.2,13.24,-0.28,0.39,0.88,-2.3,5.3,-3.8,36.38,,,,,,,,,,
16.52.07.300,-114.0,28.5,0,3.0,,75779.8,13.2,-0.28,0.39,0.87,-2.3,5.9,-3.3,36.38,,,,,,,,,,
16.52.07.308,-93.9,23.5,0,3.0,,73590.9,13.59,-0.28,0.4,0.87,-1.3,5.6,-2.9,36.38,,,,,,,,,,
16.52.07.320,-132.4,33.1,0,3.0,,76168.2,13.13,-0.28,0.4,0.87,-1.1,4.6,-2.3,36.38,,,,,,,,,,
16.52.07.335,-143.4,35.8,0,3.0,,73859.3,13.54,-0.28,0.41,0.87,-2.3,4.5,-2.6,36.38,,,,,,,,,,
16.52.07.347,-103.3,25.8,0,3.0,,74603.4,13.4,-0.27,0.4,0.87,-2.5,3.6,-2.7,36.38,,,,,,,,,,
16.52.07.352,-145.3,36.3,0,3.0,,72946.9,13.71,-0.27,0.4,0.87,-2.3,3.6,-2.8,36.38,,,,,,,,,,
16.52.07.361,-148.7,37.2,0,3.0,,77011.0,12.99,-0.27,0.39,0.87,-2.9,4.3,-3.6,36.38,,,,,,,,,,
16.52.07.369,-123.5,30.9,0,3.0,,80180.1,12.47,-0.27,0.39,0.88,-3.0,4.7,-4.7,36.38,,,,,,,,,,
16.52.07.382,-175.3,43.8,0,3.0,,77037.1,12.98,-0.27,0.39,0.88,-2.5,3.7,-4.4,36.38,,,,,,,,,,
16.52.07.390,-155.4,38.8,0,3.0,,69846.8,14.32,-0.28,0.39,0.88,-1.6,4.8,-4.2,36.38,,,,,,,,,,
16.52.07.402,72.7,18.2,1,4.0,105.8,76542.7,13.06,-0.27,0.4,0.86,-0.7,5.2,-3.3,36.38,,,,,,,,,,
16.52.07.411,115.0,28.8,0,4.0,,75209.1,13.3,-0.28,0.4,0.87,-2.1,5.8,-3.2,36.38,,,,,,,,,,
16.52.07.457,366.2,91.6,0,4.0,,76345.6,13.1,-0.27,0.4,0.88,-2.5,5.5,-2.2,36.38,,,,,,,,,,
16.52.07.471,359.7,,0,4.0,,78658.0,12.71,-0.27,0.39,0.88,0.8,7.6,-2.2,36.38,,,,,,,,,,
16.52.07.473,320.6,80.2,0,4.0,,76434.8,13.08,-0.27,0.4,0.88,2.0,7.6,-0.8,36.38,,,,,,,,,,
16.52.07.489,382.1,95.5,0,4.0,,77781.7,12.86,-0.27,0.4,0.88,2.2,7.0,-0.5,36.38,,,,,,,,,,
16.52.07.502,395.8,99.0,0,4.0,,,,-0.27,0.39,0.87,1.9,,,36.38,,,,,,,,,,
16.52.07.515,384.3,96.1,0,4.0,,73294.2,13.64,-0.28,0.39,0.88,2.3,7.2,0.5,36.38,,,,,,,,,,
16.52.07.517,373.8,93.4,0,4.0,,77800.3,12.85,-0.27,0.39,0.87,1.9,6.6,0.5,36.38,,,,,,,,,,
16.52.07.525,418.1,104.5,0,4.0,,77662.7,12.88,-0.27,0.39,0.87,1.9,6.8,0.3,36.38,,,,,,,,,,
16.52.07.533,350.1,87.5,0,4.0,,75950.6,13.17,-0.27,0.4,0.87,2.1,6.8,-0.1,36.38,,,,,,,,,,
16.52.07.546,328.9,82.2,0,4.0,,77952.7,12.83,-0.27,0.4,0.87,1.8,6.5,-0.8,36.38,,,,,,,,,,
16.52.07.554,258.7,64.7,0,4.0,,77687.0,12.87,-0.28,0.4,0.87,1.2,7.3,-1.1,36.38,,,,,,,,,,
16.52.07.566,246.7,61.7,0,4.0,,75631.8,13.22,-0.28,0.4,0.87,0.2,6.3,-1.0,36.38,,,,,,,,,,
16.52.07.574,172.0,43.0,0,4.0,,74185.2,13.48,-0.28,0.4,0.88,-0.6,5.0,-1.0,36.38,,,,,,,,,,
16.52.07.586,115.8,29.0,0,4.0,,74580.6,13.41,-0.27,0.39,0.87,-0.3,5.6,-1.2,36.38,,,,,,,,,,
16.52.07.595,96.7,24.2,0,4.0,,78663.9,12.71,-0.27,0.39,0.88,-0.2,5.3,-1.4,36.38,,,,,,,,,,
16.52.07.607,-25.1,6.3,0,4.0,,75075.3,13.32,-0.27,0.39,0.88,-0.5,4.9,-1.7,36.38,,,,,,,,,,
16.52.07.615,7.6,1.9,0,4.0,,77254.2,12.94,-0.27,0.39,0.89,0.7,5.6,-1.8,36.38,,,,,,,,,,
16.52.07.627,-6.4,1.6,0,4.0,,74624.3,13.4,-0.28,0.39,0.87,1.7,6.4,-1.3,36.38,,,,,,,,,,
16.52.07.636,44.2,11.0,0,4.0,,75349.9,13.27,-0.27,0.4,0.87,0.5,6.1,-1.7,36.38,,,,,,,,,,
16.52.07.648,71.0,17.8,0,4.0,,77783.9,12.86,-0.28,0.4,0.87,-0.8,5.8,-2.0,36.38,,,,,,,,,,
16.52.07.656,56.5,14.1,0,4.0,,77498.7,12.9,-0.27,0.4,0.87,-1.7,6.4,-2.2,36.38,,,,,,,,,,
16.52.07.668,63.3,15.8,0,4.0,,75528.2,13.24,-0.27,0.39,0.87,-1.5,6.0,-2.3,36.38,,,,,,,,,,
16.52.07.677,63.6,15.9,0,4.0,,79003.0,12.66,-0.28,0.39,0.88,-1.5,6.3,-2.7,36.38,,,,,,,,,,
16.52.07.690,70.2,17.6,0,4.0,,74322.0,13.45,-0.28,0.39,0.87,-2.2,6.2,-3.5,36.38,,,,,,,,,,
16.52.07.697,72.1,18.0,0,4.0,,74128.3,13.49,-0.28,0.39,0.87,-2.5,5.2,-3.9,36.38,,,,,,,,,,
16.52.07.709,49.6,12.4,0,4.0,,75837.1,13.19,-0.28,0.39,0.87,-2.8,5.5,-4.1,36.38,,,,,,,,,,
16.52.07.719,31.3,7.8,0,4.0,,77779.9,12.86,-0.28,0.39,0.87,-2.4,5.4,-4.4,36.38,,,,,,,,,,
16.52.07.730,0.2,0.0,0,4.0,,80799.7,12.38,-0.28,0.39,0.88,-1.7,4.2,-3.3,36.38,,,,,,,,,,
16.52.07.742,-1.6,0.4,0,4.0,,72533.1,13.79,-0.27,0.39,0.88,-0.7,4.4,-2.4,36.38,,,,,,,,,,
16.52.07.750,-37.4,9.4,0,4.0,,76092.1,13.14,-0.27,0.4,0.87,0.0,5.4,-2.5,36.38,,,,,,,,,,
16.52.07.758,0.3,0.1,0,4.0,,78847.2,12.68,-0.28,0.39,0.87,-0.8,4.8,-3.3,36.38,,,,,,,,,,
16.52.07.771,7.9,2.0,0,4.0,,76399.7,13.09,-0.28,0.39,0.88,-1.6,4.1,-3.5,36.38,,,,,,,,,,
16.52.07.779,-17.5,4.4,0,4.0,,74470.1,13.43,-0.27,0.38,0.88,-1.3,4.9,-3.0,36.38,,,,,,,,,,
16.52.07.791,-50.3,12.6,0,4.0,,75551.1,13.24,-0.28,0.38,0.88,-0.1,4.6,-2.9,36.38,,,,,,,,,,
16.52.07.799,-50.2,12.6,0,4.0,,75715.4,13.21,-0.27,0.38,0.87,0.0,4.8,-2.7,36.38,,,,,,,,,,
16.52.07.812,-57.5,14.4,0,4.0,,79196.3,12.63,-0.28,0.4,0.88,1.3,5.8,-2.3,36.38,,,,,,,,,,
16.52.07.820,-67.4,16.8,0,4.0,,79204.6,12.63,-0.27,0.4,0.87,1.5,6.9,-1.8,36.38,,,,,,,,,,
16.52.07.835,-40.8,10.2,0,4.0,,74276.5,13.46,-0.27,0.4,0.88,1.0,6.3,-0.6,36.38,,,,,,,,,,
16.52.07.841,-104.4,26.1,0,4.0,,80108.3,12.48,-0.27,0.39,0.88,1.0,5.2,-0.5,36.38,,,,,,,,,,
16.52.07.852,-47.4,11.8,0,4.0,,74902.3,13.35,-0.27,0.38,0.88,0.7,5.9,-0.8,36.38,,,,,,,,,,
16.52.07.861,-53.1,13.3,0,4.0,,76760.1,13.03,-0.27,0.38,0.88,1.3,5.9,-0.5,36.38,,,,,,,,,,
16.52.07.875,-93.2,23.3,0,4.0,,76864.1,13.01,-0.27,0.37,0.88,1.8,5.8,-0.9,36.38,,,,,,,,,,
16.52.07.881,-81.3,20.3,0,4.0,,74547.6,13.41,-0.28,0.38,0.88,2.8,6.4,-0.3,36.38,,,,,,,,,,
16.52.07.897,-93.7,23.4,0,4.0,,77957.6,12.83,-0.28,0.39,0.87,3.8,6.8,-0.2,36.38,,,,,,,,,,
16.52.07.902,-73.0,18.2,0,4.0,,72780.4,13.74,-0.28,0.39,0.88,3.1,6.3,-0.3,36.38,,,,,,,,,,
16.52.07.914,-120.0,30.0,0,4.0,,76988.9,12.99,-0.27,0.39,0.87,1.5,5.8,-0.6,36.38,,,,,,,,,,
16.52.07.922,-130.4,32.6,0,4.0,,77733.0,12.86,-0.28,0.38,0.87,1.5,5.0,-0.5,36.38,,,,,,,,,,
16.52.07.935,-148.6,37.2,0,4.0,,77449.3,12.91,-0.28,0.39,0.88,2.0,5.4,-0.4,36.38,,,,,,,,,,
16.52.07.947,-119.2,29.8,0,4.0,,79283.8,12.61,-0.27,0.39,0.88,2.2,5.9,-0.4,36.38,,,,,,,,,,
16.52.07.955,-111.3,27.8,0,4.0,,75880.8,13.18,-0.27,0.39,0.88,2.8,6.0,-0.5,36.38,,,,,,,,,,
16.52.07.968,-148.4,37.1,0,4.0,,71357.6,14.01,-0.27,0.38,0.87,2.9,6.4,-0.1,36.38,,,,,,,,,,
16.52.07.978,-157.1,39.3,0,4.0,,79632.6,12.56,-0.27,0.39,0.87,2.8,6.4,-0.2,36.38,,,,,,,,,,
16.52.07.989,-146.1,36.5,0,4.0,,75399.1,13.26,-0.27,0.4,0.88,2.7,7.3,-0.6,36.38,,,,,,,,,,
16.52.08.000,-173.7,43.4,0,4.0,,75022.4,13.33,-0.28,0.41,0.88,1.2,6.7,-1.1,36.38,,,,,,,,,,
16.52.08.009,38.2,9.6,1,5.0,92.2,73971.6,13.52,-0.27,0.4,0.87,0.3,5.8,-1.3,36.38,,,,,,,,,,
16.52.08.023,74.4,18.6,0,5.0,,72963.3,13.71,-0.28,0.4,0.87,-0.8,4.8,-1.6,36.38,,,,,,,,,,
16.52.08.029,159.7,39.9,0,5.0,,72180.9,13.85,-0.27,0.39,0.88,-1.1,4.3,-1.5,36.38,,,,,,,,,,
16.52.08.041,181.2,45.3,0,5.0,,76389.9,13.09,-0.27,0.39,0.88,-0.2,5.0,-1.2,36.38,,,,,,,,,,
16.52.08.049,268.0,67.0,0,5.0,,78427.5,12.75,-0.27,0.39,0.88,0.2,5.6,-1.2,36.38,,,,,,,,,,
16.52.08.065,334.3,83.6,0,5.0,,74952.7,13.34,-0.27,0.39,0.88,1.7,5.3,-0.7,36.38,,,,,,,,,,
16.52.08.070,356.3,89.1,0,5.0,,76843.6,13.01,-0.28,0.38,0.87,2.8,5.9,-0.3,36.38,,,,,,,,,,
16.52.08.082,361.2,90.3,0,5.0,,79717.8,12.54,-0.27,0.38,0.87,3.1,6.5,-0.1,36.38,,,,,,,,,,
16.52.08.090,386.7,96.7,0,5.0,,76266.9,13.11,-0.28,0.39,0.88,3.4,6.4,-0.1,36.38,,,,,,,,,,
16.52.08.103,426.2,106.6,0,5.0,,73799.4,13.55,-0.28,0.39,0.88,2.5,6.3,-0.3,36.38,,,,,,,,,,
16.52.08.111,385.5,96.4,0,5.0,,76502.7,13.07,-0.27,0.4,0.87,2.5,4.7,0.5,36.38,,,,,,,,,,
16.52.08.123,425.2,106.3,0,5.0,,74351.1,13.45,-0.27,0.39,0.87,2.7,4.5,0.7,36.38,,,,,,,,,,
16.52.08.132,436.1,109.0,0,5.0,,77117.4,12.97,-0.27,0.39,0.87,3.0,5.2,0.7,36.38,,,,,,,,,,
16.52.08.143,344.0,86.0,0,5.0,,73984.5,13.52,-0.27,0.39,0.88,5.3,4.1,1.4,36.38,,,,,,,,,,
16.52.08.155,385.2,96.3,0,5.0,,72529.7,13.79,-0.27,0.39,0.88,5.8,6.1,1.6,36.38,,,,,,,,,,
16.52.08.166,325.4,81.4,0,5.0,,78257.3,12.78,-0.27,0.4,0.87,5.1,2.8,1.6,36.38,,,,,,,,,,
16.52.08.172,279.8,70.0,0,5.0,,76439.8,13.08,-0.26,0.4,0.88,5.0,4.5,2.1,36.38,,,,,,,,,,
16.52.08.185,215.2,53.8,0,5.0,,77357.9,12.93,-0.27,0.4,0.87,6.1,5.4,2.8,36.38,,,,,,,,,,
16.52.08.197,166.7,41.7,0,5.0,,74391.9,13.44,-0.26,0.4,0.87,6.4,5.0,3.5,36.38,,,,,,,,,,
16.52.08.205,100.3,25.1,0,5.0,,72597.8,13.77,-0.27,0.41,0.87,7.1,5.2,3.5,36.38,,,,,,,,,,
16.52.08.221,10.2,2.6,0,5.0,,78036.4,12.81,-0.27,0.39,0.87,6.7,5.5,3.4,36.38,,,,,,,,,,
16.52.08.258,54.1,13.5,0,5.0,,78264.9,12.78,-0.28,0.41,0.86,4.4,3.5,2.1,36.38,,,,,,,,,,
16.52.08.266,51.0,12.8,0,5.0,,74014.0,13.51,-0.27,0.41,0.86,2.8,2.1,0.9,36.38,,,,,,,,,,
16.52.08.278,90.1,22.5,0,5.0,,78514.9,12.74,-0.26,0.42,0.87,1.9,2.2,0.3,36.38,,,,,,,,,,
16.52.08.291,103.7,25.9,0,5.0,,76291.5,13.11,-0.27,0.42,0.87,0.9,1.5,0.0,36.38,,,,,,,,,,
16.52.08.299,39.5,9.9,0,5.0,,75603.1,13.23,-0.26,0.42,0.87,-0.1,1.4,-0.6,36.38,,,,,,,,,,
16.52.08.311,107.4,26.8,0,5.0,,74111.1,13.49,-0.25,0.41,0.86,-0.5,0.6,-0.5,36.38,,,,,,,,,,
16.52.08.323,74.9,18.7,0,5.0,,77368.8,12.93,-0.26,0.4,0.88,1.0,1.5,-0.7,36.38,,,,,,,,,,
16.52.08.336,21.3,5.3,0,5.0,,77175.8,12.96,-0.26,0.41,0.87,1.8,2.3,-0.3,36.38,,,,,,,,,,
16.52.08.344,-12.7,3.2,0,5.0,,77043.7,12.98,-0.26,0.41,0.87,2.3,1.6,0.0,36.38,,,,,,,,,,
16.52.08.356,3.4,0.8,0,5.0,,71032.5,14.08,-0.25,0.41,0.87,2.1,2.3,0.5,36.38,,,,,,,,,,
16.52.08.369,0.5,0.1,0,5.0,,74983.7,13.34,-0.28,0.41,0.87,3.6,1.2,1.2,36.38,,,,,,,,,,
16.52.08.377,17.2,4.3,0,5.0,,76273.7,13.11,-0.26,0.41,0.87,4.4,1.4,3.3,36.38,,,,,,,,,,
16.52.08.389,-18.2,4.6,0,5.0,,76231.5,13.12,-0.26,0.39,0.86,6.1,3.0,4.3,36.38,,,,,,,,,,
16.52.08.401,11.6,2.9,0,5.0,,72625.1,13.77,-0.26,0.39,0.86,7.9,4.1,4.6,36.38,,,,,,,,,,
16.52.08.410,-37.8,9.4,0,5.0,,77022.3,12.98,-0.26,0.41,0.87,8.2,5.7,4.4,36.38,,,,,,,,,,
16.52.08.422,-35.9,9.0,0,5.0,,78251.9,12.78,-0.26,0.43,0.87,7.8,6.7,3.3,36.38,,,,,,,,,,
16.52.08.434,-80.2,20.0,0,5.0,,71976.9,13.89,-0.26,0.44,0.86,5.8,4.4,2.6,36.38,,,,,,,,,,
16.52.08.442,-48.7,12.2,0,5.0,,76258.5,13.11,-0.26,0.44,0.87,4.3,3.0,2.5,36.38,,,,,,,,,,
16.52.08.454,-72.6,18.2,0,5.0,,73695.3,13.57,-0.26,0.42,0.87,2.8,2.3,2.4,36.38,,,,,,,,,,
16.52.08.467,-72.7,18.2,0,5.0,,76246.1,13.12,-0.25,0.42,0.87,2.5,2.1,2.6,36.38,,,,,,,,,,
16.52.08.475,-52.5,13.1,0,5.0,,73508.6,13.6,-0.24,0.41,0.87,2.9,1.6,2.1,36.38,,,,,,,,,,
16.52.08.487,-65.9,16.5,0,5.0,,76002.6,13.16,-0.24,0.42,0.88,4.5,0.7,2.6,36.38,,,,,,,,,,
16.52.08.500,-95.4,23.8,0,5.0,,75916.8,13.17,-0.24,0.43,0.89,6.2,0.7,3.2,36.38,,,,,,,,,,
16.52.08.508,-103.6,25.9,0,5.0,,79894.4,12.52,-0.25,0.43,0.88,7.2,-0.2,4.6,36.38,,,,,,,,,,
16.52.08.520,-107.0,26.8,0,5.0,,78451.3,12.75,-0.24,0.42,0.88,10.2,-1.5,6.5,36.38,,,,,,,,,,
16.52.08.532,-163.1,40.8,0,5.0,,79641.3,12.56,-0.25,0.41,0.87,12.4,-1.3,8.9,36.38,,,,,,,,,,
16.52.08.541,-99.5,24.9,0,5.0,,74093.7,13.5,-0.25,0.42,0.86,16.7,0.1,9.9,36.38,,,,,,,,,,
16.52.08.553,-135.1,33.8,0,5.0,,71658.5,13.96,-0.24,0.42,0.84,14.9,1.3,12.1,36.38,,,,,,,,,,
16.52.08.565,-150.0,37.5,0,5.0,,72889.3,13.72,-0.22,0.42,0.85,13.3,1.7,12.7,36.38,,,,,,,,,,
16.52.08.574,-126.0,31.5,0,5.0,,73846.2,13.54,-0.25,0.42,0.86,17.4,5.5,9.3,36.38,,,,,,,,,,
16.52.08.586,-160.7,40.2,0,5.0,,76120.2,13.14,-0.26,0.44,0.83,12.6,14.4,7.7,36.38,,,,,,,,,,
16.52.08.598,-128.6,32.2,0,5.0,,79645.1,12.56,-0.26,0.46,0.84,9.3,18.1,4.2,36.38,,,,,,,,,,
16.52.08.606,-134.0,33.5,0,5.0,,75797.9,13.19,-0.25,0.49,0.84,1.3,15.9,1.8,36.38,,,,,,,,,,
16.52.08.618,-170.8,42.7,0,5.0,,76892.7,13.01,-0.23,0.5,0.85,-6.0,11.1,0.0,36.38,,,,,,,,,,
16.52.08.631,62.0,15.5,1,6.0,103.0,77911.1,12.84,-0.22,0.48,0.87,-8.5,8.3,-1.9,36.38,,,,,,,,,,
16.52.08.643,120.8,30.2,0,6.0,,74884.8,13.35,-0.22,0.43,0.88,-7.4,5.4,-2.4,36.38,,,,,,,,,,
16.52.08.651,154.2,38.6,0,6.0,,76225.4,13.12,-0.22,0.41,0.88,-3.6,1.5,-2.1,36.38,,,,,,,,,,
16.52.08.664,224.0,56.0,0,6.0,,73503.9,13.6,-0.24,0.41,0.89,2.2,1.1,-1.6,36.38,,,,,,,,,,
16.52.08.676,262.9,65.7,0,6.0,,71374.4,14.01,-0.25,0.41,0.88,7.3,3.8,-1.1,36.38,,,,,,,,,,
16.52.08.684,330.8,82.7,0,6.0,,76496.8,13.07,-0.25,0.43,0.87,11.5,3.6,1.4,36.38,,,,,,,,,,
16.52.08.696,367.5,91.9,0,6.0,,76061.8,13.15,-0.24,0.44,0.86,12.7,4.0,3.5,36.38,,,,,,,,,,
16.52.08.709,408.0,102.0,0,6.0,,76335.3,13.1,-0.24,0.45,0.84,10.7,3.4,6.8,36.38,,,,,,,,,,
16.52.08.717,385.1,96.3,0,6.0,,78223.4,12.78,-0.25,0.46,0.85,12.2,5.2,7.9,36.38,,,,,,,,,,
16.52.08.729,382.8,95.7,0,6.0,,79100.4,12.64,-0.25,0.43,0.84,13.5,11.0,6.8,36.38,,,,,,,,,,
16.52.08.741,321.9,80.5,0,6.0,,75770.5,13.2,-0.24,0.43,0.83,9.8,12.0,5.2,36.38,,,,,,,,,,
16.52.08.754,425.5,106.4,0,6.0,,73860.6,13.54,-0.24,0.46,0.84,5.1,12.4,2.2,36.38,,,,,,,,,,
16.52.08.762,373.5,93.4,0,6.0,,74228.9,13.47,-0.24,0.47,0.85,0.0,15.4,-1.1,36.38,,,,,,,,,,
16.52.08.774,313.1,78.3,0,6.0,,72373.8,13.82,-0.24,0.48,0.84,-5.0,13.4,-3.7,36.38,,,,,,,,,,
16.52.08.786,280.2,70.0,0,6.0,,79602.5,12.56,-0.24,0.49,0.85,-8.7,9.2,-4.9,36.38,,,,,,,,,,
16.52.08.799,188.0,47.0,0,6.0,,73495.4,13.61,-0.25,0.48,0.87,-9.8,4.7,-5.4,36.38,,,,,,,,,,
16.52.08.807,182.4,45.6,0,6.0,,76248.2,13.12,-0.25,0.44,0.87,-7.4,0.4,-4.3,36.38,,,,,,,,,,
16.52.08.819,97.6,24.4,0,6.0,,72284.6,13.83,-0.24,0.43,0.88,-3.0,-1.6,-2.6,36.38,,,,,,,,,,
16.52.08.831,35.8,9.0,0,6.0,,76393.1,13.09,-0.25,0.43,0.87,2.0,-1.1,-0.9,36.38,,,,,,,,,,
16.52.08.844,18.0,4.5,0,6.0,,75267.9,13.29,-0.25,0.43,0.87,5.1,-1.1,1.1,36.38,,,,,,,,,,
16.52.08.856,44.3,11.1,0,6.0,,72386.9,13.81,-0.24,0.42,0.85,7.6,0.9,2.5,36.38,,,,,,,,,,
16.52.08.866,75.2,18.8,0,6.0,,73764.9,13.56,-0.22,0.42,0.83,8.8,5.7,3.1,36.38,,,,,,,,,,
16.52.08.877,44.2,11.0,0,6.0,,73941.5,13.52,-0.23,0.45,0.86,10.0,9.7,2.9,36.38,,,,,,,,,,
16.52.08.889,81.0,20.2,0,6.0,,76675.8,13.04,-0.24,0.47,0.86,7.7,13.8,1.9,36.38,,,,,,,,,,
16.52.08.898,98.9,24.7,0,6.0,,77420.6,12.92,-0.24,0.48,0.84,6.0,11.7,1.9,36.38,,,,,,,,,,
16.52.08.909,70.3,17.6,0,6.0,,76598.2,13.06,-0.24,0.48,0.84,3.9,9.3,1.5,36.38,,,,,,,,,,
16.52.08.922,33.6,8.4,0,6.0,,75843.4,13.19,-0.24,0.47,0.85,0.0,8.1,0.0,36.38,,,,,,,,,,
16.52.08.934,20.2,5.0,0,6.0,,76561.1,13.06,-0.25,0.46,0.86,-2.8,5.5,-1.4,36.38,,,,,,,,,,
16.52.08.942,25.3,6.3,0,6.0,,73917.3,13.53,-0.24,0.45,0.86,-3.2,3.3,-1.8,36.38,,,,,,,,,,
16.52.08.954,35.9,9.0,0,6.0,,76238.7,13.12,-0.24,0.45,0.86,-2.3,1.3,-1.8,36.38,,,,,,,,,,
16.52.08.967,-11.1,2.8,0,6.0,,75516.4,13.24,-0.24,0.45,0.86,-1.5,1.7,-2.0,36.38,,,,,,,,,,
16.52.08.979,-24.9,6.2,0,6.0,,75436.1,13.26,-0.23,0.44,0.86,-0.1,3.5,-2.1,36.38,,,,,,,,,,
16.52.08.987,-1.5,0.4,0,6.0,,76296.4,13.11,-0.23,0.45,0.85,1.2,3.6,-1.4,36.38,,,,,,,,,,
16.52.09.000,-19.2,4.8,0,6.0,,72965.4,13.71,-0.24,0.45,0.85,1.8,4.7,-1.2,36.38,,,,,,,,,,
16.52.09.012,-38.7,9.7,0,6.0,,72744.3,13.75,-0.24,0.45,0.85,1.4,6.4,-0.9,36.38,,,,,,,,,,
16.52.09.024,-12.6,3.2,0,6.0,,77585.4,12.89,-0.24,0.45,0.85,0.9,6.2,-1.1,36.38,,,,,,,,,,
16.52.09.061,-59.4,14.8,0,6.0,,74662.8,13.39,-0.24,0.47,0.85,-3.1,6.6,-2.5,36.38,,,,,,,,,,
16.52.09.080,-54.0,13.5,0,6.0,,77477.5,12.91,-0.24,0.45,0.86,-3.9,5.8,-3.0,36.38,,,,,,,,,,
16.52.09.085,-60.5,15.1,0,6.0,,75602.2,13.23,-0.24,0.45,0.86,-4.1,5.4,-3.5,36.38,,,,,,,,,,
16.52.09.098,-101.7,25.4,0,6.0,,75757.7,13.2,-0.24,0.45,0.86,-4.2,5.4,-3.7,36.38,,,,,,,,,,
16.52.09.106,-111.8,28.0,0,6.0,,78746.7,12.7,-0.24,0.45,0.85,-3.9,5.3,-3.2,36.38,,,,,,,,,,
16.52.09.118,-95.0,23.8,0,6.0,,75995.3,13.16,-0.24,0.45,0.85,-3.7,5.3,-3.4,36.38,,,,,,,,,,
16.52.09.131,-115.6,28.9,0,6.0,,74606.6,13.4,-0.24,0.45,0.86,-3.3,5.2,-3.0,36.38,,,,,,,,,,
16.52.09.139,-117.8,29.4,0,6.0,,74860.0,13.36,-0.24,0.44,0.86,-3.4,5.9,-3.5,36.38,,,,,,,,,,
16.52.09.151,-93.5,23.4,0,6.0,,77194.4,12.95,-0.24,0.44,0.86,-3.5,6.1,-3.2,36.38,,,,,,,,,,
16.52.09.163,-108.2,27.0,0,6.0,,72743.3,13.75,-0.23,0.44,0.86,-3.3,6.3,-3.0,36.38,,,,,,,,,,
16.52.09.176,-152.3,38.1,0,6.0,,74148.7,13.49,-0.24,0.44,0.87,-2.6,6.0,-2.8,36.38,,,,,,,,,,
16.52.09.184,-156.4,39.1,0,6.0,,72803.9,13.74,-0.23,0.44,0.85,-1.5,6.4,-2.2,36.38,,,,,,,,,,
16.52.09.196,-132.4,33.1,0,6.0,,74337.5,13.45,-0.24,0.44,0.86,0.6,6.5,-1.5,36.38,,,,,,,,,,
16.52.09.208,-126.7,31.7,0,6.0,,75411.6,13.26,-0.24,0.45,0.87,1.3,6.8,-1.4,36.38,,,,,,,,,,
16.52.09.217,-135.3,33.8,0,6.0,,74975.9,13.34,-0.24,0.45,0.86,1.4,5.0,-1.2,36.38,,,,,,,,,,
16.52.09.229,-154.7,38.7,0,6.0,,72931.9,13.71,-0.25,0.44,0.86,1.4,4.5,-0.2,36.38,,,,,,,,,,
16.52.09.241,23.6,5.9,1,7.0,99.4,75986.8,13.16,-0.24,0.44,0.86,2.0,5.3,-0.3,36.38,,,,,,,,,,
16.52.09.250,63.2,15.8,0,7.0,,76580.2,13.06,-0.24,0.44,0.86,2.4,7.2,-0.8,36.38,,,,,,,,,,
16.52.09.269,,,0,7.0,,,,,,,,,,,,,,,,,,,,
16.52.09.281,,,0,7.0,,,,,,,,,,,,36.38,,,,,,,,
16.52.09.290,281.6,70.4,0,7.0,,77294.8,12.94,-0.24,0.45,0.86,-2.0,6.5,-2.7,36.38,,,,,,,,,,
16.52.09.299,337.4,84.4,0,7.0,,75062.9,13.32,-0.24,0.45,0.85,-3.0,6.8,-2.6,36.38,,,,,,,,,,
16.52.09.311,320.7,80.2,0,7.0,,82837.5,12.07,-0.24,0.44,0.86,-3.0,5.9,-3.0,36.38,,,,,,,,,,
16.52.09.319,375.6,93.9,0,7.0,,72869.1,13.72,-0.25,0.44,0.86,-3.5,6.0,-3.6,36.38,,,,,,,,,,
16.52.09.331,385.7,96.4,0,7.0,,73833.4,13.54,-0.25,0.44,0.86,-4.2,5.2,-4.0,36.38,,,,,,,,,,
16.52.09.340,412.5,103.1,0,7.0,,75036.5,13.33,-0.24,0.44,0.86,-4.4,5.2,-3.7,36.38,,,,,,,,,,
16.52.09.352,432.1,108.0,0,7.0,,71887.7,13.91,-0.24,0.43,0.86,-4.4,4.7,-3.9,36.38,,,,,,,,,,
16.52.09.360,403.1,100.8,0,7.0,,79162.2,12.63,-0.24,0.43,0.86,-3.7,5.1,-3.3,36.38,,,,,,,,,,
16.52.09.372,336.4,84.1,0,7.0,,73384.3,13.63,-0.24,0.44,0.86,-2.5,6.1,-2.6,36.38,,,,,,,,,,
16.52.09.381,396.5,99.1,0,7.0,,73943.5,13.52,-0.23,0.43,0.85,-0.4,7.2,-2.6,36.38,,,,,,,,,,
16.52.09.393,337.6,84.4,0,7.0,,75797.5,13.19,-0.24,0.44,0.86,-0.5,6.8,-1.7,36.38,,,,,,,,,,
16.52.09.405,236.7,59.2,0,7.0,,76581.9,13.06,-0.25,0.45,0.89,0.6,6.5,-1.2,36.38,,,,,,,,,,
16.52.09.413,211.8,53.0,0,7.0,,73269.9,13.65,-0.23,0.42,0.84,2.6,10.4,-1.4,36.38,,,,,,,,,,
16.52.09.426,145.7,36.4,0,7.0,,73542.4,13.6,-0.25,0.42,0.84,2.5,3.9,-0.6,36.38,,,,,,,,,,
16.52.09.434,131.1,32.8,0,7.0,,76058.5,13.15,-0.24,0.45,0.88,1.6,5.4,-1.1,36.38,,,,,,,,,,
16.52.09.446,20.7,5.2,0,7.0,,75899.9,13.18,-0.24,0.44,0.86,3.2,10.4,-1.0,36.38,,,,,,,,,,
16.52.09.454,-14.5,3.6,0,7.0,,78685.4,12.71,-0.25,0.44,0.85,3.1,5.0,-0.5,36.38,,,,,,,,,,
16.52.09.467,9.1,2.3,0,7.0,,76488.9,13.07,-0.25,0.44,0.86,1.5,5.0,-1.5,36.38,,,,,,,,,,
16.52.09.475,12.7,3.2,0,7.0,,76540.7,13.06,-0.25,0.44,0.86,1.6,9.5,-2.1,36.38,,,,,,,,,,
16.52.09.487,26.1,6.5,0,7.0,,76674.6,13.04,-0.25,0.45,0.84,1.3,7.5,-1.2,36.38,,,,,,,,,,
16.52.09.495,27.6,6.9,0,7.0,,76050.3,13.15,-0.25,0.45,0.86,-1.2,7.3,-2.4,36.38,,,,,,,,,,
16.52.09.508,68.7,17.2,0,7.0,,73343.6,13.63,-0.25,0.46,0.86,-2.0,7.2,-2.3,36.38,,,,,,,,,,
16.52.09.516,101.1,25.3,0,7.0,,76039.6,13.15,-0.24,0.44,0.85,-1.5,7.0,-2.2,36.38,,,,,,,,,,
16.52.09.528,55.6,13.9,0,7.0,,75010.8,13.33,-0.24,0.44,0.86,-2.3,5.9,-3.0,36.38,,,,,,,,,,
16.52.09.537,63.0,15.8,0,7.0,,72859.8,13.72,-0.24,0.44,0.86,-3.6,6.4,-3.9,36.38,,,,,,,,,,
16.52.09.549,27.1,6.8,0,7.0,,76041.0,13.15,-0.24,0.44,0.86,-4.6,7.5,-4.1,36.38,,,,,,,,,,
16.52.09.557,38.3,9.6,0,7.0,,73548.3,13.6,-0.25,0.43,0.87,-3.8,6.5,-4.4,36.38,,,,,,,,,,
16.52.09.570,22.2,5.6,0,7.0,,77764.4,12.86,-0.25,0.42,0.86,-4.4,7.3,-4.9,36.38,,,,,,,,,,
16.52.09.577,-53.7,13.4,0,7.0,,74804.8,13.37,-0.25,0.44,0.87,-4.0,7.3,-4.8,36.38,,,,,,,,,,
16.52.09.589,-15.0,3.8,0,7.0,,78086.1,12.81,-0.25,0.44,0.86,-1.4,9.1,-4.2,36.38,,,,,,,,,,
16.52.09.598,-50.6,12.6,0,7.0,,74355.6,13.45,-0.26,0.44,0.86,-0.3,8.1,-2.8,36.38,,,,,,,,,,
16.52.09.618,-14.0,3.5,0,7.0,,76489.1,13.07,-0.26,0.43,0.86,-2.0,7.1,-2.6,36.38,,,,,,,,,,
16.52.09.626,-29.5,7.4,0,7.0,,75549.2,13.24,-0.25,0.43,0.86,-2.3,6.8,-2.4,36.38,,,,,,,,,,
16.52.09.633,-31.3,7.8,0,7.0,,74094.6,13.5,-0.24,0.43,0.86,-0.8,7.2,-2.3,36.38,,,,,,,,,,
16.52.09.639,-36.5,9.1,0,7.0,,75354.7,13.27,-0.24,0.43,0.85,0.6,6.8,-1.7,36.38,,,,,,,,,,
16.52.09.651,-17.4,4.4,0,7.0,,75915.6,13.17,-0.24,0.44,0.87,1.0,7.4,-2.0,36.38,,,,,,,,,,
16.52.09.663,-72.1,18.0,0,7.0,,76311.8,13.1,-0.25,0.44,0.86,0.4,7.4,-2.4,36.38,,,,,,,,,,
16.52.09.675,-70.0,17.5,0,7.0,,72756.5,13.74,-0.26,0.44,0.88,-0.7,5.6,-2.0,36.38,,,,,,,,,,
16.52.09.684,-38.8,9.7,0,7.0,,76916.6,13.0,-0.25,0.42,0.87,-1.5,6.4,-2.5,36.38,,,,,,,,,,
16.52.09.692,-42.7,10.7,0,7.0,,75788.6,13.19,-0.22,0.41,0.86,-0.8,3.5,-1.8,36.38,,,,,,,,,,
16.52.09.704,-83.7,20.9,0,7.0,,76284.5,13.11,-0.19,0.42,0.87,-3.2,2.2,-0.7,36.38,,,,,,,,,,
16.52.09.722,-103.2,25.8,0,7.0,,74066.7,13.5,-0.19,0.45,0.87,-2.9,8.9,-2.4,36.38,,,,,,,,,,
16.52.09.725,-81.0,20.2,0,7.0,,72885.3,13.72,-0.26,0.46,0.86,0.8,16.4,-4.1,36.38,,,,,,,,,,
16.52.09.737,-93.4,23.4,0,7.0,,73926.3,13.53,-0.32,0.43,0.84,8.6,14.8,-4.1,36.38,,,,,,,,,,
16.52.09.745,-85.4,21.4,0,7.0,,77594.1,12.89,-0.32,0.42,0.82,13.5,8.4,0.0,36.38,,,,,,,,,,
16.52.09.758,-109.5,27.4,0,7.0,,70754.3,14.13,-0.31,0.44,0.86,6.9,3.8,1.5,36.38,,,,,,,,,,
16.52.09.766,-119.2,29.8,0,7.0,,75009.5,13.33,-0.26,0.45,0.86,-4.1,6.3,-0.4,36.38,,,,,,,,,,
16.52.09.780,-118.3,29.6,0,7.0,,78380.5,12.76,-0.24,0.42,0.84,-7.1,1.9,-1.3,36.38,,,,,,,,,,
16.52.09.786,-148.3,37.1,0,7.0,,75169.3,13.3,-0.2,0.42,0.86,-3.9,1.0,-0.6,36.38,,,,,,,,,,
16.52.09.798,-136.1,34.0,0,7.0,,75694.9,13.21,-0.22,0.44,0.9,-1.3,8.8,-2.6,36.38,,,,,,,,,,
16.52.09.807,-164.8,41.2,0,7.0,,73095.2,13.68,-0.25,0.45,0.87,0.5,13.8,-4.4,36.38,,,,,,,,,,
16.52.09.819,-123.4,30.8,0,7.0,,76834.8,13.01,-0.27,0.43,0.84,3.4,9.1,-3.4,36.38,,,,,,,,,,
16.52.09.828,-161.3,40.3,0,7.0,,76660.4,13.04,-0.27,0.44,0.86,2.0,6.7,-2.1,36.38,,,,,,,,,,
16.52.09.865,96.3,24.1,1,8.0,94.3,74626.9,13.4,-0.27,0.45,0.86,-4.0,9.0,-4.4,36.38,,,,,,,,,,
16.52.09.876,132.7,33.2,0,8.0,,74845.6,13.36,-0.25,0.43,0.88,-7.7,4.9,-6.7,36.38,,,,,,,,,,
16.52.09.885,183.1,45.8,0,8.0,,74208.9,13.48,-0.25,0.42,0.86,-6.5,5.7,-7.3,36.38,,,,,,,,,,
16.52.09.897,272.7,68.2,0,8.0,,78703.2,12.71,-0.25,0.42,0.86,-5.2,6.4,-6.6,36.38,,,,,,,,,,
16.52.09.905,318.0,79.5,0,8.0,,79153.9,12.63,-0.25,0.43,0.87,-4.5,7.9,-5.7,36.38,,,,,,,,,,
16.52.09.917,343.7,85.9,0,8.0,,77172.0,12.96,-0.26,0.43,0.87,-5.1,9.1,-6.9,36.38,,,,,,,,,,
16.52.09.927,379.7,94.9,0,8.0,,77392.9,12.92,-0.26,0.42,0.86,-7.8,8.6,-8.9,36.38,,,,,,,,,,
16.52.09.939,404.8,101.2,0,8.0,,75473.3,13.25,-0.27,0.42,0.87,-9.6,5.8,-8.9,36.38,96.0,,,,,,,,,
16.52.09.946,419.0,104.8,0,8.0,,75998.7,13.16,-0.26,0.41,0.87,-9.2,5.5,-9.0,36.38,,,,,,,,,,
16.52.09.959,408.0,102.0,0,8.0,,78525.7,12.73,-0.26,0.42,0.86,-8.4,6.1,-9.0,36.38,,,,,,,,,,
16.52.09.969,392.8,98.2,0,8.0,,71956.1,13.9,-0.26,0.42,0.87,-8.3,6.2,-8.3,36.38,,,,,,,,,,
16.52.09.979,359.1,89.8,0,8.0,,74405.0,13.44,-0.26,0.41,0.86,-8.2,7.4,-7.7,36.38,,,,,,,,,,
16.52.09.988,354.7,88.7,0,8.0,,74669.8,13.39,-0.27,0.41,0.87,-6.0,7.7,-6.4,36.38,,,,,,,,,,
16.52.09.999,372.7,93.2,0,8.0,,75030.0,13.33,-0.26,0.39,0.87,-4.7,8.4,-5.9,36.38,,,,,,,,,,
16.52.10.007,368.1,92.0,0,8.0,,77550.1,12.89,-0.26,0.4,0.88,-4.2,8.8,-5.9,36.38,,,,,,,,,,
16.52.10.020,247.4,61.8,0,8.0,,76648.2,13.05,-0.27,0.4,0.87,-3.8,10.2,-6.0,36.38,,,,,,,,,,
16.52.10.028,237.4,59.4,0,8.0,,76722.7,13.03,-0.27,0.4,0.86,-2.1,10.0,-6.4,36.38,,,,,,,,,,
16.52.10.040,119.2,29.8,0,8.0,,77377.8,12.92,-0.28,0.42,0.9,-3.3,10.0,-4.9,36.38,,,,,,,,,,
16.52.10.053,67.6,16.9,0,8.0,,76832.8,13.02,-0.26,0.39,0.84,-0.3,12.9,-6.2,36.38,,,,,,,,,,
16.52.10.062,43.8,11.0,0,8.0,,73762.2,13.56,-0.27,0.41,0.86,-2.8,5.9,-5.9,36.38,,,,,,,,,,
16.52.10.073,3.7,0.9,0,8.0,,76768.5,13.03,-0.27,0.42,0.88,-5.5,8.2,-7.0,36.38,,,,,,,,,,
16.52.10.081,46.5,11.6,0,8.0,,72373.8,13.82,-0.27,0.41,0.87,-4.0,11.4,-7.6,36.38,,,,,,,,,,
16.52.10.095,37.6,9.4,0,8.0,,76447.2,13.08,-0.27,0.4,0.86,-3.8,8.7,-7.2,36.38,,,,,,,,,,
16.52.10.102,94.2,23.6,0,8.0,,76108.6,13.14,-0.27,0.41,0.88,-4.6,6.9,-6.9,36.38,,,,,,,,,,
16.52.10.114,89.2,22.3,0,8.0,,74671.6,13.39,-0.26,0.4,0.87,-4.6,10.1,-8.2,36.38,,,,,,,,,,
16.52.10.124,90.0,22.5,0,8.0,,75987.2,13.16,-0.27,0.4,0.86,-4.2,9.6,-8.2,36.38,,,,,,,,,,
16.52.10.135,58.0,14.5,0,8.0,,72030.9,13.88,-0.29,0.39,0.88,-3.2,9.5,-7.5,36.38,,,,,,,,,,
16.52.10.142,83.2,20.8,0,8.0,,78320.1,12.77,-0.28,0.39,0.88,-2.0,12.1,-6.8,36.38,,,,,,,,,,
16.52.10.156,41.0,10.2,0,8.0,,76047.4,13.15,-0.28,0.39,0.86,-0.9,10.5,-5.1,36.38,,,,,,,,,,
16.52.10.167,71.5,17.9,0,8.0,,78170.5,12.79,-0.28,0.41,0.86,-1.1,9.2,-4.0,36.38,,,,,,,,,,
16.52.10.176,24.8,6.2,0,8.0,,71142.8,14.06,-0.28,0.4,0.87,-0.9,9.9,-3.9,36.38,,,,,,,,,,
16.52.10.188,-15.5,3.9,0,8.0,,73489.7,13.61,-0.28,0.39,0.87,-0.7,9.9,-4.0,36.38,,,,,,,,,,
16.52.10.196,-30.3,7.6,0,8.0,,76214.4,13.12,-0.28,0.4,0.88,-0.7,8.8,-4.1,36.38,,,,,,,,,,
16.52.10.208,-15.5,3.9,0,8.0,,76042.1,13.15,-0.28,0.39,0.87,-0.8,8.9,-4.4,36.38,,,,,,,,,,
16.52.10.220,-19.9,5.0,0,8.0,,71495.3,13.99,-0.29,0.39,0.87,-1.0,7.8,-4.2,36.38,,,,,,,,,,
16.52.10.229,-38.9,9.7,0,8.0,,75051.8,13.32,-0.29,0.38,0.87,-1.5,7.7,-4.8,36.38,,,,,,,,,,
16.52.10.242,-53.5,13.4,0,8.0,,74039.7,13.51,-0.28,0.38,0.86,-2.0,5.8,-4.7,36.38,,,,,,,,,,
16.52.10.250,-55.1,13.8,0,8.0,,77806.8,12.85,-0.28,0.39,0.88,-1.9,5.2,-4.9,36.38,,,,,,,,,,
16.52.10.261,-19.7,4.9,0,8.0,,78434.0,12.75,-0.28,0.4,0.87,-1.0,6.7,-4.8,36.38,,,,,,,,,,
16.52.10.271,-49.8,12.4,0,8.0,,79603.8,12.56,-0.29,0.4,0.86,-0.3,6.6,-4.4,36.38,,,,,,,,,,
16.52.10.284,-50.4,12.6,0,8.0,,75290.3,13.28,-0.28,0.4,0.87,-0.4,6.2,-3.5,36.38,,,,,,,,,,
16.52.10.290,-40.8,10.2,0,8.0,,75521.3,13.24,-0.28,0.41,0.87,-1.0,5.8,-3.1,36.38,,,,,,,,,,
16.52.10.307,-70.5,17.6,0,8.0,,73079.5,13.68,-0.29,0.4,0.87,-2.5,4.6,-3.4,36.38,,,,,,,,,,
16.52.10.310,-77.1,19.3,0,8.0,,80679.7,12.39,-0.29,0.39,0.88,-3.5,5.0,-4.6,36.38,,,,,,,,,,
16.52.10.323,-77.9,19.5,0,8.0,,79080.6,12.65,-0.29,0.38,0.87,-2.7,4.7,-5.4,36.38,,,,,,,,,,
16.52.10.331,-50.3,12.6,0,8.0,,73540.5,13.6,-0.3,0.38,0.87,-1.8,2.5,-5.8,36.38,,,,,,,,,,
16.52.10.343,-72.6,18.2,0,8.0,,77477.4,12.91,-0.3,0.39,0.88,-2.8,3.3,-5.7,36.38,,,,,,,,,,
16.52.10.352,-87.5,21.9,0,8.0,,80411.6,12.44,-0.3,0.39,0.86,-2.4,3.1,-5.3,36.38,,,,,,,,,,
16.52.10.364,-134.1,33.5,0,8.0,,73287.6,13.64,-0.29,0.39,0.87,-2.7,1.0,-4.6,36.38,,,,,,,,,,
16.52.10.372,-129.5,32.4,0,8.0,,73540.1,13.6,-0.29,0.39,0.88,-2.9,1.7,-3.7,36.38,,,,,,,,,,
16.52.10.384,-96.5,24.1,0,8.0,,76151.7,13.13,-0.29,0.37,0.87,-2.2,2.9,-3.3,36.38,,,,,,,,,,
16.52.10.397,-157.0,39.2,0,8.0,,75644.2,13.22,-0.28,0.38,0.88,-1.3,1.9,-2.6,36.38,,,,,,,,,,
16.52.10.405,-122.3,30.6,0,8.0,,76283.6,13.11,-0.28,0.38,0.88,-1.4,1.7,-3.1,36.38,,,,,,,,,,
16.52.10.417,-142.6,35.6,0,8.0,,79715.1,12.54,-0.26,0.37,0.88,-1.4,2.6,-3.3,36.38,,,,,,,,,,
16.52.10.425,-154.5,38.6,0,8.0,,76171.7,13.13,-0.27,0.4,0.89,-0.5,1.5,-2.7,36.38,,,,,,,,,,
16.52.10.438,-163.9,41.0,0,8.0,,75047.2,13.32,-0.29,0.4,0.88,1.5,7.3,-3.8,36.38,,,,,,,,,,
16.52.10.446,-145.5,36.4,0,8.0,,76019.2,13.15,-0.31,0.4,0.86,2.9,10.7,-3.6,36.38,,,,,,,,,,
16.52.10.458,-178.9,44.7,0,8.0,,75898.3,13.18,-0.3,0.39,0.85,2.2,6.7,-2.1,36.38,,,,,,,,,,
16.52.10.466,-163.3,40.8,0,8.0,,75811.3,13.19,-0.3,0.38,0.88,-3.3,2.5,-2.5,36.38,,,,,,,,,,
16.52.10.478,63.5,15.9,1,9.0,95.9,74664.6,13.39,-0.3,0.37,0.92,-5.7,4.8,-4.2,36.38,,,,,,,,,,
16.52.10.491,124.0,31.0,0,9.0,,74863.7,13.36,-0.27,0.35,0.89,-2.3,11.4,-3.5,36.38,,,,,,,,,,
16.52.10.499,176.9,44.2,0,9.0,,74928.9,13.35,-0.24,0.36,0.85,3.3,10.2,-0.9,36.38,,,,,,,,,,
16.52.10.511,261.6,65.4,0,9.0,,74873.5,13.36,-0.26,0.42,0.89,6.3,11.8,0.1,36.38,,,,,,,,,,
16.52.10.519,269.5,67.4,0,9.0,,77478.6,12.91,-0.27,0.44,0.91,6.4,24.6,-0.6,36.38,,,,,,,,,,
16.52.10.532,332.7,83.2,0,9.0,,74097.3,13.5,-0.26,0.39,0.87,8.5,25.7,-0.9,36.38,,,,,,,,,,
16.52.10.544,374.0,93.5,0,9.0,,74317.9,13.46,-0.28,0.39,0.95,8.9,24.3,-0.8,36.38,,,,,,,,,,
16.52.10.552,362.1,90.5,0,9.0,,77671.9,12.87,-0.3,0.42,0.98,6.6,26.9,-0.8,36.38,,,,,,,,,,
16.52.10.564,411.2,102.8,0,9.0,,75456.2,13.25,-0.3,0.44,0.95,7.9,28.5,2.5,36.38,,,,,,,,,,
16.52.10.573,474.1,118.5,0,9.0,,74295.0,13.46,-0.3,0.4,0.9,19.1,26.4,11.4,36.38,,,,,,,,,,
16.52.10.585,386.4,96.6,0,9.0,,77126.7,12.97,-0.29,0.39,0.88,26.6,32.0,19.0,36.38,,,,,,,,,,
16.52.10.597,419.4,104.8,0,9.0,,82823.4,12.07,-0.26,0.4,0.89,27.0,36.5,23.4,36.38,,,,,,,,,,
16.52.10.605,366.5,91.6,0,9.0,,77191.4,12.95,-0.28,0.49,0.87,27.5,36.4,25.9,36.38,,,,,,,,,,
16.52.10.623,334.0,83.5,0,9.0,,75314.9,13.28,-0.28,0.48,0.89,24.5,34.9,20.6,36.38,,,,,,,,,,
16.52.10.626,299.4,74.8,0,9.0,,77700.4,12.87,-0.24,0.51,0.84,-0.8,24.6,12.7,36.38,,,,,,,,,,
16.52.10.663,151.3,37.8,0,9.0,,79270.0,12.62,-0.31,0.46,0.88,-25.9,17.7,-0.9,36.38,,,,,,,,,,
16.52.10.675,30.1,7.5,0,9.0,,72774.6,13.74,-0.22,0.46,0.85,-60.2,-1.1,-23.8,36.38,,,,,,,,,,
16.52.10.684,44.9,11.2,0,9.0,,77169.7,12.96,-0.2,0.43,0.85,-68.5,7.2,-29.6,36.38,,,,,,,,,,
16.52.10.696,6.6,1.6,0,9.0,,76731.9,13.03,-0.22,0.37,0.86,-70.4,3.2,-30.5,36.38,,,,,,,,,,
16.52.10.708,62.6,15.6,0,9.0,,77869.7,12.84,-0.21,0.35,0.91,-65.8,1.5,-26.1,36.38,,,,,,,,,,
16.52.10.716,52.9,13.2,0,9.0,,72728.0,13.75,-0.22,0.34,0.94,-54.6,7.1,-21.8,36.38,,,,,,,,,,
16.52.10.732,60.0,15.0,0,9.0,,74415.3,13.44,-0.23,0.32,0.93,-44.7,6.5,-16.2,36.38,,,,,,,,,,
16.52.10.737,47.4,11.8,0,9.0,,75837.5,13.19,-0.21,0.31,0.94,-35.7,5.1,-11.3,36.38,,,,,,,,,,
16.52.10.749,63.0,15.8,0,9.0,,77054.8,12.98,-0.21,0.32,0.96,-33.6,9.2,-7.8,36.38,,,,,,,,,,
16.52.10.761,57.3,14.3,0,9.0,,73789.9,13.55,-0.22,0.34,0.98,-31.5,13.0,-5.7,36.38,,,,,,,,,,
16.52.10.769,64.6,16.2,0,9.0,,77255.3,12.94,-0.22,0.33,0.99,-35.1,12.1,-4.1,36.38,,,,,,,,,,
16.52.10.782,62.2,15.6,0,9.0,,75320.5,13.28,-0.24,0.31,1.01,-38.8,9.0,-2.7,36.38,,,,,,,,,,
16.52.10.790,33.2,8.3,0,9.0,,73583.2,13.59,-0.27,0.31,1.03,-34.3,7.5,-1.2,36.38,,,,,,,,,,
16.52.10.802,10.0,2.5,0,9.0,,79315.2,12.61,-0.29,0.31,1.03,-23.2,5.9,1.9,36.38,,,,,,,,,,
16.52.10.810,-0.9,0.2,0,9.0,,76442.4,13.08,-0.3,0.32,1.02,-16.7,3.8,0.0,36.38,,,,,,,,,,
16.52.10.823,-14.3,3.6,0,9.0,,77147.1,12.96,-0.31,0.33,1.0,-15.9,-4.2,1.7,36.38,,,,,,,,,,
16.52.10.835,-19.5,4.9,0,9.0,,78779.6,12.69,-0.3,0.34,1.01,-11.6,-0.4,3.7,36.38,,,,,,,,,,
16.52.10.843,-46.7,11.7,0,9.0,,75915.9,13.17,-0.3,0.34,0.99,-11.8,0.5,6.1,36.38,,,,,,,,,,
16.52.10.855,-34.1,8.5,0,9.0,,75758.3,13.2,-0.3,0.32,0.96,-10.7,-0.9,9.7,36.38,,,,,,,,,,
16.52.10.863,-21.3,5.3,0,9.0,,77138.8,12.96,-0.3,0.3,0.93,-8.1,-3.1,13.0,36.38,,,,,,,,,,
16.52.10.876,-41.2,10.3,0,9.0,,75832.9,13.19,-0.28,0.29,0.89,-4.9,-5.6,16.2,36.38,,,,,,,,,,
16.52.10.888,-34.9,8.7,0,9.0,,75982.5,13.16,-0.27,0.28,0.86,-1.7,-7.9,18.8,36.38,,,,,,,,,,
16.52.10.896,-23.1,5.8,0,9.0,,77647.3,12.88,-0.26,0.27,0.84,1.7,-5.1,19.7,36.38,,,,,,,,,,
16.52.10.909,-46.1,11.5,0,9.0,,76355.9,13.1,-0.26,0.26,0.8,6.8,0.6,17.9,36.38,,,,,,,,,,
16.52.10.917,-38.1,9.5,0,9.0,,74745.0,13.38,-0.26,0.26,0.78,9.8,3.1,18.2,36.38,,,,,,,,,,
16.52.10.929,-55.9,14.0,0,9.0,,73383.0,13.63,-0.28,0.27,0.77,9.7,7.2,18.4,36.38,,,,,,,,,,
16.52.10.937,-65.4,16.4,0,9.0,,73010.9,13.7,-0.28,0.26,0.75,7.0,10.5,19.4,36.38,,,,,,,,,,
16.52.10.950,-118.4,29.6,0,9.0,,75736.0,13.2,-0.3,0.26,0.72,1.2,12.5,18.1,36.38,,,,,,,,,,
16.52.10.958,-90.9,22.7,0,9.0,,74986.6,13.34,-0.32,0.26,0.71,-7.8,14.6,15.4,36.38,,,,,,,,,,
16.52.10.970,-95.0,23.8,0,9.0,,72027.2,13.88,-0.35,0.26,0.69,-13.7,17.5,13.7,36.38,,,,,,,,,,
16.52.10.978,-83.9,21.0,0,9.0,,75583.6,13.23,-0.37,0.22,0.69,-14.4,20.1,11.7,36.38,,,,,,,,,,
16.52.10.990,-86.2,21.6,0,9.0,,78743.6,12.7,-0.38,0.19,0.68,-14.4,18.3,10.3,36.38,,,,,,,,,,
16.52.10.999,-115.6,28.9,0,9.0,,75017.5,13.33,-0.41,0.19,0.69,-7.7,17.8,9.7,36.38,,,,,,,,,,
16.52.11.011,-110.6,27.6,0,9.0,,75540.9,13.24,-0.42,0.19,0.67,0.5,20.1,11.4,36.38,,,,,,,,,,
16.52.11.019,-131.2,32.8,0,9.0,,75240.2,13.29,-0.45,0.19,0.68,7.0,24.6,12.4,36.38,,,,,,,,,,
16.52.11.032,-196.4,49.1,0,9.0,,79879.1,12.52,-0.46,0.2,0.67,10.9,28.3,13.4,36.38,,,,,,,,,,
16.52.11.044,-173.7,43.4,0,9.0,,76206.8,13.12,-0.49,0.22,0.71,12.3,28.6,16.9,36.38,,,,,,,,,,
16.52.11.052,-177.7,44.4,0,9.0,,74707.8,13.39,-0.5,0.24,0.73,11.3,33.5,20.8,36.38,,,,,,,,,,
16.52.11.064,-132.9,33.2,0,9.0,,76471.3,13.08,-0.51,0.23,0.75,7.4,34.6,22.1,36.38,,,,,,,,,,
16.52.11.072,-122.2,30.6,0,9.0,,75328.9,13.28,-0.51,0.23,0.76,4.6,32.8,23.9,,,,,,,,,,,
16.52.11.095,69.9,17.5,1,10.0,102.0,71270.5,14.03,-0.51,0.22,0.76,2.8,33.3,25.0,36.38,,,,,,,,,,
16.52.11.096,61.1,15.3,0,10.0,,74841.5,13.36,-0.49,0.23,0.76,0.5,31.2,26.4,36.38,,,,,,,,,,
16.52.11.105,135.6,33.9,0,10.0,,75271.5,13.29,-0.47,0.23,0.77,-6.4,27.9,24.0,36.38,,,,,,,,,,
16.52.11.113,174.8,43.7,0,10.0,,73152.5,13.67,-0.47,0.21,0.79,-15.0,25.2,19.4,36.38,,,,,,,,,,
16.52.11.126,234.3,58.6,0,10.0,,75131.4,13.31,-0.43,0.21,0.77,-20.1,30.1,15.7,36.38,,,,,,,,,,
16.52.11.134,289.3,72.3,0,10.0,,74174.7,13.48,-0.43,0.19,0.77,-22.7,31.2,12.9,36.38,,,,,,,,,,
16.52.11.146,340.4,85.1,0,10.0,,73578.2,13.59,-0.41,0.17,0.75,-23.7,31.3,12.1,36.38,,,,,,,,,,
16.52.11.154,353.8,88.4,0,10.0,,75361.8,13.27,-0.29,0.18,0.8,-21.0,22.3,13.9,36.38,,,,,,,,,,
16.52.11.171,413.9,103.5,0,10.0,,76350.6,13.1,-0.64,0.19,1.43,2.4,-14.7,9.6,36.38,,,,,,,,,,
16.52.11.179,414.3,103.6,0,10.0,,78017.8,12.82,-0.55,0.59,2.0,62.6,-53.8,4.0,36.38,,,,,,,,,,
16.52.11.191,401.5,100.4,0,10.0,,75059.2,13.32,-0.97,0.41,1.51,-18.1,13.1,29.2,36.38,,,,,,,,,,
16.52.11.199,344.4,86.1,0,10.0,,78050.0,12.81,-0.31,0.1,0.94,46.9,11.4,-1.2,36.38,,,,,,,,,,
16.52.11.212,384.7,96.2,0,10.0,,74715.6,13.38,-0.09,0.16,0.51,45.1,-34.4,21.6,36.38,,,,,,,,,,
16.52.11.220,408.2,102.0,0,10.0,,69294.4,14.43,-0.26,0.27,0.79,62.2,-17.0,18.3,36.38,,,,,,,,,,
16.52.11.232,342.3,85.6,0,10.0,,78713.8,12.7,-0.27,0.33,0.83,78.0,17.1,17.3,36.38,,,,,,,,,,
16.52.11.240,315.7,78.9,0,10.0,,78380.8,12.76,-0.23,0.36,0.89,69.7,19.9,33.9,36.38,,,,,,,,,,
16.52.11.253,265.0,66.2,0,10.0,,72949.1,13.71,-0.25,0.36,0.95,62.6,22.9,40.5,36.38,,,,,,,,,,
16.52.11.261,208.9,52.2,0,10.0,,77443.1,12.91,-0.34,0.34,0.99,49.5,31.1,33.9,36.38,,,,,,,,,,
16.52.11.273,140.2,35.0,0,10.0,,76802.9,13.02,-0.32,0.34,0.88,35.8,28.8,25.3,36.38,,,,,,,,,,
16.52.11.282,109.8,27.4,0,10.0,,75086.1,13.32,-0.32,0.38,0.79,34.6,14.3,18.1,36.38,,,,,,,,,,
16.52.11.294,51.6,12.9,0,10.0,,77671.3,12.87,-0.34,0.48,0.78,22.4,1.2,16.6,36.38,,,,,,,,,,
16.52.11.306,16.7,4.2,0,10.0,,75238.5,13.29,-0.32,0.23,0.64,-11.5,19.3,6.6,36.38,,,,,,,,,,
16.52.11.314,49.7,12.4,0,10.0,,76930.8,13.0,-0.23,0.55,0.72,-3.1,0.8,-1.2,36.38,,,,,,,,,,
16.52.11.326,55.9,14.0,0,10.0,,76011.9,13.16,-0.4,0.58,1.07,6.8,-3.5,6.7,36.38,,,,,,,,,,
16.52.11.336,45.2,11.3,0,10.0,,77384.6,12.92,-0.35,0.6,1.02,12.8,20.9,6.7,36.38,,,,,,,,,,
16.52.11.347,44.9,11.2,0,10.0,,74041.8,13.51,-0.36,0.45,0.9,-7.4,-4.8,1.8,36.38,,,,,,,,,,
16.52.11.355,88.6,22.2,0,10.0,,77965.4,12.83,-0.27,0.31,0.76,-25.7,-16.4,-11.1,36.38,,,,,,,,,,
16.52.11.367,65.0,16.2,0,10.0,,77148.1,12.96,-0.3,0.35,0.87,-22.3,-20.8,-12.9,36.38,,,,,,,,,,
16.52.11.375,39.9,10.0,0,10.0,,78484.3,12.74,-0.35,0.38,0.91,-14.3,-3.7,-10.7,36.38,,,,,,,,,,
16.52.11.388,55.7,13.9,0,10.0,,75401.5,13.26,-0.32,0.35,0.82,-10.9,8.2,-10.5,36.38,,,,,,,,,,
16.52.11.400,45.3,11.3,0,10.0,,78323.4,12.77,-0.35,0.36,0.87,-7.1,-2.6,-8.8,36.38,,,,,,,,,,
16.52.11.408,-0.0,0.0,0,10.0,,75278.6,13.28,-0.37,0.38,0.92,-7.6,1.1,-8.1,36.38,,,,,,,,,,
16.52.11.421,-16.5,4.1,0,10.0,,74593.8,13.41,-0.35,0.34,0.84,-4.7,3.1,-10.1,36.38,,,,,,,,,,
16.52.11.429,7.5,1.9,0,10.0,,73814.3,13.55,-0.33,0.36,0.84,-8.1,-7.9,-10.4,36.38,,,,,,,,,,
16.52.11.465,-20.4,5.1,0,10.0,,76577.1,13.06,-0.34,0.39,0.89,-12.7,-6.2,-12.4,36.38,,,,,,,,,,
16.52.11.478,-15.3,3.8,0,10.0,,77159.5,12.96,-0.29,0.37,0.9,-8.3,-2.2,-4.4,36.38,,,,,,,,,,
16.52.11.490,-43.7,10.9,0,10.0,,69791.8,14.33,-0.29,0.34,0.88,-7.3,1.5,-3.0,36.38,,,,,,,,,,
16.52.11.499,-42.4,10.6,0,10.0,,79464.1,12.58,-0.3,0.32,0.88,-2.6,0.0,-0.7,36.38,,,,,,,,,,
16.52.11.511,-62.3,15.6,0,10.0,,76433.4,13.08,-0.31,0.31,0.88,1.1,-0.8,2.2,36.38,,,,,,,,,,
16.52.11.519,-47.3,11.8,0,10.0,,77273.4,12.94,-0.33,0.32,0.9,2.6,1.7,2.3,36.38,,,,,,,,,,
16.52.11.531,-69.4,17.4,0,10.0,,73736.5,13.56,-0.32,0.33,0.87,4.4,1.4,1.8,36.38,,,,,,,,,,
16.52.11.539,-102.4,25.6,0,10.0,,75983.1,13.16,-0.33,0.34,0.87,5.6,-2.2,2.4,36.38,,,,,,,,,,
16.52.11.552,-48.3,12.1,0,10.0,,76613.8,13.05,-0.33,0.37,0.88,2.5,-2.0,3.8,36.38,,,,,,,,,,
16.52.11.560,-64.2,16.0,0,10.0,,73661.4,13.58,-0.32,0.38,0.88,0.8,-0.9,3.7,36.38,,,,,,,,,,
16.52.11.572,-105.8,26.4,0,10.0,,80887.6,12.36,-0.33,0.37,0.87,-1.5,0.1,5.9,36.38,,,,,,,,,,
16.52.11.580,-135.6,33.9,0,10.0,,74087.4,13.5,-0.31,0.36,0.87,-0.1,2.0,6.5,36.38,,,,,,,,,,
16.52.11.593,-118.9,29.7,0,10.0,,75897.4,13.18,-0.31,0.37,0.87,1.0,3.7,6.8,36.38,,,,,,,,,,
16.52.11.601,-103.0,25.8,0,10.0,,77575.1,12.89,-0.31,0.37,0.87,-1.8,5.0,6.2,36.38,,,,,,,,,,
16.52.11.613,-90.7,22.7,0,10.0,,75288.0,13.28,-0.3,0.36,0.87,-2.3,5.2,3.6,36.38,,,,,,,,,,
16.52.11.621,-118.1,29.5,0,10.0,,73640.9,13.58,-0.31,0.35,0.87,-1.2,4.6,2.0,36.38,,,,,,,,,,
16.52.11.634,-130.7,32.7,0,10.0,,74880.3,13.35,-0.31,0.36,0.88,-1.7,4.0,2.6,36.38,,,,,,,,,,
16.52.11.642,-93.4,23.4,0,10.0,,74530.8,13.42,-0.31,0.37,0.88,-1.5,5.2,1.6,36.38,,,,,,,,,,
16.52.11.654,-105.9,26.5,0,10.0,,74555.4,13.41,-0.31,0.35,0.87,-1.0,7.3,0.5,36.38,,,,,,,,,,
16.52.11.662,-136.0,34.0,0,10.0,,75854.7,13.18,-0.32,0.34,0.87,0.3,7.5,0.4,36.38,,,,,,,,,,
16.52.11.675,-136.2,34.0,0,10.0,,77038.6,12.98,-0.32,0.34,0.89,2.7,7.0,0.9,36.38,,,,,,,,,,
16.52.11.687,-197.7,49.4,0,10.0,,76689.7,13.04,-0.31,0.35,0.89,3.3,5.7,1.8,36.38,,,,,,,,,,
16.52.11.695,-155.6,38.9,0,10.0,,74051.6,13.5,-0.31,0.35,0.87,5.4,10.1,2.1,36.38,,,,,,,,,,
16.52.11.707,81.0,20.2,1,11.0,94.3,76433.2,13.08,-0.32,0.36,0.86,8.9,13.4,4.4,36.38,,,,,,,,,,
16.52.11.720,125.8,31.4,0,11.0,,74038.0,13.51,-0.32,0.38,0.87,9.9,16.6,5.9,36.38,,,,,,,,,,
16.52.11.728,158.1,39.5,0,11.0,,78337.1,12.77,-0.31,0.39,0.87,7.6,14.3,5.7,36.38,,,,,,,,,,
16.52.11.740,271.8,68.0,0,11.0,,77102.3,12.97,-0.31,0.4,0.88,2.7,9.3,5.1,36.38,,,,,,,,,,
16.52.11.752,275.6,68.9,0,11.0,,76933.8,13.0,-0.3,0.37,0.88,-0.9,7.3,4.2,36.38,,,,,,,,,,
16.52.11.765,308.6,77.2,0,11.0,,73673.9,13.57,-0.32,0.35,0.88,3.4,11.8,4.3,36.38,,,,,,,,,,
16.52.11.773,352.4,88.1,0,11.0,,77741.9,12.86,-0.31,0.34,0.87,7.4,13.1,7.7,36.38,,,,,,,,,,
16.52.11.785,453.9,113.5,0,11.0,,77943.1,12.83,-0.31,0.34,0.89,11.4,11.0,8.2,36.38,,,,,,,,,,
16.52.11.797,426.9,106.7,0,11.0,,74611.5,13.4,-0.3,0.36,0.9,13.1,15.2,6.3,36.38,,,,,,,,,,
16.52.11.806,393.5,98.4,0,11.0,,74251.8,13.47,-0.31,0.37,0.88,13.3,15.2,6.2,36.38,,,,,,,,,,
16.52.11.818,436.2,109.0,0,11.0,,75953.8,13.17,-0.32,0.39,0.86,18.0,18.7,10.0,36.38,,,,,,,,,,
16.52.11.830,348.4,87.1,0,11.0,,74825.0,13.36,-0.32,0.38,0.85,19.2,20.1,11.8,36.38,,,,,,,,,,
16.52.11.843,343.9,86.0,0,11.0,,76189.3,13.13,-0.32,0.4,0.84,14.1,16.6,10.7,36.38,,,,,,,,,,
16.52.11.851,258.7,64.7,0,11.0,,74847.6,13.36,-0.3,0.4,0.86,10.1,14.8,9.5,36.38,,,,,,,,,,
16.52.11.863,299.5,74.9,0,11.0,,75855.7,13.18,-0.31,0.39,0.89,8.6,18.1,9.5,36.38,,,,,,,,,,
16.52.11.875,193.6,48.4,0,11.0,,72825.5,13.73,-0.3,0.38,0.88,12.5,20.1,10.8,36.38,,,,,,,,,,
16.52.11.888,186.3,46.6,0,11.0,,75439.9,13.26,-0.32,0.38,0.86,15.3,18.8,12.0,36.38,,,,,,,,,,
16.52.11.896,81.7,20.4,0,11.0,,74622.4,13.4,-0.32,0.4,0.87,17.1,16.6,12.4,36.38,,,,,,,,,,
16.52.11.908,39.6,9.9,0,11.0,,75148.4,13.31,-0.31,0.42,0.86,17.1,16.2,13.6,36.38,,,,,,,,,,
16.52.11.920,-7.8,2.0,0,11.0,,76748.4,13.03,-0.32,0.42,0.85,16.7,16.1,14.5,36.38,,,,,,,,,,
16.52.11.933,13.3,3.3,0,11.0,,74261.7,13.47,-0.32,0.4,0.84,16.4,16.7,15.8,36.38,,,,,,,,,,
16.52.11.941,73.1,18.3,0,11.0,,80726.7,12.39,-0.34,0.4,0.85,19.1,20.9,17.3,36.38,,,,,,,,,,
16.52.11.953,74.3,18.6,0,11.0,,79538.8,12.57,-0.34,0.39,0.83,22.5,20.8,19.1,36.38,,,,,,,,,,
16.52.11.966,59.0,14.8,0,11.0,,79259.5,12.62,-0.34,0.4,0.83,25.8,21.5,17.8,36.38,,,,,,,,,,
16.52.11.974,61.1,15.3,0,11.0,,72617.1,13.77,-0.34,0.44,0.84,24.1,20.7,15.4,36.38,,,,,,,,,,
16.52.11.986,68.7,17.2,0,11.0,,76349.9,13.1,-0.33,0.46,0.83,22.4,19.7,12.4,36.38,,,,,,,,,,
16.52.11.998,77.3,19.3,0,11.0,,72044.0,13.88,-0.33,0.47,0.84,17.7,19.8,9.6,36.38,,,,,,,,,,
16.52.12.011,47.7,11.9,0,11.0,,72738.3,13.75,-0.32,0.46,0.82,14.2,18.7,6.0,36.38,,,,,,,,,,
16.52.12.019,31.0,7.8,0,11.0,,72499.5,13.79,-0.33,0.46,0.82,9.8,18.9,5.0,36.38,,,,,,,,,,
16.52.12.031,36.2,9.0,0,11.0,,77126.4,12.97,-0.33,0.45,0.82,10.4,21.3,3.5,36.38,,,,,,,,,,
16.52.12.043,-9.8,2.4,0,11.0,,73856.6,13.54,-0.34,0.45,0.82,9.9,19.1,2.7,36.38,,,,,,,,,,
16.52.12.056,7.0,1.8,0,11.0,,73206.1,13.66,-0.34,0.45,0.83,9.1,16.4,0.6,36.38,,,,,,,,,,
16.52.12.064,5.9,1.5,0,11.0,,74350.6,13.45,-0.34,0.46,0.83,8.1,16.0,-1.3,36.38,,,,,,,,,,
16.52.12.076,-9.2,2.3,0,11.0,,76843.2,13.01,-0.33,0.46,0.82,7.5,13.6,-0.8,36.38,,,,,,,,,,
16.52.12.088,-26.7,6.7,0,11.0,,75087.1,13.32,-0.34,0.46,0.82,6.3,12.4,0.0,36.38,,,,,,,,,,
16.52.12.101,-32.7,8.2,0,11.0,,78411.1,12.75,-0.35,0.45,0.82,5.1,12.7,0.8,36.38,,,,,,,,,,
16.52.12.109,-35.3,8.8,0,11.0,,77299.4,12.94,-0.35,0.45,0.82,4.3,11.4,1.6,36.38,,,,,,,,,,
16.52.12.121,-69.7,17.4,0,11.0,,76756.8,13.03,-0.35,0.45,0.8,3.3,8.6,0.9,36.38,,,,,,,,,,
16.52.12.134,-82.7,20.7,0,11.0,,79543.2,12.57,-0.35,0.46,0.82,0.9,6.5,-0.4,36.38,,,,,,,,,,
16.52.12.142,-24.4,6.1,0,11.0,,77259.6,12.94,-0.36,0.47,0.82,0.1,6.6,-1.3,36.38,,,,,,,,,,
16.52.12.154,-101.5,25.4,0,11.0,,73241.7,13.65,-0.34,0.47,0.8,-0.9,4.7,-2.3,36.38,,,,,,,,,,
16.52.12.166,-65.6,16.4,0,11.0,,75371.0,13.27,-0.35,0.46,0.81,-3.1,2.4,-3.8,36.38,,,,,,,,,,
16.52.12.179,-57.5,14.4,0,11.0,,78418.2,12.75,-0.34,0.46,0.82,-4.3,1.7,-5.3,36.38,,,,,,,,,,
16.52.12.187,-110.2,27.6,0,11.0,,79450.3,12.59,-0.34,0.47,0.82,-6.2,2.4,-6.3,36.38,,,,,,,,,,
16.52.12.199,-93.6,23.4,0,11.0,,73643.8,13.58,-0.34,0.46,0.82,-7.8,0.4,-8.4,36.38,,,,,,,,,,
16.52.12.211,-123.2,30.8,0,11.0,,75972.9,13.16,-0.33,0.46,0.82,-8.8,-0.9,-9.7,36.38,,,,,,,,,,
16.52.12.224,-126.5,31.6,0,11.0,,81090.5,12.33,-0.33,0.44,0.82,-7.6,0.0,-9.4,36.38,,,,,,,,,,
16.52.12.232,-107.8,27.0,0,11.0,,71039.7,14.08,-0.34,0.44,0.81,-5.1,0.9,-7.3,36.38,,,,,,,,,,
16.52.12.273,-152.4,38.1,0,11.0,,73338.2,13.64,-0.34,0.45,0.82,-5.5,0.7,-3.9,36.38,,,,,,,,,,
16.52.12.285,-127.4,31.8,0,11.0,,71460.6,13.99,-0.33,0.43,0.83,-6.3,-0.6,-3.8,36.38,,,,,,,,,,
16.52.12.293,-119.4,29.8,0,11.0,,77700.8,12.87,-0.33,0.42,0.84,-3.7,0.6,-2.1,36.38,,,,,,,,,,
16.52.12.305,-195.9,49.0,0,11.0,,72769.8,13.74,-0.34,0.4,0.82,1.1,2.2,1.0,36.38,,,,,,,,,,
16.52.12.318,30.4,7.6,1,12.0,98.7,75465.2,13.25,-0.36,0.41,0.84,6.6,5.9,4.2,36.38,,,,,,,,,,
16.52.12.330,65.8,16.4,0,12.0,,79598.1,12.56,-0.35,0.43,0.83,10.1,6.3,7.1,36.38,,,,,,,,,,
16.52.12.338,144.8,36.2,0,12.0,,75013.7,13.33,-0.34,0.45,0.82,9.3,4.7,7.7,36.38,,,,,,,,,,
16.52.12.351,186.2,46.6,0,12.0,,74414.5,13.44,-0.34,0.46,0.82,6.1,4.2,5.6,36.38,,,,,,,,,,
16.52.12.363,286.9,71.7,0,12.0,,77063.1,12.98,-0.34,0.46,0.82,3.8,4.3,3.5,36.38,,,,,,,,,,
16.52.12.371,322.9,80.7,0,12.0,,75968.5,13.16,-0.34,0.44,0.82,2.8,3.6,2.8,36.38,,,,,,,,,,
16.52.12.383,420.4,105.1,0,12.0,,78072.5,12.81,-0.33,0.44,0.83,2.4,2.1,3.2,36.38,,,,,,,,,,
16.52.12.396,375.4,93.8,0,12.0,,81296.4,12.3,-0.33,0.44,0.83,2.9,1.1,3.1,36.38,,,,,,,,,,
16.52.12.404,370.3,92.6,0,12.0,,75489.7,13.25,-0.33,0.45,0.83,3.4,3.8,1.4,36.38,,,,,,,,,,
16.52.12.416,413.9,103.5,0,12.0,,74213.1,13.47,-0.34,0.44,0.82,4.8,5.8,1.3,36.38,,,,,,,,,,
16.52.12.428,387.5,96.9,0,12.0,,81886.5,12.21,-0.34,0.46,0.82,6.4,5.5,3.0,36.38,,,,,,,,,,
16.52.12.437,400.6,100.2,0,12.0,,78410.9,12.75,-0.34,0.46,0.82,5.9,5.3,3.8,36.38,,,,,,,,,,
16.52.12.449,386.6,96.6,0,12.0,,79485.5,12.58,-0.33,0.46,0.82,4.1,5.6,2.8,36.38,,,,,,,,,,
16.52.12.461,407.6,101.9,0,12.0,,76712.3,13.04,-0.34,0.46,0.82,2.6,6.1,1.9,36.38,,,,,,,,,,
16.52.12.474,283.3,70.8,0,12.0,,71921.8,13.9,-0.33,0.44,0.82,2.5,6.0,1.7,36.38,,,,,,,,,,
16.52.12.482,215.9,54.0,0,12.0,,74391.0,13.44,-0.32,0.45,0.82,2.4,6.3,1.9,36.38,,,,,,,,,,
16.52.12.494,191.9,48.0,0,12.0,,74690.4,13.39,-0.33,0.47,0.83,2.3,6.5,1.7,36.38,,,,,,,,,,
16.52.12.507,131.6,32.9,0,12.0,,79254.5,12.62,-0.33,0.47,0.82,2.5,5.9,0.9,36.38,,,,,,,,,,
16.52.12.515,98.5,24.6,0,12.0,,75412.9,13.26,-0.33,0.46,0.82,2.2,5.4,1.0,36.38,,,,,,,,,,
16.52.12.527,45.4,11.4,0,12.0,,76319.2,13.1,-0.34,0.46,0.82,2.9,5.4,2.0,36.38,,,,,,,,,,
16.52.12.539,10.6,2.6,0,12.0,,73431.3,13.62,-0.34,0.45,0.82,3.3,5.9,2.9,36.38,,,,,,,,,,
16.52.12.547,38.1,9.5,0,12.0,,78007.4,12.82,-0.35,0.45,0.82,2.8,6.0,3.0,36.38,,,,,,,,,,
16.52.12.560,41.8,10.4,0,12.0,,78722.4,12.7,-0.33,0.46,0.82,1.8,5.6,1.2,36.38,,,,,,,,,,
16.52.12.572,43.4,10.8,0,12.0,,76008.7,13.16,-0.32,0.47,0.82,1.2,5.0,-0.7,36.38,,,,,,,,,,
16.52.12.580,68.1,17.0,0,12.0,,75982.5,13.16,-0.33,0.47,0.82,-1.5,5.9,-2.7,36.38,,,,,,,,,,
16.52.12.593,32.0,8.0,0,12.0,,76800.6,13.02,-0.33,0.47,0.82,-2.3,5.0,-3.5,36.38,,,,,,,,,,
16.52.12.605,86.5,21.6,0,12.0,,76054.1,13.15,-0.33,0.47,0.82,-2.3,4.8,-3.3,36.38,,,,,,,,,,
16.52.12.617,46.1,11.5,0,12.0,,77831.4,12.85,-0.33,0.46,0.82,-3.0,5.6,-3.2,36.38,,,,,,,,,,
16.52.12.625,47.5,11.9,0,12.0,,76675.2,13.04,-0.32,0.46,0.82,-3.3,4.8,-3.5,36.38,,,,,,,,,,
16.52.12.637,5.7,1.4,0,12.0,,76403.8,13.09,-0.32,0.45,0.83,-2.9,5.6,-3.4,36.38,,,,,,,,,,
16.52.12.650,13.7,3.4,0,12.0,,75457.2,13.25,-0.33,0.45,0.83,-2.5,5.4,-3.9,36.38,,,,,,,,,,
16.52.12.662,-14.2,3.6,0,12.0,,76326.5,13.1,-0.33,0.45,0.83,-1.6,5.5,-3.5,36.38,,,,,,,,,,
16.52.12.670,-38.6,9.6,0,12.0,,75279.9,13.28,-0.33,0.45,0.82,-0.8,5.5,-3.2,36.38,,,,,,,,,,
16.52.12.683,0.6,0.2,0,12.0,,76553.9,13.06,-0.33,0.45,0.83,0.5,6.1,-1.8,36.38,,,,,,,,,,
16.52.12.695,-37.3,9.3,0,12.0,,74841.6,13.36,-0.33,0.45,0.82,1.9,6.6,-0.6,36.38,,,,,,,,,,
16.52.12.707,-27.7,6.9,0,12.0,,74832.3,13.36,-0.33,0.46,0.82,2.7,6.9,0.1,36.38,,,,,,,,,,
16.52.12.715,-51.0,12.8,0,12.0,,76498.6,13.07,-0.33,0.45,0.82,3.0,7.2,0.4,36.38,,,,,,,,,,
16.52.12.728,-43.8,11.0,0,12.0,,77549.8,12.89,-0.33,0.46,0.83,2.9,6.3,0.4,36.38,,,,,,,,,,
16.52.12.740,-32.1,8.0,0,12.0,,70697.6,14.14,-0.33,0.46,0.82,2.0,5.9,-0.1,36.38,,,,,,,,,,
16.52.12.748,-42.1,10.5,0,12.0,,74900.1,13.35,-0.33,0.46,0.82,1.3,5.3,-0.6,36.38,,,,,,,,,,
16.52.12.761,-53.9,13.5,0,12.0,,74906.7,13.35,-0.33,0.45,0.82,1.6,6.0,-0.4,36.38,,,,,,,,,,
16.52.12.773,-66.3,16.6,0,12.0,,76488.6,13.07,-0.33,0.46,0.82,2.1,5.7,0.0,36.38,,,,,,,,,,
16.52.12.781,-80.5,20.1,0,12.0,,76880.6,13.01,-0.33,0.46,0.82,2.1,5.4,0.1,36.38,,,,,,,,,,
16.52.12.793,-79.0,19.8,0,12.0,,80187.0,12.47,-0.33,0.47,0.82,1.8,5.9,0.0,36.38,,,,,,,,,,
16.52.12.805,-82.0,20.5,0,12.0,,74300.5,13.46,-0.33,0.46,0.82,1.1,6.3,-0.6,36.38,,,,,,,,,,
16.52.12.814,-107.7,26.9,0,12.0,,79729.2,12.54,-0.33,0.46,0.82,0.3,5.6,-0.8,36.38,,,,,,,,,,
16.52.12.826,-112.7,28.2,0,12.0,,71251.7,14.03,-0.33,0.45,0.83,-0.2,4.9,-1.4,36.38,,,,,,,,,,
16.52.12.838,-92.3,23.1,0,12.0,,72313.7,13.83,-0.33,0.44,0.83,0.6,5.7,-1.7,36.38,,,,,,,,,,
16.52.12.846,-95.6,23.9,0,12.0,,73044.8,13.69,-0.33,0.45,0.82,1.9,6.2,-1.2,36.38,,,,,,,,,,
16.52.12.859,-126.1,31.5,0,12.0,,78723.1,12.7,-0.33,0.46,0.82,2.8,6.3,-0.9,36.38,,,,,,,,,,
16.52.12.871,-117.0,29.2,0,12.0,,76761.3,13.03,-0.33,0.46,0.82,2.3,6.0,-0.7,36.38,,,,,,,,,,
16.52.12.883,-131.5,32.9,0,12.0,,78576.2,12.73,-0.33,0.47,0.82,1.6,5.9,-0.7,36.38,,,,,,,,,,
16.52.12.891,-152.0,38.0,0,12.0,,79437.8,12.59,-0.33,0.46,0.82,1.0,5.8,-1.2,36.38,,,,,,,,,,
16.52.12.904,-153.8,38.4,0,12.0,,75550.0,13.24,-0.33,0.46,0.82,0.4,5.2,-1.5,36.38,,,,,,,,,,
16.52.12.916,-164.3,41.1,0,12.0,,76009.4,13.16,-0.33,0.47,0.82,-0.3,5.0,-1.7,36.38,,,,,,,,,,
16.52.12.924,-188.3,47.1,0,12.0,,75783.3,13.2,-0.33,0.46,0.82,-0.3,5.4,-1.9,36.38,,,,,,,,,,
16.52.12.937,42.1,10.5,1,13.0,101.1,76640.1,13.05,-0.33,0.46,0.82,-0.6,5.5,-1.8,36.38,,,,,,,,,,
16.52.12.949,90.3,22.6,0,13.0,,78228.1,12.78,-0.33,0.45,0.83,-0.4,5.8,-1.9,36.38,,,,,,,,,,
16.52.12.957,135.3,33.8,0,13.0,,75535.8,13.24,-0.33,0.46,0.83,-0.4,5.8,-2.3,36.38,,,,,,,,,,
16.52.12.969,215.3,53.8,0,13.0,,77781.3,12.86,-0.33,0.46,0.82,-0.7,5.8,-2.3,36.38,,,,,,,,,,
16.52.12.982,273.5,68.4,0,13.0,,76586.7,13.06,-0.33,0.46,0.82,-1.5,5.5,-2.8,36.38,,,,,,,,,,
16.52.12.994,314.3,78.6,0,13.0,,79072.7,12.65,-0.33,0.46,0.83,-1.9,5.3,-3.2,36.38,,,,,,,,,,
16.52.13.002,341.4,85.4,0,13.0,,73503.3,13.6,-0.33,0.45,0.83,-2.2,5.4,-3.4,36.38,,,,,,,,,,
16.52.13.015,374.4,93.6,0,13.0,,77209.2,12.95,-0.32,0.47,0.83,-2.1,5.1,-3.1,36.38,,,,,,,,,,
16.52.13.027,424.5,106.1,0,13.0,,71600.6,13.97,-0.33,0.46,0.83,-2.2,4.8,-3.1,36.38,,,,,,,,,,
16.52.13.035,411.1,102.8,0,13.0,,73877.1,13.54,-0.33,0.45,0.82,-2.0,5.5,-3.1,36.38,,,,,,,,,,
16.52.13.076,348.5,87.1,0,13.0,,74460.1,13.43,-0.33,0.45,0.83,1.0,5.4,-1.3,36.38,,,,,,,,,,
16.52.13.088,307.2,76.8,0,13.0,,75714.1,13.21,-0.33,0.45,0.82,1.0,6.0,-1.3,36.38,,,,,,,,,,
16.52.13.101,272.0,68.0,0,13.0,,78876.6,12.68,-0.33,0.45,0.83,1.7,5.5,-1.0,36.38,,,,,,,,,,
16.52.13.110,215.8,54.0,0,13.0,,75302.9,13.28,-0.33,0.45,0.82,1.6,5.8,-1.0,36.38,,,,,,,,,,
16.52.13.121,131.5,32.9,0,13.0,,73097.5,13.68,-0.33,0.46,0.82,1.5,5.5,-1.1,36.38,,,,,,,,,,
16.52.13.133,58.2,14.6,0,13.0,,79080.3,12.65,-0.33,0.46,0.82,1.8,5.5,-1.1,36.38,,,,,,,,,,
16.52.13.146,3.4,0.8,0,13.0,,73312.3,13.64,-0.33,0.47,0.82,1.1,5.9,-0.8,36.38,,,,,,,,,,
16.52.13.154,6.0,1.5,0,13.0,,77980.7,12.82,-0.33,0.46,0.83,0.0,5.6,-1.6,36.38,,,,,,,,,,
16.52.13.166,72.1,18.0,0,13.0,,71824.4,13.92,-0.33,0.46,0.83,-1.1,4.3,-1.9,36.38,,,,,,,,,,
16.52.13.179,56.6,14.2,0,13.0,,74038.8,13.51,-0.33,0.45,0.83,-1.1,5.1,-2.3,36.38,,,,,,,,,,
16.52.13.191,60.6,15.2,0,13.0,,74893.0,13.35,-0.34,0.45,0.83,-0.5,5.0,-2.1,36.38,,,,,,,,,,
16.52.13.199,82.3,20.6,0,13.0,,73954.3,13.52,-0.34,0.45,0.83,-0.1,5.5,-2.1,36.38,,,,,,,,,,
16.52.13.211,86.5,21.6,0,13.0,,77695.6,12.87,-0.33,0.45,0.82,0.9,6.0,-2.3,36.38,,,,,,,,,,
16.52.13.223,52.1,13.0,0,13.0,,71780.5,13.93,-0.33,0.45,0.82,0.5,5.5,-1.8,36.38,,,,,,,,,,
16.52.13.236,111.1,27.8,0,13.0,,75791.1,13.19,-0.33,0.46,0.82,0.2,5.9,-1.9,36.38,,,,,,,,,,
16.52.13.244,48.3,12.1,0,13.0,,75232.2,13.29,-0.33,0.46,0.83,-0.5,5.7,-2.5,36.38,,,,,,,,,,
16.52.13.256,36.3,9.1,0,13.0,,76053.2,13.15,-0.33,0.45,0.82,-0.5,5.6,-2.6,36.38,,,,,,,,,,
16.52.13.268,-6.2,1.6,0,13.0,,75181.3,13.3,-0.33,0.45,0.82,-0.3,5.5,-2.5,36.38,,,,,,,,,,
16.52.13.281,-9.6,2.4,0,13.0,,75982.5,13.16,-0.33,0.45,0.82,0.0,5.6,-1.8,36.38,,,,,,,,,,
16.52.13.289,-11.1,2.8,0,13.0,,73838.0,13.54,-0.33,0.45,0.82,0.0,5.4,-2.1,36.38,,,,,,,,,,
16.52.13.301,-25.7,6.4,0,13.0,,75232.1,13.29,-0.33,0.45,0.82,0.3,6.0,-1.8,36.38,,,,,,,,,,
16.52.13.309,-40.5,10.1,0,13.0,,75968.0,13.16,-0.33,0.46,0.82,0.5,5.8,-1.2,36.38,,,,,,,,,,
16.52.13.322,-7.8,2.0,0,13.0,,76854.2,13.01,-0.33,0.45,0.82,0.3,6.6,-1.6,36.38,,,,,,,,,,
16.52.13.330,-11.6,2.9,0,13.0,,79948.5,12.51,-0.33,0.45,0.82,0.2,6.5,-1.3,36.38,,,,,,,,,,
16.52.13.342,-34.1,8.5,0,13.0,,76314.4,13.1,-0.33,0.45,0.82,0.9,6.3,-0.8,36.38,,,,,,,,,,
16.52.13.350,-20.9,5.2,0,13.0,,79724.0,12.54,-0.33,0.45,0.83,1.3,6.5,-0.7,36.38,,,,,,,,,,
16.52.13.363,-20.3,5.1,0,13.0,,75055.2,13.32,-0.33,0.45,0.82,1.5,6.3,-0.6,36.38,,,,,,,,,,
16.52.13.371,-63.4,15.8,0,13.0,,74532.6,13.42,-0.33,0.45,0.83,1.5,5.8,-0.6,36.38,,,,,,,,,,
16.52.13.383,-51.8,13.0,0,13.0,,73874.8,13.54,-0.33,0.45,0.82,1.9,6.3,-0.7,36.38,,,,,,,,,,
16.52.13.392,-90.6,22.6,0,13.0,,74468.9,13.43,-0.33,0.45,0.81,2.2,6.5,-0.7,36.38,,,,,,,,,,
16.52.13.404,-88.1,22.0,0,13.0,,73227.0,13.66,-0.33,0.46,0.83,2.5,6.5,-0.6,36.38,,,,,,,,,,
16.52.13.412,-40.4,10.1,0,13.0,,70141.0,14.26,-0.33,0.46,0.82,2.7,6.3,-0.7,36.38,,,,,,,,,,
16.52.13.424,-73.2,18.3,0,13.0,,74886.2,13.35,-0.33,0.46,0.82,1.6,7.0,-1.3,36.38,,,,,,,,,,
16.52.13.432,-114.3,28.6,0,13.0,,78090.8,12.81,-0.34,0.46,0.82,0.2,5.8,-1.7,36.38,,,,,,,,,,
16.52.13.445,-126.3,31.6,0,13.0,,79230.8,12.62,-0.33,0.46,0.83,-0.2,5.9,-2.1,36.38,,,,,,,,,,
16.52.13.453,-108.3,27.1,0,13.0,,76986.4,12.99,-0.34,0.45,0.83,0.0,6.4,-2.3,36.38,,,,,,,,,,
16.52.13.465,-124.2,31.0,0,13.0,,73325.7,13.64,-0.34,0.44,0.82,0.8,6.1,-2.0,36.38,,,,,,,,,,
16.52.13.473,-109.1,27.3,0,13.0,,73495.8,13.61,-0.33,0.44,0.82,1.8,6.6,-1.4,36.38,,,,,,,,,,
16.52.13.485,-137.6,34.4,0,13.0,,75587.0,13.23,-0.33,0.44,0.82,3.5,6.5,-0.7,36.38,,,,,,,,,,
16.52.13.494,-125.1,31.3,0,13.0,,75975.4,13.16,-0.33,0.45,0.82,4.3,7.6,-0.4,36.38,,,,,,,,,,
16.52.13.509,-150.8,37.7,0,13.0,,76682.3,13.04,-0.35,0.46,0.82,4.7,10.6,-0.2,36.38,,,,,,,,,,
16.52.13.518,-149.7,37.4,0,13.0,,72905.4,13.72,-0.34,0.46,0.81,3.9,7.2,0.9,36.38,,,,,,,,,,
16.52.13.531,-184.7,46.2,0,13.0,,74600.2,13.4,-0.31,0.47,0.82,4.0,3.8,2.6,36.38,,,,,,,,,,
16.52.13.539,-119.2,29.8,0,13.0,,74864.4,13.36,-0.31,0.46,0.84,4.9,5.2,3.7,36.38,,,,,,,,,,
16.52.13.551,40.3,10.1,1,14.0,96.0,76324.3,13.1,-0.31,0.44,0.84,6.5,8.8,3.7,36.38,,,,,,,,,,
16.52.13.563,113.8,28.4,0,14.0,,76998.6,12.99,-0.32,0.41,0.83,12.1,7.4,6.0,36.38,,,,,,,,,,
16.52.13.571,186.8,46.7,0,14.0,,77553.5,12.89,-0.33,0.4,0.82,16.9,9.8,8.1,36.38,,,,,,,,,,
16.52.13.584,210.2,52.6,0,14.0,,77768.8,12.86,-0.34,0.45,0.8,20.9,11.7,8.4,36.38,,,,,,,,,,
16.52.13.596,286.0,71.5,0,14.0,,75686.7,13.21,-0.38,0.5,0.81,17.5,9.8,5.6,36.38,,,,,,,,,,
16.52.13.604,326.4,81.6,0,14.0,,74628.9,13.4,-0.35,0.53,0.79,9.7,4.2,1.8,36.38,,,,,,,,,,
16.52.13.617,353.1,88.3,0,14.0,,78005.6,12.82,-0.32,0.53,0.8,2.2,2.1,-0.2,36.38,,,,,,,,,,
16.52.13.629,329.4,82.4,0,14.0,,76198.7,13.12,-0.33,0.51,0.8,-1.2,5.7,-1.8,36.38,,,,,,,,,,
16.52.13.641,351.4,87.8,0,14.0,,74136.5,13.49,-0.31,0.48,0.81,-4.3,3.5,-2.6,36.38,,,,,,,,,,
16.52.13.649,410.0,102.5,0,14.0,,79436.3,12.59,-0.31,0.47,0.83,-5.0,2.2,-3.4,36.38,,,,,,,,,,
16.52.13.662,400.3,100.1,0,14.0,,76838.2,13.01,-0.32,0.46,0.82,-2.0,4.9,-2.6,36.38,,,,,,,,,,
16.52.13.674,379.9,95.0,0,14.0,,73457.4,13.61,-0.34,0.44,0.81,2.4,7.5,-0.5,36.38,,,,,,,,,,
16.52.13.689,363.2,90.8,0,14.0,,78198.4,12.79,-0.37,0.43,0.82,4.4,8.0,0.7,36.38,,,,,,,,,,
16.52.13.694,349.1,87.3,0,14.0,,75290.0,13.28,-0.36,0.44,0.83,5.2,5.6,0.5,36.38,,,,,,,,,,
16.52.13.707,270.0,67.5,0,14.0,,75735.5,13.2,-0.34,0.46,0.82,7.9,6.1,0.3,36.38,,,,,,,,,,
16.52.13.716,247.1,61.8,0,14.0,,74366.0,13.45,-0.33,0.49,0.8,8.0,7.8,-1.7,36.38,,,,,,,,,,
16.52.13.727,161.0,40.2,0,14.0,,78584.7,12.73,-0.33,0.5,0.79,2.8,8.2,-5.6,36.38,,,,,,,,,,
16.52.13.739,162.0,40.5,0,14.0,,75447.1,13.25,-0.32,0.52,0.79,-2.5,7.9,-8.8,36.38,,,,,,,,,,
16.52.13.752,66.8,16.7,0,14.0,,76044.9,13.15,-0.32,0.52,0.79,-5.8,7.6,-9.6,36.38,,,,,,,,,,
16.52.13.760,7.6,1.9,0,14.0,,77372.2,12.92,-0.32,0.5,0.8,-7.1,10.3,-8.5,36.38,,,,,,,,,,
16.52.13.772,33.3,8.3,0,14.0,,73914.4,13.53,-0.33,0.47,0.8,-5.5,14.0,-7.2,36.38,,,,,,,,,,
16.52.13.785,58.1,14.5,0,14.0,,74598.1,13.41,-0.33,0.44,0.8,-2.6,16.9,-5.4,36.38,,,,,,,,,,
16.52.13.793,28.2,7.0,0,14.0,,75455.1,13.25,-0.34,0.43,0.83,1.7,20.7,-4.8,36.38,,,,,,,,,,
16.52.13.805,75.4,18.8,0,14.0,,71779.8,13.93,-0.37,0.44,0.83,3.2,26.8,-5.2,36.38,,,,,,,,,,
16.52.13.817,107.3,26.8,0,14.0,,81458.2,12.28,-0.39,0.44,0.82,7.8,36.9,-7.2,36.38,,,,,,,,,,
16.52.13.832,101.6,25.4,0,14.0,,74741.3,13.38,-0.38,0.44,0.8,15.9,40.7,-8.3,36.38,,,,,,,,,,
16.52.13.838,78.2,19.6,0,14.0,,74380.6,13.44,-0.3,0.46,0.78,9.3,33.5,-3.9,36.38,,,,,,,,,,
16.52.13.879,1.4,0.4,0,14.0,,76058.9,13.15,-0.3,0.48,0.83,8.4,26.1,-1.7,36.38,,,,,,,,,,
16.52.13.887,18.1,4.5,0,14.0,,77017.4,12.98,-0.4,0.52,0.78,20.8,56.0,-4.7,36.38,,,,,,,,,,
16.52.13.900,45.2,11.3,0,14.0,,75375.7,13.27,-0.39,0.61,0.78,15.0,59.7,-7.4,36.38,,,,,,,,,,
16.52.13.912,-8.2,2.0,0,14.0,,76195.1,13.12,-0.37,0.63,0.81,1.2,66.9,-13.5,36.38,,,,,,,,,,
16.52.13.921,-39.7,9.9,0,14.0,,76024.4,13.15,-0.4,0.6,0.81,-15.1,72.4,-24.0,36.38,,,,,,,,,,
16.52.13.933,-27.0,6.8,0,14.0,,76182.0,13.13,-0.41,0.55,0.81,-19.9,71.0,-26.5,36.38,,,,,,,,,,
16.52.13.941,-50.6,12.6,0,14.0,,76873.7,13.01,-0.4,0.48,0.78,-14.5,62.9,-19.1,36.38,,,,,,,,,,
16.52.13.952,-51.7,12.9,0,14.0,,81370.0,12.29,-0.46,0.48,0.77,-8.5,62.5,-0.4,36.38,,,,,,,,,,
16.52.13.961,-25.1,6.3,0,14.0,,79679.8,12.55,-0.52,0.45,0.82,10.3,69.1,9.0,36.38,,,,,,,,,,
16.52.13.973,-77.2,19.3,0,14.0,,77123.0,12.97,-0.5,0.49,0.81,19.4,67.5,12.0,36.38,,,,,,,,,,
16.52.13.981,-60.1,15.0,0,14.0,,76691.3,13.04,-0.52,0.54,0.83,16.9,51.2,4.6,36.38,,,,,,,,,,
16.52.13.994,-19.0,4.8,0,14.0,,74196.3,13.48,-0.51,0.56,0.83,6.9,51.8,-9.5,36.38,,,,,,,,,,
16.52.14.006,-75.4,18.8,0,14.0,,72144.4,13.86,-0.56,0.5,0.73,-5.6,61.8,-27.3,36.38,,,,,,,,,,
16.52.14.014,-50.7,12.7,0,14.0,,77103.1,12.97,-0.63,0.47,0.68,-10.5,71.7,-34.6,36.38,,,,,,,,,,
16.52.14.026,-87.6,21.9,0,14.0,,77413.4,12.92,-0.58,0.41,0.63,-9.2,78.3,-34.0,36.38,,,,,,,,,,
16.52.14.035,-76.8,19.2,0,14.0,,76082.9,13.14,-0.64,0.41,0.62,-7.3,74.8,-34.2,36.38,,,,,,,,,,
16.52.14.047,-131.6,32.9,0,14.0,,69695.0,14.35,-0.65,0.45,0.67,-19.3,66.3,-40.9,36.38,,,,,,,,,,
16.52.14.055,-96.1,24.0,0,14.0,,74478.9,13.43,-0.66,0.44,0.73,-27.1,64.5,-51.9,36.38,,,,,,,,,,
16.52.14.068,-110.1,27.5,0,14.0,,76178.8,13.13,-0.65,0.41,0.74,-31.2,60.9,-58.1,36.38,,,,,,,,,,
16.52.14.080,-97.9,24.5,0,14.0,,72509.6,13.79,-0.71,0.41,0.75,-35.7,56.3,-53.4,36.38,,,,,,,,,,
16.52.14.088,-120.0,30.0,0,14.0,,77870.7,12.84,-0.75,0.4,0.77,-37.6,67.0,-38.6,36.38,,,,,,,,,,
16.52.14.100,-134.5,33.6,0,14.0,,75883.8,13.18,-0.82,0.4,0.76,-32.6,77.6,-25.2,36.38,,,,,,,,,,
16.52.14.108,-119.4,29.8,0,14.0,,73423.2,13.62,-0.77,0.36,0.71,-30.6,75.4,-19.0,36.38,,,,,,,,,,
16.52.14.120,-176.8,44.2,0,14.0,,72505.5,13.79,-0.72,0.28,0.62,-27.0,67.0,-25.4,36.38,,,,,,,,,,
16.52.14.133,-153.9,38.5,0,14.0,,75827.0,13.19,-0.7,0.28,0.6,-15.5,50.1,-31.1,36.38,,,,,,,,,,
16.52.14.142,-130.1,32.5,0,14.0,,76948.5,13.0,-0.7,0.29,0.63,-2.4,43.8,-29.1,36.38,,,,,,,,,,
16.52.14.153,-145.1,36.3,0,14.0,,72551.0,13.78,-0.7,0.31,0.6,15.2,49.8,-25.2,36.38,,,,,,,,,,
16.52.14.162,-9.8,2.4,1,15.0,102.5,74948.4,13.34,-0.7,0.3,0.55,25.4,59.8,-22.5,36.38,,,,,,,,,,
16.52.14.174,100.5,25.1,0,15.0,,76784.1,13.02,-0.69,0.32,0.56,32.0,61.0,-19.4,36.38,,,,,,,,,,
16.52.14.182,142.9,35.7,0,15.0,,73126.3,13.67,-0.67,0.33,0.59,31.9,53.7,-16.8,36.38,,,,,,,,,,
16.52.14.194,173.5,43.4,0,15.0,,77847.5,12.85,-0.65,0.33,0.62,24.4,47.2,-20.9,36.38,,,,,,,,,,
16.52.14.207,205.9,51.5,0,15.0,,75763.2,13.2,-0.66,0.37,0.65,18.2,46.4,-26.7,36.38,,,,,,,,,,
16.52.14.215,256.0,64.0,0,15.0,,75410.3,13.26,-0.62,0.39,0.64,10.8,45.9,-28.6,36.38,,,,,,,,,,
16.52.14.227,347.4,86.8,0,15.0,,77834.5,12.85,-0.61,0.37,0.63,7.0,45.0,-26.6,36.38,,,,,,,,,,
16.52.14.235,341.5,85.4,0,15.0,,78340.7,12.76,-0.61,0.36,0.6,5.9,47.1,-24.6,36.38,,,,,,,,,,
16.52.14.248,375.2,93.8,0,15.0,,73178.2,13.67,-0.66,0.36,0.58,10.5,61.2,-21.8,36.38,,,,,,,,,,
16.52.14.256,369.8,92.4,0,15.0,,78266.2,12.78,-0.67,0.37,0.58,12.4,74.3,-17.8,36.38,,,,,,,,,,
16.52.14.268,431.8,108.0,0,15.0,,79032.1,12.65,-0.71,0.39,0.58,8.3,69.3,-17.2,36.38,,,,,,,,,,
16.52.14.280,405.7,101.4,0,15.0,,74144.8,13.49,-0.7,0.39,0.58,1.6,63.0,-23.0,36.38,,,,,,,,,,
16.52.14.289,389.6,97.4,0,15.0,,77142.3,12.96,-0.69,0.4,0.59,-0.3,59.7,-27.7,36.38,,,,,,,,,,
16.52.14.301,380.7,95.2,0,15.0,,75248.4,13.29,-0.7,0.43,0.62,0.9,59.9,-27.9,36.38,,,,,,,,,,
16.52.14.309,342.5,85.6,0,15.0,,75632.0,13.22,-0.7,0.43,0.62,1.7,61.3,-27.5,36.38,,,,,,,,,,
16.52.14.321,264.0,66.0,0,15.0,,76286.9,13.11,-0.71,0.42,0.6,1.3,61.4,-29.0,36.38,,,,,,,,,,
16.52.14.330,261.0,65.2,0,15.0,,71816.5,13.92,-0.72,0.42,0.56,2.9,62.5,-28.6,36.38,,,,,,,,,,
16.52.14.342,184.6,46.2,0,15.0,,71646.7,13.96,-0.74,0.42,0.53,8.0,64.6,-25.7,36.38,,,,,,,,,,
16.52.14.350,194.8,48.7,0,15.0,,71921.5,13.9,-0.76,0.42,0.52,12.4,68.3,-24.0,36.38,,,,,,,,,,
16.52.14.362,104.0,26.0,0,15.0,,78521.2,12.74,-0.75,0.42,0.5,13.2,70.5,-24.4,36.38,,,,,,,,,,
16.52.14.375,5.4,1.4,0,15.0,,76523.1,13.07,-0.76,0.44,0.53,12.6,66.3,-26.8,36.38,,,,,,,,,,
16.52.14.383,10.7,2.7,0,15.0,,74908.1,13.35,-0.76,0.45,0.55,8.7,63.8,-27.3,36.38,,,,,,,,,,
16.52.14.395,38.8,9.7,0,15.0,,78901.9,12.67,-0.76,0.45,0.56,5.9,60.8,-27.0,36.38,,,,,,,,,,
16.52.14.403,62.7,15.7,0,15.0,,77041.5,12.98,-0.76,0.44,0.56,2.6,56.7,-26.4,36.38,,,,,,,,,,
16.52.14.416,74.7,18.7,0,15.0,,77719.8,12.87,-0.74,0.42,0.55,0.0,53.2,-25.9,36.38,,,,,,,,,,
16.52.14.424,82.7,20.7,0,15.0,,79118.5,12.64,-0.74,0.42,0.55,-1.8,50.1,-25.5,36.38,,,,,,,,,,
16.52.14.436,72.3,18.1,0,15.0,,69606.8,14.37,-0.74,0.4,0.56,-4.8,47.5,-26.6,36.38,,,,,,,,,,
16.52.14.444,90.2,22.6,0,15.0,,75249.8,13.29,-0.76,0.4,0.56,-10.1,48.6,-27.9,36.38,,,,,,,,,,
16.52.14.457,83.1,20.8,0,15.0,,78161.3,12.79,-0.79,0.38,0.55,-14.3,53.1,-28.6,36.38,,,,,,,,,,
16.52.14.469,103.2,25.8,0,15.0,,77779.6,12.86,-0.82,0.35,0.53,-15.9,53.7,-28.6,36.38,,,,,,,,,,
16.52.14.477,52.2,13.0,0,15.0,,73674.6,13.57,-0.81,0.33,0.49,-17.7,51.8,-24.9,36.38,,,,,,,,,,
16.52.14.489,8.1,2.0,0,15.0,,74782.4,13.37,-0.81,0.3,0.48,-17.1,47.8,-23.2,36.38,,,,,,,,,,
16.52.14.498,-4.3,1.1,0,15.0,,76085.2,13.14,-0.8,0.29,0.46,-13.7,45.6,-24.9,36.38,,,,,,,,,,
16.52.14.510,11.7,2.9,0,15.0,,76614.4,13.05,-0.81,0.3,0.45,-9.5,44.4,-27.0,36.38,,,,,,,,,,
16.52.14.518,-40.5,10.1,0,15.0,,76761.4,13.03,-0.81,0.3,0.43,-5.3,44.6,-28.0,36.38,,,,,,,,,,
16.52.14.530,23.0,5.8,0,15.0,,75561.1,13.23,-0.8,0.29,0.41,-0.1,45.9,-28.4,36.38,,,,,,,,,,
16.52.14.543,-18.0,4.5,0,15.0,,74734.5,13.38,-0.83,0.3,0.43,4.8,49.9,-26.5,36.38,,,,,,,,,,
16.52.14.551,-44.2,11.0,0,15.0,,75097.0,13.32,-0.83,0.29,0.4,7.4,54.0,-23.0,36.38,,,,,,,,,,
16.52.14.563,-41.6,10.4,0,15.0,,80786.9,12.38,-0.84,0.29,0.39,10.1,52.3,-19.8,36.38,,,,,,,,,,
16.52.14.571,-3.7,0.9,0,15.0,,73750.7,13.56,-0.82,0.3,0.38,10.0,53.4,-19.7,36.38,,,,,,,,,,
16.52.14.584,-26.1,6.5,0,15.0,,74802.6,13.37,-0.82,0.31,0.39,7.5,52.5,-20.8,36.38,,,,,,,,,,
16.52.14.596,-44.3,11.1,0,15.0,,78061.9,12.81,-0.84,0.3,0.39,2.3,51.4,-23.9,36.38,,,,,,,,,,
16.52.14.604,-69.0,17.2,0,15.0,,75453.1,13.25,-0.84,0.29,0.39,-2.8,50.8,-28.0,36.38,,,,,,,,,,
16.52.14.616,-49.9,12.5,0,15.0,,74960.3,13.34,-0.86,0.28,0.38,-8.3,47.3,-31.2,36.38,,,,,,,,,,
16.52.14.625,-67.8,17.0,0,15.0,,74464.9,13.43,-0.86,0.26,0.36,-13.1,45.7,-33.6,36.38,,,,,,,,,,
16.52.14.637,-80.1,20.0,0,15.0,,77927.2,12.83,-0.87,0.26,0.35,-15.0,43.7,-34.4,36.38,,,,,,,,,,
16.52.14.645,-115.4,28.8,0,15.0,,76784.4,13.02,-0.87,0.24,0.32,-14.7,40.7,-34.3,36.38,,,,,,,,,,
16.52.14.687,-82.6,20.6,0,15.0,,78349.8,12.76,-0.86,0.23,0.32,-12.6,38.1,-33.3,36.38,,,,,,,,,,
16.52.14.694,-134.0,33.5,0,15.0,,75024.1,13.33,-0.89,0.21,0.34,-12.0,38.3,-33.1,36.38,,,,,,,,,,
16.52.14.707,-91.8,23.0,0,15.0,,80063.8,12.49,-0.89,0.19,0.33,-11.0,35.3,-31.5,36.38,,,,,,,,,,
16.52.14.715,-123.3,30.8,0,15.0,,74839.5,13.36,-0.89,0.18,0.34,-10.8,27.2,-29.0,36.38,,,,,,,,,,
16.52.14.727,-118.1,29.5,0,15.0,,75374.5,13.27,-0.88,0.17,0.35,-12.1,20.5,-27.4,36.38,,,,,,,,,,
16.52.14.740,-171.4,42.8,0,15.0,,79730.4,12.54,-0.89,0.16,0.34,-12.2,18.9,-27.6,36.38,,,,,,,,,,
16.52.14.747,-167.6,41.9,0,15.0,,76058.1,13.15,-0.89,0.16,0.32,-10.0,16.4,-26.4,36.38,,,,,,,,,,
16.52.14.760,-181.1,45.3,0,15.0,,75745.6,13.2,-0.87,0.15,0.25,-5.1,15.7,-25.1,36.38,,,,,,,,,,
16.52.14.772,-151.2,37.8,0,15.0,,72368.0,13.82,-0.88,0.15,0.23,-0.7,14.7,-24.0,36.38,,,,,,,,,,
16.52.14.780,17.3,4.3,1,16.0,95.4,75513.6,13.24,-0.9,0.16,0.22,2.7,17.1,-22.2,36.38,,,,,,,,,,
16.52.14.792,86.3,21.6,0,16.0,,78803.3,12.69,-0.9,0.15,0.23,3.2,21.9,-21.5,36.38,,,,,,,,,,
16.52.14.801,124.2,31.0,0,16.0,,73805.8,13.55,-0.9,0.14,0.22,2.1,22.8,-22.6,36.38,,,,,,,,,,
16.52.14.813,201.4,50.4,0,16.0,,70952.1,14.09,-0.92,0.13,0.23,0.4,20.1,-22.1,36.38,,,,,,,,,,
16.52.14.821,252.7,63.2,0,16.0,,75876.9,13.18,-0.93,0.11,0.25,-2.4,18.2,-20.6,36.38,,,,,,,,,,
16.52.14.834,242.3,60.6,0,16.0,,71547.6,13.98,-0.95,0.1,0.26,-5.5,16.2,-20.0,36.38,,,,,,,,,,
16.52.14.846,366.8,91.7,0,16.0,,77419.0,12.92,-0.95,0.09,0.26,-8.4,14.6,-22.5,36.38,,,,,,,,,,
16.52.14.854,369.4,92.4,0,16.0,,77513.0,12.9,-0.97,0.08,0.25,-9.3,14.8,-27.7,36.38,,,,,,,,,,
16.52.14.866,412.9,103.2,0,16.0,,80541.0,12.42,-0.98,0.07,0.24,-6.4,14.7,-30.4,36.38,,,,,,,,,,
16.52.14.875,401.4,100.4,0,16.0,,77389.8,12.92,-0.99,0.08,0.24,-0.5,15.5,-30.8,36.38,,,,,,,,,,
16.52.14.887,432.0,108.0,0,16.0,,77159.9,12.96,-0.97,0.07,0.23,5.1,13.2,-32.3,36.38,,,,,,,,,,
16.52.14.899,374.6,93.6,0,16.0,,74184.2,13.48,-0.97,0.07,0.24,8.7,8.5,-36.1,36.38,,,,,,,,,,
16.52.14.907,372.3,93.1,0,16.0,,71965.0,13.9,-0.95,0.09,0.27,13.4,5.6,-38.3,36.38,,,,,,,,,,
16.52.14.919,329.3,82.3,0,16.0,,74734.4,13.38,-0.94,0.09,0.27,19.1,2.9,-38.0,36.38,,,,,,,,,,
16.52.14.928,339.5,84.9,0,16.0,,77011.3,12.99,-0.92,0.1,0.26,24.1,0.0,-35.6,36.38,,,,,,,,,,
16.52.14.940,230.3,57.6,0,16.0,,78254.7,12.78,-0.93,0.12,0.26,28.0,1.0,-31.7,36.38,96.5,,,,,,,,,
16.52.14.953,229.3,57.3,0,16.0,,76977.8,12.99,-0.92,0.12,0.26,31.3,8.3,-26.1,36.38,,,,,,,,,,
16.52.14.961,171.9,43.0,0,16.0,,76396.2,13.09,-0.94,0.13,0.27,32.8,12.3,-21.3,36.38,,,,,,,,,,
16.52.14.973,89.8,22.4,0,16.0,,78926.5,12.67,-0.93,0.11,0.29,29.7,12.5,-17.9,36.38,,,,,,,,,,
16.52.14.981,76.5,19.1,0,16.0,,75536.4,13.24,-0.93,0.11,0.28,26.4,13.3,-15.0,36.38,,,,,,,,,,
16.52.14.993,13.0,3.2,0,16.0,,78053.2,12.81,-0.94,0.11,0.29,24.8,13.4,-11.8,36.38,,,,,,,,,,
16.52.15.006,19.7,4.9,0,16.0,,74212.6,13.47,-0.94,0.12,0.27,23.5,14.0,-9.9,36.38,,,,,,,,,,
16.52.15.014,27.0,6.8,0,16.0,,77849.1,12.85,-0.94,0.12,0.26,21.5,14.8,-10.7,36.38,,,,,,,,,,
16.52.15.026,51.3,12.8,0,16.0,,74967.6,13.34,-0.93,0.11,0.24,18.1,14.6,-12.1,36.38,,,,,,,,,,
16.52.15.034,64.7,16.2,0,16.0,,75432.0,13.26,-0.93,0.12,0.24,17.0,14.5,-12.0,36.38,,,,,,,,,,
16.52.15.047,70.2,17.6,0,16.0,,76881.1,13.01,-0.92,0.1,0.22,15.7,16.9,-12.4,36.38,,,,,,,,,,
16.52.15.059,83.8,21.0,0,16.0,,78223.5,12.78,-0.96,0.1,0.21,11.9,19.2,-14.6,36.38,,,,,,,,,,
16.52.15.071,88.6,22.2,0,16.0,,77251.6,12.94,-0.96,0.1,0.2,10.8,20.0,-17.1,36.38,,,,,,,,,,
16.52.15.083,61.4,15.4,0,16.0,,77116.0,12.97,-0.98,0.08,0.19,7.8,18.8,-18.7,36.38,,,,,,,,,,
16.52.15.091,38.3,9.6,0,16.0,,75852.9,13.18,-0.97,0.09,0.21,3.7,17.8,-19.2,36.38,,,,,,,,,,
16.52.15.104,46.8,11.7,0,16.0,,76706.4,13.04,-0.97,0.07,0.21,1.3,19.2,-19.2,36.38,,,,,,,,,,
16.52.15.112,6.4,1.6,0,16.0,,73135.8,13.67,-0.96,0.06,0.22,-0.5,19.6,-18.8,36.38,,,,,,,,,,
16.52.15.124,-12.8,3.2,0,16.0,,77226.1,12.95,-0.96,0.07,0.23,-0.3,19.5,-17.1,36.38,,,,,,,,,,
16.52.15.132,17.3,4.3,0,16.0,,76115.1,13.14,-0.96,0.06,0.23,0.5,21.1,-15.0,36.38,,,,,,,,,,
16.52.15.145,6.7,1.7,0,16.0,,72868.4,13.72,-0.96,0.04,0.23,2.2,20.5,-13.1,36.38,,,,,,,,,,
16.52.15.157,-4.5,1.1,0,16.0,,73005.2,13.7,-0.95,0.05,0.23,2.8,18.8,-11.3,36.38,,,,,,,,,,
16.52.15.165,-29.8,7.4,0,16.0,,80167.8,12.47,-0.95,0.04,0.22,2.7,20.1,-11.2,36.38,,,,,,,,,,
16.52.15.177,-50.0,12.5,0,16.0,,77506.2,12.9,-0.96,0.05,0.24,3.3,21.6,-12.2,36.38,,,,,,,,,,
16.52.15.186,-36.6,9.2,0,16.0,,76929.9,13.0,-0.97,0.05,0.25,1.3,21.5,-13.2,36.38,,,,,,,,,,
16.52.15.198,-50.5,12.6,0,16.0,,73779.4,13.55,-0.98,0.03,0.23,-1.5,25.2,-16.1,36.38,,,,,,,,,,
16.52.15.206,-73.4,18.4,0,16.0,,79562.2,12.57,-1.0,0.02,0.21,-3.0,27.4,-17.6,36.38,,,,,,,,,,
16.52.15.218,-53.1,13.3,0,16.0,,73729.3,13.56,-1.0,0.03,0.21,-1.7,26.3,-16.7,36.38,,,,,,,,,,
16.52.15.231,-57.9,14.5,0,16.0,,75970.0,13.16,-0.99,0.03,0.21,-2.6,22.7,-16.8,36.38,,,,,,,,,,
16.52.15.239,-55.9,14.0,0,16.0,,76142.8,13.13,-0.98,0.04,0.21,-3.5,20.3,-18.6,36.38,,,,,,,,,,
16.52.15.251,-94.0,23.5,0,16.0,,69792.3,14.33,-0.98,0.04,0.21,-3.2,22.6,-19.8,36.38,,,,,,,,,,
16.52.15.259,-64.9,16.2,0,16.0,,75135.3,13.31,-0.97,0.05,0.21,-2.6,22.9,-18.6,36.38,,,,,,,,,,
16.52.15.272,-111.1,27.8,0,16.0,,77547.1,12.9,-0.97,0.06,0.22,-1.8,21.5,-16.0,36.38,,,,,,,,,,
16.52.15.284,-111.6,27.9,0,16.0,,77229.9,12.95,-0.97,0.06,0.22,-2.4,23.3,-13.2,36.38,,,,,,,,,,
16.52.15.292,-118.6,29.6,0,16.0,,75004.9,13.33,-0.97,0.06,0.23,-4.1,21.8,-11.6,36.38,,,,,,,,,,
16.52.15.305,-135.3,33.8,0,16.0,,75044.7,13.33,-0.96,0.04,0.22,-6.6,21.8,-10.8,36.38,,,,,,,,,,
16.52.15.313,-138.9,34.7,0,16.0,,75412.9,13.26,-0.97,0.03,0.22,-8.5,22.3,-10.3,36.38,,,,,,,,,,
16.52.15.325,-135.7,33.9,0,16.0,,75904.9,13.17,-0.98,0.03,0.21,-10.8,24.4,-10.2,36.38,,,,,,,,,,
16.52.15.333,-121.0,30.2,0,16.0,,74805.3,13.37,-1.04,0.06,0.27,-13.3,24.3,-10.7,36.38,,,,,,,,,,
16.52.15.345,-147.9,37.0,0,16.0,,76676.0,13.04,-0.99,0.06,0.25,-16.0,24.4,-9.7,36.38,,,,,,,,,,
16.52.15.358,-148.9,37.2,0,16.0,,77018.2,12.98,-1.02,0.03,0.23,-19.3,30.6,-11.9,36.38,,,,,,,,,,
16.52.15.370,-186.3,46.6,0,16.0,,77759.4,12.86,-0.97,0.03,0.19,-23.2,17.9,-10.3,36.38,,,,,,,,,,
16.52.15.382,-150.0,37.5,0,16.0,,77468.4,12.91,-1.01,0.03,0.2,-20.3,22.2,-10.3,36.38,,,,,,,,,,
16.52.15.390,-194.6,48.6,0,16.0,,79221.4,12.62,-0.97,0.01,0.14,-14.7,17.0,-9.6,36.38,,,,,,,,,,
16.52.15.403,58.3,14.6,1,17.0,97.2,74603.3,13.4,-1.0,0.01,0.16,-9.7,16.5,-8.7,36.38,,,,,,,,,,
16.52.15.411,100.1,25.0,0,17.0,,76312.3,13.1,-0.99,0.02,0.15,-6.0,13.2,-7.0,36.38,,,,,,,,,,
16.52.15.423,137.9,34.5,0,17.0,,74241.8,13.47,-1.01,0.03,0.15,-3.0,15.0,-6.0,36.38,,,,,,,,,,
16.52.15.431,220.6,55.2,0,17.0,,75076.8,13.32,-1.0,0.01,0.13,1.7,14.9,-5.2,36.38,,,,,,,,,,
16.52.15.444,306.9,76.7,0,17.0,,75483.8,13.25,-1.01,0.01,0.13,4.7,12.0,-3.3,36.38,,,,,,,,,,
16.52.15.452,299.3,74.8,0,17.0,,74599.4,13.4,-1.01,0.01,0.13,7.8,11.3,-1.1,36.38,,,,,,,,,,
16.52.15.493,430.7,107.7,0,17.0,,78174.8,12.79,-1.01,0.01,0.14,9.0,13.0,-0.3,36.38,,,,,,,,,,
16.52.15.501,368.8,92.2,0,17.0,,76052.9,13.15,-1.01,0.0,0.16,5.8,13.5,0.6,36.38,,,,,,,,,,
16.52.15.513,392.0,98.0,0,17.0,,75896.6,13.18,-1.0,0.0,0.15,6.2,14.0,0.7,36.38,,,,,,,,,,
16.52.15.522,341.3,85.3,0,17.0,,77207.6,12.95,-1.0,-0.01,0.13,5.9,10.7,1.8,36.38,,,,,,,,,,
16.52.15.534,372.9,93.2,0,17.0,,77081.5,12.97,-0.99,0.0,0.12,5.1,9.4,2.4,36.38,,,,,,,,,,
16.52.15.542,322.5,80.6,0,17.0,,75611.4,13.23,-0.98,0.0,0.12,5.1,9.6,1.5,36.38,,,,,,,,,,
16.52.15.554,282.6,70.6,0,17.0,,75797.2,13.19,-0.97,0.0,0.12,3.8,8.4,1.2,36.38,,,,,,,,,,
16.52.15.563,229.1,57.3,0,17.0,,81125.9,12.33,-0.97,-0.01,0.12,4.8,9.4,0.0,36.38,,,,,,,,,,
16.52.15.575,192.3,48.1,0,17.0,,74741.4,13.38,-0.95,-0.02,0.09,5.3,10.7,-0.4,36.38,,,,,,,,,,
16.52.15.583,146.2,36.6,0,17.0,,75218.1,13.29,-0.95,-0.02,0.09,6.7,9.8,0.2,36.38,,,,,,,,,,
16.52.15.595,60.8,15.2,0,17.0,,73710.0,13.57,-0.95,-0.01,0.09,5.6,10.2,0.2,36.38,,,,,,,,,,
16.52.15.604,22.7,5.7,0,17.0,,78202.4,12.79,-0.95,-0.02,0.09,3.7,11.3,-2.0,36.38,,,,,,,,,,
16.52.15.616,2.8,0.7,0,17.0,,72937.0,13.71,-0.94,0.0,0.09,2.7,13.0,-5.0,36.38,,,,,,,,,,
16.52.15.624,27.6,6.9,0,17.0,,76569.3,13.06,-0.95,0.0,0.06,4.6,14.1,-7.8,36.38,,,,,,,,,,
16.52.15.636,43.8,11.0,0,17.0,,73240.9,13.65,-0.95,0.0,0.06,2.7,13.9,-8.0,36.38,,,,,,,,,,
16.52.15.644,84.3,21.1,0,17.0,,79978.7,12.5,-0.96,0.01,0.05,-0.7,17.1,-8.1,36.38,,,,,,,,,,
16.52.15.657,47.7,11.9,0,17.0,,71504.2,13.99,-1.03,0.06,0.1,-6.0,18.1,-6.5,36.38,,,,,,,,,,
16.52.15.665,86.4,21.6,0,17.0,,73973.6,13.52,-1.02,0.07,0.14,-14.1,22.6,-5.2,36.38,,,,,,,,,,
16.52.15.677,78.0,19.5,0,17.0,,75321.5,13.28,-1.0,0.05,0.13,-23.4,26.2,-8.2,36.38,,,,,,,,,,
16.52.15.689,93.1,23.3,0,17.0,,78634.3,12.72,-0.98,0.01,0.09,-27.3,25.0,-11.8,36.38,,,,,,,,,,
16.52.15.698,41.2,10.3,0,17.0,,71804.6,13.93,-0.99,0.0,0.11,-25.4,23.0,-11.5,36.38,,,,,,,,,,
16.52.15.710,15.0,3.8,0,17.0,,75654.2,13.22,-0.98,0.0,0.12,-22.8,24.7,-8.0,36.38,,,,,,,,,,
16.52.15.718,35.4,8.8,0,17.0,,73917.4,13.53,-0.99,0.0,0.13,-19.5,26.2,-5.7,36.38,,,,,,,,,,
16.52.15.730,44.5,11.1,0,17.0,,76585.5,13.06,-1.0,0.02,0.14,-16.4,25.9,-4.7,36.38,,,,,,,,,,
16.52.15.739,-45.0,11.2,0,17.0,,75911.8,13.17,-1.02,0.04,0.14,-14.3,26.8,-3.7,36.38,,,,,,,,,,
16.52.15.751,4.1,1.0,0,17.0,,75583.3,13.23,-1.0,0.04,0.13,-13.6,26.1,-4.6,36.38,,,,,,,,,,
16.52.15.764,-12.4,3.1,0,17.0,,75348.7,13.27,-1.01,0.02,0.12,-13.6,22.2,-7.2,36.38,,,,,,,,,,
16.52.15.772,-8.4,2.1,0,17.0,,75230.1,13.29,-1.01,0.02,0.11,-11.8,19.3,-8.9,36.38,,,,,,,,,,
16.52.15.784,-40.8,10.2,0,17.0,,73239.3,13.65,-1.01,0.02,0.09,-9.3,16.8,-8.7,36.38,,,,,,,,,,
16.52.15.792,-31.6,7.9,0,17.0,,70599.9,14.16,-1.01,0.03,0.08,-8.5,14.2,-7.6,36.38,,,,,,,,,,
16.52.15.804,-37.1,9.3,0,17.0,,74879.6,13.35,-1.01,0.03,0.06,-7.1,13.3,-7.2,36.38,,,,,,,,,,
16.52.15.817,-3.5,0.9,0,17.0,,76410.7,13.09,-1.02,0.04,0.06,-6.8,13.2,-6.0,36.38,,,,,,,,,,
16.52.15.825,-54.7,13.7,0,17.0,,77219.0,12.95,-1.02,0.03,0.07,-5.7,13.8,-4.2,36.38,,,,,,,,,,
16.52.15.837,-65.8,16.4,0,17.0,,74368.0,13.45,-1.01,0.03,0.08,-7.1,15.0,-2.9,36.38,,,,,,,,,,
16.52.15.845,-59.5,14.9,0,17.0,,77908.5,12.84,-1.0,0.02,0.07,-8.4,15.8,-2.7,36.38,,,,,,,,,,
16.52.15.857,-53.8,13.4,0,17.0,,72198.2,13.85,-1.0,0.01,0.07,-10.9,15.1,-2.3,36.38,,,,,,,,,,
16.52.15.866,-74.3,18.6,0,17.0,,76714.1,13.04,-1.01,0.0,0.08,-12.3,15.5,-3.3,36.38,,,,,,,,,,
16.52.15.878,-90.4,22.6,0,17.0,,78168.2,12.79,-1.01,-0.01,0.08,-12.6,15.9,-2.8,36.38,,,,,,,,,,
16.52.15.890,-79.2,19.8,0,17.0,,75538.2,13.24,-1.0,-0.05,0.07,-9.5,15.2,-3.1,36.38,,,,,,,,,,
16.52.15.898,-118.6,29.6,0,17.0,,75416.1,13.26,-1.03,-0.05,0.08,-3.9,17.3,-2.3,36.38,,,,,,,,,,
16.52.15.911,-101.5,25.4,0,17.0,,76195.5,13.12,-1.0,-0.05,0.08,-1.5,16.9,-2.6,36.38,,,,,,,,,,
16.52.15.919,-73.0,18.2,0,17.0,,74418.2,13.44,-1.01,-0.07,0.07,0.9,15.5,-4.1,36.38,,,,,,,,,,
16.52.15.931,-116.8,29.2,0,17.0,,79333.2,12.61,-0.99,-0.06,0.06,4.5,12.7,-4.4,36.38,,,,,,,,,,
16.52.15.940,-92.8,23.2,0,17.0,,74420.9,13.44,-0.99,-0.05,0.06,6.9,12.2,-3.5,36.38,,,,,,,,,,
16.52.15.952,-121.2,30.3,0,17.0,,74560.0,13.41,-1.0,-0.04,0.07,7.0,11.5,-2.3,36.38,,,,,,,,,,
16.52.15.960,-114.1,28.5,0,17.0,,77827.2,12.85,-1.01,-0.03,0.08,5.8,10.8,-3.0,36.38,,,,,,,,,,
16.52.15.972,-138.2,34.6,0,17.0,,76167.7,13.13,-1.0,-0.02,0.06,4.3,10.2,-4.1,36.38,,,,,,,,,,
16.52.15.985,-163.0,40.8,0,17.0,,76187.7,13.13,-1.01,-0.02,0.06,5.7,11.0,-3.7,36.38,,,,,,,,,,
16.52.15.993,-166.9,41.7,0,17.0,,74138.2,13.49,-1.01,-0.03,0.05,4.5,10.9,-1.6,36.38,,,,,,,,,,
16.52.16.005,-194.7,48.7,0,17.0,,73517.8,13.6,-1.03,-0.05,0.06,3.5,10.9,-0.1,36.38,,,,,,,,,,
16.52.16.013,-3.2,0.8,1,18.0,98.1,75660.1,13.22,-1.03,-0.03,0.07,2.4,11.4,1.4,36.38,,,,,,,,,,
16.52.16.029,129.5,32.4,0,18.0,,73001.9,13.7,-1.02,-0.04,0.06,3.2,10.5,2.6,36.38,,,,,,,,,,
16.52.16.040,191.9,48.0,0,18.0,,77215.9,12.95,-1.01,-0.04,0.06,3.2,8.4,1.2,36.38,,,,,,,,,,
16.52.16.046,214.7,53.7,0,18.0,,74682.9,13.39,-0.99,-0.03,0.07,5.4,8.1,2.7,36.38,,,,,,,,,,
16.52.16.058,229.5,57.4,0,18.0,,74071.3,13.5,-0.99,-0.02,0.05,5.5,9.7,3.1,36.38,,,,,,,,,,
16.52.16.066,320.1,80.0,0,18.0,,79001.2,12.66,-1.0,-0.02,0.05,5.4,7.5,2.9,36.38,,,,,,,,,,
16.52.16.079,383.6,95.9,0,18.0,,77365.8,12.93,-1.0,-0.02,0.04,5.4,8.4,4.4,36.38,,,,,,,,,,
16.52.16.087,381.6,95.4,0,18.0,,73467.9,13.61,-0.99,-0.02,0.03,6.6,9.8,7.0,36.38,,,,,,,,,,
16.52.16.106,357.3,89.3,0,18.0,,73322.6,13.64,-1.0,-0.01,0.03,6.5,8.5,7.9,36.38,,,,,,,,,,
16.52.16.107,418.6,104.6,0,18.0,,73369.3,13.63,-1.0,-0.02,0.04,5.8,8.9,6.1,36.38,,,,,,,,,,
16.52.16.120,369.7,92.4,0,18.0,,77620.6,12.88,-0.99,-0.01,0.03,4.7,8.0,4.8,36.38,,,,,,,,,,
16.52.16.128,385.6,96.4,0,18.0,,74469.4,13.43,-1.0,-0.01,0.04,3.8,6.9,4.2,36.38,,,,,,,,,,
16.52.16.140,394.1,98.5,0,18.0,,77579.5,12.89,-0.99,0.0,0.04,1.7,8.1,3.1,36.38,,,,,,,,,,
16.52.16.148,383.7,95.9,0,18.0,,73761.8,13.56,-0.99,-0.01,0.04,-0.1,6.6,0.4,36.38,,,,,,,,,,
16.52.16.161,341.9,85.5,0,18.0,,77011.8,12.99,-1.0,-0.02,0.04,-0.1,7.6,0.0,36.38,,,,,,,,,,
16.52.16.173,262.1,65.5,0,18.0,,80522.7,12.42,-0.99,-0.01,0.04,0.6,9.7,0.9,36.38,,,,,,,,,,
16.52.16.181,235.4,58.8,0,18.0,,75613.0,13.23,-1.0,0.0,0.04,0.2,9.1,-0.1,36.38,,,,,,,,,,
16.52.16.193,186.7,46.7,0,18.0,,74250.9,13.47,-0.99,0.0,0.03,-1.1,9.5,-2.0,36.38,,,,,,,,,,
16.52.16.202,117.8,29.4,0,18.0,,74478.7,13.43,-1.01,0.01,0.04,-2.3,7.2,-4.0,36.38,,,,,,,,,,
16.52.16.214,39.1,9.8,0,18.0,,77499.8,12.9,-1.01,-0.01,0.04,-1.7,6.8,-4.1,36.38,,,,,,,,,,
16.52.16.222,6.2,1.6,0,18.0,,73676.2,13.57,-1.0,-0.02,0.04,-1.2,8.7,-3.1,36.38,,,,,,,,,,
16.52.16.234,24.6,6.2,0,18.0,,76405.3,13.09,-1.0,-0.02,0.04,-0.7,8.7,-1.4,36.38,,,,,,,,,,
16.52.16.243,61.6,15.4,0,18.0,,80583.1,12.41,-1.0,-0.01,0.05,1.2,10.1,-0.2,36.38,,,,,,,,,,
16.52.16.255,31.7,7.9,0,18.0,,79481.9,12.58,-0.99,-0.01,0.04,1.8,12.0,1.3,36.38,,,,,,,,,,
16.52.16.292,83.3,20.8,0,18.0,,78107.1,12.8,-1.0,0.0,0.04,2.2,12.0,0.8,36.38,,,,,,,,,,
16.52.16.301,79.2,19.8,0,18.0,,76426.2,13.08,-1.01,0.0,0.04,0.8,8.6,-4.7,36.38,,,,,,,,,,
16.52.16.312,22.1,5.5,0,18.0,,74546.8,13.41,-1.0,0.0,0.04,0.6,8.3,-4.1,36.38,,,,,,,,,,
16.52.16.320,60.2,15.0,0,18.0,,75690.6,13.21,-1.02,0.0,0.04,0.2,8.0,-4.0,36.38,,,,,,,,,,
16.52.16.333,30.9,7.7,0,18.0,,70995.4,14.09,-1.01,-0.01,0.04,-0.2,7.0,-4.4,36.38,,,,,,,,,,
16.52.16.345,29.0,7.2,0,18.0,,74095.7,13.5,-1.01,-0.02,0.03,0.3,6.7,-3.5,36.38,,,,,,,,,,
16.52.16.357,-9.6,2.4,0,18.0,,79508.5,12.58,-1.01,-0.02,0.03,1.2,7.2,-1.2,36.38,,,,,,,,,,
16.52.16.365,8.5,2.1,0,18.0,,81639.5,12.25,-1.01,-0.02,0.04,1.4,7.2,-1.0,36.38,,,,,,,,,,
16.52.16.378,-20.3,5.1,0,18.0,,75465.9,13.25,-1.0,-0.03,0.03,0.9,7.0,-1.7,36.38,,,,,,,,,,
16.52.16.386,-52.9,13.2,0,18.0,,68753.1,14.54,-1.0,-0.03,0.04,1.1,6.9,-1.8,36.38,,,,,,,,,,
16.52.16.398,-26.4,6.6,0,18.0,,75459.2,13.25,-1.0,-0.02,0.05,1.9,7.6,-0.9,36.38,,,,,,,,,,
16.52.16.406,-7.2,1.8,0,18.0,,79182.9,12.63,-1.01,-0.01,0.04,1.1,8.3,-0.1,36.38,,,,,,,,,,
16.52.16.419,-42.0,10.5,0,18.0,,77950.5,12.83,-0.99,-0.01,0.03,0.0,6.8,-1.7,36.38,,,,,,,,,,
16.52.16.427,-30.4,7.6,0,18.0,,79137.3,12.64,-1.0,-0.01,0.03,-0.6,5.6,-2.7,36.38,,,,,,,,,,
16.52.16.439,-22.5,5.6,0,18.0,,75706.9,13.21,-0.99,0.0,0.03,-0.6,6.9,-2.3,36.38,,,,,,,,,,
16.52.16.451,-62.8,15.7,0,18.0,,76020.2,13.15,-1.0,0.0,0.03,-0.6,7.8,-2.1,36.38,,,,,,,,,,
16.52.16.460,-45.4,11.4,0,18.0,,74034.7,13.51,-1.0,0.0,0.03,-2.1,7.2,-2.7,36.38,,,,,,,,,,
16.52.16.472,-69.0,17.2,0,18.0,,77166.3,12.96,-1.0,-0.01,0.02,-3.0,6.9,-3.6,36.38,,,,,,,,,,
16.52.16.480,-72.9,18.2,0,18.0,,75304.7,13.28,-1.0,-0.02,0.03,-1.3,6.4,-3.7,36.38,,,,,,,,,,
16.52.16.492,-85.1,21.3,0,18.0,,76401.0,13.09,-1.0,-0.02,0.04,-0.2,6.2,-2.1,36.38,,,,,,,,,,
16.52.16.501,-87.4,21.8,0,18.0,,76724.8,13.03,-1.0,-0.01,0.03,0.6,6.4,-1.1,36.38,,,,,,,,,,
16.52.16.513,-67.0,16.8,0,18.0,,75184.9,13.3,-1.0,-0.02,0.04,0.0,6.2,-2.3,36.38,,,,,,,,,,
16.52.16.521,-95.6,23.9,0,18.0,,79334.6,12.6,-1.0,-0.02,0.04,-0.4,5.8,-3.0,36.38,,,,,,,,,,
16.52.16.533,-111.1,27.8,0,18.0,,77333.8,12.93,-1.0,-0.01,0.04,0.1,6.5,-1.6,36.38,,,,,,,,,,
16.52.16.546,-103.9,26.0,0,18.0,,75417.6,13.26,-1.0,-0.01,0.03,0.2,7.5,-1.4,36.38,,,,,,,,,,
16.52.16.554,-113.3,28.3,0,18.0,,74091.1,13.5,-1.0,0.0,0.02,-0.9,7.3,-3.0,36.38,,,,,,,,,,
16.52.16.566,-99.9,25.0,0,18.0,,73477.4,13.61,-1.0,-0.01,0.03,-2.2,6.9,-4.5,36.38,,,,,,,,,,
16.52.16.574,-155.9,39.0,0,18.0,,74097.8,13.5,-1.0,-0.01,0.03,-1.9,7.1,-4.3,36.38,,,,,,,,,,
16.52.16.587,-92.3,23.1,0,18.0,,74928.8,13.35,-1.0,-0.01,0.04,-1.7,7.2,-3.8,36.38,,,,,,,,,,
16.52.16.595,-128.6,32.2,0,18.0,,74202.2,13.48,-1.0,-0.01,0.03,-1.9,6.9,-4.3,36.38,,,,,,,,,,
16.52.16.607,-159.3,39.8,0,18.0,,72971.3,13.7,-1.0,-0.01,0.03,-1.7,5.7,-4.9,36.38,,,,,,,,,,
16.52.16.615,-168.3,42.1,0,18.0,,78596.9,12.72,-1.0,-0.02,0.03,-1.3,6.4,-4.6,36.38,,,,,,,,,,
16.52.16.628,21.0,5.2,1,19.0,100.2,75142.2,13.31,-1.0,-0.02,0.02,0.2,6.3,-3.4,36.38,,,,,,,,,,
16.52.16.636,77.8,19.4,0,19.0,,77578.9,12.89,-1.0,-0.02,0.03,0.2,5.9,-2.6,36.38,,,,,,,,,,
16.52.16.648,161.8,40.4,0,19.0,,75084.8,13.32,-1.0,-0.02,0.02,-0.2,5.7,-2.9,36.38,,,,,,,,,,
16.52.16.656,196.1,49.0,0,19.0,,72349.5,13.82,-1.0,-0.02,0.04,-0.2,4.8,-4.0,36.38,,,,,,,,,,
16.52.16.673,258.3,64.6,0,19.0,,72118.8,13.87,-1.0,-0.02,0.03,0.4,5.3,-3.4,36.38,,,,,,,,,,
16.52.16.681,321.1,80.3,0,19.0,,73511.7,13.6,-1.0,-0.02,0.04,0.9,4.6,-2.7,36.38,,,,,,,,,,
16.52.16.693,315.0,78.8,0,19.0,,77302.1,12.94,-1.0,-0.02,0.03,2.4,5.1,-2.0,36.38,,,,,,,,,,
16.52.16.701,374.3,93.6,0,19.0,,75916.6,13.17,-1.0,-0.03,0.02,2.8,5.2,-0.4,36.38,,,,,,,,,,
16.52.16.714,405.7,101.4,0,19.0,,77908.7,12.84,-0.99,-0.02,0.03,3.0,4.8,-0.5,36.38,,,,,,,,,,
16.52.16.722,417.8,104.4,0,19.0,,75664.4,13.22,-0.99,-0.03,0.02,3.0,5.3,-0.4,36.38,,,,,,,,,,
16.52.16.734,417.0,104.2,0,19.0,,74752.9,13.38,-0.99,-0.02,0.03,2.6,4.9,-0.6,36.38,,,,,,,,,,
16.52.16.742,408.6,102.2,0,19.0,,77685.3,12.87,-0.99,-0.02,0.03,1.5,6.1,-0.8,36.38,,,,,,,,,,
16.52.16.755,354.2,88.6,0,19.0,,77348.9,12.93,-0.99,-0.02,0.03,0.1,5.2,-2.1,36.38,,,,,,,,,,
16.52.16.763,358.0,89.5,0,19.0,,76503.8,13.07,-0.99,-0.02,0.04,-0.1,4.9,-2.9,36.38,,,,,,,,,,
16.52.16.775,342.9,85.7,0,19.0,,77597.3,12.89,-1.0,-0.02,0.03,-0.4,5.9,-3.1,36.38,,,,,,,,,,
16.52.16.783,312.8,78.2,0,19.0,,73431.1,13.62,-1.0,-0.01,0.03,-0.5,6.0,-2.7,36.38,,,,,,,,,,
16.52.16.796,222.7,55.7,0,19.0,,75365.3,13.27,-1.01,-0.01,0.03,-1.5,6.0,-3.7,36.38,,,,,,,,,,
16.52.16.804,246.8,61.7,0,19.0,,78082.1,12.81,-1.01,-0.02,0.03,-1.0,5.4,-3.8,36.38,,,,,,,,,,
16.52.16.816,153.1,38.3,0,19.0,,75884.9,13.18,-1.0,-0.02,0.02,0.0,5.5,-2.3,36.38,,,,,,,,,,
16.52.16.824,85.2,21.3,0,19.0,,78353.9,12.76,-0.99,-0.03,0.04,1.3,6.1,-1.3,36.38,,,,,,,,,,
16.52.16.837,22.6,5.6,0,19.0,,77722.9,12.87,-1.0,-0.03,0.03,1.6,5.7,-1.6,36.38,,,,,,,,,,
16.52.16.845,1.2,0.3,0,19.0,,78588.2,12.72,-0.99,-0.03,0.04,1.7,5.7,-1.3,36.38,,,,,,,,,,
16.52.16.857,47.0,11.8,0,19.0,,79523.5,12.57,-0.99,-0.02,0.03,1.9,7.1,-1.2,36.38,,,,,,,,,,
16.52.16.865,24.9,6.2,0,19.0,,74345.9,13.45,-0.99,-0.02,0.03,1.5,6.6,-1.6,36.38,,,,,,,,,,
16.52.16.878,64.8,16.2,0,19.0,,81729.5,12.24,-1.0,-0.01,0.03,0.8,6.9,-1.8,36.38,,,,,,,,,,
16.52.16.890,103.1,25.8,0,19.0,,76076.5,13.14,-1.01,-0.02,0.03,0.8,6.7,-1.9,36.38,,,,,,,,,,
16.52.16.898,63.7,15.9,0,19.0,,76657.3,13.05,-1.0,-0.02,0.03,1.1,7.1,-1.3,36.38,,,,,,,,,,
16.52.16.910,89.4,22.4,0,19.0,,78847.7,12.68,-1.0,-0.02,0.02,1.4,6.9,-1.5,36.38,,,,,,,,,,
16.52.16.919,69.6,17.4,0,19.0,,76496.8,13.07,-1.0,-0.02,0.03,1.1,7.2,-1.7,36.38,,,,,,,,,,
16.52.16.931,50.1,12.5,0,19.0,,76957.7,12.99,-0.99,-0.02,0.02,0.8,6.6,-2.3,36.38,,,,,,,,,,
16.52.16.939,55.6,13.9,0,19.0,,78851.9,12.68,-0.99,-0.03,0.03,0.1,7.0,-2.4,36.38,,,,,,,,,,
16.52.16.951,25.0,6.2,0,19.0,,72122.8,13.87,-0.99,-0.03,0.02,0.4,7.3,-2.2,36.38,,,,,,,,,,
16.52.16.959,9.8,2.4,0,19.0,,78076.5,12.81,-1.0,-0.02,0.03,-0.2,7.7,-2.5,36.38,,,,,,,,,,
16.52.16.972,13.2,3.3,0,19.0,,75713.0,13.21,-1.0,-0.03,0.01,-1.1,7.4,-3.3,36.38,,,,,,,,,,
16.52.16.980,13.4,3.4,0,19.0,,76720.7,13.03,-1.0,-0.02,0.02,-0.6,6.5,-3.1,36.38,,,,,,,,,,
16.52.16.992,-25.2,6.3,0,19.0,,78098.1,12.8,-1.0,-0.03,0.03,0.3,6.8,-2.1,36.38,,,,,,,,,,
16.52.17.000,-16.0,4.0,0,19.0,,72704.3,13.75,-0.99,-0.03,0.02,0.5,6.6,-1.1,36.38,,,,,,,,,,
16.52.17.013,-34.8,8.7,0,19.0,,71387.4,14.01,-1.0,-0.03,0.03,0.3,6.7,-1.8,36.38,,,,,,,,,,
16.52.17.025,-23.4,5.8,0,19.0,,80133.9,12.48,-1.0,-0.04,0.02,0.9,6.8,-1.9,36.38,,,,,,,,,,
16.52.17.033,-57.1,14.3,0,19.0,,77462.5,12.91,-1.0,-0.03,0.02,1.7,6.7,-0.5,36.38,,,,,,,,,,
16.52.17.046,-39.6,9.9,0,19.0,,72071.1,13.88,-1.0,-0.03,0.02,2.1,6.7,0.8,36.38,,,,,,,,,,
16.52.17.054,-68.2,17.0,0,19.0,,81216.5,12.31,-1.0,-0.01,0.03,1.9,5.9,0.6,36.38,,,,,,,,,,
16.52.17.090,-59.1,14.8,0,19.0,,75835.0,13.19,-1.0,-0.02,0.02,2.0,6.1,0.0,36.31,,,,,,,,,,
16.52.17.103,-98.2,24.6,0,19.0,,76412.8,13.09,-1.0,-0.02,0.03,1.6,5.9,-0.9,36.31,,,,,,,,,,
16.52.17.111,-58.6,14.6,0,19.0,,77999.4,12.82,-1.0,-0.02,0.03,2.0,5.4,-0.9,36.31,,,,,,,,,,
16.52.17.123,-92.5,23.1,0,19.0,,76662.5,13.04,-1.0,-0.02,0.03,2.2,6.2,-0.5,36.31,,,,,,,,,,
16.52.17.131,-112.1,28.0,0,19.0,,71531.7,13.98,-1.0,-0.02,0.02,1.7,6.7,-0.7,36.31,,,,,,,,,,
16.52.17.144,-94.7,23.7,0,19.0,,70882.3,14.11,-1.0,-0.02,0.02,1.3,6.4,-1.4,36.31,,,,,,,,,,
16.52.17.156,-111.4,27.8,0,19.0,,82271.5,12.15,-1.0,-0.02,0.02,1.4,6.2,-1.4,36.31,,,,,,,,,,
16.52.17.168,-137.8,34.4,0,19.0,,78312.8,12.77,-1.0,-0.02,0.02,1.6,6.8,-0.9,36.31,,,,,,,,,,
16.52.17.177,-173.5,43.4,0,19.0,,76743.2,13.03,-1.0,-0.01,0.02,1.0,6.3,-1.3,36.31,,,,,,,,,,
16.52.17.189,-154.9,38.7,0,19.0,,74081.3,13.5,-1.0,-0.01,0.02,0.9,5.8,-1.8,36.31,,,,,,,,,,
16.52.17.197,-153.6,38.4,0,19.0,,76128.0,13.14,-1.01,-0.02,0.02,1.5,5.5,-2.1,36.31,,,,,,,,,,
16.52.17.209,-176.3,44.1,0,19.0,,73054.6,13.69,-1.0,-0.02,0.03,2.1,5.2,-1.5,36.31,,,,,,,,,,
16.52.17.218,-187.6,46.9,0,19.0,,77805.5,12.85,-1.0,-0.02,0.04,2.2,5.4,-1.3,36.31,,,,,,,,,,
16.52.17.230,-161.2,40.3,0,19.0,,73765.4,13.56,-1.0,-0.02,0.03,2.2,5.1,-1.3,36.31,,,,,,,,,,
16.52.17.238,-140.7,35.2,0,19.0,,74557.8,13.41,-1.0,-0.02,0.03,2.7,5.4,-0.8,36.31,,,,,,,,,,
16.52.17.250,65.5,16.4,1,20.0,98.8,79618.0,12.56,-1.0,-0.02,0.03,2.8,5.9,0.3,36.31,,,,,,,,,,
16.52.17.259,135.4,33.8,0,20.0,,75012.9,13.33,-1.0,-0.02,0.03,2.6,5.6,0.3,36.31,,,,,,,,,,
16.52.17.271,147.2,36.8,0,20.0,,76533.2,13.07,-1.0,-0.02,0.02,1.5,6.0,-0.2,36.31,,,,,,,,,,
16.52.17.283,195.1,48.8,0,20.0,,74437.7,13.43,-1.0,-0.02,0.02,0.1,6.2,-1.1,36.31,,,,,,,,,,
16.52.17.291,267.5,66.9,0,20.0,,75379.2,13.27,-0.99,-0.03,0.02,-0.6,6.4,-2.1,36.31,,,,,,,,,,
16.52.17.304,328.3,82.1,0,20.0,,73808.1,13.55,-0.99,-0.03,0.02,-0.4,5.9,-1.7,36.31,,,,,,,,,,
16.52.17.312,372.0,93.0,0,20.0,,81507.8,12.27,-1.0,-0.02,0.02,-1.1,5.7,-1.7,36.31,,,,,,,,,,
16.52.17.324,369.5,92.4,0,20.0,,73548.6,13.6,-1.0,-0.02,0.03,-1.8,6.3,-2.9,36.31,,,,,,,,,,
16.52.17.332,402.9,100.7,0,20.0,,77027.6,12.98,-1.0,-0.02,0.02,-2.0,5.3,-3.5,36.31,,,,,,,,,,
16.52.17.345,422.8,105.7,0,20.0,,77518.7,12.9,-0.99,-0.02,0.02,-1.5,5.2,-2.7,36.31,,,,,,,,,,
16.52.17.353,416.6,104.2,0,20.0,,76828.1,13.02,-1.0,-0.02,0.02,-0.8,5.9,-2.0,36.31,,,,,,,,,,
16.52.17.365,376.1,94.0,0,20.0,,75680.5,13.21,-1.0,-0.02,0.02,-0.8,6.0,-1.5,36.31,,,,,,,,,,
16.52.17.373,378.5,94.6,0,20.0,,76146.1,13.13,-1.0,-0.01,0.03,-0.7,5.5,-1.8,36.31,,,,,,,,,,
16.52.17.386,319.1,79.8,0,20.0,,77532.9,12.9,-0.99,-0.03,0.02,-0.9,6.2,-2.1,36.31,,,,,,,,,,
16.52.17.394,329.9,82.5,0,20.0,,72617.0,13.77,-1.0,-0.03,0.03,0.2,5.8,-1.3,36.31,,,,,,,,,,
16.52.17.406,260.2,65.0,0,20.0,,72651.0,13.76,-1.0,-0.02,0.02,1.1,6.3,-0.3,36.31,,,,,,,,,,
16.52.17.418,194.3,48.6,0,20.0,,74572.8,13.41,-1.0,-0.02,0.03,1.1,6.1,-0.5,36.31,,,,,,,,,,
16.52.17.427,180.2,45.0,0,20.0,,75107.3,13.31,-1.0,-0.01,0.02,1.0,6.0,-1.1,36.31,,,,,,,,,,
16.52.17.439,97.7,24.4,0,20.0,,74664.7,13.39,-1.0,-0.02,0.02,1.6,6.3,-1.0,36.31,,,,,,,,,,
16.52.17.447,48.1,12.0,0,20.0,,75904.4,13.17,-1.0,-0.01,0.02,2.2,5.8,-0.1,36.31,,,,,,,,,,
16.52.17.459,10.0,2.5,0,20.0,,75280.0,13.28,-1.0,-0.02,0.02,2.1,6.2,0.0,36.31,,,,,,,,,,
16.52.17.472,59.7,14.9,0,20.0,,75220.1,13.29,-1.0,-0.02,0.02,0.9,5.5,-1.5,36.31,,,,,,,,,,
16.52.17.480,57.1,14.3,0,20.0,,74413.1,13.44,-1.0,-0.01,0.03,0.4,4.9,-2.4,36.31,,,,,,,,,,
16.52.17.492,48.4,12.1,0,20.0,,76365.3,13.09,-1.01,-0.01,0.04,0.7,5.1,-2.0,36.31,,,,,,,,,,
16.52.17.504,57.3,14.3,0,20.0,,76137.5,13.13,-1.0,-0.01,0.03,0.5,4.4,-2.1,36.31,,,,,,,,,,
16.52.17.513,117.0,29.2,0,20.0,,77917.0,12.83,-1.01,-0.01,0.04,0.5,3.8,-2.8,36.31,,,,,,,,,,
16.52.17.525,73.5,18.4,0,20.0,,74287.6,13.46,-1.0,-0.01,0.03,0.4,4.1,-2.9,36.31,,,,,,,,,,
16.52.17.533,25.5,6.4,0,20.0,,75487.1,13.25,-1.0,-0.02,0.02,1.3,3.9,-2.5,36.31,,,,,,,,,,
16.52.17.545,38.5,9.6,0,20.0,,72122.5,13.87,-0.99,-0.02,0.03,1.8,4.7,-0.9,36.31,,,,,,,,,,
16.52.17.554,42.0,10.5,0,20.0,,78739.5,12.7,-1.0,-0.03,0.02,1.9,4.9,-1.2,36.31,,,,,,,,,,
16.52.17.566,24.1,6.0,0,20.0,,77682.6,12.87,-1.0,-0.03,0.03,1.5,4.1,-1.5,36.31,,,,,,,,,,
16.52.17.574,6.2,1.6,0,20.0,,79552.7,12.57,-1.0,-0.03,0.03,1.8,3.9,-1.4,36.31,,,,,,,,,,
16.52.17.586,-33.7,8.4,0,20.0,,77692.1,12.87,-1.0,-0.03,0.02,1.4,4.4,-0.8,36.31,,,,,,,,,,
16.52.17.595,-32.5,8.1,0,20.0,,76675.7,13.04,-1.0,-0.02,0.02,0.9,3.9,-0.9,36.31,,,,,,,,,,
16.52.17.608,-24.9,6.2,0,20.0,,76694.5,13.04,-1.0,-0.03,0.02,0.5,4.5,-0.9,36.31,,,,,,,,,,
16.52.17.615,-36.8,9.2,0,20.0,,78001.2,12.82,-0.99,-0.02,0.02,0.2,5.0,-1.1,36.31,,,,,,,,,,
16.52.17.627,-19.0,4.8,0,20.0,,74758.6,13.38,-1.0,-0.02,0.02,0.4,4.7,-0.8,36.31,,,,,,,,,,
16.52.17.635,-34.6,8.6,0,20.0,,77144.7,12.96,-0.99,-0.02,0.03,0.3,4.7,-0.9,36.31,,,,,,,,,,
16.52.17.648,-18.4,4.6,0,20.0,,78372.6,12.76,-1.0,-0.02,0.03,0.9,5.0,-1.1,36.31,,,,,,,,,,
16.52.17.656,-31.4,7.8,0,20.0,,75175.0,13.3,-1.0,-0.01,0.04,0.4,4.7,-1.2,36.31,,,,,,,,,,
16.52.17.668,-70.0,17.5,0,20.0,,75226.3,13.29,-1.0,-0.01,0.03,0.2,4.6,-1.9,36.31,,,,,,,,,,
16.52.17.676,-47.8,12.0,0,20.0,,70897.3,14.1,-1.0,-0.01,0.03,0.4,4.3,-2.6,36.31,,,,,,,,,,
16.52.17.689,-69.6,17.4,0,20.0,,77130.5,12.97,-1.0,-0.02,0.03,1.1,4.4,-1.8,36.31,,,,,,,,,,
16.52.17.697,-50.9,12.7,0,20.0,,79601.3,12.56,-1.0,-0.02,0.03,1.5,4.8,-1.2,36.31,,,,,,,,,,
16.52.17.709,-77.9,19.5,0,20.0,,76417.4,13.09,-1.0,-0.02,0.03,1.9,5.3,-1.7,36.31,,,,,,,,,,
16.52.17.717,-96.8,24.2,0,20.0,,75847.7,13.18,-1.0,-0.03,0.03,1.4,5.3,-1.8,36.31,,,,,,,,,,
16.52.17.730,-53.7,13.4,0,20.0,,73582.8,13.59,-1.0,-0.03,0.02,1.5,4.4,-1.4,36.31,,,,,,,,,,
16.52.17.738,-111.9,28.0,0,20.0,,78740.0,12.7,-1.0,-0.03,0.03,1.1,5.1,-1.5,36.31,,,,,,,,,,
16.52.17.750,-110.9,27.7,0,20.0,,78483.7,12.74,-1.0,-0.03,0.03,1.4,4.9,-1.3,36.31,,,,,,,,,,
16.52.17.758,-124.7,31.2,0,20.0,,79067.8,12.65,-1.0,-0.03,0.04,2.0,4.8,-1.0,36.31,,,,,,,,,,
16.52.17.771,-74.4,18.6,0,20.0,,78586.8,12.72,-1.0,-0.02,0.03,1.7,5.4,-0.9,36.31,,,,,,,,,,
16.52.17.779,-73.4,18.4,0,20.0,,77948.1,12.83,-1.0,-0.02,0.03,1.3,5.4,-1.4,36.31,,,,,,,,,,
16.52.17.791,-82.1,20.5,0,20.0,,73561.7,13.59,-1.0,-0.02,0.03,0.6,4.9,-1.6,36.31,,,,,,,,,,
16.52.17.799,-129.9,32.5,0,20.0,,72860.9,13.72,-1.0,-0.02,0.04,1.1,4.9,-1.8,36.31,,,,,,,,,,
16.52.17.812,-130.6,32.6,0,20.0,,76417.2,13.09,-0.99,-0.02,0.03,1.2,5.3,-1.4,36.31,,,,,,,,,,
16.52.17.820,-155.3,38.8,0,20.0,,76499.9,13.07,-1.0,-0.02,0.04,1.4,5.1,-1.2,36.31,,,,,,,,,,
16.52.17.832,-199.5,49.9,0,20.0,,71114.3,14.06,-0.99,-0.01,0.03,0.9,5.3,-1.4,36.31,,,,,,,,,,
16.52.17.840,-152.0,38.0,0,20.0,,77748.3,12.86,-0.99,-0.02,0.03,0.8,5.3,-1.7,36.31,,,,,,,,,,
16.52.17.853,-163.3,40.8,0,20.0,,79916.9,12.51,-1.0,-0.02,0.03,1.0,6.1,-1.5,36.31,,,,,,,,,,
16.52.17.861,37.8,9.4,1,21.0,95.2,78756.2,12.7,-0.99,-0.02,0.03,0.7,6.6,-1.2,36.31,,,,,,,,,,
16.52.17.897,270.0,67.5,0,21.0,,77429.7,12.91,-0.99,-0.02,0.03,0.3,7.0,-1.3,36.38,,,,,,,,,,
16.52.17.910,282.3,70.6,0,21.0,,74481.0,13.43,-1.0,-0.02,0.03,-0.2,6.9,-1.7,36.38,,,,,,,,,,
16.52.17.918,317.3,79.3,0,21.0,,73744.7,13.56,-1.0,-0.02,0.04,-0.9,6.5,-1.5,36.38,,,,,,,,,,
16.52.17.930,388.5,97.1,0,21.0,,75936.5,13.17,-1.0,-0.02,0.03,-1.3,6.5,-2.3,36.38,,,,,,,,,,
16.52.17.939,407.2,101.8,0,21.0,,79287.1,12.61,-1.0,-0.02,0.03,-1.1,6.1,-2.3,36.38,,,,,,,,,,
16.52.17.951,401.1,100.3,0,21.0,,78510.8,12.74,-1.0,-0.02,0.03,-0.9,6.0,-1.8,36.38,,,,,,,,,,
16.52.17.959,396.6,99.2,0,21.0,,71964.7,13.9,-1.0,-0.02,0.03,-0.7,5.8,-1.9,36.38,,,,,,,,,,
16.52.17.971,434.3,108.6,0,21.0,,74315.2,13.46,-1.0,-0.02,0.04,-0.9,6.0,-1.4,36.38,,,,,,,,,,
16.52.17.979,414.7,103.7,0,21.0,,70394.0,14.21,-1.0,-0.02,0.04,-0.2,5.7,-1.3,36.38,,,,,,,,,,
16.52.17.992,317.7,79.4,0,21.0,,73355.3,13.63,-1.0,-0.02,0.04,-0.5,5.5,-1.2,36.38,,,,,,,,,,
16.52.18.000,340.2,85.0,0,21.0,,75306.6,13.28,-1.0,-0.03,0.03,-0.7,5.6,-2.0,36.38,,,,,,,,,,
16.52.18.012,262.2,65.6,0,21.0,,73828.6,13.54,-1.01,-0.02,0.03,-0.7,5.3,-1.9,36.38,,,,,,,,,,
16.52.18.020,272.7,68.2,0,21.0,,77094.9,12.97,-1.0,-0.02,0.03,-0.5,5.0,-1.7,36.38,,,,,,,,,,
16.52.18.033,220.8,55.2,0,21.0,,77068.0,12.98,-0.99,-0.02,0.03,-0.6,5.2,-2.2,36.38,,,,,,,,,,
16.52.18.041,177.8,44.4,0,21.0,,76851.3,13.01,-0.99,-0.02,0.03,-0.7,4.5,-2.3,36.38,,,,,,,,,,
16.52.18.053,118.0,29.5,0,21.0,,79601.9,12.56,-0.99,-0.02,0.03,-0.2,4.7,-2.4,36.38,,,,,,,,,,
16.52.18.061,56.6,14.2,0,21.0,,77021.6,12.98,-0.99,-0.02,0.03,0.0,4.6,-1.7,36.38,,,,,,,,,,
16.52.18.074,-8.2,2.0,0,21.0,,75868.1,13.18,-0.99,-0.02,0.02,0.0,5.2,-2.0,36.38,,,,,,,,,,
16.52.18.086,3.3,0.8,0,21.0,,75803.2,13.19,-0.99,-0.02,0.03,-0.1,5.7,-2.3,36.38,,,,,,,,,,
16.52.18.094,70.9,17.7,0,21.0,,77526.1,12.9,-1.0,-0.03,0.03,0.0,6.1,-1.3,36.38,,,,,,,,,,
16.52.18.107,74.3,18.6,0,21.0,,77122.9,12.97,-1.0,-0.02,0.03,0.3,6.3,-1.3,36.38,,,,,,,,,,
16.52.18.115,96.5,24.1,0,21.0,,78628.2,12.72,-1.01,-0.03,0.02,0.2,5.2,-1.4,36.38,,,,,,,,,,
16.52.18.127,72.3,18.1,0,21.0,,71681.6,13.95,-1.0,-0.03,0.03,0.6,5.1,-1.8,36.38,,,,,,,,,,
16.52.18.135,22.4,5.6,0,21.0,,79335.2,12.6,-1.0,-0.03,0.04,0.9,5.3,-0.8,36.38,,,,,,,,,,
16.52.18.148,61.4,15.4,0,21.0,,72971.9,13.7,-1.0,-0.02,0.04,1.1,5.9,-0.9,36.38,,,,,,,,,,
16.52.18.160,59.5,14.9,0,21.0,,77068.3,12.98,-1.0,-0.02,0.03,0.4,5.6,-1.5,36.38,,,,,,,,,,
16.52.18.168,65.6,16.4,0,21.0,,77914.6,12.83,-1.0,-0.03,0.04,-0.1,5.3,-1.9,36.38,,,,,,,,,,
16.52.18.180,29.6,7.4,0,21.0,,77281.9,12.94,-1.0,-0.02,0.03,0.6,5.5,-1.1,36.38,,,,,,,,,,
16.52.18.189,27.5,6.9,0,21.0,,76587.3,13.06,-0.99,-0.02,0.04,0.8,5.9,-0.2,36.38,,,,,,,,,,
16.52.18.201,-3.2,0.8,0,21.0,,76906.1,13.0,-1.0,-0.02,0.04,0.5,6.2,-0.8,36.38,,,,,,,,,,
16.52.18.213,-0.5,0.1,0,21.0,,74331.3,13.45,-0.99,-0.02,0.03,0.2,5.9,-1.5,36.38,,,,,,,,,,
16.52.18.221,-19.8,5.0,0,21.0,,76550.4,13.06,-0.99,-0.02,0.02,0.0,6.5,-1.4,36.38,,,,,,,,,,
16.52.18.234,-32.5,8.1,0,21.0,,77425.1,12.92,-0.99,-0.03,0.03,0.0,6.6,-0.8,36.38,,,,,,,,,,
16.52.18.242,-44.8,11.2,0,21.0,,77737.4,12.86,-0.99,-0.03,0.02,0.1,6.5,-1.0,36.38,,,,,,,,,,
16.52.18.254,-55.6,13.9,0,21.0,,76637.0,13.05,-1.0,-0.03,0.02,-0.1,6.6,-1.3,36.38,,,,,,,,,,
16.52.18.262,-21.6,5.4,0,21.0,,78348.6,12.76,-1.0,-0.03,0.02,0.0,6.4,-1.4,36.38,,,,,,,,,,
16.52.18.275,-60.5,15.1,0,21.0,,78583.2,12.73,-1.0,-0.03,0.03,-0.2,5.7,-1.1,36.38,,,,,,,,,,
16.52.18.287,-64.6,16.2,0,21.0,,77542.8,12.9,-1.0,-0.02,0.03,0.0,5.3,-1.2,36.38,,,,,,,,,,
16.52.18.295,-77.9,19.5,0,21.0,,77046.2,12.98,-1.0,-0.02,0.04,0.0,5.7,-1.0,36.38,,,,,,,,,,
16.52.18.307,-81.9,20.5,0,21.0,,73203.2,13.66,-1.0,-0.02,0.03,0.0,5.8,-1.3,36.38,,,,,,,,,,
16.52.18.316,-79.8,20.0,0,21.0,,73469.8,13.61,-1.0,-0.02,0.03,0.8,5.9,-0.9,36.38,,,,,,,,,,
16.52.18.328,-65.4,16.4,0,21.0,,79334.5,12.6,-1.0,-0.02,0.03,0.9,5.9,-0.3,36.38,,,,,,,,,,
16.52.18.340,-72.1,18.0,0,21.0,,76346.3,13.1,-1.0,-0.03,0.04,1.2,5.9,-0.3,36.38,,,,,,,,,,
16.52.18.348,-81.2,20.3,0,21.0,,78214.8,12.79,-1.01,-0.03,0.04,1.2,5.8,-0.2,36.38,,,,,,,,,,
16.52.18.360,-63.0,15.8,0,21.0,,79872.1,12.52,-1.01,-0.02,0.04,1.4,5.5,-0.3,36.38,,,,,,,,,,
16.52.18.369,-138.1,34.5,0,21.0,,75852.1,13.18,-1.0,-0.01,0.04,1.1,5.3,-0.7,36.38,,,,,,,,,,
16.52.18.381,-120.6,30.2,0,21.0,,79023.5,12.65,-1.0,-0.02,0.04,1.0,5.0,-1.2,36.38,,,,,,,,,,
16.52.18.389,-92.7,23.2,0,21.0,,75485.8,13.25,-1.0,-0.02,0.03,1.4,4.8,-1.1,36.38,,,,,,,,,,
16.52.18.401,-110.9,27.7,0,21.0,,73177.1,13.67,-0.99,-0.02,0.02,1.6,5.2,-0.7,36.38,,,,,,,,,,
16.52.18.414,-111.6,27.9,0,21.0,,77461.2,12.91,-0.99,-0.03,0.03,1.7,4.7,-1.3,36.38,,,,,,,,,,
16.52.18.426,-171.6,42.9,0,21.0,,79010.4,12.66,-0.99,-0.03,0.03,1.9,5.4,-0.9,36.38,,,,,,,,,,
16.52.18.434,-158.0,39.5,0,21.0,,79357.4,12.6,-0.99,-0.03,0.02,2.1,5.6,-0.4,36.38,,,,,,,,,,
16.52.18.447,-118.2,29.6,0,21.0,,76525.9,13.07,-0.99,-0.03,0.02,1.7,6.5,-0.6,36.38,,,,,,,,,,
16.52.18.459,-151.7,37.9,0,21.0,,75213.2,13.3,-0.99,-0.03,0.03,1.3,6.5,-0.4,36.38,,,,,,,,,,
16.52.18.467,-163.5,40.9,0,21.0,,74021.8,13.51,-0.99,-0.03,0.02,1.4,7.1,-0.4,36.38,,,,,,,,,,
16.52.18.479,17.1,4.3,1,22.0,97.1,74108.5,13.49,-1.0,-0.03,0.03,1.4,6.7,-0.2,36.38,,,,,,,,,,
16.52.18.488,58.4,14.6,0,22.0,,76848.6,13.01,-1.0,-0.02,0.04,0.9,6.7,-0.3,36.38,,,,,,,,,,
16.52.18.500,177.4,44.4,0,22.0,,82778.6,12.08,-1.0,-0.02,0.05,1.3,6.5,-0.4,36.38,,,,,,,,,,
16.52.18.508,206.9,51.7,0,22.0,,77297.9,12.94,-1.0,-0.02,0.04,1.2,6.2,-0.4,36.38,,,,,,,,,,
16.52.18.520,258.8,64.7,0,22.0,,76959.0,12.99,-1.01,-0.02,0.04,1.0,5.9,-0.5,36.38,,,,,,,,,,
16.52.18.533,300.6,75.2,0,22.0,,77438.6,12.91,-1.0,-0.02,0.04,1.0,6.0,-0.1,36.38,,,,,,,,,,
16.52.18.541,321.8,80.4,0,22.0,,75715.7,13.21,-1.01,-0.02,0.04,1.4,5.8,-0.2,36.38,,,,,,,,,,
16.52.18.553,333.2,83.3,0,22.0,,77992.7,12.82,-1.01,-0.02,0.02,1.2,6.0,-0.2,36.38,,,,,,,,,,
16.52.18.561,389.9,97.5,0,22.0,,75538.5,13.24,-1.01,-0.02,0.03,1.5,5.8,-0.5,36.38,,,,,,,,,,
16.52.18.574,441.5,110.4,0,22.0,,79600.8,12.56,-1.0,-0.02,0.03,1.9,5.4,-0.3,36.38,,,,,,,,,,
16.52.18.582,360.6,90.2,0,22.0,,74886.3,13.35,-1.0,-0.02,0.03,1.8,5.4,-0.2,36.38,,,,,,,,,,
16.52.18.594,383.6,95.9,0,22.0,,75141.0,13.31,-1.0,-0.02,0.03,1.6,5.9,-0.1,36.38,,,,,,,,,,
16.52.18.602,353.5,88.4,0,22.0,,76804.7,13.02,-1.0,-0.02,0.03,0.7,5.5,-1.1,36.38,,,,,,,,,,
16.52.18.614,345.9,86.5,0,22.0,,75867.0,13.18,-1.0,-0.02,0.03,0.6,5.7,-1.1,36.38,,,,,,,,,,
16.52.18.627,323.3,80.8,0,22.0,,78180.3,12.79,-1.0,-0.02,0.03,1.1,5.5,-0.5,36.38,,,,,,,,,,
16.52.18.635,274.9,68.7,0,22.0,,77751.3,12.86,-1.0,-0.02,0.02,1.2,5.1,-0.5,36.38,,,,,,,,,,
16.52.18.647,216.0,54.0,0,22.0,,76418.5,13.09,-1.0,-0.01,0.03,1.6,4.9,-0.5,36.38,,,,,,,,,,
16.52.18.656,200.0,50.0,0,22.0,,76481.8,13.08,-0.99,-0.01,0.04,1.4,5.4,-0.9,36.38,,,,,,,,,,
16.52.18.668,117.4,29.4,0,22.0,,75944.1,13.17,-0.99,-0.01,0.03,0.7,5.8,-1.2,36.38,,,,,,,,,,
16.52.18.705,13.2,3.3,0,22.0,,76331.1,13.1,-1.0,-0.01,0.02,0.6,6.0,-1.4,36.38,,,,,,,,,,
16.52.18.713,24.5,6.1,0,22.0,,71997.5,13.89,-1.0,-0.02,0.05,1.8,5.6,-1.1,36.38,,,,,,,,,,
16.52.18.729,94.5,23.6,0,22.0,,72146.0,13.86,-1.0,-0.02,0.04,1.9,6.2,-0.2,36.38,,,,,,,,,,
16.52.18.737,95.0,23.8,0,22.0,,71582.7,13.97,-0.99,-0.02,0.03,1.6,6.8,-0.2,36.38,,,,,,,,,,
16.52.18.750,77.0,19.2,0,22.0,,76993.0,12.99,-0.99,-0.02,0.03,0.8,6.0,-0.8,36.38,,,,,,,,,,
16.52.18.758,90.6,22.6,0,22.0,,78041.1,12.81,-1.0,-0.02,0.03,1.3,6.4,-0.6,36.38,,,,,,,,,,
16.52.18.770,65.4,16.4,0,22.0,,74121.9,13.49,-1.0,-0.02,0.03,0.8,6.5,-0.6,36.38,,,,,,,,,,
16.52.18.779,71.9,18.0,0,22.0,,76919.5,13.0,-1.0,-0.02,0.03,0.4,6.1,-1.3,36.38,,,,,,,,,,
16.52.18.791,42.7,10.7,0,22.0,,79564.7,12.57,-1.0,-0.02,0.03,0.4,5.1,-1.7,36.38,,,,,,,,,,
16.52.18.799,1.3,0.3,0,22.0,,77690.8,12.87,-1.0,-0.02,0.03,0.5,5.9,-1.6,36.38,,,,,,,,,,
16.52.18.811,6.2,1.6,0,22.0,,74700.6,13.39,-1.0,-0.02,0.03,0.5,5.4,-1.3,36.38,,,,,,,,,,
16.52.18.824,-2.7,0.7,0,22.0,,72402.4,13.81,-1.0,-0.02,0.03,0.8,5.5,-1.2,36.38,,,,,,,,,,
16.52.18.832,-0.4,0.1,0,22.0,,76398.7,13.09,-1.0,-0.02,0.03,1.2,5.7,-0.6,36.38,,,,,,,,,,
16.52.18.844,-38.2,9.6,0,22.0,,76931.5,13.0,-1.0,-0.02,0.03,1.2,5.3,-0.7,36.38,,,,,,,,,,
16.52.18.852,-32.2,8.0,0,22.0,,75839.3,13.19,-1.0,-0.01,0.03,1.5,5.1,-0.4,36.38,,,,,,,,,,
16.52.18.865,-61.7,15.4,0,22.0,,73999.1,13.51,-1.0,-0.01,0.03,1.7,5.7,-0.4,36.38,,,,,,,,,,
16.52.18.873,-31.1,7.8,0,22.0,,78661.2,12.71,-0.99,-0.02,0.03,1.3,5.9,-0.7,36.38,,,,,,,,,,
16.52.18.885,-31.7,7.9,0,22.0,,78798.9,12.69,-1.0,-0.02,0.03,0.9,5.7,-0.9,36.38,,,,,,,,,,
16.52.18.893,-41.5,10.4,0,22.0,,77379.3,12.92,-1.0,-0.02,0.03,0.6,5.9,-0.7,36.38,,,,,,,,,,
16.52.18.905,-58.1,14.5,0,22.0,,72519.3,13.79,-1.0,-0.02,0.02,0.6,5.7,-1.1,36.38,,,,,,,,,,
16.52.18.918,-42.2,10.6,0,22.0,,74433.7,13.43,-1.0,-0.02,0.03,0.2,5.5,-1.5,36.38,,,,,,,,,,
16.52.18.926,-45.3,11.3,0,22.0,,78080.0,12.81,-0.99,-0.02,0.03,0.4,5.4,-1.6,36.38,,,,,,,,,,
16.52.18.938,-97.2,24.3,0,22.0,,76254.7,13.11,-0.99,-0.02,0.03,0.6,5.8,-1.1,36.38,,,,,,,,,,
16.52.18.946,-82.3,20.6,0,22.0,,73611.0,13.58,-0.99,-0.02,0.03,0.9,6.7,-0.9,36.38,,,,,,,,,,
16.52.18.959,-101.1,25.3,0,22.0,,75862.4,13.18,-1.0,-0.02,0.03,0.8,6.6,-1.0,36.38,,,,,,,,,,
16.52.18.967,-82.3,20.6,0,22.0,,78129.3,12.8,-1.0,-0.02,0.03,0.5,6.3,-1.0,36.38,,,,,,,,,,
16.52.18.979,-98.5,24.6,0,22.0,,74447.3,13.43,-1.0,-0.02,0.03,0.3,6.5,-0.8,36.38,,,,,,,,,,
16.52.18.987,-87.1,21.8,0,22.0,,80137.7,12.48,-1.0,-0.01,0.03,-0.1,6.7,-0.7,36.38,,,,,,,,,,
16.52.19.000,-114.7,28.7,0,22.0,,75589.4,13.23,-1.0,-0.01,0.04,-0.7,6.9,-1.1,36.38,,,,,,,,,,
16.52.19.012,-121.3,30.3,0,22.0,,75587.5,13.23,-1.0,-0.01,0.04,-1.2,6.1,-2.1,36.38,,,,,,,,,,
16.52.19.020,-124.7,31.2,0,22.0,,76974.4,12.99,-1.0,-0.02,0.03,-0.8,6.2,-2.0,36.38,,,,,,,,,,
16.52.19.032,-150.0,37.5,0,22.0,,77018.7,12.98,-1.0,-0.02,0.03,-0.6,6.0,-1.6,36.38,,,,,,,,,,
16.52.19.041,-110.6,27.6,0,22.0,,75070.5,13.32,-1.0,-0.02,0.03,0.0,6.1,-1.4,36.38,,,,,,,,,,
16.52.19.053,-139.6,34.9,0,22.0,,72993.7,13.7,-1.0,-0.02,0.03,0.0,5.8,-1.0,36.38,,,,,,,,,,
16.52.19.061,-120.4,30.1,0,22.0,,76250.0,13.11,-1.0,-0.01,0.04,0.1,6.3,-1.1,36.38,,,,,,,,,,
16.52.19.074,-139.5,34.9,0,22.0,,77526.2,12.9,-1.0,-0.01,0.04,-0.2,5.8,-1.2,36.38,,,,,,,,,,
16.52.19.082,-171.2,42.8,0,22.0,,76207.6,13.12,-1.0,-0.02,0.04,-0.4,5.6,-1.2,36.38,,,,,,,,,,
16.52.19.094,66.2,16.6,1,23.0,97.5,73136.1,13.67,-1.0,-0.02,0.03,0.2,5.9,-0.8,36.38,,,,,,,,,,
16.52.19.106,131.6,32.9,0,23.0,,74556.5,13.41,-0.99,-0.02,0.03,0.7,6.6,-0.3,36.38,,,,,,,,,,
16.52.19.115,160.3,40.1,0,23.0,,78755.8,12.7,-1.0,-0.02,0.03,0.2,6.6,-0.2,36.38,,,,,,,,,,
16.52.19.127,199.6,49.9,0,23.0,,75432.4,13.26,-1.0,-0.02,0.03,-0.3,6.1,-0.8,36.38,,,,,,,,,,
16.52.19.135,269.1,67.3,0,23.0,,74040.6,13.51,-1.0,-0.02,0.03,-0.8,6.6,-1.0,36.38,,,,,,,,,,
16.52.19.147,350.7,87.7,0,23.0,,75583.7,13.23,-1.0,-0.02,0.03,-0.4,6.4,-0.4,36.38,,,,,,,,,,
16.52.19.155,367.5,91.9,0,23.0,,73789.6,13.55,-1.01,-0.01,0.03,-0.4,6.3,-0.4,36.38,,,,,,,,,,
16.52.19.168,323.6,80.9,0,23.0,,75963.1,13.16,-1.01,-0.01,0.03,-1.0,5.5,-1.0,36.38,,,,,,,,,,
16.52.19.176,389.6,97.4,0,23.0,,76136.7,13.13,-1.0,-0.01,0.03,-1.4,5.2,-1.8,36.38,,,,,,,,,,
16.52.19.188,419.3,104.8,0,23.0,,78354.2,12.76,-1.0,-0.01,0.03,-0.9,4.9,-1.0,36.38,,,,,,,,,,
16.52.19.197,413.7,103.4,0,23.0,,75571.2,13.23,-0.99,-0.01,0.03,-0.3,5.3,-0.6,36.38,,,,,,,,,,
16.52.19.208,427.3,106.8,0,23.0,,75017.7,13.33,-0.99,-0.01,0.03,-0.1,5.3,-0.8,36.38,,,,,,,,,,
16.52.19.221,393.4,98.4,0,23.0,,71221.5,14.04,-1.0,-0.01,0.02,0.0,5.9,-0.5,36.38,,,,,,,,,,
16.52.19.229,352.0,88.0,0,23.0,,80385.3,12.44,-1.0,-0.02,0.02,0.1,6.5,-0.3,36.38,,,,,,,,,,
16.52.19.242,316.2,79.0,0,23.0,,77869.5,12.84,-0.99,-0.02,0.03,-0.2,6.2,0.0,36.38,,,,,,,,,,
16.52.19.250,323.0,80.8,0,23.0,,78417.4,12.75,-0.99,-0.02,0.03,0.2,6.6,-0.1,36.38,,,,,,,,,,
16.52.19.262,203.6,50.9,0,23.0,,76828.6,13.02,-1.0,-0.02,0.03,0.1,6.8,0.4,36.38,,,,,,,,,,
16.52.19.270,160.5,40.1,0,23.0,,75850.6,13.18,-0.99,-0.02,0.03,0.2,6.9,0.3,36.38,,,,,,,,,,
16.52.19.282,,,0,23.0,,,,,,,,,,,,,,,,,,,,
16.52.19.299,,,0,23.0,,,,,,,,,,,,36.37,,,,,,,,
16.52.19.307,-10.3,2.6,0,23.0,,70006.2,14.28,-1.0,-0.02,0.02,-0.9,6.0,-1.4,36.38,,,,,,,,,,
16.52.19.319,36.6,9.2,0,23.0,,76091.1,13.14,-1.0,-0.01,0.03,-0.8,5.9,-0.9,36.38,,,,,,,,,,
16.52.19.331,74.8,18.7,0,23.0,,77044.0,12.98,-1.0,-0.01,0.02,-0.4,5.6,-1.0,36.38,,,,,,,,,,
16.52.19.340,72.1,18.0,0,23.0,,75102.4,13.32,-1.0,-0.01,0.03,0.0,6.0,-0.5,36.38,,,,,,,,,,
16.52.19.352,100.7,25.2,0,23.0,,77053.0,12.98,-1.0,-0.01,0.04,1.0,6.2,0.1,36.38,,,,,,,,,,
16.52.19.360,59.2,14.8,0,23.0,,74644.9,13.4,-1.0,-0.01,0.03,1.4,6.5,0.4,36.38,,,,,,,,,,
16.52.19.372,50.6,12.6,0,23.0,,77796.4,12.85,-1.0,-0.01,0.04,1.7,6.5,0.1,36.38,,,,,,,,,,
16.52.19.381,86.3,21.6,0,23.0,,75898.8,13.18,-1.0,-0.01,0.03,1.3,6.6,0.2,36.38,,,,,,,,,,
16.52.19.393,78.3,19.6,0,23.0,,77736.1,12.86,-1.0,-0.02,0.03,1.4,6.4,0.1,36.38,,,,,,,,,,
16.52.19.401,72.1,18.0,0,23.0,,76803.6,13.02,-1.0,-0.02,0.03,1.2,6.3,-0.1,36.38,,,,,,,,,,
16.52.19.413,-4.6,1.2,0,23.0,,71335.7,14.02,-1.0,-0.01,0.02,1.2,6.8,0.2,36.38,,,,,,,,,,
16.52.19.422,-0.4,0.1,0,23.0,,74480.5,13.43,-0.99,-0.01,0.03,1.0,6.5,-0.5,36.38,,,,,,,,,,
16.52.19.434,-4.5,1.1,0,23.0,,76252.9,13.11,-1.0,-0.02,0.02,0.4,6.6,-0.8,36.38,,,,,,,,,,
16.52.19.442,22.4,5.6,0,23.0,,74542.5,13.42,-0.99,,0.02,0.0,6.1,-1.2,,,,,,,,,,,
16.52.19.463,,,0,23.0,,,,,,,,,,,,,,,,,,,,
16.52.19.463,-6.3,1.6,0,23.0,,75147.2,13.31,-1.0,-0.02,0.03,0.2,6.3,-1.1,36.38,,,,,,,,,,
