timestamp,ppg,threshold,beat,beat_count,inst_bpm,gsr_resistance_ohm,gsr_conductance_us,accel_x,accel_y,accel_z,gyro_x,gyro_y,gyro_z,temp_c,window_bpm,window_temp_c,status_message,SpO2,bmi,age,height,weight,env_temp_c,env_humidity_pct
14.18.04.523,,,0,,,96369.0,10.38,-0.09,0.39,0.92,-0.1,5.2,-1.2,32.81,92.7,,,99.0,18.6,22.0,160.02,47.9,29.23,32.0
14.18.04.531,35.3,8.8,0,,,96257.2,10.39,-0.09,0.38,0.91,0.3,5.0,-1.3,32.81,,,,,,,,,,
14.18.04.539,76.1,19.0,0,,,94624.2,10.57,-0.09,0.38,0.92,1.3,5.6,-1.0,32.81,,,,,,,,,,
14.18.04.551,113.7,28.4,0,,,96388.4,10.37,-0.09,0.4,0.91,2.2,6.6,-1.0,32.81,,,,,,,,,,
14.18.04.559,158.0,39.5,0,,,94997.9,10.53,-0.09,0.39,0.91,0.7,6.2,-1.5,32.81,,,,,,,,,,
14.18.04.573,192.9,48.2,0,,,95310.3,10.49,-0.1,0.39,0.92,0.1,5.0,-1.2,32.81,,,,,,,,,,
14.18.04.580,213.1,53.3,0,,,94707.8,10.56,-0.09,0.39,0.91,0.1,5.8,-1.3,32.81,,,,,,,,,,
14.18.04.592,251.5,62.9,0,,,96309.6,10.38,-0.09,0.39,0.91,-0.1,5.6,-1.1,32.81,,,,,,,,,,
14.18.04.600,269.4,67.4,0,,,95030.0,10.52,-0.09,0.39,0.92,0.1,5.6,-1.2,32.81,,,,,,,,,,
14.18.04.613,307.2,76.8,0,,,94957.8,10.53,-0.09,0.38,0.91,0.6,6.2,-1.3,32.81,,,,,,,,,,
14.18.04.621,297.1,74.3,0,,,96022.1,10.41,-0.09,0.39,0.92,1.4,6.6,-1.0,32.81,,,,,,,,,,
14.18.04.633,325.2,81.3,0,,,96356.3,10.38,-0.09,0.4,0.91,1.4,7.0,-1.0,32.81,,,,,,,,,,
14.18.04.642,323.5,80.9,0,,,95335.1,10.49,-0.09,0.4,0.92,0.7,5.9,-1.3,32.81,,,,,,,,,,
14.18.04.653,332.2,83.0,0,,,94386.7,10.59,-0.09,0.39,0.92,-0.2,5.1,-1.1,32.81,,,,,,,,,,
14.18.04.666,315.1,78.8,0,,,96197.5,10.4,-0.09,0.38,0.92,0.4,5.4,-1.1,32.81,,,,,,,,,,
14.18.04.674,295.1,73.8,0,,,94706.5,10.56,-0.09,0.4,0.91,1.1,5.0,-1.0,32.81,,,,,,,,,,
14.18.04.686,264.1,66.0,0,,,95058.6,10.52,-0.1,0.39,0.91,0.7,6.4,-1.3,32.81,,,,,,,,,,
14.18.04.699,241.6,60.4,0,,,95177.2,10.51,-0.09,0.39,0.92,0.2,5.5,-1.4,32.81,,,,,,,,,,
14.18.04.707,200.9,50.2,0,,,95019.6,10.52,-0.1,0.38,0.91,0.4,4.8,-1.0,32.81,,,,,,,,,,
14.18.04.720,145.0,36.2,0,,,95132.7,10.51,-0.1,0.39,0.92,1.3,6.6,-1.2,32.81,,,,,,,,,,
14.18.04.731,111.5,27.9,0,,,95663.0,10.45,-0.09,0.4,0.91,2.1,7.6,-1.5,32.81,,,,,,,,,,
14.18.04.744,53.2,13.3,0,,,94914.2,10.54,-0.1,0.4,0.91,-0.7,5.3,-1.4,32.81,,,,,,,,,,
14.18.04.753,8.0,2.0,0,,,94882.1,10.54,-0.09,0.39,0.91,-1.2,5.5,-1.7,32.81,,,,,,,,,,
14.18.04.764,17.3,4.3,0,,,95489.1,10.47,-0.09,0.38,0.92,-0.3,6.0,-1.6,32.81,,,,,,,,,,
14.18.04.776,25.4,6.4,0,,,96018.8,10.41,-0.09,0.39,0.92,0.6,5.8,-1.4,32.81,,,,,,,,,,
14.18.04.785,29.8,7.4,0,,,95138.0,10.51,-0.09,0.39,0.91,0.4,6.5,-1.5,32.81,,,,,,,,,,
14.18.04.797,45.2,11.3,0,,,95112.0,10.51,-0.1,0.39,0.91,0.3,6.2,-1.2,32.81,,,,,,,,,,
14.18.04.810,44.6,11.2,0,,,95983.6,10.42,-0.1,0.4,0.92,0.5,5.8,-1.4,32.81,,,,,,,,,,
14.18.04.822,54.2,13.6,0,,,95312.1,10.49,-0.09,0.39,0.92,0.0,6.4,-1.3,32.81,,,,,,,,,,
14.18.04.830,53.8,13.4,0,,,94620.9,10.57,-0.1,0.39,0.91,0.2,5.6,-1.5,32.81,,,,,,,,,,
14.18.04.842,39.2,9.8,0,,,93943.6,10.64,-0.09,0.39,0.92,0.3,6.5,-1.3,32.81,,,,,,,,,,
14.18.04.883,20.7,5.2,0,,,94622.6,10.57,-0.09,0.39,0.91,0.6,5.5,-1.0,32.88,,,,,,,,,,
14.18.04.896,5.6,1.4,0,,,94675.2,10.56,-0.09,0.39,0.92,0.2,5.9,-1.3,32.88,,,,,,,,,,
14.18.04.903,-16.3,4.1,0,,,94699.2,10.56,-0.09,0.39,0.91,0.2,6.7,-1.4,32.88,,,,,,,,,,
14.18.04.917,-11.3,2.8,0,,,95149.2,10.51,-0.1,0.39,0.91,-0.6,5.2,-1.5,32.88,,,,,,,,,,
14.18.04.928,-19.7,4.9,0,,,93442.2,10.7,-0.09,0.38,0.92,-0.5,5.8,-1.2,32.88,,,,,,,,,,
14.18.04.936,-15.5,3.9,0,,,95495.1,10.47,-0.09,0.38,0.92,0.4,5.2,-1.4,32.88,,,,,,,,,,
14.18.04.948,-34.2,8.6,0,,,94910.2,10.54,-0.09,0.39,0.91,1.1,5.4,-1.1,32.88,,,,,,,,,,
14.18.04.962,-35.4,8.8,0,,,95760.7,10.44,-0.09,0.39,0.91,1.9,6.6,-0.8,32.88,,,,,,,,,,
14.18.04.973,-40.0,10.0,0,,,96077.5,10.41,-0.09,0.39,0.91,2.0,5.8,-0.9,32.88,,,,,,,,,,
14.18.04.981,-37.1,9.3,0,,,94467.5,10.59,-0.09,0.4,0.91,1.0,6.4,-1.2,32.88,,,,,,,,,,
14.18.04.993,-48.2,12.0,0,,,94736.8,10.56,-0.1,0.4,0.91,0.1,5.7,-1.2,32.88,,,,,,,,,,
14.18.05.007,-45.2,11.3,0,,,95350.6,10.49,-0.09,0.39,0.91,-0.6,6.1,-1.5,32.88,,,,,,,,,,
14.18.05.014,-40.2,10.0,0,,,95159.1,10.51,-0.09,0.39,0.92,-0.5,5.6,-1.5,32.88,,,,,,,,,,
14.18.05.026,-54.5,13.6,0,,,94352.6,10.6,-0.09,0.39,0.92,0.1,5.8,-1.1,32.88,,,,,,,,,,
14.18.05.040,-55.8,14.0,0,,,94974.1,10.53,-0.09,0.39,0.91,0.3,5.5,-1.1,32.88,,,,,,,,,,
14.18.05.052,-66.2,16.6,0,,,95420.7,10.48,-0.09,0.39,0.91,1.5,5.4,-0.8,32.88,,,,,,,,,,
14.18.05.060,-78.8,19.7,0,,,94274.4,10.61,-0.09,0.39,0.91,2.1,7.2,-0.8,32.88,,,,,,,,,,
14.18.05.071,-83.3,20.8,0,,,94157.8,10.62,-0.09,0.4,0.91,1.4,6.7,-1.1,32.88,,,,,,,,,,
14.18.05.084,-89.4,22.4,0,,,94118.0,10.62,-0.09,0.39,0.91,0.1,5.9,-1.1,32.88,,,,,,,,,,
14.18.05.092,-87.5,21.9,0,,,93704.2,10.67,-0.1,0.39,0.91,0.1,5.6,-1.2,32.88,,,,,,,,,,
14.18.05.104,-89.7,22.4,0,,,94720.0,10.56,-0.09,0.39,0.91,-0.1,6.2,-1.1,32.88,,,,,,,,,,
14.18.05.117,-93.9,23.5,0,,,95367.8,10.49,-0.09,0.38,0.91,0.9,5.5,-1.0,32.88,,,,,,,,,,
14.18.05.130,-93.2,23.3,0,,,95116.8,10.51,-0.09,0.39,0.91,1.1,5.4,-0.7,32.88,,,,,,,,,,
14.18.05.138,-94.2,23.6,0,,,93470.3,10.7,-0.1,0.39,0.91,1.3,7.0,-1.5,32.88,,,,,,,,,,
14.18.05.149,-117.8,29.4,0,,,93653.0,10.68,-0.09,0.4,0.92,1.3,6.2,-1.4,32.88,,,,,,,,,,
14.18.05.161,-124.6,31.2,0,,,94121.7,10.62,-0.1,0.4,0.91,-0.2,5.8,-1.4,32.88,,,,,,,,,,
14.18.05.175,-134.2,33.6,0,,,94846.9,10.54,-0.09,0.39,0.91,-0.6,6.4,-1.9,32.88,,,,,,,,,,
14.18.05.182,-127.6,31.9,0,,,94343.5,10.6,-0.1,0.39,0.91,-0.9,5.4,-1.6,32.88,,,,,,,,,,
14.18.05.195,27.0,6.8,1,1.0,88.1,93616.1,10.68,-0.1,0.38,0.91,-0.5,4.9,-1.6,32.88,,,,,,,,,,
14.18.05.206,69.3,17.3,0,1.0,,94214.0,10.61,-0.09,0.37,0.92,0.2,6.1,-1.5,32.88,,,,,,,,,,
14.18.05.219,144.9,36.2,0,1.0,,94606.1,10.57,-0.09,0.39,0.92,1.8,5.9,-1.4,32.88,,,,,,,,,,
14.18.05.227,143.9,36.0,0,1.0,,94941.4,10.53,-0.09,0.4,0.9,1.4,6.8,-1.2,32.88,,,,,,,,,,
14.18.05.239,195.3,48.8,0,1.0,,93239.9,10.73,-0.1,0.4,0.91,-0.4,6.1,-1.3,32.88,,,,,,,,,,
14.18.05.248,227.8,57.0,0,1.0,,95831.3,10.44,-0.09,0.39,0.92,-0.6,4.7,-1.4,32.88,,,,,,,,,,
14.18.05.260,277.8,69.4,0,1.0,,94284.0,10.61,-0.1,0.39,0.91,0.2,6.0,-1.2,32.88,,,,,,,,,,
14.18.05.272,283.2,70.8,0,1.0,,96083.3,10.41,-0.09,0.39,0.91,0.7,6.4,-0.8,32.88,,,,,,,,,,
14.18.05.280,291.6,72.9,0,1.0,,95853.5,10.43,-0.1,0.39,0.92,0.4,4.5,-1.0,32.88,,,,,,,,,,
14.18.05.293,331.3,82.8,0,1.0,,94195.0,10.62,-0.09,0.38,0.91,0.3,5.4,-1.2,32.88,,,,,,,,,,
14.18.05.301,335.3,83.8,0,1.0,,95682.9,10.45,-0.09,0.38,0.91,1.9,4.9,-0.7,32.88,,,,,,,,,,
14.18.05.313,312.3,78.1,0,1.0,,95631.2,10.46,-0.09,0.39,0.91,2.7,5.3,-0.4,32.88,,,,,,,,,,
14.18.05.322,319.0,79.8,0,1.0,,94605.8,10.57,-0.09,0.4,0.91,2.1,6.9,-1.0,32.88,,,,,,,,,,
14.18.05.334,292.2,73.0,0,1.0,,95205.1,10.5,-0.1,0.4,0.9,0.7,5.7,-1.2,32.88,,,,,,,,,,
14.18.05.343,298.3,74.6,0,1.0,,95411.6,10.48,-0.1,0.4,0.92,-0.8,5.6,-1.4,32.88,,,,,,,,,,
14.18.05.354,248.8,62.2,0,1.0,,95436.7,10.48,-0.1,0.39,0.91,-0.7,6.0,-1.9,32.88,,,,,,,,,,
14.18.05.363,219.9,55.0,0,1.0,,94382.3,10.6,-0.1,0.39,0.91,-1.2,5.9,-2.0,32.88,,,,,,,,,,
14.18.05.375,163.8,41.0,0,1.0,,95702.1,10.45,-0.09,0.38,0.92,-1.1,5.2,-1.8,32.88,,,,,,,,,,
14.18.05.383,168.6,42.2,0,1.0,,95129.3,10.51,-0.09,0.38,0.92,-0.5,5.5,-1.4,32.88,,,,,,,,,,
14.18.05.395,111.1,27.8,0,1.0,,95047.3,10.52,-0.09,0.38,0.92,0.0,6.0,-1.5,32.88,,,,,,,,,,
14.18.05.403,79.9,20.0,0,1.0,,92296.5,10.83,-0.09,0.39,0.91,0.0,6.4,-1.7,32.88,,,,,,,,,,
14.18.05.416,16.8,4.2,0,1.0,,96469.3,10.37,-0.1,0.39,0.92,-0.1,6.7,-2.2,32.88,,,,,,,,,,
14.18.05.425,6.6,1.6,0,1.0,,93861.4,10.65,-0.1,0.39,0.91,-0.9,6.9,-2.1,32.88,,,,,,,,,,
14.18.05.436,19.5,4.9,0,1.0,,95621.8,10.46,-0.1,0.39,0.91,-1.1,6.2,-2.2,32.88,,,,,,,,,,
14.18.05.444,36.5,9.1,0,1.0,,95628.6,10.46,-0.09,0.39,0.91,-1.1,6.3,-1.9,32.88,,,,,,,,,,
14.18.05.457,37.7,9.4,0,1.0,,94843.8,10.54,-0.09,0.38,0.92,-1.6,5.5,-1.9,32.88,,,,,,,,,,
14.18.05.465,55.8,14.0,0,1.0,,95090.5,10.52,-0.09,0.39,0.92,-0.6,5.1,-1.9,32.88,,,,,,,,,,
14.18.05.477,54.4,13.6,0,1.0,,94471.9,10.59,-0.09,0.39,0.92,0.5,6.5,-1.7,32.88,,,,,,,,,,
14.18.05.485,51.2,12.8,0,1.0,,95246.7,10.5,-0.1,0.39,0.91,0.7,6.5,-1.6,32.88,,,,,,,,,,
14.18.05.498,53.9,13.5,0,1.0,,95034.2,10.52,-0.1,0.39,0.91,-0.1,5.8,-1.6,32.88,,,,,,,,,,
14.18.05.506,61.5,15.4,0,1.0,,93593.6,10.68,-0.09,0.4,0.91,-0.6,5.6,-1.6,32.88,,,,,,,,,,
14.18.05.518,45.8,11.4,0,1.0,,94768.9,10.55,-0.09,0.39,0.92,0.1,5.7,-1.7,32.88,,,,,,,,,,
14.18.05.531,31.2,7.8,0,1.0,,94463.5,10.59,-0.09,0.38,0.91,0.2,5.9,-1.4,32.88,,,,,,,,,,
14.18.05.543,10.1,2.5,0,1.0,,95132.5,10.51,-0.09,0.38,0.91,0.7,5.5,-0.9,32.88,,,,,,,,,,
14.18.05.551,6.5,1.6,0,1.0,,96252.3,10.39,-0.09,0.39,0.92,1.3,5.4,-0.6,32.88,,,,,,,,,,
14.18.05.564,1.2,0.3,0,1.0,,95542.8,10.47,-0.09,0.39,0.91,1.5,6.8,-0.5,32.88,,,,,,,,,,
14.18.05.572,-2.8,0.7,0,1.0,,94416.6,10.59,-0.1,0.39,0.91,1.5,5.9,-0.5,32.88,,,,,,,,,,
14.18.05.584,-15.0,3.8,0,1.0,,95003.8,10.53,-0.09,0.39,0.91,0.3,5.7,-1.0,32.88,,,,,,,,,,
14.18.05.592,-22.1,5.5,0,1.0,,93546.9,10.69,-0.09,0.38,0.91,0.2,6.5,-1.3,32.88,,,,,,,,,,
14.18.05.604,-18.4,4.6,0,1.0,,95326.7,10.49,-0.1,0.39,0.91,0.5,6.1,-1.2,32.88,,,,,,,,,,
14.18.05.612,-15.7,3.9,0,1.0,,94833.7,10.54,-0.09,0.39,0.91,-0.4,6.6,-1.6,32.88,,,,,,,,,,
14.18.05.625,-31.6,7.9,0,1.0,,93547.7,10.69,-0.09,0.38,0.91,-0.9,6.4,-2.1,32.88,,,,,,,,,,
14.18.05.633,-36.4,9.1,0,1.0,,97112.9,10.3,-0.1,0.39,0.92,-0.2,5.9,-1.7,32.88,,,,,,,,,,
14.18.05.645,-33.4,8.4,0,1.0,,96281.8,10.39,-0.09,0.39,0.91,0.8,7.1,-1.0,32.88,,,,,,,,,,
14.18.05.683,-45.8,11.4,0,1.0,,93947.5,10.64,-0.09,0.39,0.92,0.0,6.4,-1.6,32.88,,,,,,,,,,
14.18.05.690,-50.3,12.6,0,1.0,,94612.3,10.57,-0.1,0.39,0.91,1.9,5.4,-0.7,32.88,,,,,,,,,,
14.18.05.703,-64.5,16.1,0,1.0,,94750.5,10.55,-0.1,0.38,0.92,1.1,5.3,-1.1,32.88,,,,,,,,,,
14.18.05.711,-63.1,15.8,0,1.0,,96678.6,10.34,-0.09,0.39,0.91,1.9,5.9,-1.0,32.88,,,,,,,,,,
14.18.05.723,-82.6,20.6,0,1.0,,95341.8,10.49,-0.1,0.39,0.91,1.9,6.1,-1.0,32.88,,,,,,,,,,
14.18.05.731,-80.3,20.1,0,1.0,,94125.0,10.62,-0.1,0.4,0.91,0.1,5.4,-1.3,32.88,,,,,,,,,,
14.18.05.744,-82.2,20.6,0,1.0,,94796.2,10.55,-0.1,0.4,0.91,0.0,5.8,-1.5,32.88,,,,,,,,,,
14.18.05.756,-82.6,20.6,0,1.0,,95209.2,10.5,-0.1,0.39,0.91,0.0,5.8,-1.3,32.88,,,,,,,,,,
14.18.05.764,-87.7,21.9,0,1.0,,94039.1,10.63,-0.1,0.38,0.92,-0.7,5.4,-1.6,32.88,,,,,,,,,,
14.18.05.776,-97.8,24.4,0,1.0,,96128.3,10.4,-0.09,0.38,0.91,-0.1,5.5,-1.7,32.88,,,,,,,,,,
14.18.05.784,-102.9,25.7,0,1.0,,94826.0,10.55,-0.09,0.39,0.92,1.4,6.3,-1.4,32.88,,,,,,,,,,
14.18.05.797,-112.0,28.0,0,1.0,,94928.5,10.53,-0.09,0.39,0.91,0.5,6.8,-1.5,32.88,,,,,,,,,,
14.18.05.805,-111.4,27.8,0,1.0,,95443.2,10.48,-0.1,0.39,0.91,0.0,5.5,-1.4,32.88,,,,,,,,,,
14.18.05.817,-112.2,28.0,0,1.0,,93751.9,10.67,-0.09,0.4,0.91,0.4,6.5,-1.5,32.88,,,,,,,,,,
14.18.05.825,-107.5,26.9,0,1.0,,93483.2,10.7,-0.09,0.4,0.91,-0.1,6.4,-1.1,32.88,,,,,,,,,,
14.18.05.838,-120.3,30.1,0,1.0,,95037.2,10.52,-0.1,0.39,0.91,-1.1,5.7,-1.3,32.88,,,,,,,,,,
14.18.05.847,-124.0,31.0,0,1.0,,94939.4,10.53,-0.1,0.39,0.91,-1.0,6.2,-1.1,32.88,,,,,,,,,,
14.18.05.858,21.6,5.4,1,2.0,87.3,95063.3,10.52,-0.1,0.37,0.91,-0.2,5.8,-1.2,32.88,,,,,,,,,,
14.18.05.866,61.6,15.4,0,2.0,,94775.6,10.55,-0.1,0.38,0.91,0.9,6.0,-1.5,32.88,,,,,,,,,,
14.18.05.879,101.8,25.4,0,2.0,,95332.9,10.49,-0.09,0.39,0.91,1.5,6.8,-1.4,32.88,,,,,,,,,,
14.18.05.887,144.7,36.2,0,2.0,,94076.6,10.63,-0.09,0.4,0.91,0.9,6.3,-1.4,32.88,,,,,,,,,,
14.18.05.900,171.0,42.8,0,2.0,,95175.7,10.51,-0.09,0.4,0.91,-0.5,5.1,-1.4,32.88,,,,,,,,,,
14.18.05.907,208.6,52.2,0,2.0,,94385.8,10.59,-0.09,0.39,0.91,-1.0,4.9,-1.1,32.88,,,,,,,,,,
14.18.05.919,239.5,59.9,0,2.0,,94414.9,10.59,-0.09,0.39,0.92,0.0,4.9,-0.8,32.88,,,,,,,,,,
14.18.05.929,285.0,71.2,0,2.0,,94487.2,10.58,-0.09,0.38,0.91,1.0,5.7,-0.7,32.88,,,,,,,,,,
14.18.05.940,333.1,83.3,0,2.0,,94624.6,10.57,-0.1,0.37,0.91,1.7,5.4,-0.2,32.88,,,,,,,,,,
14.18.05.948,296.4,74.1,0,2.0,,93641.4,10.68,-0.09,0.38,0.92,2.8,6.5,-0.8,32.88,,,,,,,,,,
14.18.05.961,347.1,86.8,0,2.0,,94602.3,10.57,-0.09,0.4,0.92,2.8,7.6,-0.7,32.88,,,,,,,,,,
14.18.05.969,338.4,84.6,0,2.0,,95304.5,10.49,-0.1,0.4,0.91,1.4,6.1,-0.6,32.88,,,,,,,,,,
14.18.05.982,327.5,81.9,0,2.0,,94505.8,10.58,-0.1,0.4,0.92,-0.4,5.1,-1.2,32.88,,,,,,,,,,
14.18.05.993,311.2,77.8,0,2.0,,94121.0,10.62,-0.1,0.39,0.91,0.0,5.6,-1.1,32.88,,,,,,,,,,
14.18.06.002,309.3,77.3,0,2.0,,94764.5,10.55,-0.09,0.39,0.92,-0.1,5.9,-0.9,32.88,,,,,,,,,,
14.18.06.015,252.7,63.2,0,2.0,,93932.0,10.65,-0.09,0.39,0.92,-0.4,5.1,-1.4,32.88,,,,,,,,,,
14.18.06.027,218.5,54.6,0,2.0,,94818.6,10.55,-0.09,0.38,0.91,0.6,4.4,-1.1,32.88,,,,,,,,,,
14.18.06.035,195.4,48.8,0,2.0,,95816.3,10.44,-0.1,0.39,0.91,2.2,6.2,-0.9,32.88,,,,,,,,,,
14.18.06.047,151.0,37.8,0,2.0,,95615.8,10.46,-0.09,0.39,0.91,1.9,6.4,-1.0,32.88,,,,,,,,,,
14.18.06.056,120.3,30.1,0,2.0,,96261.7,10.39,-0.1,0.39,0.91,0.7,5.4,-1.1,32.88,,,,,,,,,,
14.18.06.068,75.3,18.8,0,2.0,,94569.6,10.57,-0.09,0.39,0.91,0.6,5.7,-1.0,32.88,,,,,,,,,,
14.18.06.076,44.5,11.1,0,2.0,,94979.6,10.53,-0.1,0.38,0.91,0.7,4.9,-0.5,32.88,,,,,,,,,,
14.18.06.087,1.3,0.3,0,2.0,,95047.0,10.52,-0.09,0.38,0.9,1.3,5.8,-0.7,32.88,,,,,,,,,,
14.18.06.096,8.5,2.1,0,2.0,,94276.6,10.61,-0.09,0.39,0.91,2.1,6.6,-0.8,32.88,,,,,,,,,,
14.18.06.109,27.6,6.9,0,2.0,,93904.1,10.65,-0.09,0.4,0.91,1.0,5.4,-0.8,32.88,,,,,,,,,,
14.18.06.121,43.0,10.8,0,2.0,,94280.0,10.61,-0.1,0.39,0.92,0.7,6.4,-1.2,32.88,,,,,,,,,,
14.18.06.129,48.9,12.2,0,2.0,,96860.0,10.32,-0.09,0.39,0.91,0.8,6.0,-1.1,32.88,,,,,,,,,,
14.18.06.141,53.1,13.3,0,2.0,,96059.4,10.41,-0.09,0.39,0.91,0.0,5.0,-1.3,32.88,,,,,,,,,,
14.18.06.155,55.1,13.8,0,2.0,,94073.7,10.63,-0.1,0.39,0.91,0.2,5.1,-1.5,32.88,,,,,,,,,,
14.18.06.162,50.7,12.7,0,2.0,,95023.9,10.52,-0.09,0.39,0.91,0.6,6.4,-1.4,32.88,,,,,,,,,,
14.18.06.174,58.2,14.6,0,2.0,,94757.3,10.55,-0.1,0.39,0.91,0.0,5.3,-1.5,32.88,,,,,,,,,,
14.18.06.186,41.8,10.4,0,2.0,,94432.9,10.59,-0.09,0.4,0.91,-0.9,4.7,-1.3,32.88,,,,,,,,,,
14.18.06.198,29.3,7.3,0,2.0,,94877.9,10.54,-0.09,0.39,0.91,-0.4,5.7,-1.1,32.88,,,,,,,,,,
14.18.06.207,14.2,3.6,0,2.0,,95019.8,10.52,-0.09,0.38,0.91,0.6,5.4,-1.4,32.88,,,,,,,,,,
14.18.06.219,0.8,0.2,0,2.0,,96791.6,10.33,-0.1,0.39,0.92,0.9,5.5,-0.8,32.88,,,,,,,,,,
14.18.06.232,-8.6,2.2,0,2.0,,95441.3,10.48,-0.09,0.39,0.92,0.9,6.2,-1.0,32.88,,,,,,,,,,
14.18.06.240,-10.1,2.5,0,2.0,,95409.7,10.48,-0.09,0.39,0.91,1.1,4.9,-1.1,32.88,,,,,,,,,,
14.18.06.251,-9.9,2.5,0,2.0,,95247.0,10.5,-0.09,0.39,0.91,1.3,6.6,-1.0,32.88,,,,,,,,,,
14.18.06.264,-23.7,5.9,0,2.0,,96057.5,10.41,-0.09,0.39,0.91,1.2,6.1,-0.8,32.88,,,,,,,,,,
14.18.06.277,-29.6,7.4,0,2.0,,94454.3,10.59,-0.09,0.39,0.91,1.1,6.2,-0.9,32.88,,,,,,,,,,
14.18.06.284,-15.8,4.0,0,2.0,,94543.9,10.58,-0.09,0.39,0.91,1.0,5.5,-0.9,32.88,,,,,,,,,,
14.18.06.296,-31.6,7.9,0,2.0,,94803.6,10.55,-0.09,0.38,0.91,1.1,5.7,-1.1,32.88,,,,,,,,,,
14.18.06.309,-46.4,11.6,0,2.0,,95840.8,10.43,-0.09,0.39,0.91,1.8,5.5,-0.7,32.88,,,,,,,,,,
14.18.06.318,-42.8,10.7,0,2.0,,94727.7,10.56,-0.09,0.39,0.91,1.9,6.5,-0.9,32.88,,,,,,,,,,
14.18.06.329,-35.2,8.8,0,2.0,,93840.4,10.66,-0.09,0.39,0.91,1.5,5.9,-0.8,32.88,,,,,,,,,,
14.18.06.341,-54.3,13.6,0,2.0,,95265.6,10.5,-0.1,0.39,0.91,0.8,5.0,-1.3,32.88,,,,,,,,,,
14.18.06.354,-69.9,17.5,0,2.0,,95637.4,10.46,-0.09,0.4,0.91,0.9,6.8,-1.3,32.88,,,,,,,,,,
14.18.06.363,-61.0,15.2,0,2.0,,93906.9,10.65,-0.1,0.39,0.91,-0.2,4.7,-1.4,32.88,,,,,,,,,,
14.18.06.375,-65.5,16.4,0,2.0,,95363.7,10.49,-0.09,0.39,0.91,0.0,4.8,-1.0,32.88,,,,,,,,,,
14.18.06.387,-80.5,20.1,0,2.0,,95461.7,10.48,-0.1,0.39,0.91,0.5,5.7,-0.9,32.88,,,,,,,,,,
14.18.06.396,-79.8,20.0,0,2.0,,94967.6,10.53,-0.09,0.39,0.91,0.8,4.7,-1.1,32.88,,,,,,,,,,
14.18.06.408,-78.9,19.7,0,2.0,,95576.8,10.46,-0.09,0.39,0.92,1.4,5.0,-0.6,32.88,,,,,,,,,,
14.18.06.419,-79.5,19.9,0,2.0,,95865.0,10.43,-0.09,0.39,0.91,1.5,6.0,-0.9,32.88,,,,,,,,,,
14.18.06.431,-93.2,23.3,0,2.0,,95158.4,10.51,-0.09,0.39,0.91,1.1,5.9,-1.3,32.88,,,,,,,,,,
14.18.06.440,-101.3,25.3,0,2.0,,95698.9,10.45,-0.09,0.4,0.91,0.5,6.4,-1.5,32.88,,,,,,,,,,
14.18.06.482,-110.6,27.6,0,2.0,,94431.4,10.59,-0.09,0.4,0.91,-0.2,6.6,-1.6,32.88,,,,,,,,,,
14.18.06.493,-114.1,28.5,0,2.0,,93984.6,10.64,-0.09,0.38,0.91,-0.8,5.9,-1.9,32.88,,,,,,,,,,
14.18.06.501,-131.8,33.0,0,2.0,,96135.8,10.4,-0.09,0.38,0.91,0.3,4.9,-1.2,32.88,,,,,,,,,,
14.18.06.514,-131.1,32.8,0,2.0,,94491.8,10.58,-0.09,0.39,0.91,1.5,5.9,-1.1,32.88,,,,,,,,,,
14.18.06.522,20.3,5.1,1,3.0,93.8,94884.9,10.54,-0.1,0.39,0.91,0.7,6.5,-1.1,32.88,,,,,,,,,,
14.18.06.535,67.9,17.0,0,3.0,,94232.8,10.61,-0.1,0.4,0.91,0.4,6.1,-1.3,32.88,,,,,,,,,,
14.18.06.543,97.2,24.3,0,3.0,,94129.3,10.62,-0.09,0.39,0.91,-0.3,6.2,-1.6,32.88,,,,,,,,,,
14.18.06.555,154.3,38.6,0,3.0,,95150.2,10.51,-0.09,0.39,0.91,-0.3,6.4,-1.4,32.88,,,,,,,,,,
14.18.06.563,176.4,44.1,0,3.0,,94854.0,10.54,-0.09,0.4,0.92,0.0,6.8,-1.4,32.88,,,,,,,,,,
14.18.06.576,215.9,54.0,0,3.0,,94946.1,10.53,-0.09,0.39,0.92,0.0,6.1,-1.6,32.88,,,,,,,,,,
14.18.06.587,254.8,63.7,0,3.0,,94974.3,10.53,-0.09,0.39,0.91,-0.5,5.0,-1.8,32.88,,,,,,,,,,
14.18.06.595,265.7,66.4,0,3.0,,96507.3,10.36,-0.09,0.39,0.91,1.1,6.2,-1.9,32.88,,,,,,,,,,
14.18.06.609,318.0,79.5,0,3.0,,96032.6,10.41,-0.09,0.4,0.91,0.8,6.1,-1.5,32.88,,,,,,,,,,
14.18.06.617,291.0,72.8,0,3.0,,96118.4,10.4,-0.1,0.39,0.91,-0.3,4.6,-1.4,32.88,,,,,,,,,,
14.18.06.628,330.5,82.6,0,3.0,,93431.9,10.7,-0.1,0.39,0.92,0.5,5.4,-1.2,32.88,,,,,,,,,,
14.18.06.637,319.4,79.8,0,3.0,,95505.8,10.47,-0.09,0.39,0.91,1.9,6.0,-1.0,32.88,,,,,,,,,,
14.18.06.650,327.8,82.0,0,3.0,,93617.2,10.68,-0.09,0.39,0.91,1.5,5.6,-0.4,32.88,,,,,,,,,,
14.18.06.658,309.2,77.3,0,3.0,,94392.4,10.59,-0.09,0.38,0.91,2.0,5.8,-0.9,32.88,,,,,,,,,,
14.18.06.670,302.1,75.5,0,3.0,,96285.7,10.39,-0.1,0.39,0.91,3.0,6.2,-0.9,32.88,,,,,,,,,,
14.18.06.682,247.0,61.8,0,3.0,,96110.9,10.4,-0.09,0.4,0.91,2.9,7.9,-0.7,32.88,,,,,,,,,,
14.18.06.690,228.3,57.1,0,3.0,,95713.3,10.45,-0.1,0.41,0.91,0.6,6.2,-1.1,32.88,,,,,,,,,,
14.18.06.702,203.5,50.9,0,3.0,,95512.4,10.47,-0.09,0.4,0.91,-0.8,4.9,-1.5,32.88,,,,,,,,,,
14.18.06.714,152.5,38.1,0,3.0,,95200.3,10.5,-0.09,0.4,0.92,-0.2,5.9,-1.4,32.88,,,,,,,,,,
14.18.06.722,129.9,32.5,0,3.0,,95311.8,10.49,-0.09,0.39,0.91,0.2,5.5,-1.4,32.88,,,,,,,,,,
14.18.06.735,69.8,17.4,0,3.0,,95823.6,10.44,-0.1,0.39,0.91,0.7,5.5,-1.6,32.88,,,,,,,,,,
14.18.06.744,48.0,12.0,0,3.0,,93776.3,10.66,-0.09,0.39,0.9,0.7,5.8,-1.0,32.88,,,,,,,,,,
14.18.06.755,2.9,0.7,0,3.0,,95190.4,10.51,-0.1,0.39,0.91,1.0,5.8,-1.2,32.88,,,,,,,,,,
14.18.06.763,19.3,4.8,0,3.0,,94348.2,10.6,-0.09,0.39,0.91,0.9,5.4,-1.1,32.88,,,,,,,,,,
14.18.06.776,34.6,8.6,0,3.0,,94656.7,10.56,-0.09,0.39,0.91,1.6,5.9,-0.9,32.88,,,,,,,,,,
14.18.06.784,39.9,10.0,0,3.0,,94793.7,10.55,-0.09,0.39,0.91,2.0,5.5,-0.4,32.88,,,,,,,,,,
14.18.06.797,53.6,13.4,0,3.0,,94993.7,10.53,-0.09,0.39,0.91,1.5,5.6,-0.9,32.88,,,,,,,,,,
14.18.06.804,54.5,13.6,0,3.0,,94486.7,10.58,-0.09,0.39,0.91,1.6,5.7,-1.1,32.88,,,,,,,,,,
14.18.06.813,57.9,14.5,0,3.0,,93100.9,10.74,-0.09,0.4,0.91,1.6,5.2,-0.9,32.88,,,,,,,,,,
14.18.06.826,56.9,14.2,0,3.0,,95022.7,10.52,-0.09,0.4,0.91,1.0,5.3,-1.2,32.88,,,,,,,,,,
14.18.06.834,48.1,12.0,0,3.0,,94577.9,10.57,-0.09,0.4,0.91,0.6,6.7,-1.1,32.88,,,,,,,,,,
14.18.06.845,51.8,13.0,0,3.0,,94697.1,10.56,-0.09,0.4,0.91,0.4,5.6,-1.1,32.88,,,,,,,,,,
14.18.06.858,29.3,7.3,0,3.0,,95495.3,10.47,-0.09,0.39,0.92,0.0,5.6,-1.6,32.88,,,,,,,,,,
14.18.06.871,16.7,4.2,0,3.0,,95119.3,10.51,-0.1,0.39,0.91,0.4,7.5,-1.8,32.88,,,,,,,,,,
14.18.06.878,6.6,1.6,0,3.0,,95043.7,10.52,-0.1,0.4,0.91,0.7,6.1,-1.7,32.88,,,,,,,,,,
14.18.06.890,-3.4,0.8,0,3.0,,94823.7,10.55,-0.09,0.39,0.91,-0.3,6.3,-1.7,32.88,,,,,,,,,,
14.18.06.904,-11.3,2.8,0,3.0,,94906.3,10.54,-0.1,0.39,0.91,-1.7,6.7,-2.2,32.88,,,,,,,,,,
14.18.06.911,-15.3,3.8,0,3.0,,94110.3,10.63,-0.09,0.39,0.92,-0.8,5.3,-2.1,32.88,,,,,,,,,,
14.18.06.923,-17.5,4.4,0,3.0,,95047.4,10.52,-0.09,0.39,0.91,-0.5,7.7,-1.8,32.88,,,,,,,,,,
14.18.06.936,-20.3,5.1,0,3.0,,94207.6,10.61,-0.09,0.39,0.91,-1.2,6.2,-2.4,32.88,,,,,,,,,,
14.18.06.949,-25.8,6.4,0,3.0,,94478.0,10.58,-0.09,0.4,0.91,-1.0,6.0,-2.0,32.88,,,,,,,,,,
14.18.06.956,-25.1,6.3,0,3.0,,93875.6,10.65,-0.09,0.4,0.91,-0.7,7.4,-2.0,32.88,,,,,,,,,,
14.18.06.968,-36.4,9.1,0,3.0,,95353.3,10.49,-0.1,0.39,0.91,-1.5,5.8,-2.0,32.88,,,,,,,,,,
14.18.06.980,-41.6,10.4,0,3.0,,96505.6,10.36,-0.1,0.39,0.92,-1.4,5.3,-2.2,32.88,,,,,,,,,,
14.18.06.989,-40.9,10.2,0,3.0,,95362.6,10.49,-0.09,0.38,0.92,-0.5,5.0,-1.7,32.88,,,,,,,,,,
14.18.07.001,-56.2,14.0,0,3.0,,92747.8,10.78,-0.09,0.39,0.92,0.8,5.1,-1.2,32.88,,,,,,,,,,
14.18.07.013,-65.1,16.3,0,3.0,,95182.6,10.51,-0.09,0.39,0.91,1.3,6.0,-0.7,32.88,,,,,,,,,,
14.18.07.026,-74.4,18.6,0,3.0,,94697.4,10.56,-0.09,0.39,0.92,1.6,5.6,-0.6,32.88,,,,,,,,,,
14.18.07.034,-63.0,15.8,0,3.0,,95110.6,10.51,-0.09,0.39,0.91,2.6,5.7,-0.4,32.88,,,,,,,,,,
14.18.07.047,-76.0,19.0,0,3.0,,95951.3,10.42,-0.09,0.39,0.91,2.2,6.1,-0.3,32.88,,,,,,,,,,
14.18.07.059,-79.3,19.8,0,3.0,,95142.7,10.51,-0.09,0.4,0.91,1.5,4.6,-0.4,32.88,,,,,,,,,,
14.18.07.067,-73.6,18.4,0,3.0,,95632.4,10.46,-0.1,0.39,0.91,1.8,5.6,-0.6,32.88,,,,,,,,,,
14.18.07.080,-87.2,21.8,0,3.0,,95268.3,10.5,-0.09,0.39,0.91,2.0,5.1,-0.3,32.88,,,,,,,,,,
14.18.07.091,-87.3,21.8,0,3.0,,94000.3,10.64,-0.09,0.38,0.91,2.0,3.6,-0.5,32.88,,,,,,,,,,
14.18.07.099,-95.1,23.8,0,3.0,,95638.8,10.46,-0.1,0.39,0.92,3.1,6.7,-0.1,32.88,,,,,,,,,,
14.18.07.112,-92.4,23.1,0,3.0,,95588.7,10.46,-0.09,0.39,0.91,2.7,5.9,-0.1,32.88,,,,,,,,,,
14.18.07.124,-113.4,28.4,0,3.0,,94965.9,10.53,-0.09,0.4,0.9,2.2,4.9,-0.6,32.88,,,,,,,,,,
14.18.07.137,-102.8,25.7,0,3.0,,95693.8,10.45,-0.1,0.39,0.91,1.7,5.9,-0.4,32.88,,,,,,,,,,
14.18.07.145,-96.7,24.2,0,3.0,,95597.1,10.46,-0.09,0.39,0.91,1.4,5.4,-0.5,32.88,,,,,,,,,,
14.18.07.158,-111.1,27.8,0,3.0,,94849.6,10.54,-0.09,0.4,0.91,0.9,6.1,-0.9,32.88,,,,,,,,,,
14.18.07.169,-119.5,29.9,0,3.0,,94323.5,10.6,-0.09,0.39,0.91,0.9,4.8,-0.8,32.88,,,,,,,,,,
14.18.07.178,-117.7,29.4,0,3.0,,94467.1,10.59,-0.09,0.4,0.91,1.8,6.0,-0.9,32.88,,,,,,,,,,
14.18.07.190,24.6,6.2,1,4.0,90.0,95951.9,10.42,-0.09,0.39,0.91,1.0,5.2,-0.8,32.88,,,,,,,,,,
14.18.07.202,76.1,19.0,0,4.0,,94646.8,10.57,-0.09,0.39,0.91,1.3,5.6,-0.8,32.88,,,,,,,,,,
14.18.07.215,137.4,34.4,0,4.0,,95439.0,10.48,-0.09,0.4,0.91,2.3,6.9,-0.6,32.88,,,,,,,,,,
14.18.07.222,151.4,37.8,0,4.0,,94482.6,10.58,-0.09,0.4,0.91,1.4,6.0,-0.9,32.88,,,,,,,,,,
14.18.07.235,199.3,49.8,0,4.0,,94746.3,10.55,-0.09,0.4,0.91,0.7,5.8,-0.9,32.88,,,,,,,,,,
14.18.07.247,251.8,63.0,0,4.0,,95631.2,10.46,-0.09,0.4,0.91,1.2,6.0,-0.9,32.88,,,,,,,,,,
14.18.07.289,314.3,78.6,0,4.0,,95527.1,10.47,-0.1,0.4,0.91,2.2,5.6,-0.3,32.88,,,,,,,,,,
14.18.07.297,305.4,76.4,0,4.0,,94810.4,10.55,-0.09,0.4,0.91,0.9,5.3,-0.7,32.88,,,,,,,,,,
14.18.07.308,324.9,81.2,0,4.0,,96073.9,10.41,-0.09,0.39,0.91,0.8,5.1,-1.0,32.88,,,,,,,,,,
14.18.07.321,331.5,82.9,0,4.0,,94371.6,10.6,-0.09,0.4,0.91,1.6,4.9,-0.6,32.88,,,,,,,,,,
14.18.07.329,291.7,72.9,0,4.0,,94301.0,10.6,-0.09,0.4,0.92,1.5,6.1,-0.4,32.88,,,,,,,,,,
14.18.07.342,276.9,69.2,0,4.0,,94922.3,10.53,-0.09,0.4,0.9,1.2,5.9,-0.8,32.88,,,,,,,,,,
14.18.07.354,248.6,62.2,0,4.0,,95628.6,10.46,-0.09,0.4,0.91,0.1,4.9,-1.1,32.88,,,,,,,,,,
14.18.07.362,223.1,55.8,0,4.0,,96726.6,10.34,-0.09,0.4,0.91,-0.7,6.0,-1.4,32.88,,,,,,,,,,
14.18.07.375,170.9,42.7,0,4.0,,93720.4,10.67,-0.09,0.4,0.91,-0.4,5.1,-1.2,32.88,,,,,,,,,,
14.18.07.386,133.1,33.3,0,4.0,,95014.5,10.52,-0.09,0.39,0.92,-0.1,5.7,-1.7,32.88,,,,,,,,,,
14.18.07.399,81.5,20.4,0,4.0,,96016.2,10.41,-0.09,0.39,0.91,1.1,6.0,-1.1,32.88,,,,,,,,,,
14.18.07.406,45.4,11.4,0,4.0,,95126.1,10.51,-0.09,0.4,0.91,1.5,6.4,-1.2,32.88,,,,,,,,,,
14.18.07.419,6.6,1.6,0,4.0,,94424.3,10.59,-0.1,0.4,0.91,1.1,6.0,-1.0,32.88,,,,,,,,,,
14.18.07.431,19.3,4.8,0,4.0,,94817.3,10.55,-0.09,0.4,0.91,0.4,4.8,-1.3,32.88,,,,,,,,,,
14.18.07.440,27.7,6.9,0,4.0,,94876.9,10.54,-0.09,0.4,0.91,0.2,6.7,-1.2,32.88,,,,,,,,,,
14.18.07.455,44.8,11.2,0,4.0,,96142.5,10.4,-0.09,0.4,0.91,0.4,5.4,-1.1,32.88,,,,,,,,,,
14.18.07.465,58.6,14.6,0,4.0,,96145.4,10.4,-0.09,0.4,0.91,0.0,5.5,-1.4,32.88,,,,,,,,,,
14.18.07.478,60.5,15.1,0,4.0,,94353.3,10.6,-0.09,0.4,0.91,0.2,5.7,-1.1,32.88,,,,,,,,,,
14.18.07.485,59.6,14.9,0,4.0,,96473.8,10.37,-0.09,0.39,0.91,0.9,5.3,-0.9,32.88,,,,,,,,,,
14.18.07.498,53.9,13.5,0,4.0,,94580.6,10.57,-0.09,0.39,0.91,2.1,5.7,-1.0,32.88,,,,,,,,,,
14.18.07.510,46.2,11.6,0,4.0,,95256.0,10.5,-0.09,0.4,0.91,2.6,6.8,-0.7,32.88,,,,,,,,,,
14.18.07.518,37.4,9.4,0,4.0,,95293.8,10.49,-0.09,0.41,0.9,1.0,5.9,-0.9,32.88,,,,,,,,,,
14.18.07.530,25.6,6.4,0,4.0,,94451.3,10.59,-0.09,0.39,0.91,0.2,5.0,-0.8,32.88,,,,,,,,,,
14.18.07.542,7.4,1.8,0,4.0,,95691.1,10.45,-0.09,0.39,0.91,-0.3,6.0,-0.9,32.88,,,,,,,,,,
14.18.07.551,-7.5,1.9,0,4.0,,93808.4,10.66,-0.09,0.39,0.91,0.5,5.7,-1.3,32.88,,,,,,,,,,
14.18.07.563,-7.5,1.9,0,4.0,,95338.6,10.49,-0.09,0.4,0.92,1.2,6.3,-1.2,32.88,,,,,,,,,,
14.18.07.575,-8.9,2.2,0,4.0,,95609.1,10.46,-0.09,0.4,0.9,0.9,6.3,-1.5,32.88,,,,,,,,,,
14.18.07.587,-17.0,4.2,0,4.0,,95505.8,10.47,-0.09,0.4,0.91,0.0,4.8,-1.3,32.88,,,,,,,,,,
14.18.07.595,-14.8,3.7,0,4.0,,96172.8,10.4,-0.09,0.39,0.92,0.0,5.5,-1.3,32.88,,,,,,,,,,
14.18.07.607,-26.3,6.6,0,4.0,,94935.2,10.53,-0.09,0.4,0.91,1.2,6.5,-1.0,32.88,,,,,,,,,,
14.18.07.620,-27.9,7.0,0,4.0,,93290.3,10.72,-0.09,0.4,0.9,1.4,6.2,-1.2,32.88,,,,,,,,,,
14.18.07.628,-31.2,7.8,0,4.0,,96299.3,10.38,-0.09,0.4,0.91,0.0,5.8,-1.3,32.88,,,,,,,,,,
14.18.07.641,-33.7,8.4,0,4.0,,94759.6,10.55,-0.09,0.39,0.91,-0.1,5.7,-1.1,32.88,,,,,,,,,,
14.18.07.652,-42.8,10.7,0,4.0,,94622.5,10.57,-0.09,0.39,0.91,0.6,6.0,-1.5,32.88,,,,,,,,,,
14.18.07.666,-42.1,10.5,0,4.0,,94240.3,10.61,-0.1,0.4,0.92,0.8,6.8,-1.5,32.88,,,,,,,,,,
14.18.07.677,-58.3,14.6,0,4.0,,93873.5,10.65,-0.09,0.41,0.92,-0.3,6.8,-2.0,32.88,,,,,,,,,,
14.18.07.685,-59.0,14.8,0,4.0,,93588.9,10.69,-0.09,0.4,0.9,-1.0,5.2,-1.4,32.88,,,,,,,,,,
14.18.07.698,-66.0,16.5,0,4.0,,95119.3,10.51,-0.09,0.4,0.91,-0.4,5.5,-1.4,32.88,,,,,,,,,,
14.18.07.706,-64.1,16.0,0,4.0,,95860.2,10.43,-0.09,0.4,0.91,0.6,6.4,-1.3,32.88,,,,,,,,,,
14.18.07.718,-72.4,18.1,0,4.0,,94596.5,10.57,-0.09,0.4,0.91,0.8,5.8,-1.0,32.88,,,,,,,,,,
14.18.07.727,-80.5,20.1,0,4.0,,95284.0,10.49,-0.09,0.4,0.91,0.8,5.9,-1.3,32.88,,,,,,,,,,
14.18.07.738,-83.2,20.8,0,4.0,,96329.0,10.38,-0.09,0.4,0.91,0.2,6.1,-1.5,32.88,,,,,,,,,,
14.18.07.747,-79.6,19.9,0,4.0,,95074.0,10.52,-0.1,0.39,0.91,-0.2,5.9,-1.3,32.88,,,,,,,,,,
14.18.07.760,-92.7,23.2,0,4.0,,94176.6,10.62,-0.09,0.39,0.9,0.0,6.3,-1.7,32.88,,,,,,,,,,
14.18.07.767,-97.5,24.4,0,4.0,,95159.5,10.51,-0.09,0.4,0.91,-0.2,6.0,-1.4,32.88,,,,,,,,,,
14.18.07.780,-85.4,21.4,0,4.0,,94377.0,10.6,-0.09,0.41,0.91,0.1,6.8,-1.5,32.88,,,,,,,,,,
14.18.07.788,-95.4,23.8,0,4.0,,95382.8,10.48,-0.09,0.41,0.91,0.0,7.1,-1.4,32.88,,,,,,,,,,
14.18.07.801,-104.0,26.0,0,4.0,,94243.4,10.61,-0.09,0.39,0.91,-0.5,5.6,-1.5,32.88,,,,,,,,,,
14.18.07.809,-112.6,28.2,0,4.0,,93714.3,10.67,-0.09,0.4,0.91,0.5,5.5,-1.4,32.88,,,,,,,,,,
14.18.07.821,-115.9,29.0,0,4.0,,95796.9,10.44,-0.09,0.4,0.92,0.7,6.8,-1.2,32.88,,,,,,,,,,
14.18.07.833,-110.6,27.6,0,4.0,,95135.9,10.51,-0.09,0.4,0.9,-0.2,5.6,-1.4,32.88,,,,,,,,,,
14.18.07.841,-120.4,30.1,0,4.0,,95469.7,10.47,-0.1,0.39,0.91,-1.1,4.8,-1.8,32.88,,,,,,,,,,
14.18.07.853,21.3,5.3,1,5.0,90.3,94391.0,10.59,-0.09,0.39,0.91,-0.1,6.0,-1.7,32.88,,,,,,,,,,
14.18.07.861,57.2,14.3,0,5.0,,93738.5,10.67,-0.09,0.4,0.91,0.7,6.4,-1.6,32.88,,,,,,,,,,
14.18.07.874,117.2,29.3,0,5.0,,95716.0,10.45,-0.09,0.4,0.9,-0.2,6.6,-1.7,32.88,,,,,,,,,,
14.18.07.883,142.3,35.6,0,5.0,,95799.0,10.44,-0.09,0.41,0.91,-0.2,6.3,-2.1,32.88,,,,,,,,,,
14.18.07.894,182.0,45.5,0,5.0,,94253.1,10.61,-0.09,0.4,0.91,-0.9,6.0,-1.5,32.88,,,,,,,,,,
14.18.07.902,216.2,54.0,0,5.0,,95889.7,10.43,-0.09,0.39,0.91,-0.4,6.2,-1.6,32.88,,,,,,,,,,
14.18.07.915,255.1,63.8,0,5.0,,95081.0,10.52,-0.09,0.39,0.91,0.0,5.9,-1.6,32.88,,,,,,,,,,
14.18.07.923,292.2,73.0,0,5.0,,94830.6,10.55,-0.09,0.4,0.91,0.2,6.2,-1.3,32.88,,,,,,,,,,
14.18.07.935,263.9,66.0,0,5.0,,94287.9,10.61,-0.09,0.4,0.91,0.1,6.1,-1.4,32.88,,,,,,,,,,
14.18.07.947,298.3,74.6,0,5.0,,95472.4,10.47,-0.1,0.4,0.91,-1.1,5.3,-1.8,32.88,,,,,,,,,,
14.18.07.956,291.9,73.0,0,5.0,,95402.1,10.48,-0.1,0.39,0.91,-1.4,4.9,-1.6,32.88,,,,,,,,,,
14.18.07.968,336.4,84.1,0,5.0,,95353.9,10.49,-0.09,0.39,0.91,-0.6,5.9,-1.8,32.88,,,,,,,,,,
14.18.07.976,307.0,76.8,0,5.0,,93167.9,10.73,-0.09,0.39,0.92,0.1,4.7,-1.4,32.88,,,,,,,,,,
14.18.07.989,309.9,77.5,0,5.0,,94604.6,10.57,-0.09,0.39,0.91,0.6,6.2,-1.7,32.88,,,,,,,,,,
14.18.07.997,299.3,74.8,0,5.0,,95073.6,10.52,-0.1,0.4,0.91,1.1,7.1,-1.5,32.88,,,,,,,,,,
14.18.08.010,279.1,69.8,0,5.0,,95058.1,10.52,-0.09,0.4,0.9,-0.3,6.0,-1.4,32.88,,,,,,,,,,
14.18.08.017,241.7,60.4,0,5.0,,93746.6,10.67,-0.09,0.4,0.91,-1.1,5.1,-1.6,32.88,,,,,,,,,,
14.18.08.029,,,0,5.0,,95345.4,10.49,,,,,,,,,,,,,,,,,
14.18.08.047,,,0,5.0,,95792.4,10.44,,,,,,,,,32.87,,,,,,,,
14.18.08.082,-6.8,1.7,0,5.0,,93510.2,10.69,-0.09,0.39,0.91,-0.7,4.8,-2.0,32.88,,,,,,,,,,
14.18.08.095,11.8,3.0,0,5.0,,95067.0,10.52,-0.09,0.4,0.91,0.1,5.4,-1.5,32.88,,,,,,,,,,
14.18.08.104,20.7,5.2,0,5.0,,94134.8,10.62,-0.09,0.4,0.91,0.6,5.9,-1.5,32.88,,,,,,,,,,
14.18.08.115,46.8,11.7,0,5.0,,95062.3,10.52,-0.1,0.39,0.91,0.8,5.4,-0.9,32.88,,,,,,,,,,
14.18.08.123,48.0,12.0,0,5.0,,94066.7,10.63,-0.09,0.39,0.92,0.5,5.0,-0.7,32.88,,,,,,,,,,
14.18.08.137,43.4,10.8,0,5.0,,94973.5,10.53,-0.09,0.38,0.91,0.9,5.2,-1.3,32.88,,,,,,,,,,
14.18.08.145,64.1,16.0,0,5.0,,94942.2,10.53,-0.09,0.39,0.91,1.8,5.6,-1.5,32.88,,,,,,,,,,
14.18.08.156,66.8,16.7,0,5.0,,96388.5,10.37,-0.1,0.4,0.91,2.1,6.9,-1.4,32.88,,,,,,,,,,
14.18.08.164,52.8,13.2,0,5.0,,95863.6,10.43,-0.1,0.41,0.9,0.8,6.3,-1.5,32.88,,,,,,,,,,
14.18.08.177,38.3,9.6,0,5.0,,96296.2,10.38,-0.1,0.41,0.91,-1.4,5.0,-1.8,32.88,,,,,,,,,,
14.18.08.189,32.4,8.1,0,5.0,,94278.8,10.61,-0.09,0.4,0.91,-1.3,5.4,-1.8,32.88,,,,,,,,,,
14.18.08.201,10.8,2.7,0,5.0,,93393.1,10.71,-0.09,0.39,0.91,-0.9,4.1,-1.3,32.88,,,,,,,,,,
14.18.08.210,2.0,0.5,0,5.0,,93840.5,10.66,-0.09,0.38,0.91,-0.4,4.8,-1.9,32.88,,,,,,,,,,
14.18.08.222,-5.8,1.4,0,5.0,,94188.4,10.62,-0.09,0.39,0.91,0.8,6.1,-1.7,32.88,,,,,,,,,,
14.18.08.230,-10.0,2.5,0,5.0,,95015.2,10.52,-0.09,0.39,0.91,0.6,5.9,-1.6,32.88,,,,,,,,,,
14.18.08.243,-13.9,3.5,0,5.0,,96296.8,10.38,-0.1,0.39,0.91,-0.3,4.1,-1.9,32.88,,,,,,,,,,
14.18.08.251,-21.2,5.3,0,5.0,,94897.7,10.54,-0.1,0.39,0.91,0.4,5.5,-1.9,32.88,,,,,,,,,,
14.18.08.264,-24.4,6.1,0,5.0,,95295.7,10.49,-0.09,0.4,0.91,0.9,6.9,-1.8,32.88,,,,,,,,,,
14.18.08.272,-22.1,5.5,0,5.0,,95665.9,10.45,-0.09,0.4,0.91,-0.6,5.8,-1.8,32.88,,,,,,,,,,
14.18.08.283,-29.5,7.4,0,5.0,,94565.3,10.57,-0.09,0.4,0.91,-1.0,5.0,-1.6,32.88,,,,,,,,,,
14.18.08.291,-22.5,5.6,0,5.0,,95052.7,10.52,-0.09,0.39,0.91,-0.8,5.1,-1.4,32.88,,,,,,,,,,
14.18.08.304,-53.4,13.4,0,5.0,,94063.0,10.63,-0.09,0.38,0.91,0.3,5.3,-1.5,32.88,,,,,,,,,,
14.18.08.313,-46.6,11.6,0,5.0,,93288.5,10.72,-0.09,0.39,0.91,0.5,5.4,-1.4,32.88,,,,,,,,,,
14.18.08.324,-46.0,11.5,0,5.0,,95151.1,10.51,-0.09,0.39,0.91,0.3,5.6,-2.0,32.88,,,,,,,,,,
14.18.08.332,-54.7,13.7,0,5.0,,94992.8,10.53,-0.09,0.4,0.91,0.2,6.0,-2.2,32.88,,,,,,,,,,
14.18.08.345,-62.7,15.7,0,5.0,,95092.1,10.52,-0.09,0.4,0.91,-0.6,6.5,-1.8,32.88,,,,,,,,,,
14.18.08.354,-62.0,15.5,0,5.0,,95778.6,10.44,-0.09,0.4,0.9,-0.9,5.3,-1.8,32.88,,,,,,,,,,
14.18.08.365,-71.5,17.9,0,5.0,,96097.3,10.41,-0.09,0.4,0.92,-1.6,5.5,-2.1,32.88,,,,,,,,,,
14.18.08.374,-66.9,16.7,0,5.0,,94886.4,10.54,-0.09,0.39,0.91,-1.0,5.6,-1.9,32.88,,,,,,,,,,
14.18.08.386,-80.6,20.2,0,5.0,,94191.7,10.62,-0.09,0.39,0.91,0.0,5.4,-1.7,32.88,,,,,,,,,,
14.18.08.394,-75.0,18.8,0,5.0,,94325.5,10.6,-0.09,0.39,0.91,0.8,6.8,-1.5,32.88,,,,,,,,,,
14.18.08.406,-79.3,19.8,0,5.0,,93650.8,10.68,-0.09,0.39,0.91,0.3,6.9,-2.0,32.88,,,,,,,,,,
14.18.08.415,-78.9,19.7,0,5.0,,96279.4,10.39,-0.1,0.39,0.91,-0.7,5.0,-2.1,32.88,,,,,,,,,,
14.18.08.429,-86.9,21.7,0,5.0,,94058.4,10.63,-0.09,0.4,0.91,-0.6,5.5,-2.0,32.88,,,,,,,,,,
14.18.08.435,-81.7,20.4,0,5.0,,95059.4,10.52,-0.09,0.39,0.92,-0.4,5.5,-1.4,32.88,,,,,,,,,,
14.18.08.447,-108.1,27.0,0,5.0,,93617.9,10.68,-0.09,0.39,0.91,0.1,4.8,-1.2,32.88,,,,,,,,,,
14.18.08.456,-107.9,27.0,0,5.0,,95111.8,10.51,-0.09,0.39,0.91,0.4,5.1,-0.8,32.88,,,,,,,,,,
14.18.08.469,-105.3,26.3,0,5.0,,94702.5,10.56,-0.09,0.39,0.91,1.6,5.4,-1.0,32.88,,,,,,,,,,
14.18.08.476,-102.3,25.6,0,5.0,,93654.8,10.68,-0.09,0.39,0.91,1.8,5.7,-0.5,32.88,,,,,,,,,,
14.18.08.489,-119.3,29.8,0,5.0,,94155.7,10.62,-0.09,0.39,0.91,1.9,5.9,-0.5,32.88,,,,,,,,,,
14.18.08.496,-111.4,27.8,0,5.0,,94219.9,10.61,-0.09,0.39,0.91,2.0,5.5,-0.7,32.88,,,,,,,,,,
14.18.08.509,-136.4,34.1,0,5.0,,95214.0,10.5,-0.09,0.4,0.91,1.9,6.9,-0.8,32.88,,,,,,,,,,
14.18.08.517,21.2,5.3,1,6.0,90.1,95484.7,10.47,-0.09,0.4,0.91,0.5,6.5,-1.2,32.88,,,,,,,,,,
14.18.08.529,71.2,17.8,0,6.0,,95185.6,10.51,-0.09,0.39,0.91,0.3,5.2,-1.0,32.88,,,,,,,,,,
14.18.08.538,97.1,24.3,0,6.0,,94911.0,10.54,-0.09,0.39,0.91,0.6,5.7,-1.0,32.88,,,,,,,,,,
14.18.08.550,161.1,40.3,0,6.0,,95171.8,10.51,-0.09,0.38,0.91,0.7,6.0,-1.4,32.88,,,,,,,,,,
14.18.08.559,197.8,49.4,0,6.0,,94210.3,10.61,-0.09,0.4,0.92,1.3,5.7,-1.0,32.88,,,,,,,,,,
14.18.08.570,210.9,52.7,0,6.0,,95054.4,10.52,-0.09,0.4,0.9,0.6,6.2,-0.8,32.88,,,,,,,,,,
14.18.08.578,237.4,59.4,0,6.0,,94791.6,10.55,-0.09,0.39,0.91,0.3,4.8,-0.9,32.88,,,,,,,,,,
14.18.08.590,272.1,68.0,0,6.0,,94762.3,10.55,-0.09,0.39,0.91,0.7,5.5,-0.7,32.88,,,,,,,,,,
14.18.08.599,302.7,75.7,0,6.0,,95075.0,10.52,-0.09,0.39,0.92,1.0,6.3,-0.9,32.88,,,,,,,,,,
14.18.08.611,293.3,73.3,0,6.0,,93863.6,10.65,-0.09,0.39,0.91,1.2,5.3,-1.0,32.88,,,,,,,,,,
14.18.08.619,329.4,82.4,0,6.0,,93783.1,10.66,-0.09,0.39,0.92,1.6,5.8,-0.3,32.88,,,,,,,,,,
14.18.08.631,328.8,82.2,0,6.0,,95543.4,10.47,-0.09,0.39,0.92,1.8,6.5,-0.5,32.88,,,,,,,,,,
14.18.08.641,328.0,82.0,0,6.0,,94480.4,10.58,-0.09,0.4,0.91,1.9,6.1,-0.6,32.88,,,,,,,,,,
14.18.08.653,302.2,75.6,0,6.0,,95503.8,10.47,-0.09,0.39,0.91,1.2,5.6,-0.9,32.88,,,,,,,,,,
14.18.08.665,295.2,73.8,0,6.0,,94821.8,10.55,-0.09,0.39,0.91,1.6,5.2,-0.7,32.88,,,,,,,,,,
14.18.08.672,248.1,62.0,0,6.0,,94878.2,10.54,-0.09,0.39,0.91,1.9,5.8,-0.9,32.88,,,,,,,,,,
14.18.08.686,251.7,62.9,0,6.0,,95965.0,10.42,-0.1,0.4,0.91,1.2,6.4,-0.9,32.88,,,,,,,,,,
14.18.08.693,210.4,52.6,0,6.0,,94964.4,10.53,-0.09,0.4,0.91,0.6,5.7,-0.8,32.88,,,,,,,,,,
14.18.08.705,152.0,38.0,0,6.0,,94459.3,10.59,-0.09,0.4,0.92,-0.1,5.6,-0.8,32.88,,,,,,,,,,
14.18.08.713,150.5,37.6,0,6.0,,94551.3,10.58,-0.09,0.39,0.9,0.1,6.1,-1.2,32.88,,,,,,,,,,
14.18.08.726,95.8,24.0,0,6.0,,95400.0,10.48,-0.09,0.39,0.91,0.4,6.0,-1.2,32.88,,,,,,,,,,
14.18.08.734,55.1,13.8,0,6.0,,93781.4,10.66,-0.09,0.39,0.91,0.4,5.7,-1.4,32.88,,,,,,,,,,
14.18.08.747,0.7,0.2,0,6.0,,94292.3,10.61,-0.09,0.4,0.91,1.1,5.7,-1.6,32.88,,,,,,,,,,
14.18.08.755,12.7,3.2,0,6.0,,93803.1,10.66,-0.09,0.41,0.91,0.6,7.3,-1.7,32.88,,,,,,,,,,
14.18.08.763,13.6,3.4,0,6.0,,94360.7,10.6,-0.09,0.4,0.9,-0.7,5.8,-1.7,32.88,,,,,,,,,,
14.18.08.776,38.0,9.5,0,6.0,,94751.2,10.55,-0.09,0.4,0.91,-1.1,4.4,-1.4,32.88,,,,,,,,,,
14.18.08.787,37.9,9.5,0,6.0,,94592.6,10.57,-0.09,0.39,0.92,0.1,6.4,-1.3,32.88,,,,,,,,,,
14.18.08.795,62.5,15.6,0,6.0,,93849.3,10.66,-0.09,0.39,0.91,0.7,6.6,-1.1,32.88,,,,,,,,,,
14.18.08.804,45.7,11.4,0,6.0,,94960.0,10.53,-0.1,0.39,0.91,0.5,5.0,-0.9,32.88,,,,,,,,,,
14.18.08.816,50.6,12.6,0,6.0,,95175.6,10.51,-0.09,0.38,0.91,0.4,5.4,-1.1,32.88,,,,,,,,,,
14.18.08.828,56.0,14.0,0,6.0,,95035.3,10.52,-0.09,0.39,0.91,2.1,6.1,-1.1,32.88,,,,,,,,,,
14.18.08.837,49.0,12.2,0,6.0,,96010.4,10.42,-0.09,0.4,0.91,2.0,6.2,-0.9,32.88,,,,,,,,,,
14.18.08.849,34.1,8.5,0,6.0,,95435.1,10.48,-0.09,0.4,0.9,0.2,6.1,-1.2,32.88,,,,,,,,,,
14.18.08.858,35.1,8.8,0,6.0,,94623.4,10.57,-0.09,0.39,0.91,0.0,4.7,-1.2,32.88,,,,,,,,,,
14.18.08.894,-8.3,2.1,0,6.0,,97450.2,10.26,-0.09,0.39,0.91,0.3,5.5,-0.9,32.88,,,,,,,,,,
14.18.08.907,-8.1,2.0,0,6.0,,93825.2,10.66,-0.09,0.4,0.91,0.8,6.2,-1.1,32.88,,,,,,,,,,
14.18.08.918,-6.9,1.7,0,6.0,,94175.7,10.62,-0.09,0.39,0.91,0.3,5.4,-1.5,32.88,,,,,,,,,,
14.18.08.927,-18.7,4.7,0,6.0,,94613.1,10.57,-0.09,0.4,0.92,0.3,5.2,-1.2,32.88,,,,,,,,,,
14.18.08.939,-25.0,6.2,0,6.0,,93467.9,10.7,-0.09,0.41,0.91,-0.1,6.5,-1.5,32.88,,,,,,,,,,
14.18.08.947,-23.5,5.9,0,6.0,,96113.1,10.4,-0.09,0.4,0.91,-0.7,5.4,-1.3,32.88,,,,,,,,,,
14.18.08.959,-31.2,7.8,0,6.0,,94011.9,10.64,-0.09,0.39,0.91,-0.2,5.3,-1.2,32.88,,,,,,,,,,
14.18.08.967,-36.2,9.0,0,6.0,,94215.2,10.61,-0.09,0.39,0.91,0.7,5.8,-0.9,32.88,,,,,,,,,,
14.18.08.980,-46.4,11.6,0,6.0,,94889.2,10.54,-0.09,0.39,0.9,1.6,5.4,-1.0,32.88,,,,,,,,,,
14.18.08.988,-46.4,11.6,0,6.0,,95174.4,10.51,-0.09,0.4,0.91,2.1,6.1,-0.8,32.88,,,,,,,,,,
14.18.09.000,-58.3,14.6,0,6.0,,93969.8,10.64,-0.09,0.4,0.91,0.9,7.3,-1.1,32.88,,,,,,,,,,
14.18.09.008,-54.6,13.6,0,6.0,,94068.9,10.63,-0.09,0.39,0.91,-0.1,5.0,-1.4,32.88,,,,,,,,,,
14.18.09.022,-70.0,17.5,0,6.0,,94983.6,10.53,-0.09,0.39,0.92,-0.4,4.9,-1.7,32.88,,,,,,,,,,
14.18.09.029,-68.5,17.1,0,6.0,,94925.9,10.53,-0.09,0.39,0.91,0.3,6.8,-1.4,32.88,,,,,,,,,,
14.18.09.041,-83.4,20.8,0,6.0,,95938.7,10.42,-0.09,0.4,0.91,0.7,6.2,-1.4,32.88,,,,,,,,,,
14.18.09.049,-69.6,17.4,0,6.0,,95139.8,10.51,-0.09,0.4,0.91,-0.4,6.8,-1.7,32.88,,,,,,,,,,
14.18.09.062,-75.9,19.0,0,6.0,,95158.5,10.51,-0.09,0.4,0.91,0.5,5.4,-1.3,32.88,,,,,,,,,,
14.18.09.070,-84.9,21.2,0,6.0,,95207.1,10.5,-0.09,0.39,0.91,-0.3,5.3,-1.5,32.88,,,,,,,,,,
14.18.09.082,-81.5,20.4,0,6.0,,94980.0,10.53,-0.09,0.39,0.91,0.1,5.6,-1.6,32.88,,,,,,,,,,
14.18.09.090,-86.3,21.6,0,6.0,,93995.6,10.64,-0.09,0.39,0.91,1.4,5.9,-1.1,32.88,,,,,,,,,,
14.18.09.103,-90.5,22.6,0,6.0,,94975.9,10.53,-0.09,0.41,0.91,1.4,6.7,-1.2,32.88,,,,,,,,,,
14.18.09.111,-102.8,25.7,0,6.0,,94601.7,10.57,-0.09,0.4,0.9,0.0,5.8,-1.4,32.88,,,,,,,,,,
14.18.09.123,-106.9,26.7,0,6.0,,93819.4,10.66,-0.09,0.4,0.91,0.0,5.0,-1.0,32.88,,,,,,,,,,
14.18.09.135,-124.1,31.0,0,6.0,,94976.0,10.53,-0.09,0.39,0.91,0.3,6.2,-1.0,32.88,,,,,,,,,,
14.18.09.144,-94.5,23.6,0,6.0,,94069.5,10.63,-0.09,0.39,0.91,0.6,6.0,-1.1,32.88,,,,,,,,,,
14.18.09.156,-122.6,30.6,0,6.0,,95602.4,10.46,-0.09,0.4,0.91,1.0,6.1,-1.5,32.88,,,,,,,,,,
14.18.09.165,-117.1,29.3,0,6.0,,94526.1,10.58,-0.09,0.41,0.91,0.5,7.2,-1.2,32.88,,,,,,,,,,
14.18.09.176,-122.0,30.5,0,6.0,,95719.2,10.45,-0.09,0.4,0.9,-0.3,5.5,-1.4,32.88,,,,,,,,,,
14.18.09.186,25.8,6.4,1,7.0,93.2,94362.6,10.6,-0.09,0.39,0.91,-0.6,4.9,-1.5,32.88,,,,,,,,,,
14.18.09.198,96.2,24.0,0,7.0,,95138.2,10.51,-0.09,0.39,0.91,0.0,6.5,-1.6,32.88,,,,,,,,,,
14.18.09.205,120.9,30.2,0,7.0,,94796.4,10.55,-0.09,0.39,0.91,0.8,5.6,-1.2,32.88,,,,,,,,,,
14.18.09.217,155.0,38.8,0,7.0,,94267.3,10.61,-0.09,0.4,0.91,1.0,6.0,-1.2,32.88,,,,,,,,,,
14.18.09.225,175.8,44.0,0,7.0,,94725.4,10.56,-0.09,0.4,0.91,0.9,7.0,-1.2,32.88,,,,,,,,,,
14.18.09.239,250.7,62.7,0,7.0,,94929.2,10.53,-0.09,0.4,0.91,0.5,5.1,-1.0,32.88,,,,,,,,,,
14.18.09.247,232.0,58.0,0,7.0,,95073.2,10.52,-0.09,0.39,0.91,0.2,5.3,-0.9,32.88,,,,,,,,,,
14.18.09.258,289.5,72.4,0,7.0,,93780.2,10.66,-0.09,0.39,0.91,1.2,5.8,-1.1,32.88,,,,,,,,,,
14.18.09.266,264.9,66.2,0,7.0,,95292.9,10.49,-0.09,0.4,0.91,2.2,6.7,-0.8,32.88,,,,,,,,,,
14.18.09.279,295.4,73.8,0,7.0,,94882.6,10.54,-0.09,0.4,0.91,0.8,6.8,-0.9,32.88,,,,,,,,,,
14.18.09.287,328.0,82.0,0,7.0,,95062.8,10.52,-0.09,0.4,0.91,-0.7,5.0,-1.1,32.88,,,,,,,,,,
14.18.09.299,303.2,75.8,0,7.0,,94256.2,10.61,-0.09,0.39,0.91,-0.2,5.1,-1.3,32.88,,,,,,,,,,
14.18.09.307,329.0,82.2,0,7.0,,93826.5,10.66,-0.09,0.39,0.92,0.5,5.9,-1.4,32.88,,,,,,,,,,
14.18.09.320,280.8,70.2,0,7.0,,94204.9,10.62,-0.09,0.4,0.91,1.2,6.1,-0.7,32.88,,,,,,,,,,
14.18.09.329,288.5,72.1,0,7.0,,95538.6,10.47,-0.09,0.4,0.91,0.9,6.3,-1.3,32.88,,,,,,,,,,
14.18.09.340,253.3,63.3,0,7.0,,93051.2,10.75,-0.09,0.39,0.91,0.5,5.5,-1.4,32.88,,,,,,,,,,
14.18.09.348,225.7,56.4,0,7.0,,94598.5,10.57,-0.09,0.39,0.91,1.4,6.2,-1.1,32.88,,,,,,,,,,
14.18.09.361,199.0,49.8,0,7.0,,95824.2,10.44,-0.09,0.4,0.91,1.8,6.7,-0.7,32.88,,,,,,,,,,
14.18.09.369,166.2,41.6,0,7.0,,94656.4,10.56,-0.09,0.4,0.91,0.6,5.8,-0.9,32.88,,,,,,,,,,
14.18.09.381,132.5,33.1,0,7.0,,94847.4,10.54,-0.09,0.4,0.91,0.5,5.6,-0.9,32.88,,,,,,,,,,
14.18.09.390,78.3,19.6,0,7.0,,93901.9,10.65,-0.09,0.39,0.91,0.7,7.2,-1.3,32.88,,,,,,,,,,
14.18.09.403,27.8,7.0,0,7.0,,95261.6,10.5,-0.09,0.39,0.91,0.4,5.7,-1.2,32.88,,,,,,,,,,
14.18.09.414,4.9,1.2,0,7.0,,95198.1,10.5,-0.09,0.4,0.91,0.3,5.6,-1.2,32.88,,,,,,,,,,
14.18.09.422,12.4,3.1,0,7.0,,94458.5,10.59,-0.09,0.39,0.92,0.6,6.4,-1.3,32.88,,,,,,,,,,
14.18.09.434,36.9,9.2,0,7.0,,94537.9,10.58,-0.09,0.4,0.91,0.4,5.9,-1.3,32.88,,,,,,,,,,
14.18.09.443,38.3,9.6,0,7.0,,94306.3,10.6,-0.09,0.4,0.91,-0.5,5.9,-1.6,32.88,,,,,,,,,,
14.18.09.455,53.4,13.4,0,7.0,,95940.4,10.42,-0.09,0.4,0.91,0.1,5.7,-1.4,32.88,,,,,,,,,,
14.18.09.464,54.3,13.6,0,7.0,,96104.2,10.41,-0.09,0.4,0.91,-0.2,5.6,-1.6,32.88,,,,,,,,,,
14.18.09.476,58.2,14.6,0,7.0,,95383.4,10.48,-0.09,0.39,0.91,-0.2,5.8,-1.5,32.88,,,,,,,,,,
14.18.09.484,69.4,17.4,0,7.0,,95463.6,10.48,-0.09,0.39,0.91,1.3,6.5,-1.0,32.88,,,,,,,,,,
14.18.09.497,47.9,12.0,0,7.0,,94765.4,10.55,-0.09,0.39,0.91,1.7,5.8,-1.0,32.88,,,,,,,,,,
14.18.09.505,43.0,10.8,0,7.0,,94956.4,10.53,-0.09,0.39,0.91,1.8,5.9,-1.1,32.88,,,,,,,,,,
14.18.09.516,37.7,9.4,0,7.0,,95875.2,10.43,-0.09,0.4,0.91,1.3,6.2,-0.7,32.88,,,,,,,,,,
14.18.09.525,31.1,7.8,0,7.0,,93486.1,10.7,-0.09,0.4,0.91,0.5,6.2,-1.0,32.88,91.9,,,,,,,,,
14.18.09.538,3.7,0.9,0,7.0,,94376.5,10.6,-0.09,0.4,0.9,-0.2,5.1,-1.4,32.88,,,,,,,,,,
14.18.09.546,-2.1,0.5,0,7.0,,94472.7,10.59,-0.09,0.4,0.91,-0.4,5.6,-1.6,32.88,,,,,,,,,,
14.18.09.557,-1.8,0.4,0,7.0,,94603.5,10.57,-0.09,0.4,0.91,-0.1,7.1,-1.7,32.88,,,,,,,,,,
14.18.09.565,-13.7,3.4,0,7.0,,95519.8,10.47,-0.09,0.4,0.91,-0.1,5.0,-1.6,32.88,,,,,,,,,,
14.18.09.579,-13.2,3.3,0,7.0,,95191.7,10.51,-0.09,0.4,0.92,0.0,6.2,-1.1,32.88,,,,,,,,,,
14.18.09.591,-20.1,5.0,0,7.0,,95218.7,10.5,-0.09,0.39,0.9,0.8,6.1,-1.1,32.88,,,,,,,,,,
14.18.09.599,-19.4,4.8,0,7.0,,95456.8,10.48,-0.09,0.39,0.91,0.3,5.5,-1.6,32.88,,,,,,,,,,
14.18.09.611,-30.1,7.5,0,7.0,,95258.5,10.5,-0.09,0.39,0.91,0.0,5.3,-1.5,32.88,,,,,,,,,,
14.18.09.619,-29.5,7.4,0,7.0,,94141.8,10.62,-0.09,0.4,0.91,-0.2,5.1,-1.8,32.88,,,,,,,,,,
14.18.09.632,-36.9,9.2,0,7.0,,95234.9,10.5,-0.09,0.4,0.91,0.0,7.8,-1.8,32.88,,,,,,,,,,
14.18.09.640,-46.7,11.7,0,7.0,,93636.7,10.68,-0.09,0.4,0.91,-0.5,4.7,-1.8,32.88,,,,,,,,,,
14.18.09.652,-40.8,10.2,0,7.0,,95117.8,10.51,-0.09,0.4,0.91,-0.6,5.7,-1.6,32.88,,,,,,,,,,
14.18.09.660,-48.9,12.2,0,7.0,,94994.6,10.53,-0.09,0.4,0.91,0.7,5.9,-1.4,32.88,,,,,,,,,,
14.18.09.696,-66.5,16.6,0,7.0,,94471.7,10.59,-0.09,0.4,0.91,0.8,4.7,-1.2,32.94,,,,,,,,,,
14.18.09.709,-77.1,19.3,0,7.0,,94949.9,10.53,-0.09,0.41,0.91,-0.2,5.1,-1.4,32.94,,,,,,,,,,
14.18.09.721,-69.4,17.4,0,7.0,,93511.1,10.69,-0.09,0.39,0.9,-1.1,5.3,-1.5,32.94,,,,,,,,,,
14.18.09.730,-79.0,19.8,0,7.0,,95798.0,10.44,-0.09,0.4,0.92,0.4,4.6,-0.9,32.94,,,,,,,,,,
14.18.09.742,-85.2,21.3,0,7.0,,94971.5,10.53,-0.1,0.39,0.92,0.8,5.6,-1.0,32.94,,,,,,,,,,
14.18.09.750,-90.8,22.7,0,7.0,,95743.4,10.44,-0.09,0.39,0.91,1.2,5.8,-0.5,32.94,,,,,,,,,,
14.18.09.764,-91.3,22.8,0,7.0,,93187.7,10.73,-0.09,0.4,0.91,2.3,7.0,-0.5,32.94,,,,,,,,,,
14.18.09.770,-96.6,24.2,0,7.0,,94041.1,10.63,-0.09,0.39,0.91,1.3,6.0,-1.0,32.94,,,,,,,,,,
14.18.09.783,-109.2,27.3,0,7.0,,95031.7,10.52,-0.1,0.39,0.93,0.7,5.4,-1.2,32.94,,,,,,,,,,
14.18.09.792,-103.4,25.8,0,7.0,,94969.0,10.53,-0.09,0.4,0.9,0.7,5.9,-1.3,32.94,,,,,,,,,,
14.18.09.803,-101.7,25.4,0,7.0,,93315.4,10.72,-0.1,0.4,0.92,0.0,5.6,-1.7,32.94,,,,,,,,,,
14.18.09.812,-105.0,26.2,0,7.0,,94608.6,10.57,-0.09,0.4,0.91,-0.3,5.5,-1.4,32.94,,,,,,,,,,
14.18.09.825,-132.9,33.2,0,7.0,,94240.4,10.61,-0.09,0.4,0.91,-0.5,4.9,-1.5,32.94,,,,,,,,,,
14.18.09.832,-113.7,28.4,0,7.0,,95610.2,10.46,-0.09,0.39,0.91,-0.5,4.4,-1.2,32.94,,,,,,,,,,
14.18.09.844,12.8,3.2,1,8.0,86.9,95838.2,10.43,-0.09,0.39,0.91,0.5,5.8,-1.0,32.94,,,,,,,,,,
14.18.09.852,46.3,11.6,0,8.0,,96263.4,10.39,-0.09,0.39,0.91,1.0,5.1,-1.1,32.94,,,,,,,,,,
14.18.09.865,84.6,21.2,0,8.0,,94694.7,10.56,-0.09,0.4,0.91,1.7,6.9,-1.3,32.94,,,,,,,,,,
14.18.09.873,121.8,30.4,0,8.0,,94778.7,10.55,-0.09,0.4,0.91,0.6,5.8,-1.3,32.94,,,,,,,,,,
14.18.09.885,185.1,46.3,0,8.0,,93890.6,10.65,-0.1,0.4,0.9,-2.0,5.3,-1.9,32.94,,,,,,,,,,
14.18.09.894,224.6,56.2,0,8.0,,96654.2,10.35,-0.09,0.38,0.9,-1.7,4.6,-1.8,32.94,,,,,,,,,,
14.18.09.905,228.8,57.2,0,8.0,,96072.6,10.41,-0.09,0.39,0.91,-0.4,6.2,-1.9,32.94,,,,,,,,,,
14.18.09.914,252.3,63.1,0,8.0,,94057.9,10.63,-0.09,0.39,0.91,0.2,7.8,-2.1,32.94,,,,,,,,,,
14.18.09.926,273.5,68.4,0,8.0,,95489.4,10.47,-0.09,0.4,0.9,0.2,6.1,-2.1,32.94,,,,,,,,,,
14.18.09.938,304.1,76.0,0,8.0,,96556.2,10.36,-0.09,0.41,0.91,-1.2,6.8,-2.1,32.94,,,,,,,,,,
14.18.09.947,321.7,80.4,0,8.0,,93965.6,10.64,-0.09,0.4,0.91,-0.9,6.3,-1.7,32.94,,,,,,,,,,
14.18.09.959,325.1,81.3,0,8.0,,94057.2,10.63,-0.09,0.4,0.91,-1.2,5.3,-2.0,32.94,,,,,,,,,,
14.18.09.967,353.1,88.3,0,8.0,,95006.8,10.53,-0.09,0.39,0.92,-1.1,5.4,-1.8,32.94,,,,,,,,,,
14.18.09.979,297.7,74.4,0,8.0,,94822.2,10.55,-0.09,0.38,0.91,-0.1,5.5,-1.3,32.94,,,,,,,,,,
14.18.09.988,314.6,78.6,0,8.0,,95054.5,10.52,-0.09,0.38,0.91,0.5,5.8,-1.7,32.94,,,,,,,,,,
14.18.10.000,290.1,72.5,0,8.0,,96302.2,10.38,-0.09,0.4,0.91,1.4,7.4,-1.1,32.94,,,,,,,,,,
14.18.10.009,249.9,62.5,0,8.0,,95013.6,10.52,-0.09,0.4,0.9,1.0,5.7,-1.0,32.94,,,,,,,,,,
14.18.10.021,207.3,51.8,0,8.0,,94604.6,10.57,-0.09,0.4,0.91,-0.2,5.5,-1.4,32.94,,,,,,,,,,
14.18.10.029,182.7,45.7,0,8.0,,94957.9,10.53,-0.09,0.39,0.91,0.1,5.4,-1.0,32.94,,,,,,,,,,
14.18.10.042,137.0,34.2,0,8.0,,94913.8,10.54,-0.09,0.4,0.91,0.7,6.1,-1.1,32.94,,,,,,,,,,
14.18.10.050,101.8,25.4,0,8.0,,94882.1,10.54,-0.09,0.4,0.91,0.3,5.4,-0.8,32.94,,,,,,,,,,
14.18.10.061,64.6,16.2,0,8.0,,94465.0,10.59,-0.09,0.39,0.91,0.0,5.5,-1.5,32.94,,,,,,,,,,
14.18.10.070,18.1,4.5,0,8.0,,94537.3,10.58,-0.1,0.39,0.91,0.3,4.2,-1.0,32.94,,,,,,,,,,
14.18.10.082,9.2,2.3,0,8.0,,94560.9,10.58,-0.09,0.38,0.91,0.9,6.4,-1.4,32.94,,,,,,,,,,
14.18.10.091,22.5,5.6,0,8.0,,94540.6,10.58,-0.09,0.39,0.91,1.1,6.3,-1.5,32.94,,,,,,,,,,
14.18.10.102,34.9,8.7,0,8.0,,95487.8,10.47,-0.09,0.4,0.91,0.9,6.5,-1.1,32.94,,,,,,,,,,
14.18.10.110,32.9,8.2,0,8.0,,94258.1,10.61,-0.09,0.4,0.91,-0.2,6.3,-1.1,32.94,,,,,,,,,,
14.18.10.124,55.5,13.9,0,8.0,,94338.2,10.6,-0.09,0.39,0.9,0.0,5.3,-1.4,32.94,,,,,,,,,,
14.18.10.131,67.2,16.8,0,8.0,,95557.8,10.46,-0.09,0.4,0.91,0.4,5.8,-1.5,32.94,,,,,,,,,,
14.18.10.143,58.1,14.5,0,8.0,,94751.9,10.55,-0.09,0.39,0.91,0.7,6.7,-0.7,32.94,,,,,,,,,,
14.18.10.151,57.3,14.3,0,8.0,,94329.6,10.6,-0.09,0.39,0.9,1.1,4.5,-0.8,32.94,,,,,,,,,,
14.18.10.164,54.3,13.6,0,8.0,,95359.1,10.49,-0.09,0.39,0.92,1.4,5.1,-0.8,32.94,,,,,,,,,,
14.18.10.172,46.2,11.6,0,8.0,,97430.5,10.26,-0.09,0.4,0.91,2.2,6.8,-0.9,32.94,,,,,,,,,,
14.18.10.184,23.2,5.8,0,8.0,,95382.4,10.48,-0.09,0.4,0.9,1.9,5.8,-0.8,32.94,,,,,,,,,,
14.18.10.193,9.8,2.4,0,8.0,,94700.0,10.56,-0.09,0.39,0.91,1.0,6.1,-0.7,32.94,,,,,,,,,,
14.18.10.206,11.1,2.8,0,8.0,,95567.3,10.46,-0.09,0.4,0.91,1.1,5.8,-0.9,32.94,,,,,,,,,,
14.18.10.218,-2.5,0.6,0,8.0,,96137.9,10.4,-0.09,0.4,0.91,1.9,7.1,-0.6,32.94,,,,,,,,,,
14.18.10.226,-11.0,2.8,0,8.0,,93775.8,10.66,-0.09,0.41,0.91,1.1,6.6,-0.6,32.94,,,,,,,,,,
14.18.10.237,-9.6,2.4,0,8.0,,95373.9,10.49,-0.09,0.4,0.91,0.7,6.0,-0.8,32.94,,,,,,,,,,
14.18.10.246,-19.0,4.8,0,8.0,,95214.6,10.5,-0.09,0.39,0.92,1.0,5.3,-1.0,32.94,,,,,,,,,,
14.18.10.258,-20.1,5.0,0,8.0,,95628.2,10.46,-0.09,0.39,0.92,1.6,6.1,-0.7,32.94,,,,,,,,,,
14.18.10.266,-28.3,7.1,0,8.0,,93758.4,10.67,-0.09,0.4,0.91,1.3,6.5,-1.4,32.94,,,,,,,,,,
14.18.10.274,-25.3,6.3,0,8.0,,94371.9,10.6,-0.1,0.4,0.91,0.6,5.4,-1.3,32.94,,,,,,,,,,
14.18.10.291,-32.9,8.2,0,8.0,,94888.8,10.54,-0.09,0.4,0.92,0.4,7.1,-1.5,32.94,,,,,,,,,,
14.18.10.299,-39.2,9.8,0,8.0,,95331.4,10.49,-0.09,0.4,0.9,-0.4,6.9,-1.8,32.94,,,,,,,,,,
14.18.10.312,-38.6,9.6,0,8.0,,94144.0,10.62,-0.09,0.4,0.92,-1.2,4.5,-1.7,32.94,,,,,,,,,,
14.18.10.319,-49.1,12.3,0,8.0,,95404.1,10.48,-0.09,0.39,0.91,-0.2,6.3,-1.8,32.94,,,,,,,,,,
14.18.10.333,-64.7,16.2,0,8.0,,94700.3,10.56,-0.09,0.39,0.91,0.4,5.3,-1.4,32.94,,,,,,,,,,
14.18.10.341,-66.8,16.7,0,8.0,,94068.5,10.63,-0.09,0.39,0.92,0.2,5.6,-1.6,32.94,,,,,,,,,,
14.18.10.352,-60.9,15.2,0,8.0,,96152.7,10.4,-0.09,0.39,0.91,0.8,5.9,-1.5,32.94,,,,,,,,,,
14.18.10.361,-64.3,16.1,0,8.0,,95108.0,10.51,-0.09,0.4,0.91,0.8,6.3,-1.5,32.94,,,,,,,,,,
14.18.10.373,-69.4,17.4,0,8.0,,95364.1,10.49,-0.09,0.4,0.91,-0.1,7.1,-1.6,32.94,,,,,,,,,,
14.18.10.381,-76.9,19.2,0,8.0,,95957.7,10.42,-0.09,0.4,0.9,-0.6,4.7,-1.7,32.94,,,,,,,,,,
14.18.10.393,-82.0,20.5,0,8.0,,94916.2,10.54,-0.09,0.4,0.91,-1.1,5.2,-1.3,32.94,,,,,,,,,,
14.18.10.401,-91.0,22.8,0,8.0,,94858.8,10.54,-0.09,0.39,0.91,-0.3,6.4,-1.7,32.94,,,,,,,,,,
14.18.10.415,-104.4,26.1,0,8.0,,95360.6,10.49,-0.09,0.39,0.91,0.3,6.5,-1.5,32.94,,,,,,,,,,
14.18.10.422,-102.8,25.7,0,8.0,,94885.7,10.54,-0.09,0.4,0.91,0.5,4.8,-1.4,32.94,,,,,,,,,,
14.18.10.434,-99.1,24.8,0,8.0,,94939.9,10.53,-0.09,0.4,0.92,-0.2,6.2,-1.6,32.94,,,,,,,,,,
14.18.10.442,-89.3,22.3,0,8.0,,95545.2,10.47,-0.09,0.4,0.91,0.3,5.5,-1.6,32.94,,,,,,,,,,
14.18.10.454,-112.2,28.0,0,8.0,,95075.5,10.52,-0.09,0.4,0.92,-0.6,5.8,-1.8,32.94,,,,,,,,,,
14.18.10.463,-109.6,27.4,0,8.0,,94489.6,10.58,-0.09,0.39,0.91,-1.6,5.3,-1.8,32.94,,,,,,,,,,
14.18.10.500,-115.1,28.8,0,8.0,,93994.0,10.64,-0.09,0.39,0.92,-0.7,5.4,-2.0,32.88,,,,,,,,,,
14.18.10.513,33.8,8.4,1,9.0,88.9,93858.5,10.65,-0.09,0.39,0.9,0.6,6.6,-1.4,32.88,,,,,,,,,,
14.18.10.525,90.3,22.6,0,9.0,,94849.3,10.54,-0.09,0.4,0.91,0.8,6.4,-1.4,32.88,,,,,,,,,,
14.18.10.533,112.0,28.0,0,9.0,,94576.7,10.57,-0.09,0.4,0.91,0.3,5.0,-1.4,32.88,,,,,,,,,,
14.18.10.546,155.8,39.0,0,9.0,,93500.4,10.7,-0.09,0.4,0.91,-1.0,6.1,-1.5,32.88,,,,,,,,,,
14.18.10.554,192.6,48.2,0,9.0,,94793.6,10.55,-0.09,0.39,0.91,-1.0,5.1,-1.4,32.88,,,,,,,,,,
14.18.10.565,214.8,53.7,0,9.0,,95942.5,10.42,-0.09,0.39,0.92,-0.7,5.4,-1.5,32.88,,,,,,,,,,
14.18.10.573,247.1,61.8,0,9.0,,94587.5,10.57,-0.09,0.39,0.91,0.0,5.6,-1.3,32.88,,,,,,,,,,
14.18.10.586,277.9,69.5,0,9.0,,94777.7,10.55,-0.09,0.39,0.91,0.4,5.0,-1.1,32.88,,,,,,,,,,
14.18.10.594,302.1,75.5,0,9.0,,94668.2,10.56,-0.09,0.39,0.92,0.9,6.4,-1.5,32.88,,,,,,,,,,
14.18.10.606,329.2,82.3,0,9.0,,96355.0,10.38,-0.09,0.4,0.91,1.6,6.4,-1.2,32.88,,,,,,,,,,
14.18.10.614,323.8,81.0,0,9.0,,95019.5,10.52,-0.09,0.4,0.91,0.7,6.0,-1.3,32.88,,,,,,,,,,
14.18.10.627,324.2,81.0,0,9.0,,94474.3,10.58,-0.09,0.4,0.91,-0.5,5.9,-1.0,32.88,,,,,,,,,,
14.18.10.637,308.4,77.1,0,9.0,,95115.4,10.51,-0.09,0.39,0.91,-0.1,5.3,-1.4,32.88,,,,,,,,,,
14.18.10.647,312.6,78.2,0,9.0,,94699.9,10.56,-0.09,0.39,0.91,0.7,5.6,-1.2,32.88,,,,,,,,,,
14.18.10.655,287.1,71.8,0,9.0,,93224.0,10.73,-0.09,0.39,0.91,1.0,5.5,-1.2,32.88,,,,,,,,,,
14.18.10.669,209.5,52.4,0,9.0,,94522.4,10.58,-0.09,0.4,0.91,0.9,5.6,-1.2,32.88,,,,,,,,,,
14.18.10.676,217.1,54.3,0,9.0,,94678.7,10.56,-0.1,0.4,0.91,0.8,6.4,-1.3,32.88,,,,,,,,,,
14.18.10.688,189.5,47.4,0,9.0,,93908.0,10.65,-0.09,0.39,0.91,0.7,6.2,-0.7,32.88,,,,,,,,,,
14.18.10.696,177.1,44.3,0,9.0,,94627.5,10.57,-0.09,0.4,0.91,0.5,5.3,-0.8,32.88,,,,,,,,,,
14.18.10.709,132.2,33.0,0,9.0,,94279.5,10.61,-0.09,0.39,0.91,-0.1,5.5,-0.9,32.88,,,,,,,,,,
14.18.10.718,84.0,21.0,0,9.0,,94062.5,10.63,-0.09,0.39,0.91,-0.1,6.5,-1.8,32.88,,,,,,,,,,
14.18.10.729,37.2,9.3,0,9.0,,94710.9,10.56,-0.09,0.39,0.91,0.4,5.9,-1.2,32.88,,,,,,,,,,
14.18.10.741,2.9,0.7,0,9.0,,95070.4,10.52,-0.09,0.4,0.91,-0.7,6.0,-1.5,32.88,,,,,,,,,,
14.18.10.750,6.6,1.6,0,9.0,,95676.5,10.45,-0.09,0.4,0.91,-1.2,6.4,-2.2,32.88,,,,,,,,,,
14.18.10.763,28.5,7.1,0,9.0,,94600.5,10.57,-0.09,0.4,0.9,-1.3,5.4,-1.8,32.88,,,,,,,,,,
14.18.10.770,44.1,11.0,0,9.0,,95688.0,10.45,-0.09,0.39,0.92,-1.3,5.8,-2.3,32.88,,,,,,,,,,
14.18.10.783,50.1,12.5,0,9.0,,94475.3,10.58,-0.09,0.38,0.91,-0.7,5.4,-2.0,32.88,,,,,,,,,,
14.18.10.790,49.6,12.4,0,9.0,,92503.9,10.81,-0.09,0.39,0.92,0.6,5.0,-1.9,32.88,,,,,,,,,,
14.18.10.803,66.5,16.6,0,9.0,,95929.0,10.42,-0.08,0.4,0.91,0.9,7.1,-1.5,32.88,,,,,,,,,,
14.18.10.812,60.0,15.0,0,9.0,,95807.8,10.44,-0.1,0.4,0.91,0.5,5.8,-1.3,32.88,,,,,,,,,,
14.18.10.824,48.9,12.2,0,9.0,,93832.5,10.66,-0.09,0.4,0.91,-0.1,4.2,-1.4,32.88,,,,,,,,,,
14.18.10.832,47.7,11.9,0,9.0,,95466.6,10.47,-0.09,0.39,0.91,0.6,6.0,-1.1,32.88,,,,,,,,,,
14.18.10.845,36.4,9.1,0,9.0,,95233.7,10.5,-0.09,0.39,0.92,1.3,6.2,-0.9,32.88,,,,,,,,,,
14.18.10.853,12.4,3.1,0,9.0,,94609.3,10.57,-0.09,0.38,0.91,0.8,5.1,-0.7,32.88,,,,,,,,,,
14.18.10.865,2.4,0.6,0,9.0,,95549.2,10.47,-0.09,0.38,0.92,1.8,5.7,-1.1,32.88,,,,,,,,,,
14.18.10.872,-3.7,0.9,0,9.0,,94664.5,10.56,-0.09,0.39,0.91,2.8,7.2,-0.9,32.88,,,,,,,,,,
14.18.10.885,-7.5,1.9,0,9.0,,95279.7,10.5,-0.09,0.4,0.91,1.4,7.2,-1.4,32.88,,,,,,,,,,
14.18.10.894,-6.5,1.6,0,9.0,,94945.4,10.53,-0.09,0.4,0.91,-0.6,6.1,-1.9,32.88,,,,,,,,,,
14.18.10.906,-6.1,1.5,0,9.0,,95444.5,10.48,-0.09,0.4,0.91,-1.4,6.1,-2.1,32.88,,,,,,,,,,
14.18.10.914,-19.3,4.8,0,9.0,,94228.8,10.61,-0.09,0.4,0.91,-0.9,5.8,-1.9,32.88,,,,,,,,,,
14.18.10.926,-25.5,6.4,0,9.0,,95655.5,10.45,-0.09,0.39,0.91,-1.4,5.1,-1.8,32.88,,,,,,,,,,
14.18.10.938,-30.8,7.7,0,9.0,,95358.1,10.49,-0.09,0.39,0.92,-0.6,5.4,-1.8,32.88,,,,,,,,,,
14.18.10.947,-26.5,6.6,0,9.0,,95843.9,10.43,-0.09,0.38,0.92,0.4,5.7,-1.4,32.88,,,,,,,,,,
14.18.10.958,-34.3,8.6,0,9.0,,94722.8,10.56,-0.09,0.38,0.91,1.4,5.5,-1.3,32.88,,,,,,,,,,
14.18.10.967,-42.7,10.7,0,9.0,,95785.2,10.44,-0.09,0.39,0.91,2.6,5.8,-0.9,32.88,,,,,,,,,,
14.18.10.986,-42.9,10.7,0,9.0,,94677.8,10.56,-0.09,0.4,0.91,2.8,7.3,-1.1,32.88,,,,,,,,,,
14.18.10.988,-49.6,12.4,0,9.0,,94428.7,10.59,-0.09,0.4,0.9,1.6,6.4,-0.7,32.88,,,,,,,,,,
14.18.10.999,-45.2,11.3,0,9.0,,94145.1,10.62,-0.09,0.4,0.91,-0.1,4.4,-0.9,32.88,,,,,,,,,,
14.18.11.012,-59.4,14.8,0,9.0,,95149.6,10.51,-0.09,0.39,0.92,0.2,4.5,-0.9,32.88,,,,,,,,,,
14.18.11.020,-65.6,16.4,0,9.0,,95361.3,10.49,-0.09,0.39,0.92,1.9,6.5,-0.3,32.88,,,,,,,,,,
14.18.11.032,-57.2,14.3,0,9.0,,92682.0,10.79,-0.09,0.39,0.91,2.3,5.5,-0.5,32.88,,,,,,,,,,
14.18.11.041,-82.8,20.7,0,9.0,,96199.1,10.4,-0.09,0.39,0.9,2.0,4.9,-0.6,32.88,,,,,,,,,,
14.18.11.054,-79.9,20.0,0,9.0,,95096.9,10.52,-0.09,0.4,0.91,1.7,7.0,-1.2,32.88,,,,,,,,,,
14.18.11.062,-85.6,21.4,0,9.0,,95402.2,10.48,-0.1,0.4,0.91,1.0,7.3,-1.5,32.88,,,,,,,,,,
14.18.11.073,-90.7,22.7,0,9.0,,94116.0,10.63,-0.09,0.4,0.91,-1.2,7.0,-2.0,32.88,,,,,,,,,,
14.18.11.082,-94.9,23.7,0,9.0,,94932.8,10.53,-0.09,0.4,0.91,-3.0,6.8,-2.9,32.88,,,,,,,,,,
14.18.11.095,-89.8,22.4,0,9.0,,95162.0,10.51,-0.09,0.39,0.9,-2.8,6.5,-2.8,32.88,,,,,,,,,,
14.18.11.102,-101.2,25.3,0,9.0,,94088.3,10.63,-0.09,0.39,0.91,-3.2,7.0,-3.2,32.88,,,,,,,,,,
14.18.11.115,-98.1,24.5,0,9.0,,96715.9,10.34,-0.09,0.39,0.91,-3.7,6.7,-3.4,32.88,,,,,,,,,,
14.18.11.122,-114.0,28.5,0,9.0,,94243.0,10.61,-0.09,0.41,0.91,-3.0,6.1,-2.8,32.88,,,,,,,,,,
14.18.11.135,-112.1,28.0,0,9.0,,94901.0,10.54,-0.08,0.41,0.92,-2.8,6.1,-1.9,32.88,,,,,,,,,,
14.18.11.144,-112.4,28.1,0,9.0,,95511.0,10.47,-0.08,0.39,0.92,-3.3,7.1,-1.2,32.88,,,,,,,,,,
14.18.11.156,-122.9,30.7,0,9.0,,94679.2,10.56,-0.09,0.36,0.91,-0.8,5.7,-0.5,32.88,,,,,,,,,,
14.18.11.164,-124.0,31.0,0,9.0,,94080.1,10.63,-0.1,0.35,0.92,4.3,5.5,0.7,32.88,,,,,,,,,,
14.18.11.176,22.7,5.7,1,10.0,88.8,94530.7,10.58,-0.09,0.39,0.94,7.6,5.0,2.3,32.88,,,,,,,,,,
14.18.11.184,59.2,14.8,0,10.0,,94403.5,10.59,-0.09,0.38,0.9,8.2,7.3,2.4,32.88,,,,,,,,,,
14.18.11.197,119.2,29.8,0,10.0,,94412.3,10.59,-0.09,0.39,0.92,9.9,1.3,3.9,32.88,,,,,,,,,,
14.18.11.204,151.8,38.0,0,10.0,,94884.7,10.54,-0.09,0.4,0.92,9.2,5.4,2.7,32.88,,,,,,,,,,
14.18.11.216,183.2,45.8,0,10.0,,95315.1,10.49,-0.09,0.4,0.91,8.7,5.8,2.6,32.88,,,,,,,,,,
14.18.11.226,215.4,53.8,0,10.0,,95188.1,10.51,-0.09,0.41,0.91,6.2,5.1,1.8,32.88,,,,,,,,,,
14.18.11.237,252.3,63.1,0,10.0,,94228.7,10.61,-0.09,0.41,0.9,2.4,6.4,0.2,32.88,,,,,,,,,,
14.18.11.246,261.7,65.4,0,10.0,,95094.6,10.52,-0.09,0.41,0.91,-0.2,3.8,-0.7,32.88,,,,,,,,,,
14.18.11.257,291.1,72.8,0,10.0,,94223.5,10.61,-0.09,0.4,0.92,-2.2,4.9,-2.4,32.88,,,,,,,,,,
14.18.11.266,279.2,69.8,0,10.0,,95786.7,10.44,-0.09,0.4,0.91,-4.2,5.9,-3.3,32.88,,,,,,,,,,
14.18.11.303,298.8,74.7,0,10.0,,95337.3,10.49,-0.09,0.4,0.91,-5.3,4.5,-4.0,32.94,,,,,,,,,,
14.18.11.316,269.4,67.4,0,10.0,,95275.9,10.5,-0.08,0.39,0.91,-5.3,5.5,-6.3,32.94,,,,,,,,,,
14.18.11.327,258.4,64.6,0,10.0,,94090.3,10.63,-0.09,0.39,0.9,-6.1,4.3,-6.5,32.94,,,,,,,,,,
14.18.11.336,246.0,61.5,0,10.0,,95569.5,10.46,-0.09,0.4,0.92,-7.3,2.2,-5.8,32.94,,,,,,,,,,
14.18.11.349,216.1,54.0,0,10.0,,95642.5,10.46,-0.09,0.4,0.92,-7.4,3.4,-6.4,32.94,,,,,,,,,,
14.18.11.356,200.9,50.2,0,10.0,,94431.0,10.59,-0.09,0.39,0.91,-5.8,3.8,-6.6,32.94,,,,,,,,,,
14.18.11.369,117.6,29.4,0,10.0,,94300.0,10.6,-0.09,0.38,0.9,-6.9,2.8,-6.1,32.94,,,,,,,,,,
14.18.11.377,96.1,24.0,0,10.0,,94918.8,10.54,-0.1,0.38,0.92,-4.9,2.5,-5.8,32.94,,,,,,,,,,
14.18.11.389,50.0,12.5,0,10.0,,94508.2,10.58,-0.09,0.36,0.91,-2.1,5.1,-5.5,32.94,,,,,,,,,,
14.18.11.398,21.0,5.2,0,10.0,,95004.2,10.53,-0.09,0.37,0.9,-0.8,3.7,-4.1,32.94,,,,,,,,,,
14.18.11.410,5.5,1.4,0,10.0,,94516.2,10.58,-0.09,0.39,0.92,0.5,5.2,-4.4,32.94,,,,,,,,,,
14.18.11.417,8.7,2.2,0,10.0,,94882.7,10.54,-0.09,0.4,0.91,0.7,9.3,-4.5,32.94,,,,,,,,,,
14.18.11.430,36.2,9.0,0,10.0,,93780.7,10.66,-0.09,0.4,0.9,-0.3,6.9,-4.2,32.94,,,,,,,,,,
14.18.11.438,43.4,10.8,0,10.0,,94731.2,10.56,-0.1,0.39,0.91,-4.2,5.4,-4.5,32.94,,,,,,,,,,
14.18.11.450,56.6,14.2,0,10.0,,94433.9,10.59,-0.09,0.39,0.92,-5.8,5.3,-5.3,32.94,,,,,,,,,,
14.18.11.458,51.0,12.8,0,10.0,,94625.0,10.57,-0.09,0.37,0.91,-5.6,5.5,-6.9,32.94,,,,,,,,,,
14.18.11.471,57.0,14.2,0,10.0,,95206.7,10.5,-0.08,0.36,0.91,-5.6,4.4,-6.7,32.94,,,,,,,,,,
14.18.11.483,46.0,11.5,0,10.0,,94302.3,10.6,-0.09,0.37,0.92,-5.2,6.1,-8.4,32.94,,,,,,,,,,
14.18.11.492,54.0,13.5,0,10.0,,96653.1,10.35,-0.09,0.39,0.94,-2.7,7.2,-8.2,32.94,,,,,,,,,,
14.18.11.504,37.2,9.3,0,10.0,,96221.0,10.39,-0.1,0.4,0.91,-2.5,5.7,-6.8,32.94,,,,,,,,,,
14.18.11.512,27.2,6.8,0,10.0,,96119.4,10.4,-0.1,0.38,0.91,-5.5,2.2,-6.9,32.94,,,,,,,,,,
14.18.11.524,18.1,4.5,0,10.0,,93703.8,10.67,-0.1,0.38,0.92,-4.9,1.8,-6.3,32.94,,,,,,,,,,
14.18.11.532,0.9,0.2,0,10.0,,95061.1,10.52,-0.09,0.36,0.92,-3.8,5.6,-6.5,32.94,,,,,,,,,,
14.18.11.545,1.5,0.4,0,10.0,,93495.2,10.7,-0.09,0.36,0.91,-4.1,3.5,-9.2,32.94,,,,,,,,,,
14.18.11.557,-9.1,2.3,0,10.0,,93747.5,10.67,-0.08,0.4,0.93,-5.5,3.1,-8.1,32.94,,,,,,,,,,
14.18.11.565,-1.1,0.3,0,10.0,,93660.6,10.68,-0.08,0.41,0.92,-4.3,6.3,-5.9,32.94,,,,,,,,,,
14.18.11.577,-21.9,5.5,0,10.0,,95342.9,10.49,-0.08,0.38,0.92,-3.5,4.6,-1.9,32.94,,,,,,,,,,
14.18.11.585,-19.2,4.8,0,10.0,,94153.8,10.62,-0.09,0.34,0.93,0.0,2.2,1.2,32.94,,,,,,,,,,
14.18.11.598,-23.2,5.8,0,10.0,,93917.1,10.65,-0.1,0.32,0.92,9.6,7.1,4.0,32.94,,,,,,,,,,
14.18.11.606,-31.5,7.9,0,10.0,,94333.2,10.6,-0.1,0.33,0.92,18.4,10.2,5.8,32.94,,,,,,,,,,
14.18.11.618,-31.9,8.0,0,10.0,,95239.5,10.5,-0.1,0.36,0.92,18.9,8.2,6.9,32.94,,,,,,,,,,
14.18.11.627,-34.0,8.5,0,10.0,,94600.8,10.57,-0.1,0.38,0.91,17.0,9.1,6.0,32.94,,,,,,,,,,
14.18.11.639,-47.0,11.8,0,10.0,,95809.4,10.44,-0.1,0.39,0.91,14.9,9.2,5.4,32.94,,,,,,,,,,
14.18.11.647,-38.5,9.6,0,10.0,,95405.1,10.48,-0.1,0.41,0.91,13.0,10.8,3.2,32.94,,,,,,,,,,
14.18.11.659,-52.6,13.2,0,10.0,,95207.6,10.5,-0.09,0.42,0.91,8.0,7.0,2.2,32.94,,,,,,,,,,
14.18.11.668,-46.8,11.7,0,10.0,,96220.7,10.39,-0.09,0.42,0.92,0.8,8.9,-0.9,32.94,,,,,,,,,,
14.18.11.680,-52.8,13.2,0,10.0,,95390.2,10.48,-0.09,0.4,0.9,-1.7,6.2,-2.0,32.94,,,,,,,,,,
14.18.11.688,-67.2,16.8,0,10.0,,93929.0,10.65,-0.08,0.4,0.91,-4.9,6.1,-4.4,32.94,,,,,,,,,,
14.18.11.700,-64.2,16.0,0,10.0,,94703.2,10.56,-0.09,0.4,0.91,-7.5,5.1,-5.5,32.94,,,,,,,,,,
14.18.11.709,-64.9,16.2,0,10.0,,95811.2,10.44,-0.09,0.4,0.92,-7.9,6.4,-6.0,32.94,,,,,,,,,,
14.18.11.720,-74.9,18.7,0,10.0,,96186.3,10.4,-0.1,0.4,0.92,-9.1,5.6,-6.1,32.94,,,,,,,,,,
14.18.11.734,-90.6,22.6,0,10.0,,94074.8,10.63,-0.1,0.38,0.92,-10.0,2.1,-5.9,32.94,,,,,,,,,,
14.18.11.741,-89.0,22.2,0,10.0,,94921.6,10.54,-0.1,0.36,0.93,-9.6,1.8,-5.9,32.94,,,,,,,,,,
14.18.11.753,-96.1,24.0,0,10.0,,96782.4,10.33,-0.1,0.35,0.92,-7.0,2.8,-5.3,32.94,,,,,,,,,,
14.18.11.762,-97.7,24.4,0,10.0,,93127.5,10.74,-0.1,0.36,0.91,-3.2,2.5,-4.3,32.94,,,,,,,,,,
14.18.11.774,-103.0,25.8,0,10.0,,93963.1,10.64,-0.1,0.37,0.93,-1.4,4.3,-2.7,32.94,,,,,,,,,,
14.18.11.783,-110.1,27.5,0,10.0,,93280.2,10.72,-0.09,0.38,0.92,0.4,6.3,-2.0,32.94,,,,,,,,,,
14.18.11.795,-106.9,26.7,0,10.0,,95549.3,10.47,-0.09,0.38,0.92,1.3,6.8,-1.2,32.94,,,,,,,,,,
14.18.11.802,-116.4,29.1,0,10.0,,93756.1,10.67,-0.09,0.39,0.92,0.5,6.5,-1.4,32.94,,,,,,,,,,
14.18.11.816,-117.4,29.4,0,10.0,,94736.1,10.56,-0.09,0.38,0.91,-0.2,6.1,-1.6,32.94,,,,,,,,,,
14.18.11.824,-136.9,34.2,0,10.0,,96238.9,10.39,-0.09,0.36,0.91,1.2,3.7,-1.9,32.94,,,,,,,,,,
14.18.11.836,-0.2,0.0,1,11.0,90.2,94571.7,10.57,-0.09,0.37,0.93,3.4,5.8,-2.3,32.94,,,,,,,,,,
14.18.11.843,35.5,8.9,0,11.0,,94353.7,10.6,-0.09,0.37,0.92,4.1,7.0,-2.8,32.94,,,,,,,,,,
14.18.11.856,77.9,19.5,0,11.0,,95316.7,10.49,-0.09,0.39,0.91,2.6,6.0,-4.1,32.94,,,,,,,,,,
14.18.11.865,127.0,31.8,0,11.0,,94918.5,10.54,-0.09,0.38,0.93,1.3,4.3,-5.0,32.94,,,,,,,,,,
14.18.11.876,166.7,41.7,0,11.0,,95683.5,10.45,-0.09,0.37,0.92,1.1,4.6,-5.1,32.94,,,,,,,,,,
14.18.11.884,197.3,49.3,0,11.0,,96855.7,10.32,-0.09,0.37,0.91,2.9,4.2,-5.0,32.94,,,,,,,,,,
14.18.11.897,232.1,58.0,0,11.0,,94744.0,10.55,-0.09,0.38,0.92,2.9,4.5,-2.7,32.94,,,,,,,,,,
14.18.11.906,279.3,69.8,0,11.0,,94279.7,10.61,-0.09,0.38,0.91,5.6,6.7,-1.4,32.94,,,,,,,,,,
14.18.11.917,299.5,74.9,0,11.0,,97069.9,10.3,-0.1,0.37,0.91,5.9,7.8,-0.6,32.94,,,,,,,,,,
14.18.11.925,311.8,78.0,0,11.0,,95806.0,10.44,-0.1,0.38,0.91,5.3,5.5,0.4,32.94,,,,,,,,,,
14.18.11.938,310.0,77.5,0,11.0,,96196.6,10.4,-0.1,0.38,0.91,5.1,7.3,0.1,32.94,,,,,,,,,,
14.18.11.946,337.2,84.3,0,11.0,,95188.1,10.51,-0.1,0.38,0.91,5.0,5.5,0.1,32.94,,,,,,,,,,
14.18.11.959,316.7,79.2,0,11.0,,93445.9,10.7,-0.09,0.39,0.92,4.8,5.8,-0.3,32.94,,,,,,,,,,
14.18.11.967,305.0,76.2,0,11.0,,94343.7,10.6,-0.09,0.39,0.92,2.8,4.5,-0.8,32.94,,,,,,,,,,
14.18.11.979,291.6,72.9,0,11.0,,94452.5,10.59,-0.09,0.4,0.91,2.7,4.3,-0.6,32.94,,,,,,,,,,
14.18.11.988,274.0,68.5,0,11.0,,96112.0,10.4,-0.09,0.41,0.92,2.6,6.7,-0.6,32.94,,,,,,,,,,
14.18.12.000,228.3,57.1,0,11.0,,94714.9,10.56,-0.09,0.39,0.9,1.5,6.0,0.2,32.94,,,,,,,,,,
14.18.12.007,237.7,59.4,0,11.0,,95044.4,10.52,-0.1,0.38,0.92,1.5,1.0,0.5,32.94,,,,,,,,,,
14.18.12.020,189.2,47.3,0,11.0,,93994.1,10.64,-0.1,0.37,0.92,2.9,4.0,1.1,32.94,,,,,,,,,,
14.18.12.029,142.1,35.5,0,11.0,,95658.1,10.45,-0.1,0.35,0.91,6.0,5.9,1.6,32.94,,,,,,,,,,
14.18.12.040,105.4,26.4,0,11.0,,95917.9,10.43,-0.1,0.36,0.91,7.8,5.4,1.7,32.94,,,,,,,,,,
14.18.12.048,75.2,18.8,0,11.0,,94931.0,10.53,-0.09,0.39,0.91,8.5,8.2,1.3,32.94,,,,,,,,,,
14.18.12.061,19.2,4.8,0,11.0,,94921.4,10.54,-0.1,0.4,0.91,7.9,7.6,1.3,32.94,,,,,,,,,,
14.18.12.069,4.2,1.0,0,11.0,,95218.7,10.5,-0.09,0.4,0.91,4.7,5.6,0.1,32.94,,,,,,,,,,
14.18.12.106,45.7,11.4,0,11.0,,94946.9,10.53,-0.08,0.43,0.91,2.8,6.6,0.1,32.94,,,,,,,,,,
14.18.12.118,50.7,12.7,0,11.0,,95593.1,10.46,-0.09,0.37,0.92,-1.2,5.5,-1.2,32.94,,,,,,,,,,
14.18.12.126,51.2,12.8,0,11.0,,95172.6,10.51,-0.09,0.37,0.92,1.9,6.2,-0.7,32.94,,,,,,,,,,
14.18.12.139,58.6,14.6,0,11.0,,95073.7,10.52,-0.09,0.39,0.91,1.5,7.9,-0.8,32.94,,,,,,,,,,
14.18.12.147,41.0,10.2,0,11.0,,94729.4,10.56,-0.1,0.4,0.91,1.6,6.2,-0.7,32.94,,,,,,,,,,
14.18.12.159,49.8,12.4,0,11.0,,95045.4,10.52,-0.09,0.39,0.92,1.9,7.1,0.1,32.94,,,,,,,,,,
14.18.12.168,40.9,10.2,0,11.0,,94664.7,10.56,-0.09,0.38,0.92,2.9,6.5,0.5,32.94,,,,,,,,,,
14.18.12.184,16.1,4.0,0,11.0,,95127.8,10.51,-0.09,0.39,0.91,4.4,5.5,1.5,32.94,,,,,,,,,,
14.18.12.192,2.3,0.6,0,11.0,,94505.0,10.58,-0.08,0.39,0.91,5.7,6.4,2.0,32.94,,,,,,,,,,
14.18.12.204,-0.3,0.1,0,11.0,,94501.5,10.58,-0.08,0.4,0.91,7.7,7.4,2.6,32.94,,,,,,,,,,
14.18.12.212,-9.4,2.4,0,11.0,,95107.4,10.51,-0.09,0.41,0.92,5.9,7.0,3.0,32.94,,,,,,,,,,
14.18.12.225,-21.5,5.4,0,11.0,,95489.5,10.47,-0.09,0.41,0.9,3.6,6.6,2.5,32.94,,,,,,,,,,
14.18.12.232,-16.4,4.1,0,11.0,,92997.7,10.75,-0.09,0.38,0.9,2.0,5.1,2.4,32.94,,,,,,,,,,
14.18.12.246,-22.1,5.5,0,11.0,,94525.7,10.58,-0.09,0.38,0.91,2.3,5.1,1.7,32.94,,,,,,,,,,
14.18.12.258,-23.3,5.8,0,11.0,,94528.0,10.58,-0.09,0.4,0.91,4.5,7.9,1.1,32.94,,,,,,,,,,
14.18.12.265,-28.9,7.2,0,11.0,,95103.1,10.51,-0.09,0.41,0.9,3.2,10.1,-0.1,32.94,,,,,,,,,,
14.18.12.278,-30.4,7.6,0,11.0,,95245.5,10.5,-0.09,0.42,0.9,-0.4,6.6,-0.9,32.94,,,,,,,,,,
14.18.12.291,-40.9,10.2,0,11.0,,96447.7,10.37,-0.1,0.41,0.91,-3.1,6.3,-1.8,32.94,,,,,,,,,,
14.18.12.302,-43.8,11.0,0,11.0,,94307.0,10.6,-0.09,0.4,0.9,-2.3,6.3,-1.3,32.94,,,,,,,,,,
14.18.12.310,-59.9,15.0,0,11.0,,96281.0,10.39,-0.09,0.39,0.91,-3.2,4.7,-1.6,32.94,,,,,,,,,,
14.18.12.323,-52.3,13.1,0,11.0,,93198.1,10.73,-0.09,0.39,0.91,-2.3,5.6,-1.8,32.94,,,,,,,,,,
14.18.12.335,-64.4,16.1,0,11.0,,93584.2,10.69,-0.09,0.4,0.91,1.0,7.0,-0.9,32.94,,,,,,,,,,
14.18.12.348,-54.2,13.6,0,11.0,,93849.9,10.66,-0.09,0.4,0.9,0.4,7.0,-0.8,32.94,,,,,,,,,,
14.18.12.355,-64.6,16.2,0,11.0,,95914.6,10.43,-0.1,0.39,0.91,1.5,7.6,-0.4,32.94,,,,,,,,,,
14.18.12.368,-82.7,20.7,0,11.0,,95201.1,10.5,-0.1,0.39,0.9,2.0,4.9,0.4,32.94,,,,,,,,,,
14.18.12.381,-88.4,22.1,0,11.0,,95860.9,10.43,-0.1,0.39,0.91,1.0,4.9,0.9,32.94,,,,,,,,,,
14.18.12.388,-81.6,20.4,0,11.0,,96174.2,10.4,-0.08,0.4,0.9,4.0,9.3,0.5,32.94,,,,,,,,,,
14.18.12.400,-89.6,22.4,0,11.0,,94760.3,10.55,-0.09,0.41,0.89,4.2,5.0,1.7,32.94,,,,,,,,,,
14.18.12.413,-94.6,23.6,0,11.0,,94927.2,10.53,-0.1,0.41,0.9,2.1,6.0,1.7,32.94,,,,,,,,,,
14.18.12.421,-100.8,25.2,0,11.0,,94844.9,10.54,-0.09,0.42,0.9,3.9,9.3,2.0,32.94,,,,,,,,,,
14.18.12.434,-94.2,23.6,0,11.0,,95156.3,10.51,-0.1,0.41,0.9,3.2,7.2,2.8,32.94,,,,,,,,,,
14.18.12.446,-105.6,26.4,0,11.0,,95733.6,10.45,-0.1,0.4,0.91,0.6,6.5,2.1,32.94,,,,,,,,,,
14.18.12.454,-103.0,25.8,0,11.0,,94754.5,10.55,-0.1,0.38,0.91,2.7,6.4,1.7,32.94,,,,,,,,,,
14.18.12.467,-125.0,31.2,0,11.0,,95570.9,10.46,-0.09,0.38,0.91,3.6,6.4,1.1,32.94,,,,,,,,,,
14.18.12.478,-113.3,28.3,0,11.0,,95136.4,10.51,-0.1,0.4,0.9,2.6,5.9,0.2,32.94,,,,,,,,,,
14.18.12.491,-139.6,34.9,0,11.0,,96040.2,10.41,-0.1,0.42,0.9,0.0,5.5,-0.9,32.94,,,,,,,,,,
14.18.12.500,5.6,1.4,1,12.0,85.3,94014.9,10.64,-0.09,0.41,0.89,-2.8,4.6,-2.2,32.94,,,,,,,,,,
14.18.12.511,68.4,17.1,0,12.0,,95362.4,10.49,-0.08,0.4,0.9,-2.5,4.1,-2.0,32.94,,,,,,,,,,
14.18.12.524,124.9,31.2,0,12.0,,93322.7,10.72,-0.09,0.4,0.92,-1.4,7.5,-2.7,32.94,,,,,,,,,,
14.18.12.532,140.4,35.1,0,12.0,,94150.5,10.62,-0.1,0.4,0.92,-2.8,6.6,-2.5,32.94,,,,,,,,,,
14.18.12.544,169.4,42.4,0,12.0,,94362.3,10.6,-0.1,0.39,0.91,-2.5,5.0,-2.9,32.94,,,,,,,,,,
14.18.12.557,239.2,59.8,0,12.0,,94818.1,10.55,-0.08,0.39,0.91,-2.0,5.1,-1.8,32.94,,,,,,,,,,
14.18.12.568,265.7,66.4,0,12.0,,95968.0,10.42,-0.09,0.37,0.9,-1.8,7.1,-1.7,32.94,,,,,,,,,,
14.18.12.577,292.0,73.0,0,12.0,,94668.3,10.56,-0.09,0.39,0.91,-0.2,5.1,-2.3,32.94,,,,,,,,,,
14.18.12.589,298.2,74.6,0,12.0,,93866.3,10.65,-0.1,0.41,0.92,0.3,8.8,-2.7,32.94,,,,,,,,,,
14.18.12.601,296.1,74.0,0,12.0,,96041.7,10.41,-0.1,0.42,0.9,-1.3,5.4,-2.3,32.94,,,,,,,,,,
14.18.12.614,326.5,81.6,0,12.0,,93944.1,10.64,-0.1,0.41,0.91,-4.5,2.2,-2.5,32.94,,,,,,,,,,
14.18.12.622,309.8,77.4,0,12.0,,95641.6,10.46,-0.09,0.4,0.92,-3.0,3.4,-2.1,32.94,,,,,,,,,,
14.18.12.634,327.0,81.8,0,12.0,,93402.8,10.71,-0.08,0.38,0.91,0.1,5.5,-0.8,32.94,,,,,,,,,,
14.18.12.646,285.2,71.3,0,12.0,,94207.9,10.61,-0.09,0.37,0.9,1.8,4.5,-0.8,32.94,,,,,,,,,,
14.18.12.659,265.2,66.3,0,12.0,,94518.4,10.58,-0.09,0.39,0.92,3.9,6.9,-0.5,32.94,,,,,,,,,,
14.18.12.668,235.6,58.9,0,12.0,,94176.9,10.62,-0.1,0.41,0.9,3.4,6.2,-0.8,32.94,,,,,,,,,,
14.18.12.680,208.2,52.0,0,12.0,,95537.3,10.47,-0.1,0.41,0.91,0.1,5.3,-0.8,32.94,,,,,,,,,,
14.18.12.691,152.7,38.2,0,12.0,,93386.2,10.71,-0.1,0.4,0.9,-1.1,2.6,-1.2,32.94,,,,,,,,,,
14.18.12.700,133.6,33.4,0,12.0,,94844.5,10.54,-0.09,0.4,0.92,-1.5,4.6,-1.5,32.94,,,,,,,,,,
14.18.12.713,87.4,21.8,0,12.0,,94641.1,10.57,-0.09,0.38,0.91,-0.2,5.9,-1.4,32.94,,,,,,,,,,
14.18.12.724,30.4,7.6,0,12.0,,94939.5,10.53,-0.08,0.38,0.9,1.0,3.3,-1.3,32.94,,,,,,,,,,
14.18.12.736,18.1,4.5,0,12.0,,94622.3,10.57,-0.09,0.4,0.92,3.4,5.9,-1.1,32.94,,,,,,,,,,
14.18.12.744,9.0,2.2,0,12.0,,94913.6,10.54,-0.09,0.41,0.9,3.7,7.7,-0.7,32.94,,,,,,,,,,
14.18.12.758,44.7,11.2,0,12.0,,94133.6,10.62,-0.09,0.41,0.9,1.4,6.4,-0.7,32.94,,,,,,,,,,
14.18.12.769,48.4,12.1,0,12.0,,94640.4,10.57,-0.1,0.4,0.92,0.1,4.1,-1.1,32.94,,,,,,,,,,
14.18.12.778,47.7,11.9,0,12.0,,94907.9,10.54,-0.09,0.39,0.91,1.0,7.1,-1.1,32.94,,,,,,,,,,
14.18.12.790,51.4,12.8,0,12.0,,95230.1,10.5,-0.09,0.4,0.9,1.7,6.0,-0.8,32.94,,,,,,,,,,
14.18.12.802,54.1,13.5,0,12.0,,96355.1,10.38,-0.1,0.4,0.91,0.8,5.1,-0.6,32.94,,,,,,,,,,
14.18.12.810,54.8,13.7,0,12.0,,95033.5,10.52,-0.09,0.38,0.9,0.2,4.8,-0.9,32.94,,,,,,,,,,
14.18.12.823,45.6,11.4,0,12.0,,96273.2,10.39,-0.09,0.39,0.92,2.5,7.3,-0.7,32.94,,,,,,,,,,
14.18.12.835,35.7,8.9,0,12.0,,94575.4,10.57,-0.09,0.4,0.9,2.9,8.4,-0.6,32.94,,,,,,,,,,
14.18.12.844,24.0,6.0,0,12.0,,94385.2,10.59,-0.09,0.41,0.9,1.7,6.1,-0.9,32.94,,,,,,,,,,
14.18.12.856,8.5,2.1,0,12.0,,94145.9,10.62,-0.09,0.41,0.91,0.9,6.0,-0.3,32.94,,,,,,,,,,
14.18.12.869,-2.1,0.5,0,12.0,,94361.8,10.6,-0.09,0.41,0.92,0.3,6.1,-0.1,32.94,,,,,,,,,,
14.18.12.909,-18.6,4.6,0,12.0,,93909.8,10.65,-0.09,0.39,0.9,0.8,4.9,-0.1,32.94,,,,,,,,,,
14.18.12.918,-28.4,7.1,0,12.0,,92787.5,10.78,-0.09,0.4,0.9,3.3,7.2,-0.2,32.94,,,,,,,,,,
14.18.12.930,-31.0,7.8,0,12.0,,94512.9,10.58,-0.09,0.41,0.89,2.3,7.1,-0.4,32.94,,,,,,,,,,
14.18.12.937,-23.8,6.0,0,12.0,,95678.1,10.45,-0.09,0.42,0.91,0.8,6.0,-1.0,32.94,,,,,,,,,,
14.18.12.949,-33.4,8.4,0,12.0,,96092.6,10.41,-0.09,0.41,0.92,-0.7,6.9,-1.6,32.94,,,,,,,,,,
14.18.12.958,-46.6,11.6,0,12.0,,95276.3,10.5,-0.09,0.41,0.91,-0.6,6.1,-1.1,32.94,,,,,,,,,,
14.18.12.970,-42.7,10.7,0,12.0,,93945.0,10.64,-0.09,0.39,0.91,-0.8,5.9,-1.5,32.94,,,,,,,,,,
14.18.12.978,-58.3,14.6,0,12.0,,94006.8,10.64,-0.09,0.4,0.91,-0.5,4.9,-1.4,32.94,,,,,,,,,,
14.18.12.990,-64.3,16.1,0,12.0,,94767.0,10.55,-0.08,0.39,0.91,-0.1,7.3,-1.6,32.94,,,,,,,,,,
14.18.12.999,-65.0,16.2,0,12.0,,94908.2,10.54,-0.09,0.39,0.9,1.3,3.8,-1.1,32.94,,,,,,,,,,
14.18.13.011,-66.8,16.7,0,12.0,,95165.1,10.51,-0.1,0.4,0.92,1.5,5.1,-1.6,32.94,,,,,,,,,,
14.18.13.019,-63.5,15.9,0,12.0,,93791.6,10.66,-0.09,0.41,0.9,1.2,6.8,-1.4,32.94,,,,,,,,,,
14.18.13.032,-64.3,16.1,0,12.0,,94407.7,10.59,-0.09,0.4,0.9,1.0,4.0,-1.2,32.94,,,,,,,,,,
14.18.13.040,-84.2,21.0,0,12.0,,94503.7,10.58,-0.09,0.4,0.91,0.1,4.0,-1.0,32.94,,,,,,,,,,
14.18.13.052,-83.0,20.8,0,12.0,,95034.4,10.52,-0.09,0.39,0.91,0.4,5.8,-0.9,32.94,,,,,,,,,,
14.18.13.060,-72.4,18.1,0,12.0,,95279.6,10.5,-0.09,0.39,0.9,1.0,6.0,-1.2,32.94,,,,,,,,,,
14.18.13.073,-91.4,22.8,0,12.0,,95481.2,10.47,-0.09,0.41,0.91,1.8,6.8,-0.8,32.94,,,,,,,,,,
14.18.13.081,-95.9,24.0,0,12.0,,95559.4,10.46,-0.09,0.42,0.91,0.6,8.2,-1.4,32.94,,,,,,,,,,
14.18.13.094,-90.4,22.6,0,12.0,,94802.1,10.55,-0.09,0.42,0.9,-0.4,5.5,-1.5,32.94,,,,,,,,,,
14.18.13.105,-98.7,24.7,0,12.0,,94417.4,10.59,-0.09,0.41,0.9,-0.8,4.5,-1.1,32.94,,,,,,,,,,
14.18.13.114,-115.7,28.9,0,12.0,,95645.1,10.46,-0.09,0.39,0.91,-0.4,5.9,-1.4,32.94,,,,,,,,,,
14.18.13.126,-120.0,30.0,0,12.0,,94987.9,10.53,-0.09,0.39,0.91,0.1,5.3,-1.3,32.94,,,,,,,,,,
14.18.13.134,-120.2,30.0,0,12.0,,94238.0,10.61,-0.09,0.4,0.91,0.2,4.9,-1.5,32.94,,,,,,,,,,
14.18.13.146,-118.8,29.7,0,12.0,,96165.0,10.4,-0.09,0.4,0.91,1.5,6.0,-1.5,32.94,,,,,,,,,,
14.18.13.154,-124.7,31.2,0,12.0,,95220.2,10.5,-0.09,0.4,0.91,2.1,6.6,-0.8,32.94,,,,,,,,,,
14.18.13.167,27.2,6.8,1,13.0,95.1,93990.6,10.64,-0.09,0.4,0.9,0.4,5.6,-1.3,32.94,,,,,,,,,,
14.18.13.176,63.7,15.9,0,13.0,,95714.5,10.45,-0.09,0.39,0.9,0.6,7.1,-1.1,32.94,,,,,,,,,,
14.18.13.187,112.2,28.0,0,13.0,,94656.8,10.56,-0.09,0.39,0.91,2.6,7.1,-0.7,32.94,,,,,,,,,,
14.18.13.196,140.7,35.2,0,13.0,,94818.7,10.55,-0.09,0.4,0.91,2.8,7.8,-1.2,32.94,,,,,,,,,,
14.18.13.207,173.2,43.3,0,13.0,,94320.6,10.6,-0.09,0.41,0.91,1.8,8.4,-1.6,32.94,,,,,,,,,,
14.18.13.217,221.7,55.4,0,13.0,,95854.5,10.43,-0.09,0.41,0.9,1.5,6.1,-1.0,32.94,,,,,,,,,,
14.18.13.228,253.0,63.2,0,13.0,,94713.5,10.56,-0.08,0.41,0.91,0.5,5.9,-1.1,32.94,,,,,,,,,,
14.18.13.236,269.0,67.2,0,13.0,,94930.8,10.53,-0.09,0.4,0.92,1.2,7.4,-1.3,32.94,,,,,,,,,,
14.18.13.248,303.4,75.8,0,13.0,,95413.3,10.48,-0.09,0.4,0.91,1.9,7.1,-0.9,32.94,,,,,,,,,,
14.18.13.258,307.7,76.9,0,13.0,,94155.8,10.62,-0.09,0.4,0.91,1.3,7.8,-1.3,32.94,,,,,,,,,,
14.18.13.269,351.3,87.8,0,13.0,,94404.3,10.59,-0.09,0.41,0.91,0.9,6.3,-1.0,32.94,,,,,,,,,,
14.18.13.277,361.5,90.4,0,13.0,,94715.8,10.56,-0.09,0.41,0.91,1.0,5.6,-1.2,32.94,,,,,,,,,,
14.18.13.290,303.2,75.8,0,13.0,,93379.2,10.71,-0.09,0.41,0.9,1.3,6.5,-1.1,32.94,,,,,,,,,,
14.18.13.299,305.7,76.4,0,13.0,,96898.5,10.32,-0.09,0.4,0.9,0.6,5.2,-0.8,32.94,,,,,,,,,,
14.18.13.311,290.2,72.6,0,13.0,,94455.9,10.59,-0.09,0.39,0.9,0.4,4.8,-1.2,32.94,,,,,,,,,,
14.18.13.319,292.2,73.0,0,13.0,,94324.6,10.6,-0.09,0.39,0.91,2.5,5.0,-1.0,32.94,,,,,,,,,,
14.18.13.331,244.2,61.0,0,13.0,,94934.7,10.53,-0.09,0.41,0.91,2.8,8.1,-1.4,32.94,,,,,,,,,,
14.18.13.340,229.2,57.3,0,13.0,,95283.1,10.5,-0.09,0.41,0.9,2.4,8.3,-1.3,32.94,,,,,,,,,,
14.18.13.351,172.5,43.1,0,13.0,,94686.0,10.56,-0.1,0.42,0.91,1.7,8.1,-0.9,32.94,,,,,,,,,,
14.18.13.359,131.3,32.8,0,13.0,,94983.9,10.53,-0.1,0.41,0.9,0.5,8.0,-0.7,32.94,,,,,,,,,,
14.18.13.372,86.7,21.7,0,13.0,,94921.7,10.54,-0.09,0.4,0.9,0.5,7.7,-0.7,32.94,,,,,,,,,,
14.18.13.380,49.3,12.3,0,13.0,,94978.9,10.53,-0.09,0.4,0.91,1.8,7.6,-0.2,32.94,,,,,,,,,,
14.18.13.392,3.7,0.9,0,13.0,,95230.3,10.5,-0.09,0.4,0.91,2.2,8.1,-0.5,32.94,,,,,,,,,,
14.18.13.400,10.3,2.6,0,13.0,,96865.2,10.32,-0.1,0.41,0.91,2.8,8.4,-0.4,32.94,,,,,,,,,,
14.18.13.413,34.0,8.5,0,13.0,,96250.5,10.39,-0.09,0.41,0.9,3.0,8.5,-0.6,32.94,,,,,,,,,,
14.18.13.426,37.1,9.3,0,13.0,,95320.6,10.49,-0.1,0.41,0.91,2.0,6.3,-0.7,32.94,,,,,,,,,,
14.18.13.433,44.5,11.1,0,13.0,,95163.5,10.51,-0.09,0.41,0.9,0.6,4.8,-1.2,32.94,,,,,,,,,,
14.18.13.446,57.8,14.4,0,13.0,,94256.1,10.61,-0.08,0.42,0.9,-0.7,7.2,-2.3,32.94,,,,,,,,,,
14.18.13.453,48.7,12.2,0,13.0,,93509.9,10.69,-0.07,0.41,0.9,1.8,3.2,-0.8,32.94,,,,,,,,,,
14.18.13.467,46.3,11.6,0,13.0,,95312.9,10.49,-0.09,0.4,0.91,-0.2,4.1,-1.2,32.94,,,,,,,,,,
14.18.13.475,62.5,15.6,0,13.0,,95425.6,10.48,-0.09,0.4,0.9,0.2,4.4,-1.1,32.94,,,,,,,,,,
14.18.13.486,49.6,12.4,0,13.0,,94941.6,10.53,-0.09,0.4,0.91,1.9,4.9,-0.8,32.94,,,,,,,,,,
14.18.13.495,43.6,10.9,0,13.0,,92618.7,10.8,-0.1,0.4,0.9,1.3,6.2,-1.2,32.94,,,,,,,,,,
14.18.13.506,28.1,7.0,0,13.0,,94358.2,10.6,-0.1,0.4,0.9,1.2,5.3,-1.1,32.94,,,,,,,,,,
14.18.13.515,15.2,3.8,0,13.0,,94976.2,10.53,-0.09,0.41,0.9,1.5,7.0,-1.2,32.94,,,,,,,,,,
14.18.13.527,-11.2,2.8,0,13.0,,93641.8,10.68,-0.09,0.41,0.9,1.5,6.1,-1.1,32.94,,,,,,,,,,
14.18.13.535,2.4,0.6,0,13.0,,95591.2,10.46,-0.1,0.41,0.91,2.2,6.0,-0.8,32.94,,,,,,,,,,
14.18.13.548,-4.1,1.0,0,13.0,,94868.5,10.54,-0.09,0.41,0.91,0.1,7.7,-1.3,32.94,,,,,,,,,,
14.18.13.557,-14.0,3.5,0,13.0,,93973.7,10.64,-0.09,0.41,0.9,0.5,5.7,-1.2,32.94,,,,,,,,,,
14.18.13.568,-16.6,4.2,0,13.0,,93639.8,10.68,-0.1,0.41,0.91,1.2,6.8,-0.9,32.94,,,,,,,,,,
14.18.13.577,-27.3,6.8,0,13.0,,94847.6,10.54,-0.09,0.41,0.9,-0.2,7.0,-1.1,32.94,,,,,,,,,,
14.18.13.588,-23.2,5.8,0,13.0,,95255.3,10.5,-0.09,0.41,0.91,-0.3,4.1,-1.5,32.94,,,,,,,,,,
14.18.13.598,-30.0,7.5,0,13.0,,93656.1,10.68,-0.1,0.4,0.91,-0.2,5.2,-1.5,32.94,,,,,,,,,,
14.18.13.610,-37.4,9.4,0,13.0,,94527.7,10.58,-0.09,0.4,0.9,0.8,5.2,-1.7,32.94,,,,,,,,,,
14.18.13.618,-34.7,8.7,0,13.0,,95195.1,10.5,-0.09,0.41,0.9,0.9,4.7,-1.5,32.94,,,,,,,,,,
14.18.13.630,-39.8,10.0,0,13.0,,93864.9,10.65,-0.09,0.41,0.9,0.6,5.8,-1.6,32.94,,,,,,,,,,
14.18.13.638,-51.2,12.8,0,13.0,,95581.6,10.46,-0.1,0.41,0.9,0.2,4.9,-1.8,32.94,,,,,,,,,,
14.18.13.651,-58.0,14.5,0,13.0,,94823.5,10.55,-0.09,0.41,0.91,-0.7,5.0,-2.0,32.94,,,,,,,,,,
14.18.13.659,-54.9,13.7,0,13.0,,94695.1,10.56,-0.09,0.41,0.91,-0.9,5.4,-1.8,32.94,,,,,,,,,,
14.18.13.670,-58.2,14.6,0,13.0,,95576.5,10.46,-0.09,0.42,0.92,-2.6,6.8,-2.9,32.94,,,,,,,,,,
14.18.13.680,-59.1,14.8,0,13.0,,95760.5,10.44,-0.09,0.4,0.9,-3.3,4.1,-2.4,32.94,,,,,,,,,,
14.18.13.715,-79.8,20.0,0,13.0,,93882.8,10.65,-0.09,0.39,0.9,0.1,4.6,-1.3,32.94,,,,,,,,,,
14.18.13.728,-88.1,22.0,0,13.0,,95732.9,10.45,-0.09,0.41,0.9,0.6,6.1,-1.0,32.94,,,,,,,,,,
14.18.13.736,-91.4,22.8,0,13.0,,96011.3,10.42,-0.1,0.41,0.91,0.3,7.0,-0.8,32.94,,,,,,,,,,
14.18.13.749,-73.9,18.5,0,13.0,,94234.0,10.61,-0.09,0.4,0.9,-0.3,6.2,-1.0,32.94,,,,,,,,,,
14.18.13.757,-104.0,26.0,0,13.0,,95323.9,10.49,-0.09,0.4,0.91,-0.1,5.6,-1.5,32.94,,,,,,,,,,
14.18.13.769,-103.4,25.8,0,13.0,,94635.0,10.57,-0.09,0.4,0.91,0.0,5.9,-1.0,32.94,,,,,,,,,,
14.18.13.777,-118.5,29.6,0,13.0,,94774.4,10.55,-0.09,0.4,0.91,-0.2,6.1,-1.5,32.94,,,,,,,,,,
14.18.13.789,-105.6,26.4,0,13.0,,95012.4,10.52,-0.09,0.4,0.9,0.7,6.2,-1.6,32.94,,,,,,,,,,
14.18.13.798,-120.1,30.0,0,13.0,,93386.7,10.71,-0.09,0.42,0.91,1.5,7.6,-1.3,32.94,,,,,,,,,,
14.18.13.811,-129.7,32.4,0,13.0,,93324.8,10.72,-0.09,0.42,0.9,0.1,6.4,-1.2,32.94,,,,,,,,,,
14.18.13.819,-143.2,35.8,0,13.0,,93424.7,10.7,-0.09,0.4,0.9,-0.9,4.6,-1.3,32.94,,,,,,,,,,
14.18.13.830,20.6,5.2,1,14.0,93.5,95824.5,10.44,-0.09,0.39,0.91,-0.1,5.9,-1.5,32.94,,,,,,,,,,
14.18.13.839,67.3,16.8,0,14.0,,95097.8,10.52,-0.1,0.4,0.91,1.5,6.3,-1.2,32.94,,,,,,,,,,
14.18.13.851,125.7,31.4,0,14.0,,94510.3,10.58,-0.09,0.41,0.9,0.0,6.2,-1.1,32.94,,,,,,,,,,
14.18.13.859,142.5,35.6,0,14.0,,95962.5,10.42,-0.09,0.41,0.9,-0.2,5.5,-1.6,32.94,,,,,,,,,,
14.18.13.872,196.1,49.0,0,14.0,,95285.9,10.49,-0.09,0.4,0.91,0.2,5.8,-1.4,32.94,,,,,,,,,,
14.18.13.884,209.0,52.2,0,14.0,,95532.4,10.47,-0.09,0.41,0.91,0.6,7.2,-1.2,32.94,,,,,,,,,,
14.18.13.892,260.1,65.0,0,14.0,,96040.9,10.41,-0.09,0.41,0.9,0.3,5.6,-1.1,32.94,,,,,,,,,,
14.18.13.900,254.3,63.6,0,14.0,,92582.0,10.8,-0.1,0.4,0.91,-0.5,4.4,-1.4,32.94,,,,,,,,,,
14.18.13.912,304.1,76.0,0,14.0,,94633.9,10.57,-0.09,0.4,0.9,0.0,5.3,-1.2,32.94,,,,,,,,,,
14.18.13.925,322.9,80.7,0,14.0,,95692.5,10.45,-0.09,0.41,0.91,0.6,5.5,-1.2,32.94,,,,,,,,,,
14.18.13.934,326.6,81.6,0,14.0,,95553.6,10.47,-0.09,0.4,0.9,-0.2,4.6,-1.3,32.94,,,,,,,,,,
14.18.13.946,325.9,81.5,0,14.0,,94060.7,10.63,-0.09,0.39,0.91,0.0,4.8,-2.0,32.94,,,,,,,,,,
14.18.13.953,312.3,78.1,0,14.0,,94463.5,10.59,-0.1,0.4,0.91,1.4,6.3,-1.8,32.94,,,,,,,,,,
14.18.13.965,306.8,76.7,0,14.0,,94937.1,10.53,-0.09,0.42,0.9,0.9,6.5,-1.5,32.94,,,,,,,,,,
14.18.13.974,298.7,74.7,0,14.0,,95129.4,10.51,-0.1,0.41,0.9,-0.2,5.5,-1.9,32.94,,,,,,,,,,
14.18.13.987,235.8,59.0,0,14.0,,95182.7,10.51,-0.09,0.41,0.91,-1.0,5.1,-1.6,32.94,,,,,,,,,,
14.18.13.995,243.4,60.8,0,14.0,,94746.2,10.55,-0.09,0.4,0.91,-1.0,5.1,-1.4,32.94,,,,,,,,,,
14.18.14.007,194.1,48.5,0,14.0,,94445.5,10.59,-0.1,0.4,0.91,-2.2,5.6,-3.0,32.94,,,,,,,,,,
14.18.14.015,187.8,47.0,0,14.0,,94577.2,10.57,-0.09,0.4,0.9,-1.0,3.6,-1.8,32.94,,,,,,,,,,
14.18.14.027,128.0,32.0,0,14.0,,96646.1,10.35,-0.09,0.41,0.91,0.6,6.9,-1.7,32.94,,,,,,,,,,
14.18.14.040,75.7,18.9,0,14.0,,94087.3,10.63,-0.1,0.4,0.9,-1.9,4.9,-2.4,32.94,,,,,,,,,,
14.18.14.048,43.3,10.8,0,14.0,,94469.8,10.59,-0.09,0.41,0.92,-2.1,4.2,-2.5,32.94,,,,,,,,,,
14.18.14.061,-1.3,0.3,0,14.0,,95654.8,10.45,-0.09,0.4,0.91,-0.5,6.0,-1.6,32.94,,,,,,,,,,
14.18.14.068,14.4,3.6,0,14.0,,94706.1,10.56,-0.09,0.4,0.9,-0.3,5.9,-1.5,32.94,,,,,,,,,,
14.18.14.081,33.5,8.4,0,14.0,,94526.7,10.58,-0.09,0.4,0.9,-1.9,5.2,-2.2,32.94,,,,,,,,,,
14.18.14.089,36.5,9.1,0,14.0,,94346.5,10.6,-0.1,0.39,0.9,-1.5,5.3,-1.9,32.94,,,,,,,,,,
14.18.14.101,40.5,10.1,0,14.0,,95605.4,10.46,-0.09,0.4,0.9,0.0,6.6,-1.8,32.94,,,,,,,,,,
14.18.14.109,56.2,14.0,0,14.0,,95189.7,10.51,-0.1,0.4,0.91,-0.4,6.5,-2.0,32.94,,,,,,,,,,
14.18.14.121,59.7,14.9,0,14.0,,95758.8,10.44,-0.09,0.41,0.91,-0.4,5.1,-1.8,32.94,,,,,,,,,,
14.18.14.130,52.6,13.2,0,14.0,,94549.3,10.58,-0.09,0.4,0.91,0.4,7.2,-1.5,32.94,,,,,,,,,,
14.18.14.142,49.3,12.3,0,14.0,,96381.8,10.38,-0.1,0.4,0.91,-0.1,5.8,-1.3,32.94,,,,,,,,,,
14.18.14.154,46.9,11.7,0,14.0,,94481.9,10.58,-0.09,0.4,0.91,-0.8,5.6,-1.6,32.94,,,,,,,,,,
14.18.14.162,34.5,8.6,0,14.0,,94676.4,10.56,-0.1,0.4,0.91,0.0,5.6,-1.5,32.94,,,,,,,,,,
14.18.14.174,23.7,5.9,0,14.0,,96260.2,10.39,-0.09,0.39,0.91,-0.1,6.9,-1.8,32.94,,,,,,,,,,
14.18.14.187,-0.9,0.2,0,14.0,,94924.7,10.53,-0.1,0.4,0.91,0.8,5.1,-1.6,32.94,,,,,,,,,,
14.18.14.200,1.0,0.2,0,14.0,,94810.9,10.55,-0.09,0.4,0.91,1.4,5.6,-1.3,32.94,,,,,,,,,,
14.18.14.207,-14.9,3.7,0,14.0,,93582.6,10.69,-0.09,0.4,0.9,2.4,6.7,-1.3,32.94,,,,,,,,,,
14.18.14.219,-14.9,3.7,0,14.0,,94726.3,10.56,-0.1,0.41,0.91,2.5,5.8,-0.5,32.94,,,,,,,,,,
14.18.14.232,-21.0,5.2,0,14.0,,95922.4,10.43,-0.09,0.41,0.9,1.9,6.4,-0.2,32.94,,,,,,,,,,
14.18.14.241,-28.3,7.1,0,14.0,,94105.0,10.63,-0.09,0.4,0.91,1.6,5.6,0.1,32.94,,,,,,,,,,
14.18.14.252,-27.0,6.8,0,14.0,,93067.2,10.74,-0.1,0.4,0.9,1.2,5.2,-0.4,32.94,,,,,,,,,,
14.18.14.265,-31.9,8.0,0,14.0,,94857.9,10.54,-0.09,0.39,0.91,1.6,5.1,-0.2,32.94,,,,,,,,,,
14.18.14.273,-38.2,9.6,0,14.0,,93283.5,10.72,-0.09,0.39,0.92,2.5,5.8,-0.2,32.94,,,,,,,,,,
14.18.14.286,-49.1,12.3,0,14.0,,95418.4,10.48,-0.09,0.39,0.91,3.1,5.9,-0.1,32.94,,,,,,,,,,
14.18.14.298,-45.2,11.3,0,14.0,,95452.5,10.48,-0.09,0.4,0.91,3.6,6.1,0.1,32.94,,,,,,,,,,
14.18.14.305,-38.9,9.7,0,14.0,,96553.5,10.36,-0.09,0.42,0.9,3.5,6.8,0.1,32.94,,,,,,,,,,
14.18.14.318,-54.0,13.5,0,14.0,,95407.5,10.48,-0.09,0.41,0.9,3.1,6.3,-0.2,32.94,,,,,,,,,,
14.18.14.331,-52.1,13.0,0,14.0,,95323.7,10.49,-0.09,0.41,0.91,2.5,6.7,-0.3,32.94,,,,,,,,,,
14.18.14.343,-70.0,17.5,0,14.0,,94241.5,10.61,-0.09,0.4,0.91,1.7,6.7,-0.8,32.94,,,,,,,,,,
14.18.14.351,-70.4,17.6,0,14.0,,93434.4,10.7,-0.09,0.41,0.91,1.2,6.6,-1.1,32.94,,,,,,,,,,
14.18.14.364,-71.7,17.9,0,14.0,,94441.3,10.59,-0.1,0.41,0.9,0.7,7.6,-1.3,32.94,,,,,,,,,,
14.18.14.375,-81.0,20.2,0,14.0,,95269.2,10.5,-0.09,0.4,0.89,-0.6,7.0,-1.7,32.94,,,,,,,,,,
14.18.14.384,-89.6,22.4,0,14.0,,95721.2,10.45,-0.1,0.41,0.91,0.2,6.3,-1.7,32.94,,,,,,,,,,
14.18.14.396,-86.7,21.7,0,14.0,,95256.8,10.5,-0.09,0.41,0.9,0.3,8.0,-1.7,32.94,,,,,,,,,,
14.18.14.409,-86.3,21.6,0,14.0,,95045.1,10.52,-0.09,0.41,0.9,-1.6,6.5,-2.3,32.94,,,,,,,,,,
14.18.14.420,-91.2,22.8,0,14.0,,95965.1,10.42,-0.09,0.41,0.91,0.0,4.7,-1.7,32.94,,,,,,,,,,
14.18.14.428,-111.4,27.8,0,14.0,,94732.3,10.56,-0.09,0.4,0.91,1.6,7.0,-1.2,32.94,,,,,,,,,,
14.18.14.441,-108.0,27.0,0,14.0,,95647.3,10.46,-0.09,0.4,0.9,0.9,4.7,-1.2,32.94,,,,,,,,,,
14.18.14.453,-112.2,28.0,0,14.0,,94250.6,10.61,-0.1,0.4,0.91,1.9,4.3,-0.9,32.94,,,,,,,,,,
14.18.14.465,-119.2,29.8,0,14.0,,95572.8,10.46,-0.09,0.41,0.9,3.3,7.7,-1.1,32.94,,,,,,,,,,
14.18.14.474,-143.6,35.9,0,14.0,,94524.9,10.58,-0.1,0.42,0.9,1.8,5.1,-1.0,32.94,,,,,,,,,,
14.18.14.487,-130.8,32.7,0,14.0,,94693.6,10.56,-0.1,0.41,0.91,0.6,5.3,-0.6,32.94,,,,,,,,,,
14.18.14.527,168.3,42.1,1,15.0,92.6,95220.2,10.5,-0.09,0.41,0.9,0.7,6.1,-1.1,33.0,89.9,,,,,,,,,
14.18.14.535,195.0,48.8,0,15.0,,95708.2,10.45,-0.09,0.41,0.9,-0.7,4.7,-1.6,33.0,,,,,,,,,,
14.18.14.547,229.0,57.2,0,15.0,,95354.7,10.49,-0.09,0.41,0.91,-0.8,5.1,-1.5,33.0,,,,,,,,,,
14.18.14.559,259.5,64.9,0,15.0,,95305.2,10.49,-0.09,0.39,0.91,0.8,5.6,-1.4,33.0,,,,,,,,,,
14.18.14.573,291.8,73.0,0,15.0,,94845.8,10.54,-0.09,0.41,0.91,1.7,6.4,-1.1,33.0,,,,,,,,,,
14.18.14.581,324.8,81.2,0,15.0,,95156.0,10.51,-0.09,0.41,0.9,1.2,7.2,-1.1,33.0,,,,,,,,,,
14.18.14.592,293.1,73.3,0,15.0,,93857.5,10.65,-0.09,0.41,0.9,0.3,5.9,-1.2,33.0,,,,,,,,,,
14.18.14.604,295.3,73.8,0,15.0,,95344.8,10.49,-0.1,0.4,0.9,-0.3,5.3,-1.4,33.0,,,,,,,,,,
14.18.14.614,306.2,76.6,0,15.0,,94940.6,10.53,-0.09,0.4,0.91,0.4,6.2,-1.1,33.0,,,,,,,,,,
14.18.14.630,321.4,80.4,0,15.0,,93759.9,10.67,-0.1,0.41,0.91,0.5,6.5,-1.5,33.0,,,,,,,,,,
14.18.14.638,285.2,71.3,0,15.0,,93809.5,10.66,-0.09,0.41,0.9,-0.2,5.8,-1.7,33.0,,,,,,,,,,
14.18.14.650,258.6,64.6,0,15.0,,96414.0,10.37,-0.09,0.41,0.9,-1.2,5.6,-1.9,33.0,,,,,,,,,,
14.18.14.662,231.2,57.8,0,15.0,,95446.0,10.48,-0.09,0.41,0.9,0.4,5.5,-1.6,33.0,,,,,,,,,,
14.18.14.671,190.2,47.6,0,15.0,,95236.3,10.5,-0.09,0.41,0.89,0.8,6.2,-1.3,33.0,,,,,,,,,,
14.18.14.683,152.9,38.2,0,15.0,,94090.5,10.63,-0.09,0.41,0.9,0.1,5.5,-1.6,33.0,,,,,,,,,,
14.18.14.695,104.2,26.0,0,15.0,,96193.2,10.4,-0.1,0.41,0.91,-0.1,5.9,-1.2,33.0,,,,,,,,,,
14.18.14.703,74.0,18.5,0,15.0,,94072.1,10.63,-0.1,0.4,0.91,0.6,5.4,-1.3,33.0,,,,,,,,,,
14.18.14.715,23.1,5.8,0,15.0,,94886.8,10.54,-0.09,0.4,0.89,0.1,5.9,-1.0,33.0,,,,,,,,,,
14.18.14.727,13.9,3.5,0,15.0,,94949.5,10.53,-0.09,0.4,0.91,-0.2,5.5,-1.1,33.0,,,,,,,,,,
14.18.14.741,25.2,6.3,0,15.0,,92640.0,10.79,-0.09,0.4,0.91,2.0,6.0,-0.7,33.0,,,,,,,,,,
14.18.14.749,34.1,8.5,0,15.0,,94582.8,10.57,-0.1,0.41,0.9,1.0,6.2,-0.9,33.0,,,,,,,,,,
14.18.14.760,48.2,12.0,0,15.0,,95459.7,10.48,-0.09,0.41,0.9,-0.8,5.3,-1.4,33.0,,,,,,,,,,
14.18.14.773,45.0,11.2,0,15.0,,95344.3,10.49,-0.09,0.41,0.91,0.5,5.1,-1.2,33.0,,,,,,,,,,
14.18.14.781,46.5,11.6,0,15.0,,94535.1,10.58,-0.09,0.41,0.9,0.4,7.1,-1.5,33.0,,,,,,,,,,
14.18.14.794,52.6,13.2,0,15.0,,94549.4,10.58,-0.1,0.41,0.91,-1.1,5.3,-1.7,33.0,,,,,,,,,,
14.18.14.806,47.6,11.9,0,15.0,,94683.1,10.56,-0.1,0.4,0.9,-1.3,6.2,-1.9,33.0,,,,,,,,,,
14.18.14.818,31.2,7.8,0,15.0,,94861.9,10.54,-0.09,0.41,0.9,-1.7,6.3,-2.0,33.0,,,,,,,,,,
14.18.14.826,31.9,8.0,0,15.0,,94462.0,10.59,-0.09,0.41,0.91,-1.8,4.5,-2.0,33.0,,,,,,,,,,
14.18.14.838,21.7,5.4,0,15.0,,95142.1,10.51,-0.09,0.4,0.91,-0.9,5.2,-1.7,33.0,,,,,,,,,,
14.18.14.850,8.0,2.0,0,15.0,,95266.4,10.5,-0.09,0.4,0.9,-0.1,5.0,-1.8,33.0,,,,,,,,,,
14.18.14.859,0.9,0.2,0,15.0,,95535.8,10.47,-0.09,0.41,0.91,0.6,5.2,-1.5,33.0,,,,,,,,,,
14.18.14.871,-12.8,3.2,0,15.0,,95429.8,10.48,-0.09,0.41,0.91,0.4,6.6,-1.3,33.0,,,,,,,,,,
14.18.14.884,-9.6,2.4,0,15.0,,96067.2,10.41,-0.09,0.41,0.9,0.1,5.2,-1.1,33.0,,,,,,,,,,
14.18.14.896,-25.9,6.5,0,15.0,,94387.7,10.59,-0.09,0.4,0.91,-0.7,4.7,-1.3,33.0,,,,,,,,,,
14.18.14.904,-24.0,6.0,0,15.0,,95009.1,10.53,-0.09,0.39,0.91,-0.4,5.5,-1.8,33.0,,,,,,,,,,
14.18.14.917,-26.4,6.6,0,15.0,,94256.0,10.61,-0.09,0.4,0.91,1.0,5.4,-1.1,33.0,,,,,,,,,,
14.18.14.928,-46.7,11.7,0,15.0,,94559.6,10.58,-0.09,0.41,0.91,0.6,6.4,-1.4,33.0,,,,,,,,,,
14.18.14.936,-42.2,10.6,0,15.0,,94707.5,10.56,-0.09,0.4,0.91,0.3,5.7,-1.6,33.0,,,,,,,,,,
14.18.14.949,-43.7,10.9,0,15.0,,94385.7,10.59,-0.09,0.4,0.91,1.1,6.0,-1.5,33.0,,,,,,,,,,
14.18.14.961,-47.5,11.9,0,15.0,,95685.7,10.45,-0.1,0.41,0.9,1.1,6.9,-1.1,33.0,,,,,,,,,,
14.18.14.973,-50.9,12.7,0,15.0,,94914.0,10.54,-0.1,0.41,0.9,0.3,6.0,-1.4,33.0,,,,,,,,,,
14.18.14.982,-58.0,14.5,0,15.0,,94857.0,10.54,-0.1,0.41,0.91,-0.5,5.8,-1.5,33.0,,,,,,,,,,
14.18.14.994,-65.7,16.4,0,15.0,,95333.6,10.49,-0.09,0.4,0.9,-0.4,6.2,-1.6,33.0,,,,,,,,,,
14.18.15.006,-71.1,17.8,0,15.0,,95287.6,10.49,-0.09,0.4,0.91,-0.2,5.6,-1.7,33.0,,,,,,,,,,
14.18.15.019,-77.6,19.4,0,15.0,,94752.9,10.55,-0.1,0.41,0.91,0.8,5.9,-1.3,33.0,,,,,,,,,,
14.18.15.026,-72.4,18.1,0,15.0,,94820.4,10.55,-0.09,0.42,0.9,1.4,6.1,-0.9,33.0,,,,,,,,,,
14.18.15.039,-75.0,18.8,0,15.0,,96757.9,10.34,-0.09,0.4,0.9,0.9,5.0,-0.9,33.0,,,,,,,,,,
14.18.15.051,-85.6,21.4,0,15.0,,94436.1,10.59,-0.09,0.4,0.92,1.9,5.3,-0.5,33.0,,,,,,,,,,
14.18.15.059,-82.7,20.7,0,15.0,,94609.4,10.57,-0.1,0.4,0.9,2.6,6.4,-0.2,33.0,,,,,,,,,,
14.18.15.071,-107.4,26.8,0,15.0,,94060.9,10.63,-0.1,0.41,0.9,1.1,5.1,-0.5,33.0,,,,,,,,,,
14.18.15.084,-106.9,26.7,0,15.0,,95694.3,10.45,-0.1,0.4,0.91,0.7,5.6,-0.9,33.0,,,,,,,,,,
14.18.15.096,-103.2,25.8,0,15.0,,93779.5,10.66,-0.1,0.39,0.9,0.6,7.0,-1.0,33.0,,,,,,,,,,
14.18.15.104,-104.0,26.0,0,15.0,,95100.2,10.52,-0.09,0.4,0.91,-0.1,5.1,-1.5,33.0,,,,,,,,,,
14.18.15.117,-114.2,28.6,0,15.0,,93889.8,10.65,-0.09,0.42,0.9,-0.7,6.2,-1.8,33.0,,,,,,,,,,
14.18.15.129,-132.8,33.2,0,15.0,,96339.7,10.38,-0.09,0.42,0.9,-0.3,6.0,-1.7,33.0,,,,,,,,,,
14.18.15.141,-123.5,30.9,0,15.0,,93258.0,10.72,-0.09,0.41,0.91,-1.3,4.9,-1.8,33.0,,,,,,,,,,
14.18.15.150,-124.9,31.2,0,15.0,,94155.9,10.62,-0.09,0.4,0.91,-1.9,4.9,-2.0,33.0,,,,,,,,,,
14.18.15.162,33.3,8.3,1,16.0,84.4,94645.9,10.57,-0.09,0.4,0.91,-0.3,4.8,-1.4,33.0,,,,,,,,,,
14.18.15.174,105.6,26.4,0,16.0,,95850.4,10.43,-0.1,0.4,0.9,1.4,6.2,-0.8,33.0,,,,,,,,,,
14.18.15.182,132.1,33.0,0,16.0,,93366.8,10.71,-0.1,0.4,0.9,0.7,5.8,-1.3,33.0,,,,,,,,,,
14.18.15.195,180.2,45.0,0,16.0,,94766.5,10.55,-0.09,0.4,0.9,0.7,5.6,-1.2,33.0,,,,,,,,,,
14.18.15.208,237.5,59.4,0,16.0,,94134.8,10.62,-0.09,0.41,0.91,1.3,7.1,-1.2,33.0,,,,,,,,,,
14.18.15.215,254.4,63.6,0,16.0,,95104.9,10.51,-0.1,0.41,0.9,0.2,6.5,-0.9,33.0,,,,,,,,,,
14.18.15.228,303.0,75.8,0,16.0,,94859.8,10.54,-0.1,0.41,0.91,-0.2,5.8,-1.1,33.0,,,,,,,,,,
14.18.15.240,285.4,71.4,0,16.0,,94740.2,10.56,-0.09,0.4,0.91,0.2,6.8,-1.4,33.0,,,,,,,,,,
14.18.15.252,314.4,78.6,0,16.0,,94654.7,10.56,-0.1,0.4,0.9,0.4,6.4,-1.3,33.0,,,,,,,,,,
14.18.15.261,330.9,82.7,0,16.0,,94611.5,10.57,-0.09,0.39,0.9,0.8,5.9,-1.3,33.0,,,,,,,,,,
14.18.15.273,304.6,76.2,0,16.0,,93887.4,10.65,-0.09,0.41,0.91,1.6,6.4,-1.5,33.0,,,,,,,,,,
14.18.15.284,286.8,71.7,0,16.0,,92927.6,10.76,-0.09,0.41,0.9,1.7,7.8,-1.2,33.0,,,,,,,,,,
14.18.15.293,261.4,65.4,0,16.0,,94483.7,10.58,-0.1,0.41,0.9,1.2,6.5,-1.3,33.0,,,,,,,,,,
14.18.15.334,197.9,49.5,0,16.0,,95040.0,10.52,-0.09,0.41,0.91,0.1,5.0,-1.6,33.0,,,,,,,,,,
14.18.15.347,144.7,36.2,0,16.0,,95333.8,10.49,-0.09,0.41,0.91,-0.1,4.6,-1.9,33.0,,,,,,,,,,
14.18.15.358,90.6,22.6,0,16.0,,94297.0,10.6,-0.09,0.4,0.9,0.6,3.5,-1.8,33.0,,,,,,,,,,
14.18.15.366,82.3,20.6,0,16.0,,95584.4,10.46,-0.09,0.4,0.91,1.7,4.1,-1.7,33.0,,,,,,,,,,
14.18.15.379,20.2,5.0,0,16.0,,93507.7,10.69,-0.09,0.41,0.91,1.3,5.5,-1.8,33.0,,,,,,,,,,
14.18.15.391,1.9,0.5,0,16.0,,95149.7,10.51,-0.09,0.42,0.91,-0.1,6.7,-2.0,33.0,,,,,,,,,,
14.18.15.400,24.0,6.0,0,16.0,,95678.4,10.45,-0.1,0.4,0.89,-1.2,5.5,-2.3,33.0,,,,,,,,,,
14.18.15.412,38.1,9.5,0,16.0,,94721.9,10.56,-0.1,0.4,0.9,0.5,5.5,-1.5,33.0,,,,,,,,,,
14.18.15.424,49.6,12.4,0,16.0,,94677.4,10.56,-0.09,0.4,0.91,-0.5,6.7,-1.7,33.0,,,,,,,,,,
14.18.15.433,45.1,11.3,0,16.0,,94960.7,10.53,-0.1,0.4,0.9,-1.4,5.4,-2.5,33.0,,,,,,,,,,
14.18.15.445,57.3,14.3,0,16.0,,94314.2,10.6,-0.09,0.41,0.91,-0.5,5.5,-2.3,33.0,,,,,,,,,,
14.18.15.457,51.9,13.0,0,16.0,,96101.4,10.41,-0.09,0.41,0.9,-0.5,7.3,-2.1,33.0,,,,,,,,,,
14.18.15.469,51.7,12.9,0,16.0,,94315.0,10.6,-0.09,0.41,0.9,-1.6,5.5,-2.4,33.0,,,,,,,,,,
14.18.15.477,50.4,12.6,0,16.0,,94365.4,10.6,-0.09,0.4,0.91,-2.4,4.2,-2.3,33.0,,,,,,,,,,
14.18.15.490,38.8,9.7,0,16.0,,95553.4,10.47,-0.09,0.41,0.91,-1.2,4.7,-2.1,33.0,,,,,,,,,,
14.18.15.502,9.8,2.4,0,16.0,,94949.8,10.53,-0.09,0.4,0.9,-1.5,4.7,-1.8,33.0,,,,,,,,,,
14.18.15.515,1.8,0.4,0,16.0,,94956.9,10.53,-0.09,0.39,0.9,-1.3,3.6,-1.8,33.0,,,,,,,,,,
14.18.15.522,-8.1,2.0,0,16.0,,94211.6,10.61,-0.09,0.39,0.91,1.3,4.4,-1.5,33.0,,,,,,,,,,
14.18.15.534,-8.5,2.1,0,16.0,,93985.9,10.64,-0.1,0.4,0.91,2.1,7.2,-1.4,33.0,,,,,,,,,,
14.18.15.548,-8.6,2.2,0,16.0,,94764.7,10.55,-0.1,0.41,0.9,0.1,5.3,-1.8,33.0,,,,,,,,,,
14.18.15.555,-18.0,4.5,0,16.0,,93798.0,10.66,-0.09,0.41,0.9,-1.0,5.4,-1.8,33.0,,,,,,,,,,
14.18.15.567,-25.2,6.3,0,16.0,,95330.2,10.49,-0.09,0.41,0.91,-0.9,6.2,-1.6,33.0,,,,,,,,,,
14.18.15.580,-20.8,5.2,0,16.0,,94409.0,10.59,-0.1,0.4,0.9,-1.3,4.9,-1.6,33.0,,,,,,,,,,
14.18.15.588,-37.9,9.5,0,16.0,,94186.5,10.62,-0.09,0.4,0.91,-1.1,4.9,-1.6,33.0,,,,,,,,,,
14.18.15.600,-30.4,7.6,0,16.0,,95979.1,10.42,-0.09,0.39,0.91,-0.2,5.6,-1.4,33.0,,,,,,,,,,
14.18.15.612,-40.0,10.0,0,16.0,,95384.2,10.48,-0.09,0.4,0.91,0.7,6.1,-1.5,33.0,,,,,,,,,,
14.18.15.624,-53.5,13.4,0,16.0,,93966.7,10.64,-0.09,0.41,0.91,0.4,6.0,-1.5,33.0,,,,,,,,,,
14.18.15.634,-52.9,13.2,0,16.0,,93913.7,10.65,-0.09,0.41,0.9,-0.7,5.5,-1.8,33.0,,,,,,,,,,
14.18.15.646,-52.0,13.0,0,16.0,,93930.6,10.65,-0.1,0.4,0.91,0.2,6.8,-1.3,33.0,,,,,,,,,,
14.18.15.657,-71.4,17.8,0,16.0,,95476.4,10.47,-0.1,0.4,0.9,-0.1,6.5,-1.1,33.0,,,,,,,,,,
14.18.15.670,-60.2,15.0,0,16.0,,94330.4,10.6,-0.09,0.39,0.9,-0.6,4.0,-1.1,33.0,,,,,,,,,,
14.18.15.678,-74.3,18.6,0,16.0,,95461.2,10.48,-0.09,0.39,0.91,0.8,7.0,-1.2,33.0,,,,,,,,,,
14.18.15.690,-85.2,21.3,0,16.0,,94072.8,10.63,-0.09,0.39,0.9,3.0,5.7,-0.3,33.0,,,,,,,,,,
14.18.15.702,-83.1,20.8,0,16.0,,95254.5,10.5,-0.09,0.4,0.91,2.1,7.6,-0.9,33.0,,,,,,,,,,
14.18.15.710,-72.2,18.0,0,16.0,,96531.1,10.36,-0.1,0.41,0.9,1.3,9.2,-1.0,33.0,,,,,,,,,,
14.18.15.724,-90.3,22.6,0,16.0,,94745.6,10.55,-0.09,0.41,0.9,-0.3,5.6,-1.4,33.0,,,,,,,,,,
14.18.15.735,-82.0,20.5,0,16.0,,94250.2,10.61,-0.09,0.4,0.91,-1.0,4.8,-1.2,33.0,,,,,,,,,,
14.18.15.748,-100.4,25.1,0,16.0,,94332.9,10.6,-0.09,0.39,0.91,0.9,6.8,-0.9,33.0,,,,,,,,,,
14.18.15.756,-103.2,25.8,0,16.0,,95431.4,10.48,-0.08,0.4,0.9,1.8,4.9,-0.9,33.0,,,,,,,,,,
14.18.15.768,-118.0,29.5,0,16.0,,94040.8,10.63,-0.09,0.4,0.91,1.4,5.9,-0.9,33.0,,,,,,,,,,
14.18.15.780,-117.7,29.4,0,16.0,,95033.1,10.52,-0.1,0.4,0.91,2.0,6.0,-0.4,33.0,,,,,,,,,,
14.18.15.788,-113.9,28.5,0,16.0,,96552.2,10.36,-0.09,0.39,0.9,0.9,5.1,-0.6,33.0,,,,,,,,,,
14.18.15.802,-112.6,28.2,0,16.0,,96151.6,10.4,-0.09,0.39,0.91,1.9,5.3,-0.8,33.0,,,,,,,,,,
14.18.15.814,12.4,3.1,1,17.0,94.8,95651.5,10.45,-0.09,0.41,0.9,3.1,6.2,-0.1,33.0,,,,,,,,,,
14.18.15.825,47.2,11.8,0,17.0,,95040.1,10.52,-0.09,0.41,0.9,2.2,5.6,-0.3,33.0,,,,,,,,,,
14.18.15.834,94.3,23.6,0,17.0,,94356.6,10.6,-0.1,0.4,0.91,1.4,5.5,-0.6,33.0,,,,,,,,,,
14.18.15.847,140.1,35.0,0,17.0,,94772.4,10.55,-0.09,0.4,0.9,1.6,5.8,-0.8,33.0,,,,,,,,,,
14.18.15.859,185.5,46.4,0,17.0,,93064.9,10.75,-0.1,0.4,0.91,1.3,6.2,-0.5,33.0,,,,,,,,,,
14.18.15.866,203.2,50.8,0,17.0,,94192.2,10.62,-0.09,0.4,0.9,0.7,6.5,-1.2,33.0,,,,,,,,,,
14.18.15.879,239.5,59.9,0,17.0,,96160.4,10.4,-0.1,0.4,0.91,1.1,5.1,-1.1,33.0,,,,,,,,,,
14.18.15.891,224.5,56.1,0,17.0,,96935.1,10.32,-0.09,0.4,0.91,1.1,7.2,-1.4,33.0,,,,,,,,,,
14.18.15.900,265.6,66.4,0,17.0,,94690.1,10.56,-0.09,0.41,0.9,0.5,6.2,-1.5,33.0,,,,,,,,,,
14.18.15.911,328.4,82.1,0,17.0,,92248.9,10.84,-0.1,0.41,0.91,-0.3,4.0,-1.6,33.0,,,,,,,,,,
14.18.15.924,295.4,73.8,0,17.0,,94687.4,10.56,-0.1,0.4,0.91,0.4,5.5,-1.5,33.0,,,,,,,,,,
14.18.15.936,305.9,76.5,0,17.0,,96041.3,10.41,-0.09,0.41,0.9,1.5,7.2,-1.6,33.0,,,,,,,,,,
14.18.15.944,302.8,75.7,0,17.0,,95593.1,10.46,-0.1,0.41,0.9,0.6,6.0,-1.1,33.0,,,,,,,,,,
14.18.15.956,315.2,78.8,0,17.0,,96024.5,10.41,-0.09,0.4,0.91,-0.6,5.5,-1.1,33.0,,,,,,,,,,
14.18.15.969,289.3,72.3,0,17.0,,94777.0,10.55,-0.09,0.4,0.91,0.5,6.4,-1.4,33.0,,,,,,,,,,
14.18.15.978,295.5,73.9,0,17.0,,94890.8,10.54,-0.09,0.4,0.9,0.7,5.1,-0.8,33.0,,,,,,,,,,
14.18.15.989,241.3,60.3,0,17.0,,94168.7,10.62,-0.09,0.4,0.91,-0.3,5.1,-1.2,33.0,,,,,,,,,,
14.18.16.002,171.6,42.9,0,17.0,,95307.3,10.49,-0.09,0.4,0.91,1.1,5.3,-1.3,33.0,,,,,,,,,,
14.18.16.014,133.5,33.4,0,17.0,,94630.2,10.57,-0.09,0.41,0.91,0.7,6.1,-1.5,33.0,,,,,,,,,,
14.18.16.022,96.5,24.1,0,17.0,,95028.7,10.52,-0.1,0.41,0.9,-0.2,5.0,-1.7,33.0,,,,,,,,,,
14.18.16.035,43.4,10.8,0,17.0,,95146.4,10.51,-0.1,0.41,0.91,-0.2,5.8,-1.7,33.0,,,,,,,,,,
14.18.16.046,-6.9,1.7,0,17.0,,94586.3,10.57,-0.09,0.4,0.9,-1.0,4.5,-1.4,33.0,,,,,,,,,,
14.18.16.056,23.1,5.8,0,17.0,,96095.1,10.41,-0.09,0.4,0.91,-1.2,5.0,-2.3,33.0,,,,,,,,,,
14.18.16.068,26.5,6.6,0,17.0,,95367.5,10.49,-0.09,0.4,0.9,-1.1,6.7,-2.3,33.0,,,,,,,,,,
14.18.16.079,47.6,11.9,0,17.0,,94670.5,10.56,-0.09,0.4,0.9,1.0,6.3,-1.6,33.0,,,,,,,,,,
14.18.16.092,60.9,15.2,0,17.0,,94188.0,10.62,-0.09,0.41,0.9,0.4,7.8,-2.0,33.0,,,,,,,,,,
14.18.16.101,53.0,13.2,0,17.0,,93964.7,10.64,-0.09,0.41,0.9,-1.1,6.3,-1.8,33.0,,,,,,,,,,
14.18.16.141,36.9,9.2,0,17.0,,94190.0,10.62,-0.09,0.39,0.91,-0.2,4.8,-0.9,32.94,,,,,,,,,,
14.18.16.153,32.8,8.2,0,17.0,,94492.0,10.58,-0.09,0.39,0.91,2.6,5.1,-0.3,32.94,,,,,,,,,,
14.18.16.161,22.5,5.6,0,17.0,,94227.7,10.61,-0.09,0.4,0.91,4.2,7.4,0.1,32.94,,,,,,,,,,
14.18.16.174,6.1,1.5,0,17.0,,93779.9,10.66,-0.09,0.41,0.91,2.6,6.0,-0.2,32.94,,,,,,,,,,
14.18.16.186,-13.7,3.4,0,17.0,,95825.5,10.44,-0.09,0.41,0.91,2.2,5.0,0.3,32.94,,,,,,,,,,
14.18.16.194,-5.3,1.3,0,17.0,,94569.1,10.57,-0.09,0.42,0.91,3.0,5.8,0.2,32.94,,,,,,,,,,
14.18.16.206,-10.0,2.5,0,17.0,,95455.1,10.48,-0.1,0.41,0.9,1.8,5.6,0.0,32.94,,,,,,,,,,
14.18.16.218,-17.3,4.3,0,17.0,,94548.0,10.58,-0.1,0.38,0.9,0.3,6.0,-0.7,32.94,,,,,,,,,,
14.18.16.231,-26.6,6.6,0,17.0,,93553.2,10.69,-0.1,0.39,0.9,2.3,6.0,-1.1,32.94,,,,,,,,,,
14.18.16.239,-23.5,5.9,0,17.0,,93469.2,10.7,-0.1,0.42,0.91,2.2,8.3,-1.5,32.94,,,,,,,,,,
14.18.16.251,-30.5,7.6,0,17.0,,93975.6,10.64,-0.09,0.42,0.89,0.2,7.3,-1.8,32.94,,,,,,,,,,
14.18.16.264,-18.7,4.7,0,17.0,,95353.8,10.49,-0.09,0.41,0.91,-1.4,4.2,-1.8,32.94,,,,,,,,,,
14.18.16.272,-46.4,11.6,0,17.0,,94849.9,10.54,-0.1,0.4,0.91,-1.9,4.9,-1.7,32.94,,,,,,,,,,
14.18.16.285,-45.2,11.3,0,17.0,,95574.1,10.46,-0.08,0.4,0.91,1.0,5.6,-0.9,32.94,,,,,,,,,,
14.18.16.296,-53.9,13.5,0,17.0,,94757.9,10.55,-0.09,0.4,0.9,1.6,5.0,-1.1,32.94,,,,,,,,,,
14.18.16.310,-63.2,15.8,0,17.0,,94426.3,10.59,-0.08,0.4,0.9,1.8,4.2,-0.9,32.94,,,,,,,,,,
14.18.16.317,-52.3,13.1,0,17.0,,95492.5,10.47,-0.09,0.41,0.91,2.8,5.7,-0.9,32.94,,,,,,,,,,
14.18.16.330,-58.0,14.5,0,17.0,,95370.0,10.49,-0.09,0.41,0.9,2.2,4.9,-0.4,32.94,,,,,,,,,,
14.18.16.341,-74.8,18.7,0,17.0,,95062.6,10.52,-0.1,0.41,0.91,1.1,4.6,-0.6,32.94,,,,,,,,,,
14.18.16.355,-71.7,17.9,0,17.0,,95460.1,10.48,-0.09,0.41,0.91,0.6,4.7,-1.0,32.94,,,,,,,,,,
14.18.16.362,-84.3,21.1,0,17.0,,93945.0,10.64,-0.09,0.4,0.91,0.0,5.0,-1.0,32.94,,,,,,,,,,
14.18.16.374,-82.1,20.5,0,17.0,,94648.2,10.57,-0.1,0.4,0.9,0.1,5.5,-1.3,32.94,,,,,,,,,,
14.18.16.387,-91.0,22.8,0,17.0,,95636.0,10.46,-0.09,0.4,0.91,0.2,6.2,-1.8,32.94,,,,,,,,,,
14.18.16.395,-82.4,20.6,0,17.0,,94837.0,10.54,-0.1,0.41,0.91,0.3,6.3,-1.7,32.94,,,,,,,,,,
14.18.16.407,-102.6,25.6,0,17.0,,95734.6,10.45,-0.09,0.41,0.9,-0.4,6.8,-1.8,32.94,,,,,,,,,,
14.18.16.420,-105.2,26.3,0,17.0,,95505.0,10.47,-0.09,0.41,0.9,-2.0,4.9,-2.1,32.94,,,,,,,,,,
14.18.16.432,-89.1,22.3,0,17.0,,95819.6,10.44,-0.09,0.4,0.91,-2.0,5.0,-2.3,32.94,,,,,,,,,,
14.18.16.440,-112.5,28.1,0,17.0,,96159.6,10.4,-0.09,0.4,0.9,-0.6,5.6,-2.4,32.94,,,,,,,,,,
14.18.16.452,-124.3,31.1,0,17.0,,94276.7,10.61,-0.1,0.4,0.91,-1.1,7.3,-2.7,32.94,,,,,,,,,,
14.18.16.465,-125.2,31.3,0,17.0,,96961.5,10.31,-0.09,0.41,0.9,-1.8,6.3,-3.0,32.94,,,,,,,,,,
14.18.16.473,-115.0,28.8,0,17.0,,94905.7,10.54,-0.09,0.41,0.91,-2.9,6.4,-2.9,32.94,,,,,,,,,,
14.18.16.485,30.4,7.6,1,18.0,89.4,95116.8,10.51,-0.09,0.4,0.91,-3.4,5.3,-3.0,32.94,,,,,,,,,,
14.18.16.497,83.8,21.0,0,18.0,,95913.2,10.43,-0.09,0.41,0.91,-4.0,4.9,-3.5,32.94,,,,,,,,,,
14.18.16.509,123.7,30.9,0,18.0,,95058.2,10.52,-0.09,0.4,0.91,-2.1,4.5,-2.6,32.94,,,,,,,,,,
14.18.16.518,165.4,41.4,0,18.0,,95225.7,10.5,-0.09,0.4,0.9,-1.2,3.9,-2.1,32.94,,,,,,,,,,
14.18.16.531,193.4,48.4,0,18.0,,95914.3,10.43,-0.09,0.4,0.9,-0.9,6.5,-2.4,32.94,,,,,,,,,,
14.18.16.543,258.6,64.6,0,18.0,,93467.3,10.7,-0.09,0.39,0.9,-0.6,3.7,-1.8,32.94,,,,,,,,,,
14.18.16.551,256.2,64.0,0,18.0,,95632.2,10.46,-0.09,0.4,0.91,-0.1,6.1,-2.4,32.94,,,,,,,,,,
14.18.16.563,301.3,75.3,0,18.0,,94772.6,10.55,-0.09,0.41,0.9,0.3,6.4,-1.7,32.94,,,,,,,,,,
14.18.16.575,285.1,71.3,0,18.0,,95138.9,10.51,-0.09,0.41,0.9,-1.3,5.4,-1.9,32.94,,,,,,,,,,
14.18.16.587,324.0,81.0,0,18.0,,95639.6,10.46,-0.09,0.4,0.91,-1.8,5.5,-1.8,32.94,,,,,,,,,,
14.18.16.595,332.1,83.0,0,18.0,,93678.1,10.67,-0.09,0.39,0.91,-1.4,5.3,-1.9,32.94,,,,,,,,,,
14.18.16.609,336.3,84.1,0,18.0,,93199.1,10.73,-0.09,0.39,0.91,-0.7,4.8,-1.8,32.94,,,,,,,,,,
14.18.16.620,296.1,74.0,0,18.0,,96379.5,10.38,-0.09,0.4,0.9,0.0,5.2,-1.1,32.94,,,,,,,,,,
14.18.16.629,260.4,65.1,0,18.0,,95408.0,10.48,-0.08,0.39,0.91,0.4,4.4,-1.6,32.94,,,,,,,,,,
14.18.16.641,254.0,63.5,0,18.0,,93447.3,10.7,-0.09,0.4,0.91,1.8,5.0,-0.6,32.94,,,,,,,,,,
14.18.16.653,240.9,60.2,0,18.0,,96772.8,10.33,-0.09,0.4,0.91,1.3,6.0,-0.4,32.94,,,,,,,,,,
14.18.16.665,185.2,46.3,0,18.0,,94815.7,10.55,-0.09,0.41,0.9,0.6,4.8,-0.3,32.94,,,,,,,,,,
14.18.16.674,141.7,35.4,0,18.0,,95025.7,10.52,-0.09,0.4,0.91,0.5,4.0,-0.4,32.94,,,,,,,,,,
14.18.16.686,90.8,22.7,0,18.0,,95602.6,10.46,-0.09,0.39,0.9,0.8,5.6,-0.9,32.94,,,,,,,,,,
14.18.16.699,47.3,11.8,0,18.0,,95116.3,10.51,-0.09,0.38,0.9,1.2,6.4,-1.5,32.94,,,,,,,,,,
14.18.16.706,15.7,3.9,0,18.0,,93250.4,10.72,-0.1,0.4,0.9,1.8,6.7,-2.0,32.94,,,,,,,,,,
14.18.16.718,14.4,3.6,0,18.0,,93014.2,10.75,-0.09,0.42,0.91,0.1,7.3,-2.1,32.94,,,,,,,,,,
14.18.16.731,26.6,6.6,0,18.0,,97155.5,10.29,-0.09,0.42,0.9,-2.5,6.4,-2.5,32.94,,,,,,,,,,
14.18.16.740,43.1,10.8,0,18.0,,95715.9,10.45,-0.09,0.4,0.91,-2.8,5.1,-2.5,32.94,,,,,,,,,,
14.18.16.752,51.2,12.8,0,18.0,,95145.0,10.51,-0.09,0.39,0.91,-2.4,6.2,-2.5,32.94,,,,,,,,,,
14.18.16.763,63.2,15.8,0,18.0,,94176.9,10.62,-0.09,0.39,0.91,-0.6,6.7,-2.1,32.94,,,,,,,,,,
14.18.16.776,47.8,12.0,0,18.0,,94921.0,10.54,-0.09,0.4,0.91,1.3,7.2,-1.6,32.94,,,,,,,,,,
14.18.16.784,56.1,14.0,0,18.0,,93803.3,10.66,-0.09,0.41,0.91,0.6,7.4,-1.6,32.94,,,,,,,,,,
14.18.16.797,46.7,11.7,0,18.0,,95530.8,10.47,-0.09,0.4,0.91,-0.6,5.8,-1.4,32.94,,,,,,,,,,
14.18.16.808,46.0,11.5,0,18.0,,94061.5,10.63,-0.09,0.4,0.91,-0.1,4.6,-1.2,32.94,,,,,,,,,,
14.18.16.817,29.7,7.4,0,18.0,,94349.6,10.6,-0.09,0.39,0.91,1.1,4.8,-0.4,32.94,,,,,,,,,,
14.18.16.829,17.0,4.2,0,18.0,,96189.5,10.4,-0.09,0.38,0.91,2.1,5.3,-0.9,32.94,,,,,,,,,,
14.18.16.841,0.5,0.1,0,18.0,,94514.8,10.58,-0.09,0.39,0.91,4.4,6.0,-0.6,32.94,,,,,,,,,,
14.18.16.854,-0.5,0.1,0,18.0,,95067.5,10.52,-0.09,0.41,0.91,4.6,8.2,-0.7,32.94,,,,,,,,,,
14.18.16.862,-11.2,2.8,0,18.0,,94305.4,10.6,-0.1,0.41,0.9,1.7,6.6,-1.1,32.94,,,,,,,,,,
14.18.16.874,-15.7,3.9,0,18.0,,94647.6,10.57,-0.09,0.4,0.91,0.8,4.8,-1.1,32.94,,,,,,,,,,
14.18.16.887,-19.3,4.8,0,18.0,,94076.2,10.63,-0.09,0.4,0.91,1.5,6.7,-1.1,32.94,,,,,,,,,,
14.18.16.895,-24.8,6.2,0,18.0,,96876.0,10.32,-0.09,0.4,0.91,0.3,4.8,-1.1,32.94,,,,,,,,,,
14.18.16.907,-27.0,6.8,0,18.0,,93981.6,10.64,-0.08,0.4,0.91,0.7,4.5,-1.2,32.94,,,,,,,,,,
14.18.16.949,-47.1,11.8,0,18.0,,95246.3,10.5,-0.09,0.4,0.9,1.8,5.1,-1.0,32.94,,,,,,,,,,
14.18.16.960,-46.0,11.5,0,18.0,,95424.7,10.48,-0.09,0.41,0.91,1.0,4.7,-0.8,32.94,,,,,,,,,,
14.18.16.968,-62.2,15.6,0,18.0,,95173.5,10.51,-0.1,0.4,0.9,0.8,5.5,-0.4,32.94,,,,,,,,,,
14.18.16.981,-63.7,15.9,0,18.0,,94756.1,10.55,-0.09,0.4,0.91,1.9,7.5,0.0,32.94,,,,,,,,,,
14.18.16.994,-71.3,17.8,0,18.0,,94925.2,10.53,-0.1,0.39,0.91,3.1,7.3,-0.1,32.94,,,,,,,,,,
14.18.17.001,-71.6,17.9,0,18.0,,95429.4,10.48,-0.09,0.4,0.91,3.8,6.8,-0.3,32.94,,,,,,,,,,
14.18.17.013,-81.2,20.3,0,18.0,,93641.7,10.68,-0.09,0.41,0.9,3.4,8.0,-0.1,32.94,,,,,,,,,,
14.18.17.026,-78.9,19.7,0,18.0,,93653.9,10.68,-0.09,0.41,0.89,1.6,6.7,-0.8,32.94,,,,,,,,,,
14.18.17.038,-80.0,20.0,0,18.0,,94352.6,10.6,-0.09,0.41,0.91,0.4,5.3,-1.4,32.94,,,,,,,,,,
14.18.17.047,-95.8,24.0,0,18.0,,94546.9,10.58,-0.09,0.41,0.91,-1.9,7.1,-1.9,32.94,,,,,,,,,,
14.18.17.059,-98.9,24.7,0,18.0,,94385.8,10.59,-0.09,0.41,0.9,-2.4,3.9,-2.1,32.94,,,,,,,,,,
14.18.17.071,-100.9,25.2,0,18.0,,94836.5,10.54,-0.09,0.4,0.91,-2.8,4.6,-2.6,32.94,,,,,,,,,,
14.18.17.080,-115.0,28.8,0,18.0,,94609.3,10.57,-0.09,0.39,0.91,-2.2,4.5,-2.1,32.94,,,,,,,,,,
14.18.17.091,-105.5,26.4,0,18.0,,94587.4,10.57,-0.1,0.39,0.91,-0.9,3.9,-1.9,32.94,,,,,,,,,,
14.18.17.103,-118.8,29.7,0,18.0,,94293.8,10.61,-0.09,0.4,0.91,0.7,7.4,-1.9,32.94,,,,,,,,,,
14.18.17.117,-119.9,30.0,0,18.0,,95003.5,10.53,-0.09,0.41,0.9,0.5,6.7,-1.8,32.94,,,,,,,,,,
14.18.17.125,-124.6,31.2,0,18.0,,94920.6,10.54,-0.09,0.4,0.91,-0.6,5.4,-1.5,32.94,,,,,,,,,,
14.18.17.136,-122.8,30.7,0,18.0,,95567.6,10.46,-0.09,0.4,0.91,0.0,6.7,-1.6,32.94,,,,,,,,,,
14.18.17.149,35.1,8.8,1,19.0,96.9,94247.7,10.61,-0.09,0.4,0.91,0.2,6.3,-1.0,32.94,,,,,,,,,,
14.18.17.157,74.3,18.6,0,19.0,,94683.7,10.56,-0.09,0.41,0.91,-0.2,5.0,-0.9,32.94,,,,,,,,,,
14.18.17.169,120.9,30.2,0,19.0,,93460.1,10.7,-0.09,0.39,0.91,-0.1,6.0,-0.9,32.94,,,,,,,,,,
14.18.17.181,174.3,43.6,0,19.0,,95866.2,10.43,-0.09,0.4,0.92,0.8,5.5,-1.0,32.94,,,,,,,,,,
14.18.17.194,226.4,56.6,0,19.0,,95481.7,10.47,-0.08,0.39,0.9,0.7,6.1,-0.9,32.94,,,,,,,,,,
14.18.17.202,222.8,55.7,0,19.0,,96161.6,10.4,-0.09,0.4,0.91,2.6,5.8,-0.4,32.94,,,,,,,,,,
14.18.17.215,268.3,67.1,0,19.0,,95484.9,10.47,-0.09,0.41,0.9,2.7,8.3,-0.5,32.94,,,,,,,,,,
14.18.17.226,302.3,75.6,0,19.0,,95115.2,10.51,-0.09,0.41,0.9,1.1,6.1,-0.6,32.94,,,,,,,,,,
14.18.17.234,294.7,73.7,0,19.0,,95121.9,10.51,-0.09,0.4,0.9,0.4,5.7,-0.7,32.94,,,,,,,,,,
14.18.17.247,307.5,76.9,0,19.0,,95596.9,10.46,-0.09,0.4,0.91,1.8,7.0,-0.4,32.94,,,,,,,,,,
14.18.17.259,311.2,77.8,0,19.0,,94417.7,10.59,-0.09,0.4,0.91,2.1,5.3,-0.4,32.94,,,,,,,,,,
14.18.17.267,332.0,83.0,0,19.0,,95285.3,10.49,-0.09,0.4,0.91,2.3,5.4,-0.6,32.94,,,,,,,,,,
14.18.17.280,323.1,80.8,0,19.0,,95731.7,10.45,-0.09,0.4,0.9,3.1,7.9,-0.8,32.94,,,,,,,,,,
14.18.17.292,281.4,70.4,0,19.0,,94568.7,10.57,-0.09,0.41,0.9,1.7,6.4,-1.1,32.94,,,,,,,,,,
14.18.17.304,268.8,67.2,0,19.0,,94587.3,10.57,-0.09,0.42,0.91,-0.2,4.8,-1.5,32.94,,,,,,,,,,
14.18.17.313,235.5,58.9,0,19.0,,93013.0,10.75,-0.08,0.41,0.91,-0.8,6.3,-1.9,32.94,,,,,,,,,,
14.18.17.326,179.1,44.8,0,19.0,,95279.5,10.5,-0.09,0.41,0.9,0.0,5.2,-1.1,32.94,,,,,,,,,,
14.18.17.337,135.4,33.8,0,19.0,,96177.8,10.4,-0.09,0.4,0.9,-0.2,5.8,-1.1,32.94,,,,,,,,,,
14.18.17.345,112.4,28.1,0,19.0,,95019.9,10.52,-0.09,0.39,0.92,-0.3,5.1,-0.7,32.94,,,,,,,,,,
14.18.17.358,56.2,14.0,0,19.0,,94812.6,10.55,-0.09,0.39,0.92,1.5,5.5,-0.9,32.94,,,,,,,,,,
14.18.17.370,5.8,1.4,0,19.0,,93988.9,10.64,-0.09,0.4,0.91,2.4,7.0,-0.9,32.94,,,,,,,,,,
14.18.17.383,18.2,4.6,0,19.0,,95864.1,10.43,-0.09,0.41,0.89,1.9,6.8,-1.4,32.94,,,,,,,,,,
14.18.17.391,25.2,6.3,0,19.0,,95770.8,10.44,-0.1,0.41,0.9,-1.0,5.0,-1.7,32.94,,,,,,,,,,
14.18.17.402,34.6,8.6,0,19.0,,95983.1,10.42,-0.09,0.41,0.91,-1.9,5.9,-1.9,32.94,,,,,,,,,,
14.18.17.416,55.9,14.0,0,19.0,,95808.0,10.44,-0.09,0.4,0.9,-0.7,6.0,-1.7,32.94,,,,,,,,,,
14.18.17.424,64.2,16.0,0,19.0,,95575.7,10.46,-0.09,0.41,0.91,-1.6,5.1,-1.8,32.94,,,,,,,,,,
14.18.17.436,61.3,15.3,0,19.0,,93980.5,10.64,-0.09,0.4,0.91,-1.1,4.8,-1.5,32.94,,,,,,,,,,
14.18.17.448,61.6,15.4,0,19.0,,93725.5,10.67,-0.09,0.39,0.91,0.2,5.1,-1.4,32.94,,,,,,,,,,
14.18.17.460,50.8,12.7,0,19.0,,95018.6,10.52,-0.09,0.39,0.91,1.8,6.4,-1.2,32.94,,,,,,,,,,
14.18.17.468,41.5,10.4,0,19.0,,95048.6,10.52,-0.09,0.41,0.9,1.8,6.9,-0.8,32.94,,,,,,,,,,
14.18.17.480,35.0,8.8,0,19.0,,93090.0,10.74,-0.1,0.41,0.91,0.3,5.8,-1.2,32.94,,,,,,,,,,
14.18.17.493,13.5,3.4,0,19.0,,95502.3,10.47,-0.1,0.4,0.9,-0.1,5.5,-1.3,32.94,,,,,,,,,,
14.18.17.506,5.0,1.2,0,19.0,,96290.7,10.39,-0.1,0.4,0.9,-0.4,5.3,-1.4,32.94,,,,,,,,,,
14.18.17.514,-5.8,1.4,0,19.0,,95868.5,10.43,-0.09,0.4,0.9,-0.3,6.8,-1.4,32.94,,,,,,,,,,
14.18.17.526,-11.8,3.0,0,19.0,,95386.0,10.48,-0.09,0.4,0.9,-0.7,6.6,-1.9,32.94,,,,,,,,,,
14.18.17.538,-18.3,4.6,0,19.0,,94313.6,10.6,-0.09,0.4,0.9,0.0,7.5,-1.1,32.94,,,,,,,,,,
14.18.17.551,-19.8,5.0,0,19.0,,94045.7,10.63,-0.09,0.4,0.9,1.3,7.7,-1.2,32.94,,,,,,,,,,
14.18.17.558,-24.8,6.2,0,19.0,,94842.6,10.54,-0.08,0.41,0.91,0.5,7.8,-1.2,32.94,,,,,,,,,,
14.18.17.571,-31.2,7.8,0,19.0,,96060.9,10.41,-0.09,0.41,0.91,-0.6,6.4,-1.4,32.94,,,,,,,,,,
14.18.17.583,-44.5,11.1,0,19.0,,95778.5,10.44,-0.09,0.4,0.91,-0.2,6.6,-1.3,32.94,,,,,,,,,,
14.18.17.592,-49.2,12.3,0,19.0,,93398.0,10.71,-0.09,0.41,0.91,0.5,6.8,-1.2,32.94,,,,,,,,,,
14.18.17.603,-39.4,9.8,0,19.0,,94252.6,10.61,-0.09,0.4,0.9,-0.1,6.5,-1.5,32.94,,,,,,,,,,
14.18.17.616,-43.0,10.8,0,19.0,,92826.6,10.77,-0.1,0.4,0.91,-0.7,4.6,-1.6,32.94,,,,,,,,,,
14.18.17.628,-54.2,13.6,0,19.0,,93903.2,10.65,-0.1,0.4,0.92,0.7,6.2,-1.3,32.94,,,,,,,,,,
14.18.17.636,-56.9,14.2,0,19.0,,94612.7,10.57,-0.1,0.41,0.9,0.2,6.2,-1.4,32.94,,,,,,,,,,
14.18.17.648,-53.0,13.2,0,19.0,,94075.1,10.63,-0.1,0.41,0.91,-1.3,4.3,-2.0,32.94,,,,,,,,,,
14.18.17.661,-63.5,15.9,0,19.0,,95262.7,10.5,-0.09,0.41,0.91,-0.9,4.7,-1.6,32.94,,,,,,,,,,
14.18.17.674,-73.0,18.2,0,19.0,,95252.8,10.5,-0.09,0.39,0.91,0.1,5.2,-1.0,32.94,,,,,,,,,,
14.18.17.682,-78.3,19.6,0,19.0,,95173.9,10.51,-0.09,0.39,0.91,0.5,4.7,-1.3,32.94,,,,,,,,,,
14.18.17.694,-91.7,22.9,0,19.0,,96174.0,10.4,-0.09,0.4,0.9,1.2,5.9,-1.3,32.94,,,,,,,,,,
14.18.17.706,-79.6,19.9,0,19.0,,95235.6,10.5,-0.09,0.4,0.91,0.9,5.9,-1.3,32.94,,,,,,,,,,
14.18.17.715,-80.5,20.1,0,19.0,,94816.0,10.55,-0.09,0.4,0.9,1.1,5.4,-1.1,32.94,,,,,,,,,,
14.18.17.750,-104.8,26.2,0,19.0,,94792.1,10.55,-0.09,0.4,0.9,0.4,5.5,-1.2,33.0,,,,,,,,,,
14.18.17.763,-117.2,29.3,0,19.0,,95418.4,10.48,-0.09,0.41,0.9,-0.3,4.9,-1.3,33.0,,,,,,,,,,
14.18.17.775,-119.9,30.0,0,19.0,,95271.7,10.5,-0.09,0.4,0.91,-0.9,4.5,-1.6,33.0,,,,,,,,,,
14.18.17.784,-126.2,31.6,0,19.0,,95818.9,10.44,-0.09,0.4,0.9,-0.5,5.0,-1.6,33.0,,,,,,,,,,
14.18.17.796,-112.3,28.1,0,19.0,,93292.8,10.72,-0.09,0.39,0.91,0.6,5.7,-1.1,33.0,,,,,,,,,,
14.18.17.804,12.2,3.0,1,20.0,91.7,96075.8,10.41,-0.09,0.39,0.91,0.9,6.0,-1.1,33.0,,,,,,,,,,
14.18.17.816,68.6,17.2,0,20.0,,93761.7,10.67,-0.09,0.4,0.91,0.7,5.1,-1.3,33.0,,,,,,,,,,
14.18.17.825,105.6,26.4,0,20.0,,95251.3,10.5,-0.09,0.4,0.91,0.6,6.7,-1.6,33.0,,,,,,,,,,
14.18.17.837,143.7,35.9,0,20.0,,95558.9,10.46,-0.09,0.41,0.91,0.5,6.6,-1.6,33.0,,,,,,,,,,
14.18.17.845,179.2,44.8,0,20.0,,95328.7,10.49,-0.09,0.41,0.9,-0.4,5.4,-1.5,33.0,,,,,,,,,,
14.18.17.857,204.3,51.1,0,20.0,,95076.0,10.52,-0.09,0.4,0.91,-1.1,5.4,-2.0,33.0,,,,,,,,,,
14.18.17.866,241.9,60.5,0,20.0,,95191.8,10.51,-0.09,0.39,0.9,-0.1,5.6,-1.6,33.0,,,,,,,,,,
14.18.17.879,303.9,76.0,0,20.0,,94255.4,10.61,-0.09,0.4,0.91,0.6,5.6,-1.7,33.0,,,,,,,,,,
14.18.17.887,303.9,76.0,0,20.0,,95062.2,10.52,-0.1,0.4,0.91,0.7,5.3,-1.0,33.0,,,,,,,,,,
14.18.17.899,323.8,81.0,0,20.0,,95380.1,10.48,-0.09,0.4,0.91,0.4,6.7,-1.1,33.0,,,,,,,,,,
14.18.17.907,314.4,78.6,0,20.0,,95493.6,10.47,-0.1,0.4,0.91,0.6,5.2,-1.1,33.0,,,,,,,,,,
14.18.17.919,333.7,83.4,0,20.0,,95093.3,10.52,-0.09,0.39,0.91,1.1,6.6,-1.0,33.0,,,,,,,,,,
14.18.17.932,313.7,78.4,0,20.0,,95715.6,10.45,-0.09,0.4,0.91,1.6,7.2,-0.8,33.0,,,,,,,,,,
14.18.17.944,300.8,75.2,0,20.0,,95800.8,10.44,-0.09,0.41,0.9,1.1,5.5,-1.1,33.0,,,,,,,,,,
14.18.17.952,305.9,76.5,0,20.0,,95422.3,10.48,-0.09,0.41,0.91,0.4,6.3,-1.1,33.0,,,,,,,,,,
14.18.17.964,258.7,64.7,0,20.0,,95241.6,10.5,-0.09,0.4,0.91,0.5,5.5,-1.1,33.0,,,,,,,,,,
14.18.17.977,226.5,56.6,0,20.0,,93844.1,10.66,-0.09,0.4,0.91,0.8,5.5,-1.5,33.0,,,,,,,,,,
14.18.17.985,177.6,44.4,0,20.0,,93940.9,10.64,-0.09,0.4,0.91,1.6,7.0,-1.4,33.0,,,,,,,,,,
14.18.17.996,139.3,34.8,0,20.0,,96073.4,10.41,-0.1,0.41,0.9,0.8,7.0,-1.5,33.0,,,,,,,,,,
14.18.18.010,86.4,21.6,0,20.0,,94986.6,10.53,-0.09,0.41,0.91,-0.2,5.7,-1.6,33.0,,,,,,,,,,
14.18.18.017,61.0,15.2,0,20.0,,95666.0,10.45,-0.09,0.4,0.91,-0.4,6.0,-1.5,33.0,,,,,,,,,,
14.18.18.030,,,0,20.0,,96268.5,10.39,,,,,,,,,,,,,,,,,
14.18.18.046,,,0,20.0,,94806.5,10.55,,,,,,,,,32.94,,,,,,,,
14.18.18.058,30.8,7.7,0,20.0,,95959.6,10.42,-0.09,0.4,0.92,1.4,5.4,-0.7,33.0,,,,,,,,,,
14.18.18.067,44.6,11.2,0,20.0,,94673.1,10.56,-0.09,0.4,0.91,2.1,6.5,-0.6,33.0,,,,,,,,,,
14.18.18.079,44.3,11.1,0,20.0,,93833.4,10.66,-0.09,0.4,0.9,2.1,5.8,-0.9,33.0,,,,,,,,,,
14.18.18.087,58.0,14.5,0,20.0,,95391.1,10.48,-0.09,0.41,0.9,1.6,6.0,-1.1,33.0,,,,,,,,,,
14.18.18.099,58.8,14.7,0,20.0,,95954.4,10.42,-0.09,0.41,0.91,0.8,7.4,-1.2,33.0,,,,,,,,,,
14.18.18.107,50.9,12.7,0,20.0,,96080.5,10.41,-0.1,0.41,0.9,-0.4,6.2,-1.7,33.0,,,,,,,,,,
14.18.18.120,55.2,13.8,0,20.0,,95050.7,10.52,-0.09,0.41,0.91,-1.5,5.2,-1.8,33.0,,,,,,,,,,
14.18.18.128,46.0,11.5,0,20.0,,94573.2,10.57,-0.09,0.41,0.91,-1.3,5.5,-1.9,33.0,,,,,,,,,,
14.18.18.140,29.3,7.3,0,20.0,,94139.9,10.62,-0.09,0.4,0.91,-1.1,5.1,-1.6,33.0,,,,,,,,,,
14.18.18.148,18.9,4.7,0,20.0,,94171.3,10.62,-0.09,0.39,0.91,-0.5,4.4,-2.2,33.0,,,,,,,,,,
14.18.18.161,4.5,1.1,0,20.0,,95167.6,10.51,-0.09,0.39,0.91,1.4,6.2,-1.6,33.0,,,,,,,,,,
14.18.18.169,-1.7,0.4,0,20.0,,97323.8,10.27,-0.1,0.41,0.9,1.9,6.9,-1.7,33.0,,,,,,,,,,
14.18.18.182,-8.6,2.2,0,20.0,,95330.7,10.49,-0.1,0.41,0.9,0.5,6.3,-1.6,33.0,,,,,,,,,,
14.18.18.189,-17.5,4.4,0,20.0,,95207.4,10.5,-0.09,0.41,0.9,0.1,5.5,-1.3,33.0,,,,,,,,,,
14.18.18.202,-12.0,3.0,0,20.0,,95381.6,10.48,-0.09,0.4,0.9,-1.1,6.2,-1.4,33.0,,,,,,,,,,
14.18.18.210,-18.0,4.5,0,20.0,,94755.0,10.55,-0.09,0.4,0.91,-0.3,5.5,-1.3,33.0,,,,,,,,,,
14.18.18.222,-28.4,7.1,0,20.0,,95582.9,10.46,-0.09,0.39,0.91,0.3,5.1,-1.2,33.0,,,,,,,,,,
14.18.18.235,-22.2,5.6,0,20.0,,94690.3,10.56,-0.09,0.39,0.9,1.0,6.0,-1.6,33.0,,,,,,,,,,
14.18.18.242,-34.8,8.7,0,20.0,,96167.4,10.4,-0.09,0.4,0.91,0.9,5.3,-1.3,33.0,,,,,,,,,,
14.18.18.255,-38.9,9.7,0,20.0,,94452.9,10.59,-0.09,0.4,0.91,0.8,5.6,-1.2,33.0,,,,,,,,,,
14.18.18.264,-57.0,14.2,0,20.0,,94545.5,10.58,-0.1,0.41,0.91,0.7,6.4,-1.4,33.0,,,,,,,,,,
14.18.18.276,-53.8,13.4,0,20.0,,95150.3,10.51,-0.09,0.41,0.9,0.0,5.3,-1.6,33.0,,,,,,,,,,
14.18.18.283,-59.0,14.8,0,20.0,,94809.2,10.55,-0.09,0.41,0.9,-0.2,4.6,-1.3,33.0,,,,,,,,,,
14.18.18.296,-52.0,13.0,0,20.0,,95650.3,10.45,-0.09,0.4,0.91,-0.5,5.1,-1.4,33.0,,,,,,,,,,
14.18.18.304,-57.8,14.4,0,20.0,,95494.2,10.47,-0.09,0.39,0.91,0.1,5.0,-1.3,33.0,,,,,,,,,,
14.18.18.316,-65.5,16.4,0,20.0,,95009.4,10.53,-0.09,0.4,0.91,1.0,5.7,-1.1,33.0,,,,,,,,,,
14.18.18.324,-70.6,17.6,0,20.0,,95032.3,10.52,-0.09,0.4,0.9,1.3,6.1,-1.1,33.0,,,,,,,,,,
14.18.18.337,-72.7,18.2,0,20.0,,94836.6,10.54,-0.09,0.4,0.9,0.7,5.5,-1.3,33.0,,,,,,,,,,
14.18.18.346,-77.2,19.3,0,20.0,,94977.2,10.53,-0.09,0.4,0.91,1.1,5.4,-1.0,33.0,,,,,,,,,,
14.18.18.357,-84.1,21.0,0,20.0,,93401.2,10.71,-0.09,0.4,0.91,2.1,6.1,-0.5,33.0,,,,,,,,,,
14.18.18.366,-82.7,20.7,0,20.0,,93455.1,10.7,-0.09,0.4,0.91,2.2,6.2,-0.4,33.0,,,,,,,,,,
14.18.18.377,-93.2,23.3,0,20.0,,93250.2,10.72,-0.1,0.41,0.91,1.6,5.7,-0.6,33.0,,,,,,,,,,
14.18.18.386,-94.1,23.5,0,20.0,,95217.4,10.5,-0.09,0.4,0.9,1.3,5.1,-0.7,33.0,,,,,,,,,,
14.18.18.399,-90.7,22.7,0,20.0,,95598.4,10.46,-0.09,0.4,0.91,0.8,5.7,-0.6,33.0,,,,,,,,,,
14.18.18.406,-98.9,24.7,0,20.0,,94173.2,10.62,-0.09,0.39,0.91,0.7,5.0,-1.0,33.0,,,,,,,,,,
14.18.18.419,-114.4,28.6,0,20.0,,95190.3,10.51,-0.09,0.4,0.91,1.8,6.3,-1.0,33.0,,,,,,,,,,
14.18.18.432,-115.6,28.9,0,20.0,,96152.1,10.4,-0.09,0.41,0.9,1.5,6.9,-0.9,33.0,,,,,,,,,,
14.18.18.444,-126.6,31.6,0,20.0,,95470.5,10.47,-0.1,0.41,0.9,0.2,5.4,-1.1,33.0,,,,,,,,,,
14.18.18.452,-135.0,33.8,0,20.0,,94383.1,10.6,-0.09,0.41,0.91,-0.5,6.9,-1.4,33.0,,,,,,,,,,
14.18.18.463,-147.1,36.8,0,20.0,,93547.3,10.69,-0.09,0.4,0.91,-0.6,6.5,-1.6,33.0,,,,,,,,,,
14.18.18.477,65.8,16.4,1,21.0,88.9,95000.3,10.53,-0.09,0.4,0.9,-0.8,5.8,-1.7,33.0,,,,,,,,,,
14.18.18.484,81.3,20.3,0,21.0,,95194.0,10.5,-0.09,0.4,0.92,-0.1,6.1,-1.4,33.0,,,,,,,,,,
14.18.18.497,130.5,32.6,0,21.0,,94796.7,10.55,-0.09,0.39,0.91,0.7,6.4,-1.4,33.0,,,,,,,,,,
14.18.18.510,196.8,49.2,0,21.0,,94127.4,10.62,-0.09,0.41,0.91,1.0,5.6,-1.3,33.0,,,,,,,,,,
14.18.18.517,203.0,50.8,0,21.0,,95822.6,10.44,-0.09,0.41,0.91,1.0,6.3,-1.4,33.0,,,,,,,,,,
14.18.18.558,294.2,73.6,0,21.0,,95872.3,10.43,-0.09,0.4,0.91,-0.9,6.3,-1.3,33.0,,,,,,,,,,
14.18.18.570,283.7,70.9,0,21.0,,95355.9,10.49,-0.1,0.39,0.91,0.0,5.9,-1.4,33.0,,,,,,,,,,
14.18.18.583,328.2,82.0,0,21.0,,93588.5,10.69,-0.09,0.4,0.91,-0.6,5.6,-1.7,33.0,,,,,,,,,,
14.18.18.591,326.3,81.6,0,21.0,,94284.5,10.61,-0.09,0.4,0.91,0.5,6.7,-1.7,33.0,,,,,,,,,,
14.18.18.603,314.4,78.6,0,21.0,,95610.3,10.46,-0.09,0.41,0.91,0.2,7.2,-2.0,33.0,,,,,,,,,,
14.18.18.615,270.2,67.6,0,21.0,,94946.5,10.53,-0.09,0.41,0.9,-0.2,4.4,-1.0,33.0,,,,,,,,,,
14.18.18.627,276.8,69.2,0,21.0,,93985.0,10.64,-0.09,0.41,0.91,-1.1,5.6,-1.5,33.0,,,,,,,,,,
14.18.18.636,214.9,53.7,0,21.0,,94803.6,10.55,-0.09,0.4,0.9,-1.1,5.2,-1.3,33.0,,,,,,,,,,
14.18.18.648,187.6,46.9,0,21.0,,95627.8,10.46,-0.09,0.39,0.91,0.4,4.4,-0.9,33.0,,,,,,,,,,
14.18.18.660,153.7,38.4,0,21.0,,94288.7,10.61,-0.09,0.4,0.91,1.9,6.3,-0.9,33.0,,,,,,,,,,
14.18.18.668,104.8,26.2,0,21.0,,96357.9,10.38,-0.09,0.41,0.91,1.8,6.2,-1.0,33.0,,,,,,,,,,
14.18.18.681,59.1,14.8,0,21.0,,94703.8,10.56,-0.09,0.42,0.91,0.7,4.7,-1.1,33.0,,,,,,,,,,
14.18.18.693,11.1,2.8,0,21.0,,94703.0,10.56,-0.1,0.41,0.9,1.0,5.7,-0.6,33.0,,,,,,,,,,
14.18.18.701,11.3,2.8,0,21.0,,95207.2,10.5,-0.09,0.4,0.91,1.7,4.2,-0.9,33.0,,,,,,,,,,
14.18.18.714,23.1,5.8,0,21.0,,95223.2,10.5,-0.09,0.4,0.91,0.5,3.2,-0.7,33.0,,,,,,,,,,
14.18.18.727,41.8,10.4,0,21.0,,94514.6,10.58,-0.09,0.4,0.91,1.7,3.5,-0.9,33.0,,,,,,,,,,
14.18.18.738,50.9,12.7,0,21.0,,93759.3,10.67,-0.09,0.4,0.91,3.1,5.5,-0.5,33.0,,,,,,,,,,
14.18.18.747,57.6,14.4,0,21.0,,94943.3,10.53,-0.09,0.4,0.9,-0.2,6.8,-1.8,33.0,,,,,,,,,,
14.18.18.759,64.2,16.0,0,21.0,,95407.2,10.48,-0.09,0.41,0.91,-1.2,5.7,-2.5,33.0,,,,,,,,,,
14.18.18.771,61.5,15.4,0,21.0,,94927.6,10.53,-0.09,0.42,0.91,-1.7,7.9,-2.4,33.0,,,,,,,,,,
14.18.18.780,56.7,14.2,0,21.0,,93810.6,10.66,-0.09,0.41,0.9,-2.4,6.3,-2.6,33.0,,,,,,,,,,
14.18.18.791,43.7,10.9,0,21.0,,94327.0,10.6,-0.09,0.4,0.92,-2.9,5.5,-2.6,33.0,,,,,,,,,,
14.18.18.804,27.5,6.9,0,21.0,,95853.8,10.43,-0.09,0.4,0.91,-2.1,5.7,-2.3,33.0,,,,,,,,,,
14.18.18.812,16.0,4.0,0,21.0,,94645.2,10.57,-0.09,0.39,0.91,-1.5,4.6,-2.2,33.0,,,,,,,,,,
14.18.18.825,-3.3,0.8,0,21.0,,94139.0,10.62,-0.09,0.39,0.91,0.6,4.9,-1.3,33.0,,,,,,,,,,
14.18.18.836,-10.4,2.6,0,21.0,,94700.0,10.56,-0.09,0.4,0.9,4.3,7.1,-0.5,33.0,,,,,,,,,,
14.18.18.849,-2.8,0.7,0,21.0,,94047.4,10.63,-0.1,0.41,0.9,1.8,7.8,-1.2,33.0,,,,,,,,,,
14.18.18.858,-14.7,3.7,0,21.0,,94837.7,10.54,-0.09,0.41,0.9,-0.6,4.0,-1.3,33.0,,,,,,,,,,
14.18.18.869,-14.5,3.6,0,21.0,,94900.7,10.54,-0.09,0.41,0.91,1.8,4.8,-0.4,33.0,,,,,,,,,,
14.18.18.882,-21.1,5.3,0,21.0,,95706.9,10.45,-0.09,0.39,0.91,3.2,7.1,0.2,33.0,,,,,,,,,,
14.18.18.890,-26.0,6.5,0,21.0,,94694.8,10.56,-0.1,0.38,0.91,0.5,5.1,-0.8,33.0,,,,,,,,,,
14.18.18.903,-34.5,8.6,0,21.0,,94493.4,10.58,-0.09,0.4,0.91,1.8,6.5,-1.3,33.0,,,,,,,,,,
14.18.18.914,-38.0,9.5,0,21.0,,93112.8,10.74,-0.09,0.42,0.91,3.3,9.3,-0.9,33.0,,,,,,,,,,
14.18.18.927,-43.1,10.8,0,21.0,,96445.0,10.37,-0.09,0.41,0.89,0.0,9.2,-2.0,33.0,,,,,,,,,,
14.18.18.935,-55.9,14.0,0,21.0,,95530.1,10.47,-0.09,0.41,0.9,-2.2,4.0,-2.2,33.0,,,,,,,,,,
14.18.18.947,-50.6,12.6,0,21.0,,95729.2,10.45,-0.1,0.4,0.91,-1.3,6.3,-2.0,33.0,,,,,,,,,,
14.18.18.959,-57.2,14.3,0,21.0,,95151.3,10.51,-0.09,0.39,0.91,-0.9,5.1,-1.7,33.0,,,,,,,,,,
14.18.18.967,-53.0,13.2,0,21.0,,94795.6,10.55,-0.09,0.4,0.92,-0.2,5.8,-1.9,33.0,,,,,,,,,,
14.18.18.980,-68.7,17.2,0,21.0,,94639.9,10.57,-0.09,0.4,0.91,1.4,7.8,-1.5,33.0,,,,,,,,,,
14.18.18.992,-69.2,17.3,0,21.0,,93689.0,10.67,-0.1,0.41,0.91,0.5,8.1,-1.1,33.0,,,,,,,,,,
14.18.19.004,-73.6,18.4,0,21.0,,92669.9,10.79,-0.1,0.4,0.91,-0.3,4.1,-0.8,33.0,,,,,,,,,,
14.18.19.017,-83.7,20.9,0,21.0,,94882.5,10.54,-0.09,0.39,0.92,0.7,5.3,-1.0,33.0,,,,,,,,,,
14.18.19.026,-87.4,21.8,0,21.0,,95228.9,10.5,-0.09,0.4,0.91,1.9,8.8,-1.2,33.0,,,,,,,,,,
14.18.19.037,-88.6,22.2,0,21.0,,94522.7,10.58,-0.09,0.41,0.9,1.0,5.5,-1.3,33.0,,,,,,,,,,
14.18.19.046,-95.0,23.8,0,21.0,,95231.9,10.5,-0.09,0.41,0.91,0.5,6.6,-1.2,33.0,,,,,,,,,,
14.18.19.059,-94.7,23.7,0,21.0,,94356.1,10.6,-0.09,0.41,0.9,2.2,7.7,-0.8,33.0,,,,,,,,,,
14.18.19.066,-88.4,22.1,0,21.0,,95502.0,10.47,-0.1,0.4,0.91,0.5,5.3,-1.0,33.0,,,,,,,,,,
14.18.19.078,-112.3,28.1,0,21.0,,94811.8,10.55,-0.09,0.4,0.91,-0.8,4.5,-1.7,33.0,,,,,,,,,,
14.18.19.086,-105.4,26.4,0,21.0,,95479.9,10.47,-0.09,0.41,0.91,1.4,6.0,-1.1,33.0,,,,,,,,,,
14.18.19.099,-118.9,29.7,0,21.0,,95140.6,10.51,-0.1,0.41,0.91,1.5,6.4,-1.0,33.0,,,,,,,,,,
14.18.19.107,-116.0,29.0,0,21.0,,93152.2,10.74,-0.1,0.41,0.9,-0.5,4.5,-1.3,33.0,,,,,,,,,,
14.18.19.119,-126.6,31.6,0,21.0,,94295.6,10.6,-0.1,0.41,0.91,0.3,4.3,-1.0,33.0,,,,,,,,,,
14.18.19.128,10.5,2.6,1,22.0,92.6,94940.0,10.53,-0.09,0.4,0.91,0.7,4.8,-0.6,33.0,,,,,,,,,,
14.18.19.140,55.4,13.8,0,22.0,,94317.9,10.6,-0.09,0.4,0.9,1.0,4.2,-0.4,33.0,,,,,,,,,,
14.18.19.148,89.3,22.3,0,22.0,,95167.9,10.51,-0.09,0.39,0.91,1.9,4.7,-0.4,33.0,,,,,,,,,,
14.18.19.161,145.4,36.4,0,22.0,,94537.6,10.58,-0.08,0.4,0.91,3.1,5.5,-0.2,33.0,,,,,,,,,,
14.18.19.169,153.6,38.4,0,22.0,,95252.0,10.5,-0.09,0.4,0.91,4.3,5.0,0.3,33.0,,,,,,,,,,
14.18.19.181,223.2,55.8,0,22.0,,94311.0,10.6,-0.09,0.41,0.91,3.7,6.0,0.1,33.0,,,,,,,,,,
14.18.19.189,249.0,62.2,0,22.0,,93281.0,10.72,-0.1,0.41,0.91,3.1,5.1,0.2,33.0,,,,,,,,,,
14.18.19.201,284.9,71.2,0,22.0,,94575.2,10.57,-0.1,0.4,0.9,2.0,3.9,0.2,33.0,,,,,,,,,,
14.18.19.209,309.2,77.3,0,22.0,,94459.3,10.59,-0.1,0.4,0.91,1.1,5.2,-0.3,33.0,,,,,,,,,,
14.18.19.221,299.3,74.8,0,22.0,,96368.5,10.38,-0.09,0.4,0.91,1.2,5.7,0.0,33.0,,,,,,,,,,
14.18.19.230,322.9,80.7,0,22.0,,94957.7,10.53,-0.09,0.4,0.9,1.4,5.9,-1.0,33.0,,,,,,,,,,
14.18.19.242,339.4,84.8,0,22.0,,94745.6,10.55,-0.1,0.4,0.91,1.1,5.6,-0.9,33.0,,,,,,,,,,
14.18.19.251,290.9,72.7,0,22.0,,94249.3,10.61,-0.09,0.41,0.9,0.5,7.0,-1.0,33.0,,,,,,,,,,
14.18.19.262,285.9,71.5,0,22.0,,94786.0,10.55,-0.09,0.41,0.91,-0.1,6.3,-1.5,33.0,,,,,,,,,,
14.18.19.272,305.6,76.4,0,22.0,,96074.6,10.41,-0.09,0.41,0.91,-0.5,6.1,-1.5,33.0,,,,,,,,,,
14.18.19.283,272.6,68.2,0,22.0,,95808.2,10.44,-0.09,0.41,0.91,-0.3,6.9,-1.4,33.0,,,,,,,,,,
14.18.19.291,259.4,64.8,0,22.0,,95507.5,10.47,-0.09,0.4,0.9,-1.6,5.8,-1.5,33.0,,,,,,,,,,
14.18.19.303,228.7,57.2,0,22.0,,93977.5,10.64,-0.09,0.4,0.91,-1.6,4.1,-1.4,33.0,,,,,,,,,,
14.18.19.312,193.3,48.3,0,22.0,,95658.5,10.45,-0.09,0.4,0.91,-0.1,5.5,-0.7,33.0,,,,,,,,,,
14.18.19.325,135.1,33.8,0,22.0,,94257.1,10.61,-0.09,0.4,0.91,0.7,6.4,-1.4,33.0,,,,,,,,,,
14.18.19.362,3.6,0.9,0,22.0,,95062.0,10.52,-0.09,0.4,0.9,0.5,4.0,-1.1,33.0,,,,,,,,,,
14.18.19.374,23.9,6.0,0,22.0,,94044.5,10.63,-0.1,0.41,0.9,-1.6,4.1,-1.3,33.0,,,,,,,,,,
14.18.19.382,40.0,10.0,0,22.0,,95028.3,10.52,-0.09,0.4,0.91,-0.4,5.1,-1.1,33.0,,,,,,,,,,
14.18.19.394,47.2,11.8,0,22.0,,95640.7,10.46,-0.09,0.4,0.91,0.7,5.8,-0.9,33.0,,,,,,,,,,
14.18.19.403,46.6,11.6,0,22.0,,94677.8,10.56,-0.09,0.4,0.9,0.2,7.1,-1.7,33.0,,,,,,,,,,
14.18.19.414,61.4,15.4,0,22.0,,95165.8,10.51,-0.08,0.41,0.9,1.0,6.3,-1.3,33.0,,,,,,,,,,
