timestamp,ppg,threshold,beat,beat_count,inst_bpm,gsr_resistance_ohm,gsr_conductance_us,accel_x,accel_y,accel_z,gyro_x,gyro_y,gyro_z,temp_c,window_bpm,window_temp_c,status_message,SpO2,bmi,age,height,weight,env_temp_c,env_humidity_pct
15.28.59.818,,0.0,0,,,50849.9,19.67,0.34,0.67,0.68,2.2,6.2,0.5,35.38,116.3,,,,18.6,22.0,160.02,47.9,36.0,71.0
15.28.59.826,147.4,36.8,0,,,50430.4,19.83,0.34,0.64,0.66,1.4,7.6,0.5,35.38,,,,,,,,,,
15.28.59.838,133.2,33.3,0,,,44306.6,22.57,0.35,0.65,0.66,2.0,7.0,0.8,35.38,,,,,,,,,,
15.28.59.847,286.8,71.7,0,,,50922.4,19.64,0.34,0.65,0.67,3.6,8.2,-0.3,35.38,,,,,,,,,,
15.28.59.859,346.8,86.7,0,,,45707.7,21.88,0.33,0.65,0.66,3.7,6.2,-1.4,35.38,,,,,,,,,,
15.28.59.871,445.0,111.2,0,,,46879.2,21.33,0.33,0.66,0.67,2.8,5.6,-1.8,35.38,,,,,,,,,,
15.28.59.883,411.0,102.8,0,,,44619.6,22.41,0.32,0.65,0.66,3.8,5.4,-2.5,35.38,,,,,,,,,,
15.28.59.892,461.0,115.2,0,,,50626.2,19.75,0.32,0.66,0.67,2.6,4.9,-1.4,35.38,,,,,,,,,,
15.28.59.904,463.8,116.0,0,,,45827.7,21.82,0.33,0.67,0.66,0.9,5.6,-1.1,35.38,,,,,,,,,,
15.28.59.916,474.0,118.5,0,,,45556.9,21.95,0.33,0.66,0.66,-0.2,5.4,-1.0,35.38,,,,,,,,,,
15.28.59.924,513.8,128.4,0,,,49548.0,20.18,0.34,0.66,0.66,0.8,5.8,-0.8,35.38,,,,,,,,,,
15.28.59.937,383.3,95.8,0,,,50801.0,19.68,0.34,0.65,0.66,0.8,6.2,-1.2,35.38,,,,,,,,,,
15.28.59.949,334.8,83.7,0,,,46971.1,21.29,0.34,0.66,0.66,1.7,5.9,-1.9,35.38,,,,,,,,,,
15.28.59.957,386.0,96.5,0,,,43414.7,23.03,0.33,0.66,0.66,2.1,5.8,-2.1,35.38,,,,,,,,,,
15.28.59.969,230.5,57.6,0,,,50205.3,19.92,0.34,0.65,0.66,2.4,6.0,-1.8,35.38,,,,,,,,,,
15.28.59.982,153.2,38.3,0,,,44613.8,22.41,0.34,0.66,0.66,2.6,6.3,-1.7,35.38,,,,,,,,,,
15.28.59.994,43.0,10.8,0,,,45934.1,21.77,0.34,0.66,0.67,2.1,5.7,-1.2,35.38,,,,,,,,,,
15.29.00.002,9.9,2.5,0,,,46378.7,21.56,0.31,0.65,0.62,0.7,5.6,-0.3,35.38,,,,,,,,,,
15.29.00.014,-24.4,6.1,0,,,45787.7,21.84,0.32,0.66,0.66,-2.5,4.2,0.5,35.38,,,,,,,,,,
15.29.00.023,55.5,13.9,0,,,46212.0,21.64,0.32,0.68,0.65,-3.9,6.5,1.2,35.38,,,,,,,,,,
15.29.00.035,67.7,16.9,0,,,48200.2,20.75,0.34,0.7,0.66,-7.3,5.5,2.4,35.38,,,,,,,,,,
15.29.00.047,45.4,11.4,0,,,45392.1,22.03,0.34,0.68,0.65,-9.9,6.8,2.3,35.38,,,,,,,,,,
15.29.00.056,54.4,13.6,0,,,45271.8,22.09,0.35,0.66,0.66,-10.3,8.0,3.1,35.38,,,,,,,,,,
15.29.00.068,78.6,19.6,0,,,47548.1,21.03,0.35,0.64,0.66,-7.4,8.3,2.9,35.38,,,,,,,,,,
15.29.00.080,67.0,16.8,0,,,49534.2,20.19,0.34,0.62,0.68,-5.9,7.7,3.3,35.38,,,,,,,,,,
15.29.00.092,28.8,7.2,0,,,46230.9,21.63,0.34,0.61,0.68,-2.6,7.5,2.3,35.38,,,,,,,,,,
15.29.00.101,-26.5,6.6,0,,,46133.7,21.68,0.35,0.62,0.69,1.5,6.6,0.6,35.38,,,,,,,,,,
15.29.00.113,-43.7,10.9,0,,,49402.0,20.24,0.33,0.63,0.67,4.4,5.8,-1.2,35.38,,,,,,,,,,
15.29.00.154,-81.3,20.3,0,,,46882.5,21.33,0.33,0.66,0.69,7.0,4.6,-2.5,35.38,,,,,,,,,,
15.29.00.162,-115.9,29.0,0,,,44290.7,22.58,0.32,0.66,0.66,5.5,2.9,-2.3,35.38,,,,,,,,,,
15.29.00.174,-83.9,21.0,0,,,41750.4,23.95,0.33,0.66,0.67,4.6,3.7,-1.7,35.38,,,,,,,,,,
15.29.00.183,-80.2,20.0,0,,,44298.0,22.57,0.33,0.67,0.66,3.6,5.0,-1.5,35.38,,,,,,,,,,
15.29.00.195,-88.8,22.2,0,,,44495.0,22.47,0.34,0.65,0.66,4.5,4.9,-1.8,35.38,,,,,,,,,,
15.29.00.203,-69.6,17.4,0,,,44584.8,22.43,0.34,0.64,0.66,5.3,4.1,-2.3,35.38,,,,,,,,,,
15.29.00.215,-115.2,28.8,0,,,46272.4,21.61,0.34,0.65,0.67,6.3,4.8,-2.5,35.38,,,,,,,,,,
15.29.00.223,-120.6,30.2,0,,,39871.3,25.08,0.33,0.65,0.67,7.4,3.9,-2.7,35.38,,,,,,,,,,
15.29.00.236,-117.9,29.5,0,,,47569.2,21.02,0.33,0.66,0.66,6.2,3.6,-2.8,35.38,,,,,,,,,,
15.29.00.244,-138.1,34.5,0,,,45376.2,22.04,0.32,0.67,0.67,6.4,3.7,-2.4,35.38,,,,,,,,,,
15.29.00.252,-103.0,25.8,0,,,48565.4,20.59,0.32,0.66,0.66,5.6,3.9,-2.7,35.38,,,,,,,,,,
15.29.00.264,-170.4,42.6,0,,,49753.3,20.1,0.34,0.65,0.67,5.8,4.8,-3.2,35.38,,,,,,,,,,
15.29.00.273,-167.4,41.8,0,,,43715.8,22.88,0.33,0.68,0.65,1.2,5.8,-0.2,35.38,,,,,,,,,,
15.29.00.285,-167.9,42.0,0,,,44725.8,22.36,0.35,0.68,0.66,2.6,4.5,-1.6,35.38,,,,,,,,,,
15.29.00.293,-191.1,47.8,0,,,47027.7,21.26,0.36,0.65,0.62,4.4,5.1,-1.4,35.38,,,,,,,,,,
15.29.00.305,-171.1,42.8,0,,,46309.2,21.59,0.36,0.66,0.65,2.9,5.1,-0.6,35.38,,,,,,,,,,
15.29.00.318,-186.3,46.6,0,,,43284.6,23.1,0.35,0.66,0.67,3.1,6.2,-1.1,35.38,,,,,,,,,,
15.29.00.326,-200.6,50.2,0,,,45615.3,21.92,0.34,0.66,0.65,2.2,5.7,-0.7,35.38,,,,,,,,,,
15.29.00.338,95.9,24.0,1,1.0,113.0,47290.3,21.15,0.33,0.66,0.66,3.4,4.9,-1.6,35.38,,,,,,,,,,
15.29.00.350,164.4,41.1,0,1.0,,42991.1,23.26,0.33,0.66,0.64,3.8,5.8,-1.5,35.38,,,,,,,,,,
15.29.00.363,221.6,55.4,0,1.0,,42553.7,23.5,0.34,0.67,0.65,0.6,5.8,-0.6,35.38,,,,,,,,,,
15.29.00.371,350.2,87.6,0,1.0,,42404.8,23.58,0.33,0.68,0.65,-0.8,6.0,-0.4,35.38,,,,,,,,,,
15.29.00.383,363.9,91.0,0,1.0,,40852.7,24.48,0.33,0.66,0.65,-0.5,6.6,-0.9,35.38,,,,,,,,,,
15.29.00.395,471.4,117.8,0,1.0,,44661.7,22.39,0.34,0.66,0.65,-0.7,6.1,-0.6,35.38,,,,,,,,,,
15.29.00.404,464.1,116.0,0,1.0,,47091.3,21.24,0.34,0.66,0.64,-0.9,6.0,-0.5,35.38,,,,,,,,,,
15.29.00.416,485.9,121.5,0,1.0,,46149.9,21.67,0.33,0.66,0.65,-1.6,7.0,-0.4,35.38,,,,,,,,,,
15.29.00.428,443.5,110.9,0,1.0,,39975.2,25.02,0.33,0.65,0.66,-1.8,6.2,0.3,35.38,,,,,,,,,,
15.29.00.441,388.9,97.2,0,1.0,,40660.1,24.59,0.34,0.64,0.66,-1.8,5.5,0.2,35.38,,,,,,,,,,
15.29.00.449,464.0,116.0,0,1.0,,42418.0,23.57,0.34,0.65,0.68,-0.7,5.7,-1.2,35.38,,,,,,,,,,
15.29.00.461,296.1,74.0,0,1.0,,45137.3,22.15,0.34,0.65,0.67,0.5,6.1,-2.5,35.38,,,,,,,,,,
15.29.00.473,297.2,74.3,0,1.0,,43249.3,23.12,0.33,0.65,0.66,3.0,6.5,-3.0,35.38,,,,,,,,,,
15.29.00.481,274.0,68.5,0,1.0,,40521.7,24.68,0.31,0.64,0.64,6.9,5.4,-3.7,35.38,,,,,,,,,,
15.29.00.494,162.0,40.5,0,1.0,,42763.7,23.38,0.32,0.66,0.67,5.5,4.5,-2.6,35.38,,,,,,,,,,
15.29.00.506,97.2,24.3,0,1.0,,44234.0,22.61,0.33,0.69,0.67,5.7,3.9,-2.8,35.38,,,,,,,,,,
15.29.00.514,28.2,7.0,0,1.0,,45491.2,21.98,0.33,0.7,0.65,4.2,3.6,-3.3,35.38,,,,,,,,,,
15.29.00.527,29.8,7.4,0,1.0,,39110.7,25.57,0.34,0.69,0.63,2.6,5.2,-2.5,35.38,,,,,,,,,,
15.29.00.539,110.7,27.7,0,1.0,,48828.1,20.48,0.35,0.68,0.65,1.1,4.3,-1.2,35.38,,,,,,,,,,
15.29.00.551,73.5,18.4,0,1.0,,43025.6,23.24,0.33,0.65,0.65,0.3,4.9,-1.8,35.38,,,,,,,,,,
15.29.00.559,42.7,10.7,0,1.0,,49773.1,20.09,0.32,0.64,0.65,0.7,5.3,-1.7,35.38,,,,,,,,,,
15.29.00.572,51.5,12.9,0,1.0,,48911.3,20.45,0.34,0.68,0.67,-2.9,6.6,-0.6,35.38,,,,,,,,,,
15.29.00.584,104.3,26.1,0,1.0,,42691.8,23.42,0.34,0.7,0.65,-2.2,5.9,-0.6,35.38,,,,,,,,,,
15.29.00.592,59.9,15.0,0,1.0,,48271.4,20.72,0.34,0.68,0.64,-2.9,6.2,-0.6,35.38,,,,,,,,,,
15.29.00.604,18.8,4.7,0,1.0,,48077.3,20.8,0.32,0.66,0.62,-1.7,6.8,0.1,35.38,,,,,,,,,,
15.29.00.617,41.1,10.3,0,1.0,,44232.0,22.61,0.34,0.68,0.66,-3.6,6.6,1.0,35.38,,,,,,,,,,
15.29.00.625,8.6,2.2,0,1.0,,46479.1,21.52,0.34,0.68,0.65,-4.1,6.8,0.8,35.38,,,,,,,,,,
15.29.00.637,-38.6,9.6,0,1.0,,47253.4,21.16,0.34,0.68,0.64,-4.6,6.5,0.8,35.38,,,,,,,,,,
15.29.00.649,2.5,0.6,0,1.0,,47347.5,21.12,0.34,0.68,0.63,-6.8,7.3,2.5,35.38,,,,,,,,,,
15.29.00.658,-73.0,18.2,0,1.0,,43393.5,23.04,0.35,0.66,0.65,-6.9,8.6,3.4,35.38,,,,,,,,,,
15.29.00.670,-67.5,16.9,0,1.0,,48342.4,20.69,0.36,0.66,0.67,-6.5,11.5,3.8,35.38,,,,,,,,,,
15.29.00.682,-31.9,8.0,0,1.0,,46194.3,21.65,0.35,0.63,0.67,-4.2,14.6,4.0,35.38,,,,,,,,,,
15.29.00.690,-58.1,14.5,0,1.0,,45886.8,21.79,0.36,0.62,0.65,0.5,16.5,4.1,35.38,,,,,,,,,,
15.29.00.703,-111.1,27.8,0,1.0,,35571.0,28.11,0.35,0.63,0.69,4.1,17.2,6.4,35.38,,,,,,,,,,
15.29.00.715,-75.9,19.0,0,1.0,,51219.2,19.52,0.34,0.64,0.67,8.9,13.5,5.9,35.38,,,,,,,,,,
15.29.00.723,-111.4,27.8,0,1.0,,41439.6,24.13,0.34,0.66,0.67,11.1,13.7,6.8,35.38,,,,,,,,,,
15.29.00.736,-148.6,37.2,0,1.0,,48040.7,20.82,0.36,0.67,0.64,13.3,15.1,7.1,35.38,,,,,,,,,,
15.29.00.748,-149.7,37.4,0,1.0,,48066.1,20.8,0.38,0.66,0.64,11.1,15.5,6.7,35.38,,,,,,,,,,
15.29.00.756,-99.3,24.8,0,1.0,,45123.0,22.16,0.39,0.65,0.63,12.8,16.6,7.1,35.38,,,,,,,,,,
15.29.00.768,-144.9,36.2,0,1.0,,46047.9,21.72,0.38,0.65,0.62,14.7,19.3,8.0,35.38,,,,,,,,,,
15.29.00.781,-137.8,34.4,0,1.0,,43728.0,22.87,0.36,0.68,0.63,18.1,19.4,7.9,35.38,,,,,,,,,,
15.29.00.793,-196.5,49.1,0,1.0,,46633.4,21.44,0.38,0.68,0.66,18.4,16.7,8.7,35.38,,,,,,,,,,
15.29.00.801,-181.4,45.4,0,1.0,,45836.6,21.82,0.37,0.66,0.64,20.6,16.1,9.0,35.38,,,,,,,,,,
15.29.00.813,-135.1,33.8,0,1.0,,40434.3,24.73,0.38,0.63,0.68,26.2,19.0,8.5,35.38,,,,,,,,,,
15.29.00.826,-220.9,55.2,0,1.0,,44841.4,22.3,0.36,0.6,0.69,33.9,19.9,7.6,35.38,,,,,,,,,,
15.29.00.834,-200.5,50.1,0,1.0,,43696.2,22.89,0.39,0.57,0.68,38.1,23.6,5.7,35.38,,,,,,,,,,
15.29.00.846,51.8,13.0,1,2.0,117.0,46204.9,21.64,0.26,0.6,0.71,44.6,18.6,4.4,35.38,,,,,,,,,,
15.29.00.858,116.3,29.1,0,2.0,,50404.1,19.84,0.33,0.63,0.71,44.2,18.4,0.6,35.38,,,,,,,,,,
15.29.00.867,181.9,45.5,0,2.0,,47743.5,20.95,0.31,0.69,0.64,45.7,9.0,-10.5,35.38,,,,,,,,,,
15.29.00.879,315.9,79.0,0,2.0,,43519.8,22.98,0.32,0.71,0.62,37.9,6.1,-17.1,35.38,,,,,,,,,,
15.29.00.891,306.8,76.7,0,2.0,,45721.7,21.87,0.24,0.8,0.66,26.6,-0.1,-10.2,35.38,,,,,,,,,,
15.29.00.899,394.7,98.7,0,2.0,,40258.2,24.84,0.38,0.76,0.55,24.4,-1.7,-13.5,35.38,,,,,,,,,,
15.29.00.912,514.5,128.6,0,2.0,,46932.4,21.31,0.27,0.74,0.6,14.7,2.3,-7.8,35.38,,,,,,,,,,
15.29.00.953,411.3,102.8,0,2.0,,45082.4,22.18,0.31,0.78,0.57,15.2,0.9,-9.2,35.38,,,,,,,,,,
15.29.00.961,431.0,107.8,0,2.0,,40259.9,24.84,0.32,0.76,0.59,21.0,0.1,-12.5,35.38,,,,,,,,,,
15.29.00.973,414.5,103.6,0,2.0,,53629.2,18.65,0.37,0.72,0.59,21.2,-4.4,-14.5,35.38,,,,,,,,,,
15.29.00.981,282.2,70.6,0,2.0,,50512.5,19.8,0.37,0.7,0.6,15.1,-3.4,-18.5,35.38,,,,,,,,,,
15.29.00.994,292.2,73.0,0,2.0,,41759.9,23.95,0.34,0.71,0.62,14.4,-3.7,-18.5,35.38,,,,,,,,,,
15.29.01.006,129.1,32.3,0,2.0,,44252.6,22.6,0.39,0.72,0.64,16.4,0.5,-18.4,35.38,,,,,,,,,,
15.29.01.014,65.5,16.4,0,2.0,,44770.9,22.34,0.38,0.64,0.57,11.4,-1.3,-14.3,35.38,,,,,,,,,,
15.29.01.026,17.2,4.3,0,2.0,,52001.2,19.23,0.37,0.7,0.63,5.0,-0.2,-18.6,35.38,,,,,,,,,,
15.29.01.035,34.7,8.7,0,2.0,,46988.0,21.28,0.42,0.74,0.59,3.0,-2.1,-16.5,35.38,,,,,,,,,,
15.29.01.047,122.4,30.6,0,2.0,,42424.8,23.57,0.32,0.77,0.65,-1.7,-2.8,-19.0,35.38,,,,,,,,,,
15.29.01.055,60.3,15.1,0,2.0,,44942.0,22.25,0.31,0.71,0.65,-2.7,-1.3,-23.7,35.38,,,,,,,,,,
15.29.01.067,54.7,13.7,0,2.0,,46490.4,21.51,0.08,0.73,0.73,-7.6,6.1,-26.7,35.38,,,,,,,,,,
15.29.01.080,135.5,33.9,0,2.0,,42102.6,23.75,0.25,0.72,0.6,0.4,-12.3,-33.5,35.38,,,,,,,,,,
15.29.01.088,77.0,19.2,0,2.0,,49937.0,20.03,0.25,0.71,0.65,12.8,-15.8,-26.8,35.38,,,,,,,,,,
15.29.01.100,78.4,19.6,0,2.0,,45053.3,22.2,0.4,0.67,0.59,16.5,-20.5,-28.4,35.38,,,,,,,,,,
15.29.01.112,49.8,12.4,0,2.0,,45437.5,22.01,0.37,0.78,0.57,24.4,-31.8,-47.4,35.38,,,,,,,,,,
15.29.01.125,43.3,10.8,0,2.0,,47367.5,21.11,0.24,0.82,0.67,8.7,-7.9,-43.5,35.38,,,,,,,,,,
15.29.01.133,13.6,3.4,0,2.0,,41024.9,24.38,0.24,0.78,0.63,18.8,-2.5,-42.1,35.38,,,,,,,,,,
15.29.01.145,-13.8,3.4,0,2.0,,40017.0,24.99,0.22,0.81,0.64,17.1,-3.1,-41.8,35.38,,,,,,,,,,
15.29.01.153,-34.8,8.7,0,2.0,,45844.9,21.81,0.21,0.84,0.61,20.5,-2.2,-46.2,35.38,,,,,,,,,,
15.29.01.166,14.3,3.6,0,2.0,,45477.9,21.99,0.2,0.85,0.59,17.4,4.4,-51.0,35.38,,,,,,,,,,
15.29.01.174,-29.1,7.3,0,2.0,,45942.5,21.77,0.18,0.87,0.59,18.7,10.0,-50.7,35.38,,,,,,,,,,
15.29.01.186,-112.1,28.0,0,2.0,,44863.5,22.29,0.21,0.86,0.59,15.6,10.8,-46.2,35.38,,,,,,,,,,
15.29.01.194,-49.6,12.4,0,2.0,,46953.3,21.3,0.21,0.88,0.6,12.7,15.1,-43.7,35.38,,,,,,,,,,
15.29.01.207,-73.5,18.4,0,2.0,,42241.8,23.67,0.21,0.85,0.56,8.4,19.8,-43.9,35.38,,,,,,,,,,
15.29.01.215,-86.7,21.7,0,2.0,,46363.8,21.57,0.18,0.84,0.55,14.9,20.7,-44.1,35.38,,,,,,,,,,
15.29.01.227,-72.5,18.1,0,2.0,,43401.3,23.04,0.14,0.86,0.51,19.3,24.7,-42.4,35.38,,,,,,,,,,
15.29.01.239,-88.6,22.2,0,2.0,,43510.4,22.98,0.07,0.85,0.48,27.2,23.6,-43.1,35.38,,,,,,,,,,
15.29.01.248,-59.0,14.8,0,2.0,,43781.5,22.84,0.08,0.83,0.48,33.0,30.8,-42.5,35.38,,,,,,,,,,
15.29.01.260,-53.7,13.4,0,2.0,,44296.5,22.58,0.09,0.84,0.47,25.9,44.8,-38.7,35.38,,,,,,,,,,
15.29.01.268,-58.2,14.6,0,2.0,,40609.7,24.62,0.13,0.86,0.48,14.6,64.0,-37.9,35.38,,,,,,,,,,
15.29.01.280,-107.7,26.9,0,2.0,,44212.9,22.62,0.12,0.83,0.49,11.2,71.0,-36.0,35.38,,,,,,,,,,
15.29.01.289,-163.3,40.8,0,2.0,,46845.9,21.35,0.11,0.85,0.48,12.2,61.5,-27.1,35.38,,,,,,,,,,
15.29.01.301,-124.6,31.2,0,2.0,,43851.0,22.8,0.05,0.85,0.48,10.1,53.7,-21.9,35.38,,,,,,,,,,
15.29.01.309,-190.0,47.5,0,2.0,,42407.9,23.58,0.06,0.82,0.48,6.7,50.7,-23.8,35.38,,,,,,,,,,
15.29.01.321,-136.6,34.2,0,2.0,,44820.9,22.31,0.08,0.8,0.46,6.4,56.7,-31.1,35.38,,,,,,,,,,
15.29.01.330,-184.1,46.0,0,2.0,,41698.9,23.98,0.1,0.82,0.5,3.4,72.2,-34.7,35.38,,,,,,,,,,
15.29.01.342,-186.0,46.5,0,2.0,,45023.8,22.21,0.11,0.83,0.53,-0.4,71.1,-32.2,35.38,,,,,,,,,,
15.29.01.354,-210.9,52.7,0,2.0,,48764.8,20.51,0.07,0.81,0.53,1.6,69.3,-28.6,35.38,,,,,,,,,,
15.29.01.363,37.2,9.3,1,3.0,116.2,48013.1,20.83,0.04,0.83,0.54,3.3,69.2,-27.4,35.38,,,,,,,,,,
15.29.01.375,208.6,52.2,0,3.0,,50434.7,19.83,0.04,0.83,0.54,-2.3,63.6,-27.4,35.38,,,,,,,,,,
15.29.01.383,212.9,53.2,0,3.0,,44089.7,22.68,0.09,0.85,0.54,-8.6,56.8,-28.1,35.38,,,,,,,,,,
15.29.01.395,342.2,85.6,0,3.0,,45626.8,21.92,0.14,0.83,0.52,-11.1,54.2,-28.4,35.38,,,,,,,,,,
15.29.01.403,378.6,94.6,0,3.0,,45879.6,21.8,0.17,0.83,0.51,-5.0,54.8,-30.1,35.38,,,,,,,,,,
15.29.01.416,447.7,111.9,0,3.0,,42990.4,23.26,0.12,0.82,0.49,6.7,51.4,-31.4,35.38,,,,,,,,,,
15.29.01.424,426.6,106.6,0,3.0,,41593.8,24.04,0.05,0.82,0.52,23.0,41.5,-32.1,35.38,,,,,,,,,,
15.29.01.436,447.7,111.9,0,3.0,,43003.1,23.25,0.01,0.83,0.57,31.5,33.8,-32.4,35.38,,,,,,,,,,
15.29.01.444,486.7,121.7,0,3.0,,52678.1,18.98,0.05,0.84,0.57,27.6,32.7,-33.5,35.38,,,,,,,,,,
15.29.01.457,524.6,131.2,0,3.0,,49675.7,20.13,0.08,0.84,0.56,22.8,31.2,-37.5,35.38,,,,,,,,,,
15.29.01.469,429.3,107.3,0,3.0,,42229.3,23.68,0.12,0.84,0.53,19.3,37.3,-41.1,35.38,,,,,,,,,,
15.29.01.477,387.1,96.8,0,3.0,,45792.7,21.84,0.17,0.83,0.46,23.6,40.9,-43.9,35.38,,,,,,,,,,
15.29.01.489,377.2,94.3,0,3.0,,44792.6,22.33,0.09,0.81,0.43,39.5,32.4,-47.7,35.38,,,,,,,,,,
15.29.01.498,276.6,69.2,0,3.0,,43576.1,22.95,-0.05,0.79,0.42,64.9,15.4,-53.1,35.38,,,,,,,,,,
15.29.01.510,147.3,36.8,0,3.0,,45244.8,22.1,-0.1,0.84,0.45,77.0,7.4,-57.6,35.38,,,,,,,,,,
15.29.01.518,133.4,33.4,0,3.0,,45777.1,21.84,-0.07,0.91,0.5,78.7,7.4,-64.0,35.38,,,,,,,,,,
15.29.01.530,52.1,13.0,0,3.0,,52421.2,19.08,-0.04,0.89,0.51,73.0,16.3,-67.9,35.38,,,,,,,,,,
15.29.01.539,2.5,0.6,0,3.0,,47357.6,21.12,0.01,0.89,0.5,68.7,28.5,-71.0,35.38,,,,,,,,,,
15.29.01.551,50.2,12.6,0,3.0,,47238.8,21.17,0.05,0.89,0.48,67.1,34.6,-69.3,35.38,,,,,,,,,,
15.29.01.563,96.6,24.2,0,3.0,,46628.7,21.45,0.02,0.89,0.44,68.2,39.6,-62.7,35.38,,,,,,,,,,
15.29.01.571,127.4,31.8,0,3.0,,49668.3,20.13,-0.12,0.88,0.42,74.6,31.7,-54.1,35.38,,,,,,,,,,
15.29.01.584,77.8,19.4,0,3.0,,43655.9,22.91,-0.15,0.88,0.44,75.5,20.7,-46.3,35.38,,,,,,,,,,
15.29.01.592,87.4,21.8,0,3.0,,43992.0,22.73,-0.18,0.88,0.47,69.7,11.4,-42.6,35.38,,,,,,,,,,
15.29.01.604,98.5,24.6,0,3.0,,44965.6,22.24,-0.16,0.89,0.49,59.4,9.5,-43.1,35.38,,,,,,,,,,
15.29.01.612,98.5,24.6,0,3.0,,48855.3,20.47,-0.15,0.9,0.48,50.7,19.1,-46.7,35.38,,,,,,,,,,
15.29.01.625,-16.8,4.2,0,3.0,,44680.8,22.38,-0.13,0.92,0.47,46.7,27.6,-49.5,35.38,,,,,,,,,,
15.29.01.633,19.3,4.8,0,3.0,,41353.7,24.18,-0.13,0.9,0.41,52.0,29.7,-53.0,35.38,,,,,,,,,,
15.29.01.645,-8.0,2.0,0,3.0,,46697.9,21.41,-0.15,0.85,0.38,62.1,26.9,-54.4,35.38,,,,,,,,,,
15.29.01.653,-20.2,5.0,0,3.0,,48092.5,20.79,-0.17,0.86,0.38,71.9,22.8,-54.3,35.38,,,,,,,,,,
15.29.01.666,18.6,4.6,0,3.0,,41602.8,24.04,-0.21,0.87,0.38,74.9,20.4,-56.4,35.38,,,,,,,,,,
15.29.01.678,-85.8,21.4,0,3.0,,47065.5,21.25,-0.18,0.89,0.39,67.6,23.2,-61.8,35.38,,,,,,,,,,
15.29.01.686,-47.5,11.9,0,3.0,,47433.3,21.08,-0.2,0.92,0.37,57.2,30.3,-65.7,35.38,,,,,,,,,,
15.29.01.698,-71.9,18.0,0,3.0,,45580.2,21.94,-0.19,0.95,0.33,48.2,39.6,-68.3,35.38,,,,,,,,,,
15.29.01.707,-86.1,21.5,0,3.0,,47864.6,20.89,-0.19,0.96,0.29,48.1,40.7,-68.9,35.38,,,,,,,,,,
15.29.01.719,-104.0,26.0,0,3.0,,48945.2,20.43,-0.2,0.98,0.3,51.3,38.1,-68.4,35.38,,,,,,,,,,
15.29.01.756,-87.9,22.0,0,3.0,,46294.4,21.6,-0.15,0.98,0.26,58.4,34.2,-62.0,35.38,,,,,,,,,,
15.29.01.764,-80.6,20.2,0,3.0,,48321.4,20.69,-0.23,0.97,0.34,53.0,31.2,-33.6,35.38,,,,,,,,,,
15.29.01.776,-74.1,18.5,0,3.0,,43569.3,22.95,-0.24,0.95,0.33,43.2,33.3,-29.6,35.38,,,,,,,,,,
15.29.01.788,-167.4,41.8,0,3.0,,41893.4,23.87,-0.24,0.95,0.31,32.1,29.8,-25.6,35.38,,,,,,,,,,
15.29.01.797,-107.4,26.8,0,3.0,,49960.4,20.02,-0.24,0.9,0.27,28.9,29.4,-17.9,35.38,,,,,,,,,,
15.29.01.809,-99.3,24.8,0,3.0,,43795.4,22.83,-0.25,0.83,0.24,28.9,21.5,-17.9,35.38,,,,,,,,,,
15.29.01.817,-131.7,32.9,0,3.0,,45269.4,22.09,-0.24,0.84,0.21,31.8,21.4,-16.6,35.38,,,,,,,,,,
15.29.01.829,-158.3,39.6,0,3.0,,42823.9,23.35,-0.25,0.82,0.15,37.7,16.1,-18.2,35.38,,,,,,,,,,
15.29.01.838,-228.1,57.0,0,3.0,,42435.6,23.57,-0.26,0.82,0.15,39.3,12.6,-20.8,35.38,,,,,,,,,,
15.29.01.850,-190.4,47.6,0,3.0,,46263.9,21.62,-0.28,0.82,0.13,41.4,7.4,-23.2,35.38,,,,,,,,,,
15.29.01.858,-223.9,56.0,0,3.0,,45153.3,22.15,-0.27,0.81,0.13,40.7,-2.1,-23.1,35.38,,,,,,,,,,
15.29.01.874,61.4,15.4,1,4.0,115.1,45498.5,21.98,-0.25,0.82,0.14,35.6,-7.0,-21.0,35.38,,,,,,,,,,
15.29.01.879,123.1,30.8,0,4.0,,45604.3,21.93,-0.24,0.84,0.18,29.8,-13.6,-19.3,35.38,,,,,,,,,,
15.29.01.891,199.8,50.0,0,4.0,,51352.7,19.47,-0.25,0.83,0.15,25.4,-16.5,-16.8,35.38,,,,,,,,,,
15.29.01.903,258.0,64.5,0,4.0,,49572.7,20.17,-0.25,0.84,0.16,14.8,-14.8,-14.5,35.38,,,,,,,,,,
15.29.01.912,346.0,86.5,0,4.0,,49894.2,20.04,-0.25,0.86,0.16,4.3,-12.2,-12.8,35.38,,,,,,,,,,
15.29.01.924,402.3,100.6,0,4.0,,39820.0,25.11,-0.28,0.84,0.14,-6.2,-9.4,-11.4,35.38,,,,,,,,,,
15.29.01.932,458.5,114.6,0,4.0,,47597.0,21.01,-0.33,0.84,0.13,-13.2,-9.1,-10.5,35.38,,,,,,,,,,
15.29.01.944,398.3,99.6,0,4.0,,40514.5,24.68,-0.35,0.87,0.12,-19.3,-14.5,-10.7,35.38,,,,,,,,,,
15.29.01.952,496.7,124.2,0,4.0,,43421.7,23.03,-0.36,0.87,0.14,-28.8,-18.4,-10.9,35.38,,,,,,,,,,
15.29.01.965,451.3,112.8,0,4.0,,50521.3,19.79,-0.34,0.89,0.14,-37.6,-23.5,-10.9,35.38,,,,,,,,,,
15.29.01.977,454.8,113.7,0,4.0,,49865.9,20.05,-0.32,0.9,0.11,-36.9,-24.4,-13.9,35.38,,,,,,,,,,
15.29.01.985,480.7,120.2,0,4.0,,48374.7,20.67,-0.37,0.93,0.14,-35.1,-29.2,-16.7,35.38,,,,,,,,,,
15.29.01.997,392.5,98.1,0,4.0,,47621.3,21.0,-0.42,0.96,0.16,-33.1,-42.1,-20.7,35.38,,,,,,,,,,
15.29.02.006,323.1,80.8,0,4.0,,46451.0,21.53,-0.36,0.96,0.1,-31.7,-27.5,-18.6,35.38,,,,,,,,,,
15.29.02.018,204.3,51.1,0,4.0,,46868.6,21.34,-0.39,0.98,0.12,-36.8,-22.1,-18.9,35.38,,,,,,,,,,
15.29.02.030,154.9,38.7,0,4.0,,48787.9,20.5,-0.38,1.0,0.16,-36.6,-23.0,-19.7,35.38,,,,,,,,,,
15.29.02.039,25.3,6.3,0,4.0,,41110.5,24.32,-0.36,1.0,0.17,-38.1,-19.6,-21.6,35.38,,,,,,,,,,
15.29.02.051,-23.7,5.9,0,4.0,,46413.2,21.55,-0.36,1.01,0.2,-39.7,-17.7,-21.9,35.38,,,,,,,,,,
15.29.02.059,-12.6,3.2,0,4.0,,43254.9,23.12,-0.36,1.02,0.21,-40.5,-16.0,-21.3,35.38,,,,,,,,,,
15.29.02.071,90.5,22.6,0,4.0,,44411.8,22.52,-0.38,1.03,0.23,-43.3,-12.6,-20.2,35.38,,,,,,,,,,
15.29.02.083,134.4,33.6,0,4.0,,44925.4,22.26,-0.4,1.01,0.24,-42.0,-11.7,-20.6,35.38,,,,,,,,,,
15.29.02.092,72.3,18.1,0,4.0,,45675.5,21.89,-0.42,1.02,0.25,-40.4,-11.3,-21.7,35.38,,,,,,,,,,
15.29.02.104,46.9,11.7,0,4.0,,43773.9,22.84,-0.43,1.03,0.25,-35.5,-11.6,-23.9,35.38,,,,,,,,,,
15.29.02.116,126.7,31.7,0,4.0,,38576.9,25.92,-0.43,1.02,0.26,-31.0,-10.5,-26.8,35.38,,,,,,,,,,
15.29.02.124,73.6,18.4,0,4.0,,45783.8,21.84,-0.43,1.01,0.28,-25.9,-11.8,-28.1,35.38,,,,,,,,,,
15.29.02.137,60.8,15.2,0,4.0,,44115.6,22.67,-0.42,1.0,0.29,-22.9,-13.9,-28.1,35.38,,,,,,,,,,
15.29.02.149,,,0,4.0,,44562.2,22.44,,,,,,,,,,,,,,,,,
15.29.02.165,,,0,4.0,,47555.5,21.03,,,,,,,,,35.38,,,,,,,,
15.29.02.174,-26.9,6.7,0,4.0,,46145.6,21.67,-0.39,0.94,0.32,-8.0,-20.7,-30.3,35.38,,,,,,,,,,
15.29.02.186,-39.0,9.8,0,4.0,,45861.6,21.8,-0.38,0.94,0.32,-5.2,-20.1,-30.2,35.38,,,,,,,,,,
15.29.02.198,-87.2,21.8,0,4.0,,45036.7,22.2,-0.38,0.91,0.32,-1.1,-21.5,-30.6,35.38,,,,,,,,,,
15.29.02.207,-47.0,11.8,0,4.0,,45346.6,22.05,-0.37,0.89,0.31,2.6,-24.1,-29.2,35.38,,,,,,,,,,
15.29.02.219,-39.4,9.8,0,4.0,,42361.1,23.61,-0.35,0.89,0.31,6.5,-27.7,-26.9,35.38,,,,,,,,,,
15.29.02.227,-47.1,11.8,0,4.0,,45875.2,21.8,-0.33,0.87,0.31,9.5,-31.2,-24.8,35.38,,,,,,,,,,
15.29.02.239,-95.6,23.9,0,4.0,,42726.2,23.4,-0.32,0.86,0.31,13.1,-34.7,-23.4,35.38,,,,,,,,,,
15.29.02.251,-115.1,28.8,0,4.0,,43740.2,22.86,-0.3,0.84,0.32,16.1,-37.1,-21.8,35.38,,,,,,,,,,
15.29.02.260,-77.4,19.4,0,4.0,,41480.9,24.11,-0.3,0.81,0.31,18.3,-36.3,-20.7,35.38,,,,,,,,,,
15.29.02.272,-24.7,6.2,0,4.0,,47022.3,21.27,-0.29,0.81,0.32,19.2,-33.6,-20.0,35.38,,,,,,,,,,
15.29.02.284,-147.6,36.9,0,4.0,,51343.2,19.48,-0.31,0.81,0.33,18.1,-29.8,-19.9,35.38,,,,,,,,,,
15.29.02.292,-111.1,27.8,0,4.0,,47056.9,21.25,-0.33,0.81,0.33,13.9,-25.1,-19.4,35.38,,,,,,,,,,
15.29.02.305,-180.3,45.1,0,4.0,,37251.4,26.84,-0.34,0.8,0.33,9.2,-22.4,-20.1,35.38,,,,,,,,,,
15.29.02.317,-123.0,30.8,0,4.0,,46381.6,21.56,-0.34,0.8,0.32,5.4,-22.4,-20.3,35.38,,,,,,,,,,
15.29.02.325,-146.3,36.6,0,4.0,,44562.5,22.44,-0.37,0.78,0.33,2.2,-21.7,-19.9,35.38,,,,,,,,,,
15.29.02.337,-144.3,36.1,0,4.0,,46111.5,21.69,-0.38,0.79,0.32,1.3,-21.1,-18.8,35.38,,,,,,,,,,
15.29.02.346,-113.3,28.3,0,4.0,,49264.2,20.3,-0.4,0.8,0.33,3.4,-21.4,-18.8,35.38,,,,,,,,,,
15.29.02.358,-140.2,35.0,0,4.0,,46232.1,21.63,-0.41,0.82,0.36,6.0,-20.7,-19.7,35.38,,,,,,,,,,
15.29.02.370,-195.0,48.8,0,4.0,,48068.1,20.8,-0.41,0.82,0.39,8.2,-20.5,-22.1,35.38,,,,,,,,,,
15.29.02.378,-167.8,42.0,0,4.0,,46702.8,21.41,-0.42,0.83,0.4,7.8,-17.3,-23.1,35.38,,,,,,,,,,
15.29.02.391,63.4,15.8,1,5.0,117.1,41947.8,23.84,-0.43,0.83,0.4,6.2,-16.6,-23.8,35.38,,,,,,,,,,
15.29.02.399,183.0,45.8,0,5.0,,48092.1,20.79,-0.43,0.81,0.4,8.9,-16.1,-24.2,35.38,,,,,,,,,,
15.29.02.411,253.1,63.3,0,5.0,,47903.9,20.88,-0.44,0.81,0.37,9.7,-16.3,-23.4,35.38,,,,,,,,,,
15.29.02.423,355.3,88.8,0,5.0,,45568.6,21.94,-0.45,0.83,0.39,12.5,-18.9,-22.8,35.38,,,,,,,,,,
15.29.02.432,434.2,108.6,0,5.0,,48298.3,20.7,-0.46,0.84,0.4,14.0,-21.6,-21.9,35.38,,,,,,,,,,
15.29.02.444,473.6,118.4,0,5.0,,47935.4,20.86,-0.44,0.84,0.39,16.9,-20.6,-21.6,35.38,,,,,,,,,,
15.29.02.456,514.7,128.7,0,5.0,,45132.2,22.16,-0.45,0.82,0.39,21.3,-17.9,-22.2,35.38,,,,,,,,,,
15.29.02.468,485.8,121.4,0,5.0,,43159.0,23.17,-0.44,0.82,0.4,25.7,-15.6,-22.9,35.38,,,,,,,,,,
15.29.02.481,409.5,102.4,0,5.0,,43697.6,22.88,-0.43,0.83,0.4,26.5,-12.6,-22.6,35.38,,,,,,,,,,
15.29.02.489,456.8,114.2,0,5.0,,49265.3,20.3,-0.41,0.82,0.39,24.7,-10.0,-21.1,35.38,,,,,,,,,,
15.29.02.501,374.3,93.6,0,5.0,,44371.1,22.54,-0.41,0.82,0.4,23.0,-10.5,-18.7,35.38,,,,,,,,,,
15.29.02.509,410.6,102.6,0,5.0,,47342.0,21.12,-0.39,0.8,0.4,16.7,-10.4,-14.0,35.38,,,,,,,,,,
15.29.02.522,293.7,73.4,0,5.0,,43755.2,22.85,-0.4,0.79,0.4,8.9,-10.7,-8.1,35.38,,,,,,,,,,
15.29.02.558,15.7,3.9,0,5.0,,44743.0,22.35,-0.38,0.79,0.4,0.0,-3.5,-5.3,35.38,,,,,,,,,,
15.29.02.571,-27.8,7.0,0,5.0,,48061.4,20.81,-0.38,0.75,0.39,-1.0,-5.3,-6.4,35.38,,,,,,,,,,
15.29.02.579,41.3,10.3,0,5.0,,47672.1,20.98,-0.41,0.74,0.38,-0.5,-4.5,-9.4,35.38,,,,,,,,,,
15.29.02.591,70.0,17.5,0,5.0,,44984.4,22.23,-0.39,0.74,0.36,2.0,-5.4,-11.1,35.38,,,,,,,,,,
15.29.02.604,27.8,7.0,0,5.0,,49722.2,20.11,-0.39,0.75,0.36,4.2,-7.5,-12.9,35.38,,,,,,,,,,
15.29.02.612,80.7,20.2,0,5.0,,43338.6,23.07,-0.38,0.76,0.37,4.0,-9.2,-13.0,35.38,,,,,,,,,,
15.29.02.624,110.0,27.5,0,5.0,,43073.9,23.22,-0.39,0.76,0.34,2.2,-11.0,-11.9,35.38,,,,,,,,,,
15.29.02.632,95.4,23.8,0,5.0,,45403.6,22.02,-0.39,0.77,0.35,1.4,-14.1,-10.7,35.38,,,,,,,,,,
15.29.02.645,62.4,15.6,0,5.0,,48052.3,20.81,-0.39,0.8,0.38,-2.0,-18.6,-8.6,35.38,,,,,,,,,,
15.29.02.657,42.5,10.6,0,5.0,,52169.7,19.17,-0.39,0.81,0.37,-5.0,-19.0,-7.8,35.38,,,,,,,,,,
15.29.02.665,-2.2,0.6,0,5.0,,40896.5,24.45,-0.39,0.81,0.35,-5.9,-17.9,-8.6,35.38,,,,,,,,,,
15.29.02.677,-53.6,13.4,0,5.0,,45749.1,21.86,-0.4,0.81,0.35,-4.3,-17.1,-10.2,35.38,,,,,,,,,,
15.29.02.686,4.0,1.0,0,5.0,,49505.7,20.2,-0.39,0.83,0.36,-2.7,-14.9,-11.8,35.38,,,,,,,,,,
15.29.02.698,-30.9,7.7,0,5.0,,46167.6,21.66,-0.38,0.83,0.36,-1.1,-13.0,-13.1,35.38,,,,,,,,,,
15.29.02.710,-14.9,3.7,0,5.0,,43535.8,22.97,-0.38,0.84,0.36,0.5,-10.6,-13.8,35.38,,,,,,,,,,
15.29.02.718,-49.6,12.4,0,5.0,,45009.3,22.22,-0.38,0.85,0.34,-0.3,-9.9,-13.0,35.38,,,,,,,,,,
15.29.02.731,-45.2,11.3,0,5.0,,45232.8,22.11,-0.39,0.85,0.35,-0.7,-10.0,-12.1,35.38,,,,,,,,,,
15.29.02.739,-105.1,26.3,0,5.0,,49979.0,20.01,-0.38,0.86,0.35,-0.9,-11.3,-10.8,35.38,,,,,,,,,,
15.29.02.751,-63.7,15.9,0,5.0,,49989.7,20.0,-0.38,0.87,0.36,-1.2,-11.7,-9.7,35.38,,,,,,,,,,
15.29.02.764,-75.1,18.8,0,5.0,,43269.0,23.11,-0.37,0.87,0.35,-2.4,-11.6,-7.7,35.38,,,,,,,,,,
15.29.02.776,-102.7,25.7,0,5.0,,51220.9,19.52,-0.37,0.87,0.35,-2.6,-11.5,-5.5,35.38,,,,,,,,,,
15.29.02.784,-133.7,33.4,0,5.0,,44121.3,22.66,-0.36,0.85,0.35,-1.1,-10.6,-4.3,35.38,,,,,,,,,,
15.29.02.796,-135.9,34.0,0,5.0,,46654.2,21.43,-0.36,0.84,0.36,0.1,-8.6,-3.0,35.38,,,,,,,,,,
15.29.02.809,-153.2,38.3,0,5.0,,46795.4,21.37,-0.36,0.85,0.35,1.2,-5.9,-1.2,35.38,,,,,,,,,,
15.29.02.817,-172.6,43.2,0,5.0,,43636.1,22.92,-0.37,0.85,0.35,4.1,-5.7,-1.5,35.38,,,,,,,,,,
15.29.02.829,-108.8,27.2,0,5.0,,48285.4,20.71,-0.37,0.85,0.35,3.8,-5.6,-1.3,35.38,,,,,,,,,,
15.29.02.837,-165.9,41.5,0,5.0,,41225.3,24.26,-0.38,0.84,0.35,3.0,-3.9,-1.6,35.38,,,,,,,,,,
15.29.02.849,-186.7,46.7,0,5.0,,46963.5,21.29,-0.38,0.84,0.34,0.8,-3.5,-1.7,35.38,,,,,,,,,,
15.29.02.858,-123.5,30.9,0,5.0,,47977.8,20.84,-0.39,0.83,0.34,0.7,-3.0,-2.8,35.38,,,,,,,,,,
15.29.02.870,-215.9,54.0,0,5.0,,47590.3,21.01,-0.39,0.85,0.35,0.2,-2.4,-3.7,35.38,,,,,,,,,,
15.29.02.878,-149.8,37.4,0,5.0,,50091.5,19.96,-0.38,0.85,0.35,-0.7,-1.4,-4.1,35.38,,,,,,,,,,
15.29.02.891,-140.1,35.0,0,5.0,,45450.4,22.0,-0.38,0.85,0.35,-1.8,0.1,-4.2,35.38,,,,,,,,,,
15.29.02.903,124.2,31.0,1,6.0,123.0,39281.8,25.46,-0.38,0.85,0.35,-1.3,2.7,-3.9,35.38,,,,,,,,,,
15.29.02.911,128.9,32.2,0,6.0,,50565.5,19.78,-0.38,0.83,0.35,-0.6,4.7,-3.2,35.38,,,,,,,,,,
15.29.02.923,148.3,37.1,0,6.0,,44791.8,22.33,-0.36,0.84,0.36,-2.6,11.1,-0.6,35.38,,,,,,,,,,
15.29.02.931,307.3,76.8,0,6.0,,44277.8,22.58,-0.39,0.85,0.37,-0.7,7.3,-0.3,35.38,,,,,,,,,,
15.29.02.944,404.7,101.2,0,6.0,,42844.2,23.34,-0.39,0.84,0.37,-3.3,6.9,1.7,35.38,,,,,,,,,,
15.29.02.952,487.0,121.8,0,6.0,,41468.8,24.11,-0.39,0.84,0.38,-5.5,5.1,3.6,35.38,,,,,,,,,,
15.29.02.964,493.9,123.5,0,6.0,,40401.4,24.75,-0.4,0.82,0.37,-8.3,4.5,4.9,35.38,,,,,,,,,,
15.29.02.972,460.0,115.0,0,6.0,,46140.5,21.67,-0.4,0.81,0.38,-8.8,3.0,5.6,35.38,,,,,,,,,,
15.29.02.985,556.6,139.2,0,6.0,,48918.5,20.44,-0.41,0.81,0.38,-8.0,2.4,4.8,35.38,,,,,,,,,,
15.29.02.997,417.7,104.4,0,6.0,,44179.5,22.63,-0.41,0.8,0.37,-7.0,2.9,4.2,35.38,,,,,,,,,,
15.29.03.005,441.5,110.4,0,6.0,,46757.6,21.39,-0.41,0.79,0.37,-5.6,3.7,3.3,35.38,,,,,,,,,,
15.29.03.017,462.5,115.6,0,6.0,,50676.4,19.73,-0.41,0.79,0.37,-2.8,4.2,2.1,35.38,,,,,,,,,,
15.29.03.026,313.7,78.4,0,6.0,,45970.1,21.75,-0.41,0.79,0.38,0.5,4.9,1.0,35.38,,,,,,,,,,
15.29.03.038,298.4,74.6,0,6.0,,42604.7,23.47,-0.41,0.79,0.37,4.0,5.7,-0.2,35.38,,,,,,,,,,
15.29.03.046,260.9,65.2,0,6.0,,46290.6,21.6,-0.42,0.79,0.37,6.3,6.0,-0.8,35.38,,,,,,,,,,
15.29.03.058,79.8,20.0,0,6.0,,43356.1,23.06,-0.42,0.8,0.36,6.8,5.9,-0.7,35.38,,,,,,,,,,
15.29.03.067,90.1,22.5,0,6.0,,47127.8,21.22,-0.43,0.8,0.37,6.2,3.2,-0.5,35.38,,,,,,,,,,
15.29.03.079,61.2,15.3,0,6.0,,42855.1,23.33,-0.43,0.81,0.38,4.4,1.9,0.2,35.38,,,,,,,,,,
15.29.03.087,23.1,5.8,0,6.0,,40870.8,24.47,-0.42,0.81,0.39,2.8,1.5,1.5,35.38,,,,,,,,,,
15.29.03.099,65.9,16.5,0,6.0,,48680.6,20.54,-0.42,0.81,0.37,1.5,1.8,1.6,35.38,,,,,,,,,,
15.29.03.108,32.8,8.2,0,6.0,,46201.7,21.64,-0.43,0.8,0.37,2.2,2.6,1.3,35.38,,,,,,,,,,
15.29.03.120,122.0,30.5,0,6.0,,47453.1,21.07,-0.42,0.8,0.37,3.4,3.8,0.1,35.38,,,,,,,,,,
15.29.03.128,64.9,16.2,0,6.0,,43408.2,23.04,-0.43,0.8,0.36,5.6,5.9,-0.7,35.38,,,,,,,,,,
15.29.03.140,22.6,5.6,0,6.0,,40961.0,24.41,-0.42,0.8,0.36,7.1,8.0,-1.6,35.38,,,,,,,,,,
15.29.03.149,99.2,24.8,0,6.0,,48376.8,20.67,-0.41,0.8,0.37,7.2,9.0,-1.0,35.38,,,,,,,,,,
15.29.03.161,39.9,10.0,0,6.0,,48687.7,20.54,-0.41,0.81,0.37,6.0,9.4,-0.6,35.38,,,,,,,,,,
15.29.03.169,38.2,9.6,0,6.0,,42890.6,23.32,-0.41,0.81,0.38,4.5,8.9,0.0,35.38,,,,,,,,,,
15.29.03.181,-3.0,0.8,0,6.0,,49027.6,20.4,-0.41,0.81,0.38,3.1,8.9,-0.1,35.38,,,,,,,,,,
15.29.03.190,17.3,4.3,0,6.0,,45995.2,21.74,-0.42,0.8,0.38,1.9,9.2,-0.7,35.38,,,,,,,,,,
15.29.03.202,-10.5,2.6,0,6.0,,45055.9,22.19,-0.42,0.8,0.39,2.1,9.1,-1.5,35.38,,,,,,,,,,
15.29.03.210,-74.6,18.6,0,6.0,,43020.9,23.24,-0.42,0.79,0.38,4.2,8.7,-2.7,35.38,,,,,,,,,,
15.29.03.222,-65.8,16.4,0,6.0,,47462.6,21.07,-0.41,0.8,0.38,5.5,8.4,-4.0,35.38,,,,,,,,,,
15.29.03.230,-59.2,14.8,0,6.0,,47199.1,21.19,-0.41,0.8,0.39,7.6,8.4,-4.6,35.38,,,,,,,,,,
15.29.03.243,-34.9,8.7,0,6.0,,47018.2,21.27,-0.41,0.8,0.39,9.8,7.8,-5.3,35.38,,,,,,,,,,
15.29.03.251,-93.5,23.4,0,6.0,,38820.7,25.76,-0.41,0.8,0.38,11.6,6.7,-6.1,35.38,,,,,,,,,,
15.29.03.263,-76.4,19.1,0,6.0,,44208.2,22.62,-0.41,0.81,0.39,13.6,5.1,-7.1,35.38,,,,,,,,,,
15.29.03.272,-95.6,23.9,0,6.0,,45966.8,21.75,-0.41,0.81,0.39,15.7,4.4,-8.0,35.38,,,,,,,,,,
15.29.03.284,-95.4,23.8,0,6.0,,45908.7,21.78,-0.4,0.81,0.38,17.3,3.8,-8.8,35.38,,,,,,,,,,
15.29.03.296,-134.2,33.6,0,6.0,,40990.2,24.4,-0.4,0.82,0.38,16.0,3.3,-8.5,35.38,,,,,,,,,,
15.29.03.304,-116.6,29.2,0,6.0,,46986.0,21.28,-0.4,0.83,0.38,13.2,1.8,-7.7,35.38,,,,,,,,,,
15.29.03.316,-136.8,34.2,0,6.0,,48662.1,20.55,-0.4,0.83,0.38,10.7,1.5,-7.3,35.38,,,,,,,,,,
15.29.03.325,-104.2,26.0,0,6.0,,40104.9,24.93,-0.4,0.83,0.38,8.7,1.5,-6.7,35.38,,,,,,,,,,
15.29.03.361,-119.0,29.8,0,6.0,,45941.8,21.77,-0.4,0.84,0.37,7.1,2.7,-6.2,35.38,,,,,,,,,,
15.29.03.374,-140.6,35.2,0,6.0,,42445.9,23.56,-0.42,0.84,0.34,3.7,3.6,-5.3,35.38,,,,,,,,,,
15.29.03.382,-204.3,51.1,0,6.0,,45923.8,21.78,-0.41,0.84,0.35,2.4,3.6,-4.4,35.38,,,,,,,,,,
15.29.03.395,-195.0,48.8,0,6.0,,42190.2,23.7,-0.42,0.85,0.36,1.9,3.6,-4.5,35.38,,,,,,,,,,
15.29.03.403,-216.9,54.2,0,6.0,,45590.7,21.93,-0.42,0.84,0.36,2.2,2.9,-4.7,35.38,,,,,,,,,,
15.29.03.415,80.9,20.2,1,7.0,122.4,45473.1,21.99,-0.41,0.85,0.37,1.9,2.9,-3.6,35.38,,,,,,,,,,
15.29.03.423,137.5,34.4,0,7.0,,50896.7,19.65,-0.41,0.85,0.37,1.3,2.3,-3.3,35.38,,,,,,,,,,
15.29.03.435,205.5,51.4,0,7.0,,48928.2,20.44,-0.41,0.84,0.36,2.2,1.9,-3.0,35.38,,,,,,,,,,
15.29.03.444,336.5,84.1,0,7.0,,50550.5,19.78,-0.41,0.84,0.36,3.7,3.3,-2.4,35.38,,,,,,,,,,
15.29.03.456,347.1,86.8,0,7.0,,42985.1,23.26,-0.41,0.85,0.36,3.6,4.0,-1.6,35.38,,,,,,,,,,
15.29.03.464,442.2,110.6,0,7.0,,39663.9,25.21,-0.42,0.84,0.35,3.5,3.0,-1.4,35.38,,,,,,,,,,
15.29.03.476,492.4,123.1,0,7.0,,41341.6,24.19,-0.42,0.84,0.35,2.3,2.8,-1.5,35.38,,,,,,,,,,
15.29.03.484,431.6,107.9,0,7.0,,42646.0,23.45,-0.42,0.83,0.35,2.8,1.4,-1.1,35.38,,,,,,,,,,
15.29.03.497,507.5,126.9,0,7.0,,45746.3,21.86,-0.41,0.83,0.35,3.3,1.6,-1.5,35.38,,,,,,,,,,
15.29.03.505,508.9,127.2,0,7.0,,50552.6,19.78,-0.41,0.83,0.35,2.8,2.4,-2.0,35.38,,,,,,,,,,
15.29.03.517,442.9,110.7,0,7.0,,45305.8,22.07,-0.41,0.83,0.35,2.3,2.6,-2.0,35.38,,,,,,,,,,
15.29.03.525,505.4,126.4,0,7.0,,46798.3,21.37,-0.41,0.83,0.35,1.4,2.6,-2.2,35.38,,,,,,,,,,
15.29.03.538,388.1,97.0,0,7.0,,48186.3,20.75,-0.42,0.83,0.34,1.4,4.3,-2.8,35.38,,,,,,,,,,
15.29.03.546,310.2,77.6,0,7.0,,44059.2,22.7,-0.41,0.82,0.33,0.1,6.5,-3.0,35.38,,,,,,,,,,
15.29.03.558,171.6,42.9,0,7.0,,45886.8,21.79,-0.43,0.82,0.34,0.5,5.6,-3.2,35.38,,,,,,,,,,
15.29.03.566,152.3,38.1,0,7.0,,42175.2,23.71,-0.42,0.83,0.34,-0.2,5.5,-3.0,35.38,,,,,,,,,,
15.29.03.579,31.4,7.8,0,7.0,,39270.6,25.46,-0.42,0.83,0.35,-1.1,6.6,-2.8,35.38,,,,,,,,,,
15.29.03.587,29.2,7.3,0,7.0,,46255.3,21.62,-0.42,0.83,0.35,-2.6,5.9,-2.2,35.38,,,,,,,,,,
15.29.03.599,128.6,32.2,0,7.0,,45661.5,21.9,-0.42,0.83,0.35,-2.8,5.1,-2.2,35.38,,,,,,,,,,
15.29.03.607,68.0,17.0,0,7.0,,46034.0,21.72,-0.42,0.83,0.34,-2.5,4.4,-2.6,35.38,,,,,,,,,,
15.29.03.620,50.4,12.6,0,7.0,,48608.1,20.57,-0.41,0.82,0.35,-0.8,5.4,-3.8,35.38,,,,,,,,,,
15.29.03.628,108.4,27.1,0,7.0,,49803.6,20.08,-0.41,0.82,0.35,0.0,5.3,-3.7,35.38,,,,,,,,,,
15.29.03.640,136.4,34.1,0,7.0,,45262.2,22.09,-0.4,0.84,0.35,-1.2,7.6,-4.5,35.38,,,,,,,,,,
15.29.03.652,107.4,26.8,0,7.0,,42657.2,23.44,-0.41,0.81,0.35,-0.4,1.8,-3.5,35.38,,,,,,,,,,
15.29.03.661,79.9,20.0,0,7.0,,43159.0,23.17,-0.4,0.82,0.37,0.2,3.6,-3.5,35.38,,,,,,,,,,
15.29.03.673,47.0,11.8,0,7.0,,40628.7,24.61,-0.41,0.82,0.36,0.3,2.7,-2.8,35.38,,,,,,,,,,
15.29.03.681,15.5,3.9,0,7.0,,50485.7,19.81,-0.41,0.82,0.36,0.5,2.0,-2.7,35.38,,,,,,,,,,
15.29.03.689,-25.7,6.4,0,7.0,,42157.3,23.72,-0.42,0.82,0.36,0.1,1.7,-3.0,35.38,,,,,,,,,,
15.29.03.702,-5.1,1.3,0,7.0,,45910.5,21.78,-0.42,0.83,0.35,0.0,1.1,-3.3,35.38,,,,,,,,,,
15.29.03.710,-29.4,7.4,0,7.0,,40505.2,24.69,-0.42,0.83,0.36,-0.1,2.2,-4.6,35.38,,,,,,,,,,
15.29.03.722,-51.1,12.8,0,7.0,,46107.1,21.69,-0.42,0.83,0.34,-0.6,3.6,-4.7,35.38,,,,,,,,,,
15.29.03.734,-55.3,13.8,0,7.0,,44572.2,22.44,-0.42,0.83,0.34,-0.1,3.8,-5.0,35.38,,,,,,,,,,
15.29.03.743,18.2,4.6,0,7.0,,40643.0,24.6,-0.42,0.83,0.35,0.5,3.4,-4.9,35.38,,,,,,,,,,
15.29.03.755,-74.5,18.6,0,7.0,,42521.4,23.52,-0.42,0.83,0.36,1.1,4.0,-5.1,35.38,,,,,,,,,,
15.29.03.763,-36.1,9.0,0,7.0,,42761.9,23.39,-0.42,0.84,0.34,2.5,4.1,-5.1,35.38,,,,,,,,,,
15.29.03.775,-89.8,22.4,0,7.0,,46489.8,21.51,-0.42,0.83,0.34,4.0,4.3,-5.4,35.38,,,,,,,,,,
15.29.03.784,-85.3,21.3,0,7.0,,47505.0,21.05,-0.42,0.84,0.35,4.1,4.6,-4.5,35.38,,,,,,,,,,
15.29.03.796,-63.4,15.8,0,7.0,,46383.0,21.56,-0.42,0.84,0.34,3.1,4.6,-3.2,35.38,,,,,,,,,,
15.29.03.804,-131.0,32.8,0,7.0,,45353.4,22.05,-0.42,0.84,0.35,0.9,3.7,-2.4,35.38,,,,,,,,,,
15.29.03.816,-88.2,22.0,0,7.0,,46331.3,21.58,-0.43,0.84,0.35,0.6,3.9,-2.4,35.38,,,,,,,,,,
15.29.03.824,-114.2,28.6,0,7.0,,42725.8,23.41,-0.43,0.83,0.34,0.4,5.5,-2.9,35.38,,,,,,,,,,
15.29.03.837,-115.2,28.8,0,7.0,,45890.7,21.79,-0.43,0.83,0.33,0.6,6.5,-2.6,35.38,,,,,,,,,,
15.29.03.845,-143.1,35.8,0,7.0,,44905.3,22.27,-0.43,0.83,0.34,0.9,7.5,-2.6,35.38,,,,,,,,,,
15.29.03.857,-138.9,34.7,0,7.0,,44795.3,22.32,-0.42,0.84,0.35,1.1,7.6,-2.6,35.38,,,,,,,,,,
15.29.03.865,-158.6,39.6,0,7.0,,45968.0,21.75,-0.42,0.83,0.35,1.0,8.1,-2.7,35.38,,,,,,,,,,
15.29.03.878,-153.0,38.2,0,7.0,,41425.0,24.14,-0.42,0.83,0.35,0.6,8.1,-2.1,35.38,,,,,,,,,,
15.29.03.886,-139.2,34.8,0,7.0,,41123.2,24.32,-0.42,0.83,0.35,0.1,8.5,-1.7,35.38,,,,,,,,,,
15.29.03.898,-153.3,38.3,0,7.0,,47724.1,20.95,-0.42,0.83,0.35,-0.2,7.9,-1.2,35.38,,,,,,,,,,
15.29.03.907,-204.1,51.0,0,7.0,,43737.9,22.86,-0.42,0.83,0.35,-0.7,7.9,-1.1,35.38,,,,,,,,,,
15.29.03.919,45.0,11.2,1,8.0,118.6,47575.6,21.02,-0.42,0.82,0.35,-0.7,7.2,-0.8,35.38,,,,,,,,,,
15.29.03.927,90.1,22.5,0,8.0,,45018.0,22.21,-0.43,0.83,0.35,-0.3,7.8,-1.3,35.38,,,,,,,,,,
15.29.03.939,262.8,65.7,0,8.0,,45229.4,22.11,-0.43,0.83,0.35,0.3,7.6,-1.9,35.38,,,,,,,,,,
15.29.03.947,239.3,59.8,0,8.0,,49304.9,20.28,-0.43,0.82,0.35,0.7,7.4,-2.3,35.38,,,,,,,,,,
15.29.03.960,332.8,83.2,0,8.0,,45552.3,21.95,-0.42,0.83,0.35,1.1,6.6,-2.5,35.38,,,,,,,,,,
15.29.03.968,414.8,103.7,0,8.0,,43658.3,22.91,-0.42,0.83,0.36,2.1,6.9,-2.7,35.38,,,,,,,,,,
15.29.03.980,449.9,112.5,0,8.0,,44003.3,22.73,-0.42,0.83,0.35,3.2,7.3,-2.6,35.38,,,,,,,,,,
15.29.03.988,470.4,117.6,0,8.0,,47186.1,21.19,-0.42,0.82,0.34,3.9,6.8,-2.5,35.38,,,,,,,,,,
15.29.04.001,473.5,118.4,0,8.0,,41115.7,24.32,-0.42,0.83,0.35,4.1,7.1,-2.4,35.38,,,,,,,,,,
15.29.04.009,542.4,135.6,0,8.0,,43031.7,23.24,-0.42,0.83,0.34,3.9,7.5,-2.1,35.38,,,,,,,,,,
15.29.04.021,439.5,109.9,0,8.0,,41197.3,24.27,-0.42,0.83,0.35,3.7,6.4,-1.8,35.38,,,,,,,,,,
15.29.04.029,493.9,123.5,0,8.0,,43288.3,23.1,-0.42,0.83,0.34,4.5,6.2,-1.5,35.38,,,,,,,,,,
15.29.04.042,362.4,90.6,0,8.0,,44752.2,22.35,-0.42,0.83,0.35,4.5,6.8,-1.8,35.38,,,,,,,,,,
15.29.04.050,354.9,88.7,0,8.0,,44157.7,22.65,-0.43,0.83,0.35,5.2,6.4,-2.1,35.38,,,,,,,,,,
15.29.04.062,322.5,80.6,0,8.0,,41369.9,24.17,-0.42,0.84,0.34,6.1,7.2,-2.3,35.38,,,,,,,,,,
15.29.04.070,172.9,43.2,0,8.0,,45535.1,21.96,-0.42,0.83,0.35,7.2,7.9,-2.9,35.38,,,,,,,,,,
15.29.04.083,121.3,30.3,0,8.0,,46343.7,21.58,-0.42,0.84,0.35,8.1,8.9,-2.9,35.38,,,,,,,,,,
15.29.04.095,2.1,0.5,0,8.0,,45817.5,21.83,-0.42,0.84,0.34,8.1,9.1,-2.8,35.38,,,,,,,,,,
15.29.04.103,48.2,12.0,0,8.0,,49473.9,20.21,-0.43,0.85,0.36,7.4,9.7,-2.4,35.38,,,,,,,,,,
15.29.04.115,60.3,15.1,0,8.0,,47316.6,21.13,-0.4,0.85,0.34,6.0,11.8,-1.3,35.38,,,,,,,,,,
15.29.04.124,37.3,9.3,0,8.0,,44272.6,22.59,-0.43,0.86,0.34,5.4,10.2,-0.9,35.38,,,,,,,,,,
15.29.04.136,43.6,10.9,0,8.0,,54873.7,18.22,-0.44,0.84,0.35,4.5,8.7,-0.1,35.38,,,,,,,,,,
15.29.04.173,60.1,15.0,0,8.0,,41278.8,24.23,-0.42,0.84,0.34,4.7,9.9,0.0,35.38,,,,,,,,,,
15.29.04.181,99.5,24.9,0,8.0,,42593.3,23.48,-0.42,0.83,0.32,13.6,10.2,-3.2,35.38,,,,,,,,,,
15.29.04.193,39.1,9.8,0,8.0,,44233.3,22.61,-0.43,0.83,0.33,16.6,10.6,-4.4,35.38,,,,,,,,,,
15.29.04.201,-36.4,9.1,0,8.0,,39939.1,25.04,-0.42,0.82,0.32,18.3,11.2,-5.2,35.38,,,,,,,,,,
15.29.04.214,-3.4,0.8,0,8.0,,49858.2,20.06,-0.43,0.83,0.31,23.2,10.0,-6.7,35.38,,,,,,,,,,
15.29.04.222,-35.0,8.8,0,8.0,,41978.9,23.82,-0.43,0.83,0.3,22.6,9.5,-6.7,35.38,,,,,,,,,,
15.29.04.234,23.8,6.0,0,8.0,,42740.9,23.4,-0.43,0.82,0.31,25.3,10.0,-8.4,35.38,,,,,,,,,,
15.29.04.242,-72.3,18.1,0,8.0,,45268.6,22.09,-0.42,0.83,0.31,26.6,9.4,-9.4,35.38,,,,,,,,,,
15.29.04.255,-35.7,8.9,0,8.0,,46337.6,21.58,-0.42,0.84,0.31,26.9,10.2,-9.8,35.38,,,,,,,,,,
15.29.04.267,-44.5,11.1,0,8.0,,41820.6,23.91,-0.42,0.83,0.31,26.0,12.0,-10.8,35.38,,,,,,,,,,
15.29.04.275,-29.1,7.3,0,8.0,,42191.8,23.7,-0.46,0.83,0.31,25.0,11.1,-10.6,35.38,,,,,,,,,,
15.29.04.287,-76.3,19.1,0,8.0,,45622.2,21.92,-0.44,0.82,0.28,32.8,13.7,-13.4,35.38,,,,,,,,,,
15.29.04.296,-84.3,21.1,0,8.0,,45405.6,22.02,-0.38,0.8,0.24,38.5,23.4,-16.6,35.38,,,,,,,,,,
15.29.04.308,-95.7,23.9,0,8.0,,49203.4,20.32,-0.43,0.84,0.27,39.5,18.9,-17.3,35.38,,,,,,,,,,
15.29.04.316,-109.4,27.4,0,8.0,,46207.7,21.64,-0.44,0.82,0.25,51.2,20.1,-22.1,35.38,,,,,,,,,,
15.29.04.328,-118.2,29.6,0,8.0,,46277.7,21.61,-0.44,0.84,0.25,54.0,20.8,-23.0,35.38,,,,,,,,,,
15.29.04.341,-110.4,27.6,0,8.0,,46459.7,21.52,-0.43,0.82,0.22,61.9,22.3,-27.3,35.38,,,,,,,,,,
15.29.04.349,-127.0,31.8,0,8.0,,45608.0,21.93,-0.46,0.84,0.23,60.6,22.4,-26.9,35.38,,,,,,,,,,
15.29.04.361,-118.0,29.5,0,8.0,,41916.5,23.86,-0.39,0.84,0.24,66.4,23.6,-27.1,35.38,,,,,,,,,,
15.29.04.373,-159.7,39.9,0,8.0,,45592.3,21.93,-0.47,0.84,0.26,61.8,27.5,-20.7,35.38,,,,,,,,,,
15.29.04.382,-188.4,47.1,0,8.0,,44188.9,22.63,-0.38,0.89,0.2,82.7,17.0,-31.2,35.38,,,,,,,,,,
15.29.04.394,-150.3,37.6,0,8.0,,41255.1,24.24,-0.39,0.89,0.21,84.6,23.7,-33.4,35.38,,,,,,,,,,
15.29.04.402,-245.0,61.2,0,8.0,,45592.7,21.93,-0.41,0.86,0.22,78.1,27.1,-29.7,35.38,,,,,,,,,,
15.29.04.414,-190.7,47.7,0,8.0,,42192.9,23.7,-0.37,0.87,0.17,80.2,32.9,-31.0,35.38,,,,,,,,,,
15.29.04.423,-147.2,36.8,0,8.0,,47941.7,20.86,-0.4,0.86,0.13,78.1,28.3,-28.0,35.38,,,,,,,,,,
15.29.04.435,69.7,17.4,1,9.0,121.3,43905.3,22.78,-0.51,0.82,0.22,83.4,22.0,-30.4,35.38,,,,,,,,,,
15.29.04.443,65.3,16.3,0,9.0,,48379.4,20.67,-0.46,0.87,0.17,73.5,31.5,-27.5,35.38,,,,,,,,,,
15.29.04.455,172.3,43.1,0,9.0,,43291.8,23.1,-0.49,0.88,0.11,65.5,20.3,-20.6,35.38,,,,,,,,,,
15.29.04.468,325.9,81.5,0,9.0,,46200.4,21.64,-0.48,0.86,0.14,62.3,22.8,-21.0,35.38,,,,,,,,,,
15.29.04.476,325.4,81.4,0,9.0,,44918.3,22.26,-0.42,0.85,0.07,52.8,21.5,-13.5,35.38,,,,,,,,,,
15.29.04.488,437.2,109.3,0,9.0,,42934.1,23.29,-0.5,0.88,0.11,48.4,15.7,-13.5,35.38,,,,,,,,,,
15.29.04.496,487.3,121.8,0,9.0,,44652.2,22.4,-0.42,0.85,0.05,42.3,21.7,-12.0,35.38,,,,,,,,,,
15.29.04.509,463.7,115.9,0,9.0,,45416.4,22.02,-0.51,0.87,0.07,42.7,16.7,-14.5,35.38,,,,,,,,,,
15.29.04.517,519.2,129.8,0,9.0,,45956.2,21.76,-0.48,0.86,0.07,43.2,22.3,-17.4,35.38,,,,,,,,,,
15.29.04.529,504.6,126.2,0,9.0,,41107.4,24.33,-0.49,0.85,0.06,39.9,28.7,-16.8,35.38,,,,,,,,,,
15.29.04.537,534.9,133.7,0,9.0,,46779.9,21.38,-0.48,0.86,0.05,43.2,28.6,-19.1,35.38,,,,,,,,,,
15.29.04.550,374.4,93.6,0,9.0,,45241.1,22.1,-0.46,0.84,0.01,39.5,32.1,-17.6,35.38,,,,,,,,,,
15.29.04.562,392.2,98.0,0,9.0,,45916.7,21.78,-0.55,0.86,0.05,36.7,32.0,-18.1,35.38,,,,,,,,,,
15.29.04.570,366.7,91.7,0,9.0,,42892.1,23.31,-0.28,0.83,-0.04,30.9,35.0,-15.7,35.38,,,,,,,,,,
15.29.04.582,199.4,49.8,0,9.0,,41280.5,24.22,-0.43,0.88,-0.03,31.1,27.6,-16.4,35.38,,,,,,,,,,
15.29.04.591,108.3,27.1,0,9.0,,42699.5,23.42,-0.46,0.85,-0.02,25.0,34.5,-13.1,35.38,,,,,,,,,,
15.29.04.603,9.2,2.3,0,9.0,,47700.5,20.96,-0.49,0.87,0.0,25.4,28.1,-12.5,35.38,,,,,,,,,,
15.29.04.611,5.3,1.3,0,9.0,,38373.1,26.06,-0.51,0.87,-0.01,23.8,28.5,-12.3,35.38,,,,,,,,,,
15.29.04.623,84.5,21.1,0,9.0,,44175.1,22.64,-0.5,0.85,0.0,16.2,32.3,-7.6,35.38,,,,,,,,,,
15.29.04.636,128.4,32.1,0,9.0,,48771.2,20.5,-0.56,0.86,-0.03,16.7,29.9,-9.1,35.38,,,,,,,,,,
15.29.04.644,45.2,11.3,0,9.0,,44391.9,22.53,-0.53,0.84,-0.03,16.1,26.8,-7.7,35.38,,,,,,,,,,
15.29.04.656,155.8,39.0,0,9.0,,45108.1,22.17,-0.52,0.84,-0.03,9.7,31.4,-7.3,35.38,,,,,,,,,,
15.29.04.664,43.1,10.8,0,9.0,,41562.6,24.06,-0.53,0.84,-0.05,5.4,31.9,-6.0,35.38,,,,,,,,,,
15.29.04.677,102.1,25.5,0,9.0,,46661.4,21.43,-0.54,0.83,-0.04,2.6,30.9,-4.7,35.38,,,,,,,,,,
15.29.04.685,29.7,7.4,0,9.0,,46423.2,21.54,-0.55,0.82,-0.04,-0.1,29.5,-2.7,35.38,,,,,,,,,,
15.29.04.697,65.2,16.3,0,9.0,,43649.4,22.91,-0.58,0.82,-0.02,-2.0,27.8,-1.7,35.38,,,,,,,,,,
15.29.04.709,-40.8,10.2,0,9.0,,43947.1,22.75,-0.58,0.83,-0.03,-1.2,26.1,-1.9,35.38,,,,,,,,,,
15.29.04.718,-76.1,19.0,0,9.0,,43078.4,23.21,-0.58,0.82,-0.03,-3.2,26.4,-2.7,35.38,,,,,,,,,,
15.29.04.730,-27.6,6.9,0,9.0,,49206.4,20.32,-0.56,0.82,-0.05,-5.6,27.7,-4.1,35.38,,,,,,,,,,
15.29.04.738,22.8,5.7,0,9.0,,49820.5,20.07,-0.57,0.79,-0.05,-4.5,27.7,-5.5,35.38,,,,,,,,,,
15.29.04.750,27.6,6.9,0,9.0,,47117.4,21.22,-0.56,0.79,-0.06,-4.3,28.2,-5.9,35.38,,,,,,,,,,
15.29.04.759,-15.0,3.8,0,9.0,,47418.1,21.09,-0.56,0.78,-0.07,-3.5,30.2,-7.0,35.38,,,,,,,,,,
15.29.04.771,-37.1,9.3,0,9.0,,44800.0,22.32,-0.55,0.78,-0.08,-2.8,31.7,-7.9,35.38,,,,,,,,,,
15.29.04.783,-40.4,10.1,0,9.0,,45515.8,21.97,-0.56,0.78,-0.08,-1.5,31.7,-8.5,35.38,,,,,,,,,,
15.29.04.791,-63.9,16.0,0,9.0,,48961.3,20.42,-0.55,0.78,-0.06,-2.7,31.3,-8.1,35.38,,,,,,,,,,
15.29.04.804,-89.6,22.4,0,9.0,,40002.1,25.0,-0.55,0.78,-0.06,-3.8,32.4,-9.2,35.38,,,,,,,,,,
15.29.04.812,-89.6,22.4,0,9.0,,43341.1,23.07,-0.56,0.78,-0.07,-4.0,31.6,-10.4,35.38,,,,,,,,,,
15.29.04.824,-39.6,9.9,0,9.0,,43701.6,22.88,-0.56,0.78,-0.07,-3.5,33.4,-12.6,35.38,118.9,,,,,,,,,
15.29.04.832,-126.5,31.6,0,9.0,,44192.4,22.63,-0.57,0.78,-0.07,-5.0,34.7,-14.0,35.38,,,,,,,,,,
15.29.04.845,-80.4,20.1,0,9.0,,47628.3,21.0,-0.57,0.79,-0.07,-5.0,35.2,-15.1,35.38,,,,,,,,,,
15.29.04.857,-155.1,38.8,0,9.0,,46397.8,21.55,-0.57,0.81,-0.08,-8.1,33.1,-14.5,35.38,,,,,,,,,,
15.29.04.865,-208.4,52.1,0,9.0,,46498.9,21.51,-0.56,0.82,-0.06,-14.3,31.7,-13.3,35.38,,,,,,,,,,
15.29.04.877,-136.9,34.2,0,9.0,,47391.7,21.1,-0.56,0.81,-0.06,-20.9,31.0,-13.2,35.38,,,,,,,,,,
15.29.04.886,-172.2,43.0,0,9.0,,46648.0,21.44,-0.57,0.79,-0.07,-22.2,30.8,-13.4,35.38,,,,,,,,,,
15.29.04.898,-122.4,30.6,0,9.0,,42460.3,23.55,-0.55,0.8,-0.07,-21.6,31.6,-12.4,35.38,,,,,,,,,,
15.29.04.906,-155.1,38.8,0,9.0,,46559.4,21.48,-0.56,0.78,-0.11,-21.1,31.4,-12.7,35.38,,,,,,,,,,
15.29.04.918,-229.4,57.4,0,9.0,,40565.9,24.65,-0.57,0.78,-0.1,-17.1,32.1,-14.3,35.38,,,,,,,,,,
15.29.04.931,-155.1,38.8,0,9.0,,46119.9,21.68,-0.57,0.77,-0.11,-7.4,31.6,-16.2,35.38,,,,,,,,,,
15.29.04.939,-262.0,65.5,0,9.0,,45657.8,21.9,-0.57,0.78,-0.1,1.9,30.9,-17.9,35.38,,,,,,,,,,
15.29.04.976,259.7,64.9,1,10.0,116.8,43696.7,22.89,-0.57,0.81,-0.1,7.0,31.7,-17.4,35.38,,,,,,,,,,
15.29.04.988,336.6,84.2,0,10.0,,45490.0,21.98,-0.57,0.85,-0.09,20.6,29.5,-15.2,35.38,,,,,,,,,,
15.29.04.996,416.8,104.2,0,10.0,,40094.7,24.94,-0.55,0.85,-0.11,20.1,29.5,-12.5,35.38,,,,,,,,,,
15.29.05.008,418.2,104.6,0,10.0,,48670.3,20.55,-0.63,0.86,-0.11,17.7,28.2,-8.6,35.38,,,,,,,,,,
15.29.05.021,487.3,121.8,0,10.0,,45570.6,21.94,-0.58,0.85,-0.12,24.8,28.4,-10.0,35.38,,,,,,,,,,
15.29.05.029,452.8,113.2,0,10.0,,48465.3,20.63,-0.61,0.83,-0.13,23.9,31.0,-8.8,35.38,,,,,,,,,,
15.29.05.041,534.1,133.5,0,10.0,,38881.4,25.72,-0.6,0.81,-0.15,26.8,34.5,-9.2,35.38,,,,,,,,,,
15.29.05.049,500.0,125.0,0,10.0,,42081.4,23.76,-0.61,0.8,-0.17,33.6,34.0,-9.5,35.38,,,,,,,,,,
15.29.05.062,433.6,108.4,0,10.0,,45796.3,21.84,-0.6,0.78,-0.15,38.9,34.6,-11.2,35.38,,,,,,,,,,
15.29.05.070,385.6,96.4,0,10.0,,45560.8,21.95,-0.58,0.81,-0.16,47.6,33.8,-12.9,35.38,,,,,,,,,,
15.29.05.082,313.1,78.3,0,10.0,,39360.0,25.41,-0.58,0.79,-0.12,42.5,44.1,-8.3,35.38,,,,,,,,,,
15.29.05.090,253.9,63.5,0,10.0,,44209.4,22.62,-0.57,0.81,-0.16,59.4,34.5,-11.6,35.38,,,,,,,,,,
15.29.05.103,129.3,32.3,0,10.0,,42828.7,23.35,-0.56,0.79,-0.2,65.4,39.6,-13.0,35.38,,,,,,,,,,
15.29.05.115,26.2,6.6,0,10.0,,47965.0,20.85,-0.57,0.77,-0.2,73.9,43.3,-15.7,35.38,,,,,,,,,,
15.29.05.123,23.6,5.9,0,10.0,,48819.9,20.48,-0.58,0.77,-0.18,82.5,41.8,-16.6,35.38,,,,,,,,,,
15.29.05.135,58.9,14.7,0,10.0,,50414.5,19.84,-0.57,0.76,-0.19,77.4,46.5,-15.6,35.38,,,,,,,,,,
15.29.05.144,43.0,10.8,0,10.0,,44531.9,22.46,-0.62,0.74,-0.17,61.2,51.7,-11.6,35.38,,,,,,,,,,
15.29.05.156,57.8,14.4,0,10.0,,44846.4,22.3,-0.34,0.73,-0.29,74.0,43.2,-17.5,35.38,,,,,,,,,,
15.29.05.164,56.3,14.1,0,10.0,,41516.1,24.09,-0.66,0.77,-0.29,73.7,46.5,-27.5,35.38,,,,,,,,,,
15.29.05.176,48.1,12.0,0,10.0,,51879.6,19.28,-0.54,0.71,-0.31,75.9,44.7,-30.0,35.38,,,,,,,,,,
15.29.05.189,64.9,16.2,0,10.0,,49698.3,20.12,-0.52,0.65,-0.31,75.9,55.7,-29.8,35.38,,,,,,,,,,
15.29.05.197,61.5,15.4,0,10.0,,42143.3,23.73,-0.42,0.63,-0.28,43.8,77.5,-20.5,35.38,,,,,,,,,,
15.29.05.209,70.9,17.7,0,10.0,,47511.1,21.05,-0.67,0.75,-0.31,75.4,42.3,-27.6,35.38,,,,,,,,,,
15.29.05.217,41.1,10.3,0,10.0,,51512.0,19.41,-0.36,0.64,-0.31,61.5,57.2,-18.9,35.38,,,,,,,,,,
15.29.05.230,36.0,9.0,0,10.0,,41796.7,23.93,-0.6,0.71,-0.38,70.5,38.4,-19.7,35.38,,,,,,,,,,
15.29.05.238,-43.3,10.8,0,10.0,,42140.6,23.73,-0.59,0.64,-0.38,55.2,40.0,-14.5,35.38,,,,,,,,,,
15.29.05.250,31.8,8.0,0,10.0,,45701.3,21.88,-0.6,0.58,-0.41,53.1,48.8,-10.2,35.38,,,,,,,,,,
15.29.05.258,-4.7,1.2,0,10.0,,45008.9,22.22,-0.69,0.62,-0.44,51.0,38.6,-13.6,35.38,,,,,,,,,,
15.29.05.271,-43.1,10.8,0,10.0,,45880.1,21.8,-0.25,0.57,-0.56,53.9,38.6,-8.8,35.38,,,,,,,,,,
15.29.05.279,-55.4,13.8,0,10.0,,50559.1,19.78,-0.67,0.64,-0.45,53.9,34.9,-18.1,35.38,,,,,,,,,,
15.29.05.291,-41.7,10.4,0,10.0,,45726.5,21.87,-0.6,0.64,-0.47,57.5,39.3,-20.5,35.38,,,,,,,,,,
15.29.05.303,-25.9,6.5,0,10.0,,44192.5,22.63,-0.68,0.65,-0.45,56.4,39.2,-19.8,35.38,,,,,,,,,,
15.29.05.312,-66.2,16.6,0,10.0,,45517.5,21.97,-0.6,0.68,-0.49,62.2,41.2,-21.4,35.38,,,,,,,,,,
15.29.05.324,-112.7,28.2,0,10.0,,45352.0,22.05,-0.61,0.65,-0.53,64.7,38.5,-18.2,35.38,,,,,,,,,,
15.29.05.332,-90.4,22.6,0,10.0,,45233.1,22.11,-0.6,0.64,-0.53,67.3,41.0,-17.4,35.38,,,,,,,,,,
15.29.05.344,-82.8,20.7,0,10.0,,43668.7,22.9,-0.59,0.66,-0.56,61.9,42.5,-16.0,35.38,,,,,,,,,,
15.29.05.353,-100.9,25.2,0,10.0,,43939.7,22.76,-0.57,0.65,-0.59,56.2,44.9,-13.4,35.38,,,,,,,,,,
15.29.05.365,-107.4,26.8,0,10.0,,44028.1,22.71,-0.52,0.62,-0.61,46.7,52.6,-9.7,35.38,,,,,,,,,,
15.29.05.373,-102.2,25.6,0,10.0,,43952.1,22.75,-0.62,0.63,-0.6,51.2,45.7,-13.2,35.38,,,,,,,,,,
15.29.05.386,-147.3,36.8,0,10.0,,47503.9,21.05,-0.56,0.58,-0.6,45.9,56.7,-9.8,35.38,,,,,,,,,,
15.29.05.394,-127.8,32.0,0,10.0,,42892.6,23.31,-0.63,0.61,-0.59,43.5,51.4,-10.9,35.38,,,,,,,,,,
15.29.05.406,-176.9,44.2,0,10.0,,43192.9,23.15,-0.6,0.56,-0.59,45.9,40.2,-12.6,35.38,,,,,,,,,,
15.29.05.414,-123.5,30.9,0,10.0,,47766.1,20.94,-0.6,0.56,-0.59,42.7,39.6,-12.8,35.38,,,,,,,,,,
15.29.05.426,-144.3,36.1,0,10.0,,44744.0,22.35,-0.58,0.54,-0.59,40.6,35.8,-11.3,35.38,,,,,,,,,,
15.29.05.434,-150.4,37.6,0,10.0,,43160.2,23.17,-0.58,0.54,-0.58,36.7,33.8,-11.4,35.38,,,,,,,,,,
15.29.05.447,-178.5,44.6,0,10.0,,47021.0,21.27,-0.59,0.55,-0.59,41.3,27.4,-9.0,35.38,,,,,,,,,,
15.29.05.459,55.4,13.8,1,11.0,116.3,54788.6,18.25,-0.61,0.54,-0.6,43.8,24.2,-15.1,35.38,,,,,,,,,,
15.29.05.467,169.4,42.4,0,11.0,,47108.2,21.23,-0.53,0.5,-0.64,41.0,25.5,-13.5,35.38,,,,,,,,,,
15.29.05.480,277.3,69.3,0,11.0,,44548.7,22.45,-0.53,0.48,-0.63,30.3,37.9,-10.1,35.38,,,,,,,,,,
15.29.05.488,263.4,65.8,0,11.0,,47801.2,20.92,-0.44,0.57,-0.64,41.4,41.0,-14.0,35.38,,,,,,,,,,
15.29.05.500,369.7,92.4,0,11.0,,49940.9,20.02,-0.53,0.5,-0.63,39.3,20.3,-12.8,35.38,,,,,,,,,,
15.29.05.508,373.3,93.3,0,11.0,,41083.1,24.34,-0.54,0.5,-0.65,37.6,21.4,-13.3,35.38,,,,,,,,,,
15.29.05.520,444.7,111.2,0,11.0,,47075.7,21.24,-0.44,0.58,-0.63,28.6,13.8,-17.0,35.38,,,,,,,,,,
15.29.05.529,474.5,118.6,0,11.0,,46478.3,21.52,-0.52,0.51,-0.67,37.8,19.6,-19.1,35.38,,,,,,,,,,
15.29.05.541,502.8,125.7,0,11.0,,48029.3,20.82,-0.57,0.52,-0.7,43.1,13.7,-16.7,35.38,,,,,,,,,,
15.29.05.549,499.0,124.8,0,11.0,,41017.4,24.38,-0.57,0.51,-0.71,42.9,17.3,-16.8,35.38,,,,,,,,,,
15.29.05.561,504.9,126.2,0,11.0,,43317.7,23.09,-0.77,0.5,-0.66,31.5,25.2,-18.4,35.38,,,,,,,,,,
15.29.05.570,398.9,99.7,0,11.0,,45256.6,22.1,-0.56,0.52,-0.76,50.7,31.7,-24.1,35.38,,,,,,,,,,
15.29.05.582,299.0,74.8,0,11.0,,46915.9,21.31,-0.75,0.48,-0.7,53.7,38.6,-23.8,35.38,,,,,,,,,,
15.29.05.590,334.3,83.6,0,11.0,,42463.3,23.55,-0.6,0.51,-0.75,67.0,44.8,-27.5,35.38,,,,,,,,,,
15.29.05.603,239.8,60.0,0,11.0,,47188.3,21.19,-0.59,0.49,-0.72,61.1,57.6,-28.0,35.38,,,,,,,,,,
15.29.05.615,172.3,43.1,0,11.0,,44549.3,22.45,-0.55,0.48,-0.78,64.5,42.6,-23.0,35.38,,,,,,,,,,
15.29.05.623,97.6,24.4,0,11.0,,42179.9,23.71,-0.56,0.46,-0.78,58.9,41.2,-21.1,35.38,,,,,,,,,,
15.29.05.635,12.2,3.0,0,11.0,,49995.6,20.0,-0.55,0.46,-0.78,52.7,42.7,-22.4,35.38,,,,,,,,,,
15.29.05.643,59.6,14.9,0,11.0,,46077.8,21.7,-0.54,0.45,-0.79,44.7,45.5,-23.9,35.38,,,,,,,,,,
15.29.05.656,64.5,16.1,0,11.0,,47038.2,21.26,-0.57,0.46,-0.78,37.0,46.6,-23.5,35.38,,,,,,,,,,
15.29.05.664,127.2,31.8,0,11.0,,49263.8,20.3,-0.58,0.43,-0.73,32.8,49.5,-26.8,35.38,,,,,,,,,,
15.29.05.676,28.0,7.0,0,11.0,,45358.2,22.05,-0.58,0.41,-0.76,31.3,46.8,-26.9,35.38,,,,,,,,,,
15.29.05.684,103.0,25.8,0,11.0,,45142.9,22.15,-0.59,0.41,-0.75,38.8,49.0,-33.6,35.38,,,,,,,,,,
15.29.05.697,35.0,8.8,0,11.0,,47024.8,21.27,-0.47,0.37,-0.78,40.9,63.1,-41.0,35.38,,,,,,,,,,
15.29.05.709,69.0,17.2,0,11.0,,45243.4,22.1,-0.62,0.38,-0.74,35.8,53.4,-39.2,35.38,,,,,,,,,,
15.29.05.717,24.8,6.2,0,11.0,,45446.9,22.0,-0.76,0.44,-0.61,32.9,63.5,-44.4,35.38,,,,,,,,,,
15.29.05.729,-3.6,0.9,0,11.0,,47716.6,20.96,-0.45,0.35,-0.86,51.4,54.7,-46.7,35.38,,,,,,,,,,
15.29.05.742,-47.1,11.8,0,11.0,,45954.9,21.76,-0.59,0.32,-0.82,54.1,57.8,-48.5,35.38,,,,,,,,,,
15.29.05.779,-74.4,18.6,0,11.0,,43756.6,22.85,-0.63,0.16,-0.9,87.7,74.1,-56.6,35.38,,,,,,,,,,
15.29.05.787,-66.8,16.7,0,11.0,,41898.9,23.87,-0.6,0.39,-0.84,131.2,64.5,-40.8,35.38,,,,,,,,,,
15.29.05.803,-74.6,18.6,0,11.0,,41390.8,24.16,-0.48,0.28,-0.87,134.2,85.6,-34.0,35.38,,,,,,,,,,
15.29.05.811,-74.6,18.6,0,11.0,,45106.4,22.17,-0.57,0.26,-0.86,122.9,62.7,-32.2,35.38,,,,,,,,,,
15.29.05.824,-74.6,18.6,0,11.0,,44083.8,22.68,-0.53,0.2,-0.93,120.9,77.9,-23.6,35.38,,,,,,,,,,
15.29.05.836,-123.7,30.9,0,11.0,,40047.6,24.97,-0.4,0.14,-0.97,133.5,115.2,-22.9,35.38,,,,,,,,,,
15.29.05.844,-146.7,36.7,0,11.0,,44897.0,22.27,-0.58,0.39,-0.66,96.0,65.9,-22.4,35.38,,,,,,,,,,
15.29.05.856,-109.5,27.4,0,11.0,,49205.4,20.32,-0.57,0.43,-0.73,56.0,45.5,-10.2,35.38,,,,,,,,,,
15.29.05.869,-156.2,39.0,0,11.0,,44123.8,22.66,-0.49,0.19,-0.84,20.5,26.9,4.6,35.38,,,,,,,,,,
15.29.05.877,-173.8,43.4,0,11.0,,44837.1,22.3,-0.58,0.11,-0.86,64.2,32.9,-11.0,35.38,,,,,,,,,,
15.29.05.889,-114.2,28.6,0,11.0,,44426.4,22.51,-0.42,0.26,-0.87,80.9,43.2,-4.1,35.38,,,,,,,,,,
15.29.05.897,-174.1,43.5,0,11.0,,50751.8,19.7,-0.47,0.26,-0.79,66.2,30.8,-8.2,35.38,,,,,,,,,,
15.29.05.910,-113.1,28.3,0,11.0,,45743.5,21.86,-0.48,0.16,-0.85,54.9,20.4,-4.1,35.38,,,,,,,,,,
15.29.05.918,-204.5,51.1,0,11.0,,43699.0,22.88,-0.37,0.16,-0.91,43.7,19.0,-4.3,35.38,,,,,,,,,,
15.29.05.930,-136.5,34.1,0,11.0,,46103.2,21.69,-0.47,0.16,-0.85,45.9,16.4,-2.0,35.38,,,,,,,,,,
15.29.05.943,-176.5,44.1,0,11.0,,44544.7,22.45,-0.39,0.16,-0.91,33.8,7.4,-3.2,35.38,,,,,,,,,,
15.29.05.951,-155.9,39.0,0,11.0,,39010.0,25.63,-0.42,0.1,-0.9,31.5,-0.3,-4.6,35.38,,,,,,,,,,
15.29.05.963,-202.4,50.6,0,11.0,,43879.1,22.79,-0.44,0.08,-0.94,27.8,1.2,-5.9,35.38,,,,,,,,,,
15.29.05.971,96.1,24.0,1,12.0,118.5,44465.0,22.49,-0.39,0.13,-0.96,25.2,-2.9,-9.5,35.38,,,,,,,,,,
15.29.05.983,166.0,41.5,0,12.0,,41574.9,24.05,-0.41,0.06,-0.99,25.7,5.7,-7.3,35.38,,,,,,,,,,
15.29.05.996,247.8,62.0,0,12.0,,44272.7,22.59,-0.34,0.03,-1.04,17.9,3.8,-10.5,35.38,,,,,,,,,,
15.29.06.004,311.8,78.0,0,12.0,,42967.7,23.27,-0.43,0.05,-1.04,5.7,5.7,-14.5,35.38,,,,,,,,,,
15.29.06.016,388.9,97.2,0,12.0,,42153.7,23.72,-0.44,0.02,-1.06,4.0,10.0,-16.4,35.38,,,,,,,,,,
15.29.06.024,408.8,102.2,0,12.0,,44585.5,22.43,-0.46,0.04,-1.07,3.0,13.3,-18.7,35.38,,,,,,,,,,
15.29.06.037,523.5,130.9,0,12.0,,45933.2,21.77,-0.41,0.09,-1.07,-3.6,15.0,-16.5,35.38,,,,,,,,,,
15.29.06.049,483.9,121.0,0,12.0,,48206.0,20.74,-0.42,0.06,-1.06,-4.2,17.5,-14.1,35.38,,,,,,,,,,
15.29.06.057,479.9,120.0,0,12.0,,44171.2,22.64,-0.42,0.09,-1.07,-12.8,20.7,-11.6,35.38,,,,,,,,,,
15.29.06.070,460.9,115.2,0,12.0,,48249.0,20.73,-0.49,-0.1,-1.0,2.1,16.7,-13.3,35.38,,,,,,,,,,
15.29.06.078,446.3,111.6,0,12.0,,43701.6,22.88,-0.44,0.16,-0.91,10.9,16.0,-6.6,35.38,,,,,,,,,,
15.29.06.090,378.5,94.6,0,12.0,,36308.5,27.54,-0.46,0.08,-0.94,6.3,13.2,-1.5,35.38,,,,,,,,,,
15.29.06.102,331.4,82.8,0,12.0,,49152.5,20.34,-0.45,0.16,-0.92,7.5,7.9,8.1,35.38,,,,,,,,,,
15.29.06.115,258.2,64.6,0,12.0,,48697.8,20.53,-0.46,0.1,-0.96,9.2,6.3,16.1,35.38,,,,,,,,,,
15.29.06.123,130.8,32.7,0,12.0,,41290.5,24.22,-0.48,0.08,-0.96,11.4,3.4,20.7,35.38,,,,,,,,,,
15.29.06.135,85.6,21.4,0,12.0,,47418.1,21.09,-0.41,0.01,-1.01,13.5,8.5,25.8,35.38,,,,,,,,,,
15.29.06.143,-54.7,13.7,0,12.0,,46544.7,21.48,-0.39,0.02,-1.04,12.9,3.6,27.5,35.38,,,,,,,,,,
15.29.06.156,28.0,7.0,0,12.0,,44202.9,22.62,-0.41,0.02,-1.0,9.8,3.0,30.4,35.38,,,,,,,,,,
15.29.06.164,71.8,18.0,0,12.0,,47727.8,20.95,-0.43,0.03,-1.01,7.9,6.5,28.2,35.38,,,,,,,,,,
15.29.06.176,43.6,10.9,0,12.0,,44409.7,22.52,-0.45,-0.03,-1.0,13.8,11.0,23.8,35.38,,,,,,,,,,
15.29.06.188,86.6,21.6,0,12.0,,46716.8,21.41,-0.43,0.07,-0.93,18.4,10.5,21.7,35.38,,,,,,,,,,
15.29.06.196,90.8,22.7,0,12.0,,45463.4,22.0,-0.44,0.13,-0.91,17.8,12.9,21.6,35.38,,,,,,,,,,
15.29.06.209,137.0,34.2,0,12.0,,47334.7,21.13,-0.46,0.16,-0.85,15.4,13.5,17.6,35.38,,,,,,,,,,
15.29.06.217,68.8,17.2,0,12.0,,42775.8,23.38,-0.44,0.22,-0.88,5.7,9.7,19.7,35.38,,,,,,,,,,
15.29.06.229,43.7,10.9,0,12.0,,48125.7,20.78,-0.48,0.16,-0.91,-1.4,6.1,19.3,35.38,,,,,,,,,,
15.29.06.237,-54.0,13.5,0,12.0,,47010.7,21.27,-0.44,0.16,-0.95,-10.3,1.5,18.1,35.38,,,,,,,,,,
15.29.06.250,52.7,13.2,0,12.0,,48832.3,20.48,-0.47,0.1,-0.94,-16.8,2.5,12.6,35.38,,,,,,,,,,
15.29.06.258,-58.7,14.7,0,12.0,,44627.9,22.41,-0.43,0.15,-0.89,-18.4,2.8,6.0,35.38,,,,,,,,,,
15.29.06.270,-27.6,6.9,0,12.0,,48611.8,20.57,-0.43,0.18,-0.92,-24.8,5.3,6.8,35.38,,,,,,,,,,
15.29.06.282,-46.4,11.6,0,12.0,,44459.2,22.49,-0.44,0.13,-0.93,-30.0,8.3,3.8,35.38,,,,,,,,,,
15.29.06.291,-61.1,15.3,0,12.0,,43524.9,22.98,-0.43,0.1,-0.93,-30.2,6.6,0.9,35.38,,,,,,,,,,
15.29.06.303,-68.3,17.1,0,12.0,,42461.4,23.55,-0.41,0.14,-0.89,-29.8,9.1,-2.3,35.38,,,,,,,,,,
15.29.06.311,5.0,1.2,0,12.0,,46228.2,21.63,-0.4,0.1,-0.91,-30.5,9.1,-5.3,35.38,,,,,,,,,,
15.29.06.324,-86.7,21.7,0,12.0,,47021.7,21.27,-0.4,0.13,-0.94,-29.7,9.9,-6.4,35.38,,,,,,,,,,
15.29.06.332,-114.2,28.6,0,12.0,,36974.4,27.05,-0.38,0.15,-0.93,-33.4,9.2,-5.0,35.38,,,,,,,,,,
15.29.06.344,-69.5,17.4,0,12.0,,50163.3,19.93,-0.4,0.11,-0.94,-39.6,5.9,-3.4,35.38,,,,,,,,,,
15.29.06.356,-109.5,27.4,0,12.0,,46030.0,21.72,-0.4,0.11,-0.94,-38.8,3.6,-1.3,35.38,,,,,,,,,,
15.29.06.365,-95.3,23.8,0,12.0,,47174.9,21.2,-0.38,0.09,-0.95,-40.0,3.9,-1.9,35.38,,,,,,,,,,
15.29.06.377,-83.9,21.0,0,12.0,,42351.3,23.61,-0.37,0.14,-0.97,-42.7,4.1,0.5,35.38,,,,,,,,,,
15.29.06.385,-156.2,39.0,0,12.0,,45414.5,22.02,-0.42,0.12,-0.97,-43.8,3.2,3.1,35.38,,,,,,,,,,
15.29.06.397,-173.0,43.2,0,12.0,,46274.0,21.61,-0.44,0.13,-0.96,-43.2,-0.5,4.2,35.38,,,,,,,,,,
15.29.06.405,-131.6,32.9,0,12.0,,42247.6,23.67,-0.49,-0.15,-0.93,-25.5,-7.6,-6.4,35.38,,,,,,,,,,
15.29.06.418,-183.3,45.8,0,12.0,,52100.8,19.19,-0.32,0.34,-0.99,-37.4,-10.5,12.6,35.38,,,,,,,,,,
15.29.06.430,-178.9,44.7,0,12.0,,42827.3,23.35,-0.46,0.02,-0.85,-33.4,-13.9,5.8,35.38,,,,,,,,,,
15.29.06.438,-107.8,27.0,0,12.0,,45295.0,22.08,-0.45,0.11,-0.96,-41.1,-9.4,16.7,35.38,,,,,,,,,,
15.29.06.451,-249.8,62.4,0,12.0,,47582.1,21.02,-0.47,0.2,-0.97,-32.2,-9.5,24.0,35.38,,,,,,,,,,
15.29.06.459,-205.3,51.3,0,12.0,,44462.9,22.49,-0.47,0.22,-0.93,-42.9,-12.5,28.9,35.38,,,,,,,,,,
15.29.06.471,-202.1,50.5,0,12.0,,42216.3,23.69,-0.51,0.18,-0.93,-47.9,-16.8,32.6,35.38,,,,,,,,,,
15.29.06.484,42.1,10.5,1,13.0,119.0,43905.7,22.78,-0.54,0.12,-0.99,-43.0,-16.0,31.3,35.38,,,,,,,,,,
15.29.06.491,147.9,37.0,0,13.0,,43428.8,23.03,-0.52,0.11,-1.02,-30.7,-14.1,29.1,35.38,,,,,,,,,,
15.29.06.504,234.9,58.7,0,13.0,,43461.7,23.01,-0.49,0.08,-1.0,-20.1,-12.4,27.0,35.38,,,,,,,,,,
15.29.06.512,347.1,86.8,0,13.0,,45233.1,22.11,-0.47,0.11,-0.99,-12.4,-11.0,26.6,35.38,,,,,,,,,,
15.29.06.524,374.6,93.6,0,13.0,,46846.9,21.35,-0.46,0.14,-0.98,-5.0,-8.3,26.1,35.38,,,,,,,,,,
15.29.06.536,469.4,117.4,0,13.0,,46370.6,21.57,-0.45,0.14,-0.98,-2.8,-6.0,24.6,35.38,,,,,,,,,,
15.29.06.545,537.3,134.3,0,13.0,,42772.6,23.38,-0.46,0.16,-0.98,-2.7,-4.8,22.5,35.38,,,,,,,,,,
15.29.06.582,436.6,109.2,0,13.0,,46018.6,21.73,-0.46,0.16,-0.97,-4.0,-5.1,18.2,35.38,,,,,,,,,,
15.29.06.594,417.0,104.2,0,13.0,,42751.9,23.39,-0.47,-0.04,-1.0,4.8,2.4,-9.2,35.38,,,,,,,,,,
15.29.06.602,417.7,104.4,0,13.0,,48613.9,20.57,-0.43,0.24,-0.83,5.0,-4.4,4.0,35.38,,,,,,,,,,
15.29.06.615,374.9,93.7,0,13.0,,46929.3,21.31,-0.45,0.21,-0.88,-13.5,-8.5,8.2,35.38,,,,,,,,,,
15.29.06.623,293.5,73.4,0,13.0,,46699.2,21.41,-0.47,0.17,-0.89,-15.6,-10.6,5.3,35.38,,,,,,,,,,
15.29.06.635,95.4,23.8,0,13.0,,42253.3,23.67,-0.49,0.19,-0.83,-19.8,-11.8,6.7,35.38,,,,,,,,,,
15.29.06.647,91.6,22.9,0,13.0,,47800.0,20.92,-0.51,0.19,-0.83,-30.6,-18.0,10.2,35.38,,,,,,,,,,
15.29.06.656,20.3,5.1,0,13.0,,48073.8,20.8,-0.53,0.17,-0.87,-32.7,-22.4,10.7,35.38,,,,,,,,,,
15.29.06.668,67.3,16.8,0,13.0,,43530.2,22.97,-0.55,0.18,-0.85,-39.8,-27.8,13.1,35.38,,,,,,,,,,
15.29.06.680,116.3,29.1,0,13.0,,43039.1,23.23,-0.56,0.17,-0.88,-41.6,-32.7,13.2,35.38,,,,,,,,,,
15.29.06.688,74.2,18.6,0,13.0,,45359.6,22.05,-0.51,0.17,-0.85,-54.7,-34.9,14.9,35.38,,,,,,,,,,
15.29.06.700,66.9,16.7,0,13.0,,43819.7,22.82,-0.45,0.13,-0.9,-50.7,-36.2,10.3,35.38,,,,,,,,,,
15.29.06.713,79.4,19.8,0,13.0,,45679.5,21.89,-0.45,0.2,-0.87,-49.0,-37.4,12.5,35.38,,,,,,,,,,
15.29.06.721,90.3,22.6,0,13.0,,43849.4,22.81,-0.46,0.2,-0.84,-44.8,-35.3,10.1,35.38,,,,,,,,,,
15.29.06.733,73.8,18.4,0,13.0,,45223.6,22.11,-0.47,0.2,-0.79,-38.8,-36.2,10.4,35.38,,,,,,,,,,
15.29.06.745,22.6,5.6,0,13.0,,41090.9,24.34,-0.43,0.24,-0.81,-37.0,-39.4,13.8,35.38,,,,,,,,,,
15.29.06.754,-58.4,14.6,0,13.0,,44655.4,22.39,-0.41,0.26,-0.79,-35.6,-42.8,17.7,35.38,,,,,,,,,,
15.29.06.766,-10.3,2.6,0,13.0,,43540.2,22.97,-0.43,0.31,-0.77,-38.7,-46.4,23.9,35.38,,,,,,,,,,
15.29.06.777,59.2,14.8,0,13.0,,44256.9,22.6,-0.47,0.33,-0.76,-33.3,-45.4,23.8,35.38,,,,,,,,,,
15.29.06.787,19.2,4.8,0,13.0,,46438.1,21.53,-0.48,0.34,-0.73,-22.1,-40.9,19.2,35.38,,,,,,,,,,
15.29.06.799,-73.7,18.4,0,13.0,,43046.6,23.23,-0.51,0.44,-0.67,-20.6,-35.5,16.5,35.38,,,,,,,,,,
15.29.06.811,-90.2,22.6,0,13.0,,51861.9,19.28,-0.52,0.44,-0.69,-25.5,-30.3,13.7,35.38,,,,,,,,,,
15.29.06.819,-54.7,13.7,0,13.0,,50241.7,19.9,-0.54,0.37,-0.68,-24.6,-25.8,9.0,35.38,,,,,,,,,,
15.29.06.832,-68.2,17.0,0,13.0,,49860.1,20.06,-0.55,0.36,-0.7,-25.3,-26.9,10.4,35.38,,,,,,,,,,
15.29.06.840,-139.4,34.8,0,13.0,,40801.9,24.51,-0.56,0.33,-0.75,-24.3,-28.9,12.9,35.38,,,,,,,,,,
15.29.06.852,-107.6,26.9,0,13.0,,45891.4,21.79,-0.58,0.38,-0.77,-21.6,-32.6,15.1,35.38,,,,,,,,,,
15.29.06.864,-124.3,31.1,0,13.0,,40019.2,24.99,-0.58,0.36,-0.77,-26.7,-37.2,18.7,35.38,,,,,,,,,,
15.29.06.873,-40.9,10.2,0,13.0,,40965.5,24.41,-0.57,0.37,-0.8,-29.3,-40.8,20.4,35.38,,,,,,,,,,
15.29.06.885,-150.4,37.6,0,13.0,,40639.3,24.61,-0.57,0.39,-0.8,-34.4,-42.0,23.9,35.38,,,,,,,,,,
15.29.06.897,-109.7,27.4,0,13.0,,46948.1,21.3,-0.6,0.39,-0.78,-31.5,-44.8,26.3,35.38,,,,,,,,,,
15.29.06.905,-94.2,23.6,0,13.0,,42488.8,23.54,-0.52,0.34,-0.82,-15.3,-39.3,18.7,35.38,,,,,,,,,,
15.29.06.917,-108.5,27.1,0,13.0,,41601.3,24.04,-0.56,0.44,-0.81,-20.2,-43.3,23.7,35.38,,,,,,,,,,
15.29.06.930,-153.9,38.5,0,13.0,,43161.2,23.17,-0.55,0.41,-0.75,-15.9,-46.4,25.6,35.38,,,,,,,,,,
15.29.06.938,-155.5,38.9,0,13.0,,46559.9,21.48,-0.57,0.4,-0.76,-8.6,-45.4,25.0,35.38,,,,,,,,,,
15.29.06.951,-74.3,18.6,0,13.0,,44164.6,22.64,-0.56,0.45,-0.74,-1.2,-41.4,24.8,35.38,,,,,,,,,,
15.29.06.963,-191.4,47.8,0,13.0,,48696.6,20.54,-0.56,0.48,-0.74,1.3,-38.3,25.2,35.38,,,,,,,,,,
15.29.06.975,-177.3,44.3,0,13.0,,47180.1,21.2,-0.52,0.46,-0.74,6.6,-36.0,26.9,35.38,,,,,,,,,,
15.29.06.987,-248.5,62.1,0,13.0,,46439.6,21.53,-0.53,0.43,-0.74,10.9,-34.3,28.5,35.38,,,,,,,,,,
15.29.06.995,109.5,27.4,1,14.0,117.6,50238.8,19.9,-0.51,0.44,-0.72,16.7,-34.5,30.5,35.38,,,,,,,,,,
15.29.07.008,220.6,55.2,0,14.0,,47124.2,21.22,-0.48,0.46,-0.7,20.7,-34.5,33.9,35.38,,,,,,,,,,
15.29.07.016,220.1,55.0,0,14.0,,41644.8,24.01,-0.46,0.48,-0.68,23.3,-32.8,37.3,35.38,,,,,,,,,,
15.29.07.028,390.6,97.6,0,14.0,,44547.8,22.45,-0.47,0.47,-0.65,23.8,-29.9,39.3,35.38,,,,,,,,,,
15.29.07.041,335.1,83.8,0,14.0,,48702.5,20.53,-0.47,0.49,-0.62,24.1,-28.8,40.8,35.38,,,,,,,,,,
15.29.07.049,403.3,100.8,0,14.0,,50109.4,19.96,-0.49,0.48,-0.61,23.7,-29.1,42.0,35.38,,,,,,,,,,
15.29.07.061,528.7,132.2,0,14.0,,42190.9,23.7,-0.5,0.53,-0.58,21.7,-28.0,44.9,35.38,,,,,,,,,,
15.29.07.073,467.0,116.8,0,14.0,,45366.4,22.04,-0.52,0.49,-0.58,17.7,-28.4,46.5,35.38,,,,,,,,,,
15.29.07.081,522.4,130.6,0,14.0,,52344.5,19.1,-0.54,0.45,-0.61,17.9,-29.0,41.7,35.38,,,,,,,,,,
15.29.07.094,486.7,121.7,0,14.0,,38638.2,25.88,-0.52,0.43,-0.64,26.3,-29.6,34.9,35.38,,,,,,,,,,
15.29.07.106,431.7,107.9,0,14.0,,41771.7,23.94,-0.52,0.46,-0.64,29.8,-31.3,32.9,35.38,,,,,,,,,,
15.29.07.114,391.4,97.8,0,14.0,,39210.9,25.5,-0.54,0.47,-0.64,32.1,-33.8,31.9,35.38,,,,,,,,,,
15.29.07.127,290.4,72.6,0,14.0,,47719.7,20.96,-0.55,0.43,-0.65,37.6,-35.9,27.1,35.38,,,,,,,,,,
15.29.07.135,263.1,65.8,0,14.0,,40995.0,24.39,-0.53,0.5,-0.65,41.0,-35.0,24.7,35.38,,,,,,,,,,
15.29.07.147,139.3,34.8,0,14.0,,44670.0,22.39,-0.57,0.49,-0.65,40.6,-35.1,21.2,35.38,,,,,,,,,,
15.29.07.159,29.7,7.4,0,14.0,,50305.3,19.88,-0.56,0.49,-0.67,40.1,-40.3,20.0,35.38,,,,,,,,,,
15.29.07.168,64.3,16.1,0,14.0,,44053.4,22.7,-0.58,0.48,-0.66,44.9,-43.3,18.2,35.38,,,,,,,,,,
15.29.07.180,-27.2,6.8,0,14.0,,43235.6,23.13,-0.56,0.5,-0.66,46.9,-45.3,16.7,35.38,,,,,,,,,,
15.29.07.192,48.6,12.2,0,14.0,,46846.8,21.35,-0.52,0.53,-0.68,36.8,-45.5,23.0,35.38,,,,,,,,,,
15.29.07.200,78.6,19.6,0,14.0,,45353.7,22.05,-0.52,0.52,-0.68,25.3,-45.4,26.5,35.38,,,,,,,,,,
15.29.07.213,50.2,12.6,0,14.0,,48222.2,20.74,-0.52,0.49,-0.7,22.5,-43.6,27.2,35.38,,,,,,,,,,
15.29.07.221,115.7,28.9,0,14.0,,52617.9,19.0,-0.52,0.49,-0.69,21.9,-40.0,27.4,35.38,,,,,,,,,,
15.29.07.233,114.2,28.6,0,14.0,,44699.1,22.37,-0.53,0.5,-0.69,22.5,-36.0,25.3,35.38,,,,,,,,,,
15.29.07.245,106.3,26.6,0,14.0,,42957.7,23.28,-0.52,0.51,-0.7,25.4,-32.3,24.0,35.38,,,,,,,,,,
15.29.07.253,89.3,22.3,0,14.0,,53421.1,18.72,-0.51,0.5,-0.67,24.9,-29.9,22.9,35.38,,,,,,,,,,
15.29.07.266,-14.8,3.7,0,14.0,,48681.0,20.54,-0.49,0.5,-0.67,27.5,-29.3,23.1,35.38,,,,,,,,,,
15.29.07.278,18.1,4.5,0,14.0,,50145.7,19.94,-0.47,0.5,-0.67,23.5,-26.7,23.5,35.38,,,,,,,,,,
15.29.07.290,-37.1,9.3,0,14.0,,46363.5,21.57,-0.47,0.49,-0.67,22.6,-24.6,22.7,35.38,,,,,,,,,,
15.29.07.299,-43.4,10.8,0,14.0,,39830.5,25.11,-0.47,0.49,-0.68,26.4,-21.9,19.8,35.38,,,,,,,,,,
15.29.07.311,14.6,3.6,0,14.0,,43197.0,23.15,-0.48,0.52,-0.63,28.0,-21.6,18.9,35.38,,,,,,,,,,
15.29.07.323,-34.1,8.5,0,14.0,,43604.7,22.93,-0.47,0.52,-0.6,25.8,-21.0,17.9,35.38,,,,,,,,,,
15.29.07.332,-34.5,8.6,0,14.0,,49828.0,20.07,-0.45,0.51,-0.63,19.4,-21.4,18.3,35.38,,,,,,,,,,
15.29.07.344,-129.9,32.5,0,14.0,,44588.9,22.43,-0.43,0.5,-0.67,15.5,-21.9,19.9,35.38,,,,,,,,,,
15.29.07.352,-68.7,17.2,0,14.0,,45824.3,21.82,-0.44,0.48,-0.65,15.8,-22.9,21.4,35.38,,,,,,,,,,
15.29.07.393,-105.0,26.2,0,14.0,,41884.4,23.88,-0.44,0.47,-0.64,17.8,-22.2,20.5,35.44,,,,,,,,,,
15.29.07.401,-118.5,29.6,0,14.0,,48124.2,20.78,-0.46,0.48,-0.63,16.3,-17.5,4.8,35.44,,,,,,,,,,
15.29.07.413,-168.7,42.2,0,14.0,,49098.6,20.37,-0.47,0.47,-0.62,12.9,-16.2,-1.2,35.44,,,,,,,,,,
15.29.07.421,-133.2,33.3,0,14.0,,45397.6,22.03,-0.47,0.48,-0.61,4.6,-16.1,-4.7,35.44,,,,,,,,,,
15.29.07.434,-115.2,28.8,0,14.0,,45361.3,22.05,-0.47,0.46,-0.62,-4.8,-17.6,-9.3,35.44,,,,,,,,,,
15.29.07.446,-71.5,17.9,0,14.0,,46476.3,21.52,-0.46,0.46,-0.63,-17.3,-19.9,-12.2,35.44,,,,,,,,,,
15.29.07.454,-146.4,36.6,0,14.0,,45457.9,22.0,-0.47,0.42,-0.64,-25.2,-22.1,-17.0,35.44,,,,,,,,,,
15.29.07.467,-187.0,46.8,0,14.0,,47880.9,20.89,-0.49,0.41,-0.64,-27.4,-23.0,-22.0,35.44,,,,,,,,,,
15.29.07.479,-136.0,34.0,0,14.0,,46303.7,21.6,-0.5,0.4,-0.64,-23.0,-23.2,-27.8,35.44,,,,,,,,,,
15.29.07.487,-131.9,33.0,0,14.0,,45933.1,21.77,-0.52,0.42,-0.64,-19.1,-20.5,-31.9,35.44,,,,,,,,,,
15.29.07.499,-39.3,9.8,1,15.0,117.6,44641.7,22.4,-0.53,0.42,-0.64,-15.2,-17.0,-37.9,35.44,,,,,,,,,,
15.29.07.512,84.6,21.2,0,15.0,,45826.5,21.82,-0.54,0.45,-0.65,-12.0,-12.3,-42.0,35.44,,,,,,,,,,
15.29.07.520,132.6,33.2,0,15.0,,44398.8,22.52,-0.56,0.49,-0.65,-14.3,-7.0,-44.0,35.44,,,,,,,,,,
15.29.07.532,329.2,82.3,0,15.0,,46135.6,21.68,-0.57,0.51,-0.65,-17.3,-1.8,-46.5,35.44,,,,,,,,,,
15.29.07.544,314.3,78.6,0,15.0,,43799.9,22.83,-0.58,0.49,-0.65,-19.7,2.6,-48.2,35.44,,,,,,,,,,
15.29.07.553,353.5,88.4,0,15.0,,43786.8,22.84,-0.6,0.45,-0.64,-20.9,6.0,-49.9,35.44,,,,,,,,,,
15.29.07.565,471.5,117.9,0,15.0,,46058.5,21.71,-0.62,0.41,-0.64,-16.3,8.0,-51.5,35.44,,,,,,,,,,
15.29.07.573,447.5,111.9,0,15.0,,47491.5,21.06,-0.65,0.37,-0.65,-12.5,11.8,-53.1,35.44,,,,,,,,,,
15.29.07.585,492.0,123.0,0,15.0,,38147.0,26.21,-0.69,0.36,-0.66,-3.8,14.6,-57.9,35.44,,,,,,,,,,
15.29.07.598,502.3,125.6,0,15.0,,43877.1,22.79,-0.75,0.36,-0.71,0.8,17.3,-61.3,35.44,,,,,,,,,,
15.29.07.606,449.2,112.3,0,15.0,,43885.7,22.79,-0.84,0.38,-0.72,3.7,17.4,-65.0,35.44,,,,,,,,,,
15.29.07.618,394.2,98.6,0,15.0,,46042.2,21.72,-0.91,0.43,-0.73,0.4,13.0,-65.5,35.44,,,,,,,,,,
15.29.07.626,459.7,114.9,0,15.0,,46576.4,21.47,-0.93,0.51,-0.74,-8.3,6.2,-64.4,35.44,,,,,,,,,,
15.29.07.639,307.7,76.9,0,15.0,,51084.3,19.58,-0.89,0.56,-0.74,-24.4,0.7,-60.1,35.44,,,,,,,,,,
15.29.07.647,301.4,75.4,0,15.0,,43057.0,23.23,-0.84,0.51,-0.73,-41.2,0.4,-58.6,35.44,,,,,,,,,,
15.29.07.659,156.0,39.0,0,15.0,,50459.2,19.82,-0.8,0.49,-0.71,-56.5,6.1,-55.4,35.44,,,,,,,,,,
15.29.07.667,111.1,27.8,0,15.0,,38898.5,25.71,-0.8,0.38,-0.69,-62.7,10.5,-53.2,35.44,,,,,,,,,,
15.29.07.680,13.9,3.5,0,15.0,,40345.9,24.79,-0.85,0.31,-0.7,-59.3,13.3,-50.0,35.44,,,,,,,,,,
15.29.07.692,92.6,23.2,0,15.0,,41342.3,24.19,-0.92,0.29,-0.7,-46.6,5.6,-52.5,35.44,,,,,,,,,,
15.29.07.700,46.4,11.6,0,15.0,,49085.1,20.37,-0.92,0.23,-0.79,-45.7,13.3,-52.4,35.44,,,,,,,,,,
15.29.07.713,53.5,13.4,0,15.0,,46409.3,21.55,-1.0,0.19,-0.78,-33.4,7.9,-45.5,35.44,,,,,,,,,,
15.29.07.721,119.6,29.9,0,15.0,,48883.6,20.46,-0.98,0.2,-0.8,-23.5,4.6,-46.3,35.44,,,,,,,,,,
15.29.07.733,84.5,21.1,0,15.0,,50058.1,19.98,-0.95,0.17,-0.82,-14.6,2.6,-42.1,35.44,,,,,,,,,,
15.29.07.745,38.8,9.7,0,15.0,,44755.9,22.34,-0.9,0.14,-0.79,-6.1,5.9,-41.7,35.44,,,,,,,,,,
15.29.07.753,53.5,13.4,0,15.0,,45381.9,22.04,-0.87,0.18,-0.75,1.7,11.8,-41.0,35.44,,,,,,,,,,
15.29.07.765,31.5,7.9,0,15.0,,45073.0,22.19,-0.84,0.22,-0.69,5.6,19.0,-40.1,35.44,,,,,,,,,,
15.29.07.774,57.4,14.4,0,15.0,,46240.9,21.63,-0.8,0.22,-0.66,7.6,25.5,-40.2,35.44,,,,,,,,,,
15.29.07.786,-30.3,7.6,0,15.0,,48405.8,20.66,-0.77,0.25,-0.63,6.1,30.0,-40.4,35.44,,,,,,,,,,
15.29.07.798,-53.0,13.2,0,15.0,,44733.8,22.35,-0.75,0.28,-0.63,2.1,34.4,-41.1,35.44,,,,,,,,,,
15.29.07.807,1.4,0.4,0,15.0,,47795.5,20.92,-0.73,0.3,-0.61,-5.0,37.4,-40.7,35.44,,,,,,,,,,
15.29.07.819,2.2,0.6,0,15.0,,46165.9,21.66,-0.72,0.28,-0.61,-13.4,38.3,-41.4,35.44,,,,,,,,,,
15.29.07.827,-67.3,16.8,0,15.0,,49555.4,20.18,-0.71,0.28,-0.61,-23.1,37.6,-41.2,35.44,,,,,,,,,,
15.29.07.839,-10.0,2.5,0,15.0,,41960.2,23.83,-0.7,0.27,-0.6,-34.9,37.6,-39.2,35.44,,,,,,,,,,
15.29.07.852,-31.0,7.8,0,15.0,,47013.0,21.27,-0.7,0.24,-0.6,-43.0,35.6,-38.2,35.44,,,,,,,,,,
15.29.07.860,-69.0,17.2,0,15.0,,39364.5,25.4,-0.7,0.21,-0.61,-49.2,33.7,-35.3,35.44,,,,,,,,,,
15.29.07.872,-110.7,27.7,0,15.0,,42468.3,23.55,-0.7,0.17,-0.61,-52.6,30.7,-33.4,35.44,,,,,,,,,,
15.29.07.880,-139.5,34.9,0,15.0,,43262.6,23.11,-0.71,0.14,-0.59,-51.4,27.3,-31.7,35.44,,,,,,,,,,
15.29.07.893,-98.8,24.7,0,15.0,,44972.0,22.24,-0.71,0.12,-0.6,-48.9,26.5,-30.5,35.44,,,,,,,,,,
15.29.07.905,-113.7,28.4,0,15.0,,49283.9,20.29,-0.72,0.1,-0.61,-44.6,25.5,-29.8,35.44,,,,,,,,,,
15.29.07.913,-49.1,12.3,0,15.0,,44410.2,22.52,-0.73,0.1,-0.62,-41.8,24.4,-30.7,35.44,,,,,,,,,,
15.29.07.925,-153.1,38.3,0,15.0,,41402.3,24.15,-0.74,0.12,-0.62,-37.9,23.7,-31.5,35.44,,,,,,,,,,
15.29.07.934,-94.7,23.7,0,15.0,,49560.2,20.18,-0.75,0.16,-0.61,-37.2,24.1,-32.8,35.44,,,,,,,,,,
15.29.07.946,-203.0,50.8,0,15.0,,41694.1,23.98,-0.77,0.21,-0.62,-42.5,24.5,-32.1,35.44,,,,,,,,,,
15.29.07.958,-160.9,40.2,0,15.0,,48059.5,20.81,-0.77,0.23,-0.63,-48.9,24.0,-30.8,35.44,,,,,,,,,,
15.29.07.966,-157.3,39.3,0,15.0,,39664.2,25.21,-0.78,0.22,-0.63,-53.8,22.0,-29.4,35.44,,,,,,,,,,
15.29.07.979,-193.8,48.4,0,15.0,,42683.1,23.43,-0.78,0.22,-0.65,-60.6,19.2,-26.7,35.44,,,,,,,,,,
15.29.07.991,-225.0,56.2,0,15.0,,43847.4,22.81,-0.79,0.21,-0.66,-61.8,15.3,-24.6,35.44,,,,,,,,,,
15.29.07.999,-217.2,54.3,0,15.0,,42566.9,23.49,-0.8,0.21,-0.66,-64.4,10.8,-20.4,35.44,,,,,,,,,,
15.29.08.011,28.5,7.1,1,16.0,118.5,47668.1,20.98,-0.8,0.16,-0.67,-63.8,5.6,-17.4,35.44,,,,,,,,,,
15.29.08.020,71.6,17.9,0,16.0,,39601.5,25.25,-0.79,0.14,-0.68,-57.9,3.6,-13.6,35.44,,,,,,,,,,
15.29.08.032,186.3,46.6,0,16.0,,45069.9,22.19,-0.79,0.13,-0.69,-48.4,2.5,-11.1,35.44,,,,,,,,,,
15.29.08.044,304.5,76.1,0,16.0,,44307.2,22.57,-0.79,0.12,-0.67,-35.8,2.2,-9.1,35.44,,,,,,,,,,
15.29.08.052,325.7,81.4,0,16.0,,45426.4,22.01,-0.82,0.13,-0.67,-23.3,4.5,-10.0,35.44,,,,,,,,,,
15.29.08.065,423.5,105.9,0,16.0,,44236.7,22.61,-0.81,0.16,-0.66,-11.9,7.3,-12.2,35.44,,,,,,,,,,
15.29.08.073,465.1,116.3,0,16.0,,45328.8,22.06,-0.82,0.2,-0.67,-5.2,9.5,-12.9,35.44,,,,,,,,,,
15.29.08.085,480.7,120.2,0,16.0,,42404.0,23.58,-0.82,0.23,-0.68,0.0,9.7,-12.4,35.44,,,,,,,,,,
15.29.08.093,530.2,132.6,0,16.0,,44304.6,22.57,-0.82,0.25,-0.69,2.9,10.6,-11.8,35.44,,,,,,,,,,
15.29.08.106,548.4,137.1,0,16.0,,45307.5,22.07,-0.8,0.26,-0.69,4.2,11.5,-10.9,35.44,,,,,,,,,,
15.29.08.118,434.8,108.7,0,16.0,,46515.3,21.5,-0.8,0.28,-0.68,3.3,12.3,-10.1,35.44,,,,,,,,,,
15.29.08.126,430.7,107.7,0,16.0,,50734.4,19.71,-0.78,0.29,-0.67,2.5,12.5,-9.2,35.44,,,,,,,,,,
15.29.08.138,361.5,90.4,0,16.0,,45778.2,21.84,-0.77,0.3,-0.66,0.9,13.9,-8.5,35.44,,,,,,,,,,
15.29.08.147,296.7,74.2,0,16.0,,50427.2,19.83,-0.77,0.31,-0.65,-3.2,14.9,-8.6,35.44,,,,,,,,,,
15.29.08.159,210.6,52.6,0,16.0,,44060.1,22.7,-0.76,0.33,-0.65,-8.1,16.7,-7.4,35.44,,,,,,,,,,
15.29.08.196,35.9,9.0,0,16.0,,43345.8,23.07,-0.75,0.33,-0.63,-12.2,17.7,-7.2,35.38,,,,,,,,,,
15.29.08.204,37.0,9.2,0,16.0,,42448.5,23.56,-0.72,0.31,-0.59,-12.4,25.5,-9.9,35.38,,,,,,,,,,
15.29.08.216,78.7,19.7,0,16.0,,43258.0,23.12,-0.71,0.29,-0.59,-12.2,26.5,-11.1,35.38,,,,,,,,,,
15.29.08.229,144.0,36.0,0,16.0,,41563.8,24.06,-0.71,0.29,-0.6,-12.1,26.2,-11.4,35.38,,,,,,,,,,
15.29.08.237,96.0,24.0,0,16.0,,37355.2,26.77,-0.71,0.29,-0.6,-11.7,24.5,-11.3,35.38,,,,,,,,,,
15.29.08.249,105.9,26.5,0,16.0,,43825.4,22.82,-0.71,0.29,-0.61,-11.3,22.0,-10.1,35.38,,,,,,,,,,
15.29.08.257,44.9,11.2,0,16.0,,48194.8,20.75,-0.7,0.28,-0.61,-11.3,19.6,-9.5,35.38,,,,,,,,,,
15.29.08.270,94.6,23.6,0,16.0,,49748.8,20.1,-0.69,0.28,-0.61,-12.7,16.9,-7.9,35.38,,,,,,,,,,
15.29.08.278,-1.8,0.4,0,16.0,,46687.8,21.42,-0.69,0.27,-0.61,-13.1,14.4,-6.2,35.38,,,,,,,,,,
15.29.08.290,83.2,20.8,0,16.0,,41695.4,23.98,-0.68,0.27,-0.6,-12.5,12.5,-4.0,35.38,,,,,,,,,,
15.29.08.303,-70.6,17.6,0,16.0,,41926.7,23.85,-0.69,0.29,-0.6,-12.8,10.9,-2.9,35.38,,,,,,,,,,
15.29.08.311,-24.6,6.2,0,16.0,,44777.9,22.33,-0.7,0.31,-0.59,-12.9,10.8,-1.8,35.38,,,,,,,,,,
15.29.08.323,-49.2,12.3,0,16.0,,45307.0,22.07,-0.7,0.32,-0.59,-17.0,11.1,-0.7,35.38,,,,,,,,,,
15.29.08.331,-47.2,11.8,0,16.0,,46270.5,21.61,-0.7,0.31,-0.59,-14.5,10.1,-0.6,35.38,,,,,,,,,,
15.29.08.343,39.0,9.8,0,16.0,,41119.6,24.32,-0.68,0.32,-0.59,-14.5,9.1,-0.4,35.38,,,,,,,,,,
15.29.08.355,-53.7,13.4,0,16.0,,43430.0,23.03,-0.69,0.32,-0.61,-13.0,9.4,-0.2,35.38,,,,,,,,,,
15.29.08.364,-38.6,9.6,0,16.0,,43789.9,22.84,-0.67,0.33,-0.62,-11.1,9.8,0.7,35.38,,,,,,,,,,
15.29.08.376,-59.8,15.0,0,16.0,,45780.0,21.84,-0.67,0.32,-0.62,-8.7,10.4,1.1,35.38,,,,,,,,,,
15.29.08.384,-100.1,25.0,0,16.0,,46699.1,21.41,-0.66,0.33,-0.62,-7.2,9.7,1.5,35.38,,,,,,,,,,
15.29.08.397,-113.8,28.4,0,16.0,,47455.2,21.07,-0.67,0.33,-0.63,-7.0,9.0,3.7,35.38,,,,,,,,,,
15.29.08.405,-72.0,18.0,0,16.0,,47748.3,20.94,-0.67,0.32,-0.64,-4.1,7.9,4.5,35.38,,,,,,,,,,
15.29.08.417,-135.6,33.9,0,16.0,,44908.6,22.27,-0.68,0.31,-0.63,-1.5,6.3,5.3,35.38,,,,,,,,,,
15.29.08.425,-114.7,28.7,0,16.0,,43465.7,23.01,-0.69,0.31,-0.64,4.0,5.3,6.0,35.38,,,,,,,,,,
15.29.08.438,-154.3,38.6,0,16.0,,48069.7,20.8,-0.69,0.31,-0.66,8.0,5.0,6.9,35.38,,,,,,,,,,
15.29.08.450,-127.6,31.9,0,16.0,,45605.1,21.93,-0.69,0.32,-0.65,11.5,4.5,7.7,35.38,,,,,,,,,,
15.29.08.458,-165.5,41.4,0,16.0,,42792.6,23.37,-0.68,0.33,-0.66,13.7,3.4,10.3,35.38,,,,,,,,,,
15.29.08.471,-130.1,32.5,0,16.0,,50018.9,19.99,-0.67,0.35,-0.67,12.2,4.6,13.1,35.38,,,,,,,,,,
15.29.08.479,-150.0,37.5,0,16.0,,46475.6,21.52,-0.67,0.33,-0.7,9.9,5.9,15.1,35.38,,,,,,,,,,
15.29.08.491,-139.6,34.9,0,16.0,,41864.8,23.89,-0.67,0.33,-0.69,8.1,7.6,16.5,35.38,,,,,,,,,,
15.29.08.499,-194.6,48.6,0,16.0,,48329.4,20.69,-0.68,0.33,-0.69,6.5,13.2,15.7,35.38,,,,,,,,,,
15.29.08.511,-152.4,38.1,0,16.0,,44362.9,22.54,-0.68,0.36,-0.66,3.6,21.3,14.9,35.38,,,,,,,,,,
15.29.08.520,-216.3,54.1,0,16.0,,44969.8,22.24,-0.69,0.36,-0.68,1.0,27.8,12.9,35.38,,,,,,,,,,
15.29.08.532,86.9,21.7,1,17.0,111.3,43101.8,23.2,-0.7,0.35,-0.68,-0.3,29.9,10.3,35.38,,,,,,,,,,
15.29.08.544,174.5,43.6,0,17.0,,48854.0,20.47,-0.71,0.35,-0.69,-1.4,28.7,11.3,35.38,,,,,,,,,,
15.29.08.552,255.5,63.9,0,17.0,,44575.1,22.43,-0.69,0.35,-0.7,-6.2,25.6,11.9,35.38,,,,,,,,,,
15.29.08.565,283.8,71.0,0,17.0,,45389.6,22.03,-0.69,0.35,-0.72,-10.1,21.1,12.6,35.38,,,,,,,,,,
15.29.08.573,466.6,116.6,0,17.0,,47199.1,21.19,-0.67,0.37,-0.72,-17.9,17.5,16.2,35.38,,,,,,,,,,
15.29.08.585,483.8,121.0,0,17.0,,42483.3,23.54,-0.67,0.32,-0.73,-20.8,15.6,17.2,35.38,,,,,,,,,,
15.29.08.597,464.6,116.2,0,17.0,,43415.1,23.03,-0.68,0.3,-0.73,-21.2,13.9,17.9,35.38,,,,,,,,,,
15.29.08.605,578.3,144.6,0,17.0,,44583.2,22.43,-0.71,0.28,-0.72,-18.6,12.3,17.5,35.38,,,,,,,,,,
15.29.08.618,456.5,114.1,0,17.0,,39570.9,25.27,-0.73,0.29,-0.72,-14.5,10.9,17.8,35.38,,,,,,,,,,
15.29.08.630,451.7,112.9,0,17.0,,52768.0,18.95,-0.74,0.27,-0.72,-7.9,9.7,16.8,35.38,,,,,,,,,,
15.29.08.639,447.3,111.8,0,17.0,,43608.2,22.93,-0.76,0.26,-0.73,0.8,7.4,15.5,35.38,,,,,,,,,,
15.29.08.651,346.1,86.5,0,17.0,,43115.7,23.19,-0.81,0.24,-0.73,10.8,3.1,14.1,35.38,,,,,,,,,,
15.29.08.659,321.1,80.3,0,17.0,,45403.7,22.02,-0.85,0.24,-0.73,21.6,-3.3,11.5,35.38,,,,,,,,,,
15.29.08.671,220.5,55.1,0,17.0,,46710.1,21.41,-0.88,0.21,-0.75,34.6,-12.1,7.3,35.38,,,,,,,,,,
15.29.08.683,52.6,13.2,0,17.0,,44470.8,22.49,-0.89,0.23,-0.74,45.9,-20.4,3.6,35.38,,,,,,,,,,
15.29.08.692,107.8,27.0,0,17.0,,45587.7,21.94,-0.88,0.29,-0.74,52.9,-27.3,1.5,35.38,,,,,,,,,,
15.29.08.704,-12.4,3.1,0,17.0,,45354.4,22.05,-0.82,0.35,-0.75,51.7,-30.9,0.4,35.38,,,,,,,,,,
15.29.08.712,32.1,8.0,0,17.0,,45568.8,21.94,-0.77,0.4,-0.72,47.9,-31.3,-1.0,35.38,,,,,,,,,,
15.29.08.724,28.2,7.0,0,17.0,,46511.5,21.5,-0.69,0.46,-0.68,38.1,-29.8,-3.7,35.38,,,,,,,,,,
15.29.08.737,38.9,9.7,0,17.0,,52642.2,19.0,-0.65,0.46,-0.63,28.8,-23.7,-6.7,35.38,,,,,,,,,,
15.29.08.745,90.3,22.6,0,17.0,,50337.0,19.87,-0.61,0.47,-0.59,22.3,-17.2,-9.5,35.38,,,,,,,,,,
15.29.08.757,120.1,30.0,0,17.0,,46849.8,21.34,-0.59,0.43,-0.57,14.6,-8.6,-12.8,35.38,,,,,,,,,,
15.29.08.769,90.4,22.6,0,17.0,,46260.7,21.62,-0.58,0.4,-0.56,11.6,1.3,-15.8,35.38,,,,,,,,,,
15.29.08.778,53.2,13.3,0,17.0,,42857.9,23.33,-0.58,0.39,-0.55,9.6,9.2,-16.3,35.38,,,,,,,,,,
15.29.08.790,55.5,13.9,0,17.0,,40059.2,24.96,-0.6,0.38,-0.56,4.8,16.6,-17.0,35.38,,,,,,,,,,
15.29.08.798,-37.3,9.3,0,17.0,,46820.7,21.36,-0.64,0.39,-0.55,-5.0,20.0,-15.2,35.38,,,,,,,,,,
15.29.08.811,-13.8,3.4,0,17.0,,47243.1,21.17,-0.68,0.37,-0.54,-13.6,19.2,-13.0,35.38,,,,,,,,,,
15.29.08.823,13.6,3.4,0,17.0,,45428.2,22.01,-0.72,0.36,-0.55,-22.0,16.5,-9.5,35.38,,,,,,,,,,
15.29.08.835,-41.7,10.4,0,17.0,,36716.8,27.24,-0.76,0.32,-0.56,-27.9,12.5,-7.6,35.38,,,,,,,,,,
15.29.08.843,-33.5,8.4,0,17.0,,43239.9,23.13,-0.78,0.29,-0.55,-30.0,6.9,-6.1,35.38,,,,,,,,,,
15.29.08.855,-16.7,4.2,0,17.0,,45557.5,21.95,-0.79,0.27,-0.55,-31.1,3.3,-5.3,35.38,,,,,,,,,,
15.29.08.868,-45.0,11.2,0,17.0,,40553.3,24.66,-0.79,0.24,-0.55,-26.4,1.6,-4.2,35.38,,,,,,,,,,
15.29.08.876,-140.0,35.0,0,17.0,,47863.5,20.89,-0.78,0.24,-0.56,-20.7,1.5,-4.5,35.38,,,,,,,,,,
15.29.08.888,-36.5,9.1,0,17.0,,45153.5,22.15,-0.79,0.37,-0.59,-17.0,3.1,-7.7,35.38,,,,,,,,,,
15.29.08.896,-89.4,22.4,0,17.0,,41797.7,23.92,-0.77,0.25,-0.56,-7.3,-3.1,-5.5,35.38,,,,,,,,,,
15.29.08.908,-98.5,24.6,0,17.0,,40545.7,24.66,-0.78,0.26,-0.53,-0.5,-5.8,-8.3,35.38,,,,,,,,,,
15.29.08.921,-30.0,7.5,0,17.0,,45074.4,22.19,-0.77,0.31,-0.52,3.1,-7.3,-8.7,35.38,,,,,,,,,,
15.29.08.929,-94.6,23.6,0,17.0,,46603.4,21.46,-0.76,0.34,-0.49,-0.1,-10.6,-9.3,35.38,,,,,,,,,,
15.29.08.941,-128.9,32.2,0,17.0,,40606.1,24.63,-0.75,0.35,-0.46,-2.2,-12.5,-10.5,35.38,,,,,,,,,,
15.29.08.950,-125.5,31.4,0,17.0,,43874.9,22.79,-0.73,0.35,-0.44,-2.6,-14.1,-11.9,35.38,,,,,,,,,,
15.29.08.962,-150.5,37.6,0,17.0,,46377.5,21.56,-0.7,0.36,-0.44,-2.7,-13.1,-13.6,35.38,,,,,,,,,,
15.29.08.999,-150.2,37.6,0,17.0,,41387.9,24.16,-0.71,0.42,-0.44,-5.8,-11.3,-16.5,35.38,,,,,,,,,,
15.29.09.011,-187.4,46.8,0,17.0,,47825.4,20.91,-0.68,0.37,-0.45,-23.4,-7.2,-16.7,35.38,,,,,,,,,,
15.29.09.019,-155.8,39.0,0,17.0,,44982.6,22.23,-0.69,0.34,-0.45,-25.8,-7.3,-18.3,35.38,,,,,,,,,,
15.29.09.032,-8.9,2.2,1,18.0,113.8,44500.8,22.47,-0.71,0.36,-0.42,-19.5,-6.7,-24.0,35.38,,,,,,,,,,
15.29.09.044,105.4,26.4,0,18.0,,47806.0,20.92,-0.72,0.38,-0.41,-15.9,-5.9,-28.6,35.38,,,,,,,,,,
15.29.09.052,150.4,37.6,0,18.0,,48495.9,20.62,-0.72,0.36,-0.45,-12.4,-5.9,-32.2,35.38,,,,,,,,,,
15.29.09.064,267.0,66.8,0,18.0,,41455.4,24.12,-0.72,0.36,-0.44,-9.9,-7.7,-35.0,35.38,,,,,,,,,,
15.29.09.077,353.9,88.5,0,18.0,,48393.0,20.66,-0.73,0.37,-0.47,-9.5,-8.6,-35.8,35.38,,,,,,,,,,
15.29.09.085,432.1,108.0,0,18.0,,49437.0,20.23,-0.75,0.37,-0.48,-9.7,-9.2,-36.5,35.38,,,,,,,,,,
15.29.09.097,432.3,108.1,0,18.0,,42772.0,23.38,-0.75,0.37,-0.49,-9.8,-10.6,-37.1,35.38,,,,,,,,,,
15.29.09.105,512.1,128.0,0,18.0,,46859.0,21.34,-0.76,0.38,-0.53,-12.0,-11.4,-37.5,35.38,,,,,,,,,,
15.29.09.117,526.8,131.7,0,18.0,,44275.8,22.59,-0.77,0.39,-0.54,-11.3,-10.5,-38.6,35.38,,,,,,,,,,
15.29.09.130,505.2,126.3,0,18.0,,44798.3,22.32,-0.77,0.42,-0.55,-12.2,-8.8,-37.7,35.38,,,,,,,,,,
15.29.09.142,438.8,109.7,0,18.0,,45690.7,21.89,-0.77,0.43,-0.56,-15.5,-8.0,-37.4,35.38,,,,,,,,,,
15.29.09.154,417.8,104.4,0,18.0,,39594.2,25.26,-0.78,0.43,-0.58,-18.2,-6.7,-36.4,35.38,,,,,,,,,,
15.29.09.163,377.7,94.4,0,18.0,,39362.1,25.41,-0.77,0.43,-0.58,-19.3,-4.6,-35.0,35.38,,,,,,,,,,
15.29.09.175,251.8,63.0,0,18.0,,39736.3,25.17,-0.76,0.41,-0.59,-19.8,-2.1,-32.3,35.38,,,,,,,,,,
15.29.09.187,239.8,60.0,0,18.0,,48735.4,20.52,-0.74,0.4,-0.59,-18.3,0.7,-30.7,35.38,,,,,,,,,,
15.29.09.196,61.1,15.3,0,18.0,,46010.2,21.73,-0.72,0.4,-0.59,-16.4,3.8,-27.8,35.38,,,,,,,,,,
15.29.09.208,-22.6,5.6,0,18.0,,43807.2,22.83,-0.72,0.41,-0.6,-15.8,7.3,-24.1,35.38,,,,,,,,,,
15.29.09.216,38.5,9.6,0,18.0,,49252.9,20.3,-0.72,0.4,-0.6,-13.7,10.6,-21.2,35.38,,,,,,,,,,
15.29.09.228,1.6,0.4,0,18.0,,46715.4,21.41,-0.74,0.41,-0.58,-9.4,13.4,-18.9,35.38,,,,,,,,,,
15.29.09.241,35.6,8.9,0,18.0,,47639.8,20.99,-0.74,0.43,-0.56,-5.5,17.0,-15.8,35.38,,,,,,,,,,
15.29.09.249,142.2,35.6,0,18.0,,49546.7,20.18,-0.73,0.45,-0.59,-7.9,20.1,-10.0,35.38,,,,,,,,,,
15.29.09.261,92.3,23.1,0,18.0,,36575.6,27.34,-0.74,0.43,-0.59,-14.2,22.2,-4.0,35.38,,,,,,,,,,
15.29.09.269,65.5,16.4,0,18.0,,44270.2,22.59,-0.76,0.4,-0.59,-15.3,22.3,0.7,35.38,,,,,,,,,,
15.29.09.281,89.7,22.4,0,18.0,,48239.9,20.73,-0.76,0.39,-0.6,-14.7,22.4,6.1,35.38,,,,,,,,,,
15.29.09.294,-7.5,1.9,0,18.0,,47718.7,20.96,-0.78,0.38,-0.6,-15.4,23.8,9.9,35.38,,,,,,,,,,
15.29.09.302,39.0,9.8,0,18.0,,42120.5,23.74,-0.8,0.36,-0.6,-15.3,24.1,12.0,35.38,,,,,,,,,,
15.29.09.314,-20.4,5.1,0,18.0,,43630.6,22.92,-0.84,0.36,-0.6,-14.3,26.1,14.4,35.38,,,,,,,,,,
15.29.09.323,57.2,14.3,0,18.0,,45406.7,22.02,-0.86,0.39,-0.59,-14.6,27.8,15.6,35.38,,,,,,,,,,
15.29.09.335,-44.5,11.1,0,18.0,,46127.8,21.68,-0.86,0.38,-0.59,-20.0,29.0,16.0,35.38,,,,,,,,,,
15.29.09.343,10.7,2.7,0,18.0,,46327.7,21.59,-0.87,0.36,-0.6,-22.6,30.5,15.6,35.38,,,,,,,,,,
15.29.09.355,-19.7,4.9,0,18.0,,44690.4,22.38,-0.88,0.33,-0.63,-24.0,32.8,15.2,35.38,,,,,,,,,,
15.29.09.368,-56.6,14.2,0,18.0,,43562.5,22.96,-0.91,0.29,-0.65,-20.9,32.6,13.1,35.38,,,,,,,,,,
15.29.09.376,-26.1,6.5,0,18.0,,44056.5,22.7,-0.94,0.28,-0.66,-19.6,31.2,11.3,35.38,,,,,,,,,,
15.29.09.388,-75.6,18.9,0,18.0,,51814.8,19.3,-0.98,0.29,-0.66,-18.8,26.5,9.2,35.38,,,,,,,,,,
15.29.09.396,-111.1,27.8,0,18.0,,42219.6,23.69,-1.01,0.32,-0.67,-18.6,25.4,6.5,35.38,,,,,,,,,,
15.29.09.408,-86.3,21.6,0,18.0,,43653.4,22.91,-1.03,0.37,-0.68,-21.9,20.8,5.0,35.38,,,,,,,,,,
15.29.09.417,-113.2,28.3,0,18.0,,48097.4,20.79,-1.02,0.37,-0.65,-25.7,18.0,3.7,35.38,,,,,,,,,,
15.29.09.429,-94.1,23.5,0,18.0,,44539.5,22.45,-0.99,0.36,-0.64,-29.6,13.8,2.2,35.38,,,,,,,,,,
15.29.09.441,-86.9,21.7,0,18.0,,43866.8,22.8,-0.96,0.36,-0.63,-29.8,14.2,0.7,35.38,,,,,,,,,,
15.29.09.449,-69.9,17.5,0,18.0,,43190.9,23.15,-0.91,0.33,-0.62,-29.9,15.6,-0.8,35.38,,,,,,,,,,
15.29.09.462,-79.3,19.8,0,18.0,,47911.6,20.87,-0.88,0.3,-0.62,-28.5,17.7,-1.6,35.38,,,,,,,,,,
15.29.09.470,-156.9,39.2,0,18.0,,46352.7,21.57,-0.84,0.28,-0.61,-25.0,20.1,-3.4,35.38,,,,,,,,,,
15.29.09.482,-120.7,30.2,0,18.0,,48486.6,20.62,-0.81,0.24,-0.59,-19.8,22.6,-5.2,35.38,,,,,,,,,,
15.29.09.494,-179.7,44.9,0,18.0,,43951.0,22.75,-0.78,0.24,-0.6,-17.4,26.2,-5.5,35.38,,,,,,,,,,
15.29.09.502,-165.2,41.3,0,18.0,,50822.8,19.68,-0.78,0.23,-0.6,-15.2,29.2,-6.6,35.38,,,,,,,,,,
15.29.09.515,-187.8,47.0,0,18.0,,43698.2,22.88,-0.78,0.23,-0.58,-14.6,30.6,-8.0,35.38,,,,,,,,,,
15.29.09.523,-107.4,26.8,0,18.0,,44427.3,22.51,-0.78,0.24,-0.58,-17.1,31.1,-9.8,35.38,,,,,,,,,,
15.29.09.535,-182.2,45.6,0,18.0,,50366.6,19.85,-0.79,0.26,-0.58,-21.4,29.7,-12.2,35.38,,,,,,,,,,
15.29.09.548,85.3,21.3,1,19.0,116.2,45358.3,22.05,-0.79,0.26,-0.56,-26.4,27.6,-15.0,35.38,,,,,,,,,,
15.29.09.556,105.5,26.4,0,19.0,,44931.7,22.26,-0.77,0.27,-0.55,-32.3,25.1,-17.2,35.38,,,,,,,,,,
15.29.09.568,209.1,52.3,0,19.0,,40325.4,24.8,-0.75,0.25,-0.54,-36.9,23.5,-19.8,35.38,,,,,,,,,,
15.29.09.576,307.9,77.0,0,19.0,,44614.4,22.41,-0.73,0.24,-0.54,-40.1,22.2,-21.9,35.38,,,,,,,,,,
15.29.09.589,392.0,98.0,0,19.0,,49099.6,20.37,-0.72,0.22,-0.54,-44.1,20.0,-22.8,35.38,,,,,,,,,,
15.29.09.601,475.1,118.8,0,19.0,,42284.3,23.65,-0.72,0.22,-0.55,-48.5,18.0,-22.3,35.38,,,,,,,,,,
15.29.09.609,465.0,116.2,0,19.0,,38392.5,26.05,-0.73,0.21,-0.58,-49.7,16.8,-21.5,35.38,,,,,,,,,,
15.29.09.621,413.5,103.4,0,19.0,,45107.5,22.17,-0.76,0.2,-0.59,-50.2,14.2,-20.5,35.38,,,,,,,,,,
15.29.09.629,468.7,117.2,0,19.0,,39203.5,25.51,-0.79,0.21,-0.6,-51.0,9.6,-20.5,35.38,,,,,,,,,,
15.29.09.642,514.3,128.6,0,19.0,,47209.3,21.18,-0.8,0.22,-0.59,-51.7,5.7,-20.1,35.38,,,,,,,,,,
15.29.09.655,387.2,96.8,0,19.0,,47336.9,21.13,-0.78,0.23,-0.6,-54.0,2.5,-18.6,35.38,,,,,,,,,,
15.29.09.662,374.2,93.6,0,19.0,,51465.5,19.43,-0.76,0.22,-0.6,-54.6,0.9,-17.3,35.38,,,,,,,,,,
15.29.09.675,297.7,74.4,0,19.0,,47167.9,21.2,-0.74,0.22,-0.6,-54.1,1.3,-14.7,35.38,,,,,,,,,,
15.29.09.683,295.7,73.9,0,19.0,,46853.9,21.34,-0.74,0.22,-0.6,-51.9,3.6,-13.2,35.38,,,,,,,,,,
15.29.09.695,206.5,51.6,0,19.0,,42795.6,23.37,-0.72,0.21,-0.6,-48.4,6.0,-11.4,35.38,,,,,,,,,,
15.29.09.707,91.4,22.8,0,19.0,,39768.8,25.15,-0.7,0.22,-0.6,-42.3,9.7,-10.6,35.38,,,,,,,,,,
15.29.09.716,30.2,7.6,0,19.0,,43544.8,22.96,-0.71,0.22,-0.6,-39.3,13.5,-9.1,35.38,,,,,,,,,,
15.29.09.728,39.9,10.0,0,19.0,,46649.1,21.44,-0.71,0.25,-0.61,-36.0,16.5,-7.5,35.38,,,,,,,,,,
15.29.09.736,-0.9,0.2,0,19.0,,48344.2,20.68,-0.74,0.26,-0.61,-34.5,18.4,-5.5,35.38,,,,,,,,,,
15.29.09.748,10.9,2.7,0,19.0,,46602.4,21.46,-0.73,0.28,-0.6,-35.1,18.8,-2.4,35.38,,,,,,,,,,
15.29.09.761,69.8,17.4,0,19.0,,45808.6,21.83,-0.75,0.28,-0.6,-34.6,17.4,0.2,35.38,,,,,,,,,,
15.29.09.769,160.3,40.1,0,19.0,,49258.7,20.3,-0.74,0.3,-0.6,-35.2,14.9,3.0,35.38,,,,,,,,,,
15.29.09.806,55.0,13.8,0,19.0,,44634.2,22.4,-0.75,0.3,-0.62,-35.8,12.9,6.3,35.38,,,,,,,,,,
15.29.09.818,7.4,1.8,0,19.0,,48065.6,20.8,-0.77,0.34,-0.6,-37.6,9.6,18.3,35.38,,,,,,,,,,
15.29.09.826,59.2,14.8,0,19.0,,42828.0,23.35,-0.78,0.33,-0.6,-35.7,10.1,20.9,35.38,119.0,,,,,,,,,
15.29.09.839,-77.8,19.4,0,19.0,,47786.2,20.93,-0.78,0.3,-0.59,-30.3,9.1,23.2,35.38,,,,,,,,,,
15.29.09.847,10.8,2.7,0,19.0,,43856.4,22.8,-0.78,0.28,-0.59,-21.5,7.6,24.8,35.38,,,,,,,,,,
15.29.09.859,-76.2,19.0,0,19.0,,44489.1,22.48,-0.77,0.27,-0.59,-14.3,6.3,28.0,35.38,,,,,,,,,,
15.29.09.871,-30.7,7.7,0,19.0,,46464.5,21.52,-0.77,0.25,-0.6,-6.1,5.8,31.2,35.38,,,,,,,,,,
15.29.09.880,-73.4,18.4,0,19.0,,48294.7,20.71,-0.78,0.25,-0.59,2.6,4.6,35.2,35.38,,,,,,,,,,
15.29.09.892,-66.7,16.7,0,19.0,,46968.7,21.29,-0.78,0.27,-0.59,10.9,3.4,38.6,35.38,,,,,,,,,,
15.29.09.900,-72.5,18.1,0,19.0,,46783.4,21.38,-0.78,0.29,-0.58,17.3,2.2,40.6,35.38,,,,,,,,,,
15.29.09.912,-35.4,8.8,0,19.0,,45060.5,22.19,-0.78,0.32,-0.58,20.9,2.0,42.9,35.38,,,,,,,,,,
15.29.09.920,-83.9,21.0,0,19.0,,46223.8,21.63,-0.78,0.35,-0.57,20.7,2.6,45.1,35.38,,,,,,,,,,
15.29.09.933,-147.2,36.8,0,19.0,,41354.3,24.18,-0.78,0.34,-0.56,20.8,3.9,46.8,35.38,,,,,,,,,,
15.29.09.941,-85.1,21.3,0,19.0,,46931.5,21.31,-0.78,0.33,-0.56,23.1,6.3,48.7,35.38,,,,,,,,,,
15.29.09.953,-158.0,39.5,0,19.0,,45415.9,22.02,-0.79,0.31,-0.56,26.4,7.6,49.9,35.38,,,,,,,,,,
15.29.09.961,-127.6,31.9,0,19.0,,40988.2,24.4,-0.78,0.3,-0.57,31.9,7.9,50.8,35.38,,,,,,,,,,
15.29.09.974,-190.6,47.6,0,19.0,,41174.0,24.29,-0.78,0.29,-0.58,39.4,8.8,50.8,35.38,,,,,,,,,,
15.29.09.982,-158.7,39.7,0,19.0,,50940.9,19.63,-0.78,0.31,-0.57,44.8,10.1,50.6,35.38,,,,,,,,,,
15.29.09.994,-149.5,37.4,0,19.0,,47310.8,21.14,-0.77,0.33,-0.56,48.5,10.3,49.9,35.38,,,,,,,,,,
15.29.10.003,-186.2,46.6,0,19.0,,46524.5,21.49,-0.75,0.33,-0.56,52.2,11.0,48.2,35.38,,,,,,,,,,
15.29.10.015,-107.5,26.9,0,19.0,,42227.7,23.68,-0.73,0.33,-0.53,57.6,11.0,45.9,35.38,,,,,,,,,,
15.29.10.027,-182.8,45.7,0,19.0,,50112.8,19.95,-0.7,0.35,-0.53,59.1,12.7,43.8,35.38,,,,,,,,,,
15.29.10.035,-194.5,48.6,0,19.0,,42158.4,23.72,-0.69,0.38,-0.52,58.0,15.6,43.2,35.38,,,,,,,,,,
15.29.10.048,-201.8,50.4,0,19.0,,45213.3,22.12,-0.71,0.39,-0.53,53.0,18.1,43.0,35.38,,,,,,,,,,
15.29.10.056,2.1,0.5,1,20.0,117.1,45448.5,22.0,-0.76,0.38,-0.54,46.8,17.8,43.2,35.38,,,,,,,,,,
15.29.10.068,189.5,47.4,0,20.0,,36788.1,27.18,-0.82,0.37,-0.55,42.6,12.7,42.7,35.38,,,,,,,,,,
15.29.10.076,244.8,61.2,0,20.0,,44073.6,22.69,-0.87,0.34,-0.57,40.1,4.0,42.6,35.38,,,,,,,,,,
15.29.10.089,227.1,56.8,0,20.0,,47361.8,21.11,-0.89,0.31,-0.58,41.4,-7.1,42.2,35.38,,,,,,,,,,
15.29.10.097,335.5,83.9,0,20.0,,46928.9,21.31,-0.85,0.31,-0.59,46.0,-17.1,41.0,35.38,,,,,,,,,,
15.29.10.109,385.1,96.3,0,20.0,,43894.2,22.78,-0.8,0.32,-0.6,50.4,-21.0,39.6,35.38,,,,,,,,,,
15.29.10.121,412.4,103.1,0,20.0,,43947.9,22.75,-0.74,0.36,-0.58,51.8,-19.2,37.7,35.38,,,,,,,,,,
15.29.10.129,511.6,127.9,0,20.0,,44449.5,22.5,-0.7,0.4,-0.56,51.1,-14.3,34.9,35.38,,,,,,,,,,
15.29.10.142,507.1,126.8,0,20.0,,45119.8,22.16,-0.67,0.42,-0.52,49.2,-7.9,31.1,35.38,,,,,,,,,,
15.29.10.150,464.6,116.2,0,20.0,,43619.9,22.93,-0.64,0.44,-0.49,48.2,-2.0,27.2,35.38,,,,,,,,,,
15.29.10.162,450.8,112.7,0,20.0,,46170.3,21.66,-0.63,0.45,-0.48,46.7,4.0,23.8,35.38,,,,,,,,,,
15.29.10.171,402.2,100.6,0,20.0,,46636.4,21.44,-0.62,0.46,-0.48,42.1,9.1,21.3,35.38,,,,,,,,,,
15.29.10.183,443.6,110.9,0,20.0,,47646.5,20.99,-0.64,0.47,-0.49,35.2,12.1,19.8,35.38,,,,,,,,,,
15.29.10.191,336.9,84.2,0,20.0,,47249.3,21.16,-0.67,0.49,-0.49,26.5,12.6,18.2,35.38,,,,,,,,,,
15.29.10.203,239.7,59.9,0,20.0,,49639.2,20.15,-0.71,0.47,-0.51,17.7,9.0,16.4,35.38,,,,,,,,,,
15.29.10.215,143.5,35.9,0,20.0,,43341.2,23.07,-0.74,0.47,-0.51,10.6,4.9,15.6,35.38,,,,,,,,,,
15.29.10.224,50.4,12.6,0,20.0,,45671.2,21.9,-0.76,0.45,-0.52,4.4,0.6,14.0,35.38,,,,,,,,,,
15.29.10.236,-12.0,3.0,0,20.0,,42847.2,23.34,-0.79,0.43,-0.53,-2.2,-3.1,12.7,35.38,,,,,,,,,,
15.29.10.244,14.7,3.7,0,20.0,,43985.5,22.73,-0.82,0.41,-0.52,-6.1,-5.8,10.9,35.38,,,,,,,,,,
15.29.10.256,-0.3,0.1,0,20.0,,44539.8,22.45,-0.83,0.39,-0.52,-4.5,-10.1,9.5,35.38,,,,,,,,,,
15.29.10.265,64.5,16.1,0,20.0,,43333.3,23.08,-0.83,0.4,-0.52,2.1,-13.7,7.4,35.38,,,,,,,,,,
15.29.10.277,104.0,26.0,0,20.0,,48208.1,20.74,-0.81,0.39,-0.51,9.3,-16.2,4.1,35.38,,,,,,,,,,
15.29.10.285,78.6,19.6,0,20.0,,45314.3,22.07,-0.76,0.46,-0.53,25.8,-10.7,-11.8,35.38,,,,,,,,,,
15.29.10.297,112.1,28.0,0,20.0,,45100.5,22.17,-0.76,0.42,-0.5,25.5,-15.1,-5.1,35.38,,,,,,,,,,
15.29.10.310,39.6,9.9,0,20.0,,46887.5,21.33,-0.57,0.5,-0.5,25.5,-11.2,-15.4,35.38,,,,,,,,,,
15.29.10.318,23.7,5.9,0,20.0,,46715.2,21.41,-0.78,0.44,-0.54,33.7,-15.3,-11.5,35.38,,,,,,,,,,
15.29.10.330,16.2,4.0,0,20.0,,44710.0,22.37,-0.66,0.52,-0.5,32.7,-17.2,-21.2,35.38,,,,,,,,,,
15.29.10.338,-6.6,1.6,0,20.0,,44962.9,22.24,-0.7,0.56,-0.49,26.5,-17.2,-25.6,35.38,,,,,,,,,,
15.29.10.351,-69.0,17.2,0,20.0,,52228.6,19.15,-0.66,0.6,-0.47,19.3,-15.3,-31.6,35.38,,,,,,,,,,
15.29.10.363,-3.0,0.8,0,20.0,,43521.9,22.98,-0.64,0.64,-0.46,4.3,-13.8,-31.7,35.38,,,,,,,,,,
15.29.10.371,-20.0,5.0,0,20.0,,44171.5,22.64,-0.63,0.63,-0.46,-10.1,-13.8,-32.8,35.38,,,,,,,,,,
15.29.10.383,-69.5,17.4,0,20.0,,42114.5,23.74,-0.64,0.61,-0.47,-22.1,-13.4,-32.3,35.38,,,,,,,,,,
15.29.10.396,-83.9,21.0,0,20.0,,48239.9,20.73,-0.64,0.56,-0.48,-30.1,-14.1,-32.5,35.38,,,,,,,,,,
15.29.10.404,-57.2,14.3,0,20.0,,41059.3,24.35,-0.64,0.54,-0.49,-34.7,-14.4,-31.4,35.38,,,,,,,,,,
15.29.10.416,-43.9,11.0,0,20.0,,46011.8,21.73,-0.66,0.51,-0.5,-36.0,-15.3,-29.5,35.38,,,,,,,,,,
15.29.10.428,-56.7,14.2,0,20.0,,41472.6,24.11,-0.65,0.48,-0.5,-32.7,-15.0,-27.8,35.38,,,,,,,,,,
15.29.10.437,-14.5,3.6,0,20.0,,50660.0,19.74,-0.67,0.45,-0.5,-25.2,-14.7,-27.9,35.38,,,,,,,,,,
15.29.10.449,-57.4,14.4,0,20.0,,39103.3,25.57,-0.67,0.47,-0.51,-17.7,-14.2,-26.6,35.38,,,,,,,,,,
15.29.10.461,-90.1,22.5,0,20.0,,42470.1,23.55,-0.68,0.46,-0.51,-10.0,-14.0,-26.9,35.38,,,,,,,,,,
15.29.10.469,-142.3,35.6,0,20.0,,44307.7,22.57,-0.68,0.47,-0.51,-2.8,-13.8,-26.4,35.38,,,,,,,,,,
15.29.10.482,-163.4,40.8,0,20.0,,48824.5,20.48,-0.69,0.48,-0.52,2.0,-13.5,-26.1,35.38,,,,,,,,,,
15.29.10.494,-124.0,31.0,0,20.0,,39510.7,25.31,-0.7,0.47,-0.52,6.2,-14.2,-25.9,35.38,,,,,,,,,,
15.29.10.502,-132.3,33.1,0,20.0,,44759.8,22.34,-0.73,0.48,-0.52,8.7,-14.8,-26.0,35.38,,,,,,,,,,
15.29.10.515,-169.1,42.3,0,20.0,,42390.7,23.59,-0.74,0.53,-0.51,8.0,-15.0,-26.1,35.38,,,,,,,,,,
15.29.10.527,-191.0,47.8,0,20.0,,46028.5,21.73,-0.74,0.56,-0.5,4.0,-14.9,-26.1,35.38,,,,,,,,,,
15.29.10.535,-113.0,28.2,0,20.0,,45109.4,22.17,-0.71,0.56,-0.49,-1.8,-13.9,-25.7,35.38,,,,,,,,,,
15.29.10.547,-165.3,41.3,0,20.0,,44660.8,22.39,-0.69,0.54,-0.5,-6.1,-12.6,-26.6,35.38,,,,,,,,,,
15.29.10.560,-206.5,51.6,0,20.0,,44340.3,22.55,-0.68,0.54,-0.51,-11.3,-10.4,-26.4,35.38,,,,,,,,,,
15.29.10.568,6.3,1.6,1,21.0,115.2,44178.1,22.64,-0.68,0.51,-0.52,-15.3,-8.0,-25.9,35.38,,,,,,,,,,
15.29.10.604,345.7,86.4,0,21.0,,41461.8,24.12,-0.69,0.51,-0.53,-18.3,-7.1,-25.8,35.38,,,,,,,,,,
15.29.10.617,508.2,127.0,0,21.0,,37862.0,26.41,-0.73,0.49,-0.54,-21.9,-6.2,-22.5,35.38,,,,,,,,,,
15.29.10.629,505.2,126.3,0,21.0,,43697.4,22.88,-0.73,0.49,-0.53,-23.1,-6.8,-21.0,35.38,,,,,,,,,,
15.29.10.637,415.6,103.9,0,21.0,,45784.7,21.84,-0.72,0.47,-0.52,-21.7,-6.5,-19.9,35.38,,,,,,,,,,
15.29.10.650,495.9,124.0,0,21.0,,46886.5,21.33,-0.72,0.47,-0.52,-20.8,-4.4,-18.5,35.38,,,,,,,,,,
15.29.10.662,506.8,126.7,0,21.0,,42998.1,23.26,-0.72,0.46,-0.52,-19.0,-2.4,-17.2,35.38,,,,,,,,,,
15.29.10.670,460.0,115.0,0,21.0,,47825.7,20.91,-0.73,0.46,-0.52,-18.0,0.0,-15.2,35.38,,,,,,,,,,
15.29.10.683,451.6,112.9,0,21.0,,40038.2,24.98,-0.73,0.46,-0.51,-15.9,2.4,-14.3,35.38,,,,,,,,,,
15.29.10.695,326.2,81.6,0,21.0,,46195.7,21.65,-0.73,0.46,-0.52,-14.3,4.2,-12.8,35.38,,,,,,,,,,
15.29.10.703,261.2,65.3,0,21.0,,48178.2,20.76,-0.74,0.45,-0.52,-12.0,6.7,-11.7,35.38,,,,,,,,,,
15.29.10.715,206.8,51.7,0,21.0,,44591.1,22.43,-0.74,0.46,-0.53,-10.4,8.4,-10.5,35.38,,,,,,,,,,
15.29.10.728,134.2,33.6,0,21.0,,44424.1,22.51,-0.74,0.45,-0.52,-7.1,10.5,-9.4,35.38,,,,,,,,,,
15.29.10.736,34.8,8.7,0,21.0,,45486.5,21.98,-0.74,0.46,-0.52,-5.9,12.6,-7.8,35.38,,,,,,,,,,
15.29.10.748,38.6,9.6,0,21.0,,43062.2,23.22,-0.73,0.46,-0.52,-4.9,14.6,-5.9,35.38,,,,,,,,,,
15.29.10.756,59.8,15.0,0,21.0,,49764.1,20.09,-0.73,0.45,-0.52,-4.3,16.6,-3.9,35.38,,,,,,,,,,
15.29.10.769,48.7,12.2,0,21.0,,43064.9,23.22,-0.74,0.42,-0.52,-1.8,19.2,-2.8,35.38,,,,,,,,,,
15.29.10.781,69.1,17.3,0,21.0,,43253.9,23.12,-0.79,0.41,-0.54,1.8,20.1,-2.4,35.38,,,,,,,,,,
15.29.10.793,98.2,24.6,0,21.0,,47708.7,20.96,-0.82,0.43,-0.53,4.6,18.6,-2.1,35.38,,,,,,,,,,
15.29.10.801,54.2,13.6,0,21.0,,45445.4,22.0,-0.83,0.42,-0.54,7.9,15.2,-2.3,35.38,,,,,,,,,,
15.29.10.814,71.7,17.9,0,21.0,,45471.9,21.99,-0.82,0.42,-0.56,9.8,14.1,-2.4,35.38,,,,,,,,,,
15.29.10.822,119.2,29.8,0,21.0,,42676.7,23.43,-0.82,0.42,-0.57,11.3,14.5,-3.1,35.38,,,,,,,,,,
15.29.10.834,-5.3,1.3,0,21.0,,41830.2,23.91,-0.83,0.45,-0.56,9.0,15.7,-3.8,35.38,,,,,,,,,,
15.29.10.846,18.1,4.5,0,21.0,,44750.9,22.35,-0.83,0.43,-0.55,6.9,15.9,-5.2,35.38,,,,,,,,,,
15.29.10.855,33.0,8.2,0,21.0,,41125.5,24.32,-0.83,0.43,-0.55,5.7,17.2,-6.7,35.38,,,,,,,,,,
15.29.10.867,-56.3,14.1,0,21.0,,46871.4,21.33,-0.81,0.43,-0.54,4.5,18.7,-7.5,35.38,,,,,,,,,,
15.29.10.875,-8.7,2.2,0,21.0,,43416.9,23.03,-0.78,0.41,-0.55,3.4,20.2,-8.6,35.38,,,,,,,,,,
15.29.10.887,-47.8,12.0,0,21.0,,42582.3,23.48,-0.78,0.44,-0.53,-0.2,23.4,-8.1,35.38,,,,,,,,,,
15.29.10.900,-52.9,13.2,0,21.0,,49304.3,20.28,-0.77,0.44,-0.52,-4.5,26.4,-7.0,35.38,,,,,,,,,,
15.29.10.908,-10.9,2.7,0,21.0,,47073.7,21.24,-0.76,0.41,-0.52,-8.5,28.0,-5.0,35.38,,,,,,,,,,
15.29.10.920,-53.1,13.3,0,21.0,,41757.9,23.95,-0.76,0.39,-0.52,-10.5,27.8,-3.4,35.38,,,,,,,,,,
15.29.10.928,-67.7,16.9,0,21.0,,41559.2,24.06,-0.74,0.36,-0.53,-9.1,27.5,-1.8,35.38,,,,,,,,,,
15.29.10.940,-145.6,36.4,0,21.0,,41622.4,24.03,-0.73,0.34,-0.54,-7.9,27.0,0.6,35.38,,,,,,,,,,
15.29.10.949,-50.3,12.6,0,21.0,,47419.2,21.09,-0.74,0.3,-0.54,-4.4,26.4,2.4,35.38,,,,,,,,,,
15.29.10.961,-120.8,30.2,0,21.0,,43121.5,23.19,-0.75,0.31,-0.53,-1.0,25.7,4.5,35.38,,,,,,,,,,
15.29.10.973,-70.4,17.6,0,21.0,,47361.9,21.11,-0.77,0.3,-0.53,3.1,24.1,5.2,35.38,,,,,,,,,,
15.29.10.981,-132.6,33.2,0,21.0,,42155.6,23.72,-0.8,0.3,-0.52,6.1,21.6,5.0,35.38,,,,,,,,,,
15.29.10.994,-69.4,17.4,0,21.0,,46586.8,21.47,-0.81,0.31,-0.52,9.2,18.4,3.5,35.38,,,,,,,,,,
15.29.11.002,-146.8,36.7,0,21.0,,51373.9,19.47,-0.81,0.31,-0.52,10.5,14.9,3.0,35.38,,,,,,,,,,
15.29.11.014,-119.2,29.8,0,21.0,,44678.3,22.38,-0.81,0.32,-0.52,10.2,11.7,1.5,35.38,,,,,,,,,,
15.29.11.022,-227.7,56.9,0,21.0,,42820.4,23.35,-0.81,0.31,-0.53,8.9,9.0,0.3,35.38,,,,,,,,,,
15.29.11.035,-144.8,36.2,0,21.0,,43130.5,23.19,-0.82,0.31,-0.52,7.7,6.3,-1.4,35.38,,,,,,,,,,
15.29.11.043,-207.5,51.9,0,21.0,,47249.7,21.16,-0.83,0.32,-0.52,6.0,4.1,-3.7,35.38,,,,,,,,,,
15.29.11.055,-201.8,50.4,0,21.0,,42035.1,23.79,-0.85,0.33,-0.52,3.2,1.2,-5.9,35.38,,,,,,,,,,
15.29.11.063,-209.8,52.4,0,21.0,,45756.3,21.85,-0.86,0.33,-0.52,0.3,-1.9,-8.0,35.38,,,,,,,,,,
15.29.11.076,7.1,1.8,1,22.0,119.1,51452.6,19.44,-0.86,0.33,-0.52,-3.4,-3.7,-9.3,35.38,,,,,,,,,,
15.29.11.088,141.6,35.4,0,22.0,,49950.3,20.02,-0.86,0.34,-0.52,-9.5,-3.6,-9.9,35.38,,,,,,,,,,
15.29.11.100,199.1,49.8,0,22.0,,48074.8,20.8,-0.86,0.34,-0.52,-14.2,-3.5,-10.6,35.38,,,,,,,,,,
15.29.11.109,300.6,75.2,0,22.0,,45782.3,21.84,-0.86,0.34,-0.52,-19.2,-2.6,-11.0,35.38,,,,,,,,,,
15.29.11.121,365.9,91.5,0,22.0,,43218.8,23.14,-0.86,0.33,-0.51,-22.5,-1.2,-10.6,35.38,,,,,,,,,,
15.29.11.129,367.0,91.8,0,22.0,,44778.1,22.33,-0.85,0.3,-0.51,-22.9,-0.1,-10.7,35.38,,,,,,,,,,
15.29.11.141,480.1,120.0,0,22.0,,38375.0,26.06,-0.85,0.28,-0.51,-19.3,1.2,-10.5,35.38,,,,,,,,,,
15.29.11.150,413.1,103.3,0,22.0,,42602.3,23.47,-0.84,0.28,-0.52,-14.3,1.9,-10.8,35.38,,,,,,,,,,
15.29.11.162,520.9,130.2,0,22.0,,49982.7,20.01,-0.83,0.29,-0.51,-10.5,2.5,-11.0,35.38,,,,,,,,,,
15.29.11.174,519.3,129.8,0,22.0,,52888.1,18.91,-0.81,0.3,-0.51,-7.0,4.0,-11.4,35.38,,,,,,,,,,
15.29.11.183,398.3,99.6,0,22.0,,44469.0,22.49,-0.78,0.31,-0.5,-4.9,6.1,-11.9,35.38,,,,,,,,,,
15.29.11.195,425.3,106.3,0,22.0,,35314.6,28.32,-0.76,0.3,-0.5,-4.4,9.0,-11.1,35.38,,,,,,,,,,
15.29.11.203,349.1,87.3,0,22.0,,44458.8,22.49,-0.76,0.32,-0.49,-6.0,12.7,-9.6,35.38,,,,,,,,,,
15.29.11.215,277.5,69.4,0,22.0,,49536.1,20.19,-0.75,0.31,-0.48,-7.5,14.1,-8.3,35.38,,,,,,,,,,
15.29.11.223,235.2,58.8,0,22.0,,47855.1,20.9,-0.74,0.3,-0.48,-6.9,15.5,-6.9,35.38,,,,,,,,,,
15.29.11.235,136.1,34.0,0,22.0,,49472.8,20.21,-0.74,0.31,-0.47,-7.9,17.0,-5.2,35.38,,,,,,,,,,
15.29.11.248,140.8,35.2,0,22.0,,44794.4,22.32,-0.73,0.31,-0.47,-10.4,18.1,-3.8,35.38,,,,,,,,,,
15.29.11.256,90.3,22.6,0,22.0,,45221.3,22.11,-0.73,0.3,-0.47,-11.6,18.4,-2.4,35.31,,,,,,,,,,
15.29.25.703,27.7,6.9,0,22.0,,41899.7,23.87,-0.87,0.27,-0.43,1.5,4.2,4.2,35.31,117.7,,,,,,,,,
15.29.25.704,78.3,19.6,0,22.0,,46169.8,21.66,-0.87,0.27,-0.43,1.5,4.2,1.3,35.31,,,,,,,,,,
15.29.25.709,43.4,10.8,0,22.0,,43631.1,22.92,-0.86,0.27,-0.44,2.3,4.0,0.8,35.31,,,,,,,,,,
15.29.25.721,58.7,14.7,0,22.0,,45125.4,22.16,-0.87,0.27,-0.43,2.7,4.3,1.2,35.31,,,,,,,,,,
15.29.25.729,49.0,12.2,0,22.0,,45566.6,21.95,-0.87,0.27,-0.43,3.4,4.3,1.8,35.31,,,,,,,,,,
15.29.25.742,141.3,35.3,0,22.0,,43466.1,23.01,-0.87,0.27,-0.43,3.5,4.6,1.3,35.31,,,,,,,,,,
15.29.25.754,68.6,17.2,0,22.0,,49124.2,20.36,-0.87,0.27,-0.44,3.6,5.1,2.1,35.31,,,,,,,,,,
15.29.25.762,42.1,10.5,0,22.0,,46395.5,21.55,-0.86,0.28,-0.44,3.1,5.4,1.8,35.31,,,,,,,,,,
15.29.25.774,73.2,18.3,0,22.0,,43781.8,22.84,-0.86,0.27,-0.43,2.8,5.6,1.9,35.31,,,,,,,,,,
15.29.25.787,44.1,11.0,0,22.0,,41972.3,23.83,-0.86,0.27,-0.43,1.8,5.3,2.0,35.31,,,,,,,,,,
15.29.25.799,-22.8,5.7,0,22.0,,41134.8,24.31,-0.86,0.26,-0.44,1.5,5.3,2.5,35.31,,,,,,,,,,
15.29.25.807,-1.5,0.4,0,22.0,,41980.5,23.82,-0.86,0.26,-0.43,2.6,5.3,2.8,35.31,,,,,,,,,,
15.29.25.820,-9.1,2.3,0,22.0,,43113.0,23.19,-0.86,0.26,-0.44,4.1,5.6,3.0,35.31,,,,,,,,,,
15.29.40.698,-50.0,12.5,0,22.0,,41489.8,24.1,-0.89,0.26,-0.41,-19.2,11.8,-12.3,35.31,117.1,,,,,,,,,
15.29.40.701,-10.8,2.7,0,22.0,,39811.1,25.12,-0.89,0.26,-0.41,-19.2,11.8,-12.3,35.31,,,,,,,,,,
15.29.40.704,20.1,5.0,0,22.0,,47482.1,21.06,-0.88,0.26,-0.4,-21.2,11.5,-12.7,35.31,,,,,,,,,,
15.29.40.711,6.7,1.7,0,22.0,,42770.8,23.38,-0.88,0.25,-0.41,-21.1,11.9,-12.6,35.31,,,,,,,,,,
15.29.40.723,-21.5,5.4,0,22.0,,46093.0,21.7,-0.89,0.25,-0.41,-21.1,11.1,-13.0,35.31,,,,,,,,,,
15.29.40.732,-90.3,22.6,0,22.0,,42691.5,23.42,-0.88,0.26,-0.4,-21.6,10.8,-12.8,35.31,,,,,,,,,,
15.29.40.744,-41.7,10.4,0,22.0,,38961.0,25.67,-0.88,0.25,-0.4,-21.6,10.3,-12.4,35.31,,,,,,,,,,
15.29.40.756,-38.1,9.5,0,22.0,,38645.7,25.88,-0.88,0.26,-0.41,-21.4,10.8,-12.5,35.31,,,,,,,,,,
15.29.40.768,-100.1,25.0,0,22.0,,40544.6,24.66,-0.87,0.27,-0.41,-21.9,11.4,-12.7,35.31,,,,,,,,,,
15.29.40.780,-110.9,27.7,0,22.0,,45712.7,21.88,-0.87,0.27,-0.4,-21.8,11.8,-12.9,35.31,,,,,,,,,,
15.29.40.789,-69.1,17.3,0,22.0,,43823.0,22.82,-0.87,0.26,-0.4,-21.9,11.9,-13.3,35.31,,,,,,,,,,
15.29.40.801,-50.6,12.6,0,22.0,,46538.8,21.49,-0.86,0.26,-0.41,,11.2,-12.3,35.31,,,,,,,,,,
15.29.55.698,-181.0,,0,22.0,,42845.2,23.34,,,,,,,35.25,117.9,,,,,,,,,
15.29.55.698,,,0,22.0,,41602.2,24.04,,,,,,,,,,,,,,,,,
15.29.55.698,-120.2,30.0,0,22.0,,45600.8,21.93,-0.92,0.24,-0.21,39.8,-0.5,10.0,35.25,,,,,,,,,,
15.29.55.699,,,0,22.0,,45142.0,22.15,,,,,,,,,,,,,,,,,
15.29.55.699,-79.1,19.8,0,22.0,,43989.5,22.73,-0.92,0.24,-0.21,39.8,-0.5,10.0,35.25,,,,,,,,,,
15.29.55.700,,,0,22.0,,45480.5,21.99,,,,,,,,,,,,,,,,,
15.29.55.700,-98.1,24.5,0,22.0,,39799.3,25.13,-0.92,0.24,-0.21,39.8,-0.5,10.0,35.25,,,,,,,,,,
15.29.55.713,-139.0,34.8,0,22.0,,42436.1,23.56,-0.92,0.26,-0.21,39.9,0.8,8.8,35.25,,,,,,,,,,
15.29.55.721,-81.7,20.4,0,22.0,,46140.6,21.67,-0.95,0.36,-0.18,33.6,3.7,2.2,35.25,,,,,,,,,,
15.29.55.733,-230.7,57.7,0,22.0,,43143.8,23.18,-0.96,0.38,-0.18,24.9,3.6,-0.3,35.25,,,,,,,,,,
15.29.55.741,-76.2,19.0,0,22.0,,46510.1,21.5,-0.95,0.39,-0.17,15.8,2.6,-2.1,35.25,,,,,,,,,,
15.29.55.754,-147.9,37.0,0,22.0,,45649.0,21.91,-0.95,0.39,-0.18,7.0,0.6,-2.3,35.25,,,,,,,,,,
15.29.55.762,-191.7,47.9,0,22.0,,46828.6,21.35,-0.93,0.37,-0.19,-0.8,-1.1,-2.8,35.25,,,,,,,,,,
15.29.55.774,-196.9,49.2,0,22.0,,48103.4,20.79,-0.91,0.35,-0.2,-6.8,-2.3,-2.0,35.25,,,,,,,,,,
15.29.55.786,-204.7,51.2,0,22.0,,41042.5,24.36,-0.89,0.32,-0.22,-9.9,-1.4,-1.1,35.25,,,,,,,,,,
15.29.55.795,41.0,10.2,1,23.0,119.6,51110.5,19.57,-0.89,0.29,-0.23,-9.2,0.1,1.1,35.25,,,,,,,,,,
15.29.55.807,157.5,39.4,0,23.0,,43401.3,23.04,-0.9,0.25,-0.25,-5.3,1.5,2.7,35.25,,,,,,,,,,
15.29.55.815,183.9,46.0,0,23.0,,44192.9,22.63,-0.91,0.24,-0.26,1.2,3.7,5.0,35.25,,,,,,,,,,
15.30.00.699,291.5,72.9,0,23.0,,46506.7,21.5,-0.98,0.09,-0.21,8.5,1.7,-6.5,35.25,120.2,,,98.0,,,,,,
15.30.00.711,335.1,83.8,0,23.0,,43292.3,23.1,-0.98,0.1,-0.21,7.0,1.1,-4.4,35.25,,,,,,,,,,
15.30.00.719,410.7,102.7,0,23.0,,43915.1,22.77,-0.98,0.1,-0.21,5.2,1.4,-3.6,35.25,,,,,,,,,,
15.30.00.732,432.3,108.1,0,23.0,,46488.9,21.51,-0.98,0.1,-0.2,5.2,2.3,-3.1,35.25,,,,,,,,,,
15.30.00.739,459.9,115.0,0,23.0,,37307.8,26.8,-0.99,0.09,-0.19,5.9,4.4,-4.3,35.25,,,,,,,,,,
15.30.00.751,423.2,105.8,0,23.0,,45417.9,22.02,-0.99,0.1,-0.19,5.8,7.1,-5.0,35.25,,,,,,,,,,
15.30.00.764,479.5,119.9,0,23.0,,42185.6,23.7,-0.99,0.09,-0.17,4.8,9.1,-5.5,35.25,,,,,,,,,,
15.30.00.772,450.4,112.6,0,23.0,,43554.1,22.96,-0.99,0.11,-0.17,2.6,10.8,-4.1,35.25,,,,,,,,,,
15.30.00.784,389.5,97.4,0,23.0,,45423.7,22.01,-0.99,0.11,-0.16,-1.5,11.2,-1.9,35.25,,,,,,,,,,
15.30.00.793,434.5,108.6,0,23.0,,38062.1,26.27,-1.0,0.11,-0.15,-4.3,9.6,-1.0,35.25,,,,,,,,,,
15.30.00.805,396.9,99.2,0,23.0,,36257.8,27.58,-1.01,0.11,-0.14,-7.6,12.2,-2.2,35.25,,,,,,,,,,
15.30.00.813,241.3,60.3,0,23.0,,48179.1,20.76,-1.02,0.09,-0.14,-6.6,9.8,-1.3,35.25,,,,,,,,,,
15.30.15.700,259.1,64.8,0,23.0,,33991.2,29.42,,0.27,-0.14,-151.1,29.2,,34.63,133.1,,,,,,,,,
15.30.15.702,196.7,49.2,0,23.0,,26637.7,37.54,-1.17,0.27,-0.14,-151.1,29.2,-21.3,34.63,,,,,,,,,,
15.30.15.704,193.5,48.4,0,23.0,,39107.2,25.57,-1.07,0.18,-0.17,-119.7,-3.1,-9.0,34.63,,,,,,,,,,
15.30.15.717,115.8,29.0,0,23.0,,31759.4,31.49,-0.93,-0.06,-0.07,-105.3,13.8,-13.5,34.63,,,,,,,,,,
15.30.15.729,4.1,1.0,0,23.0,,32538.7,30.73,-0.76,-0.09,0.0,-69.3,22.7,-13.3,34.63,,,,,,,,,,
15.30.15.737,16.6,4.2,0,23.0,,34696.6,28.82,-0.53,-0.09,0.06,-31.0,32.7,-5.1,34.63,,,,,,,,,,
15.30.15.749,54.5,13.6,0,23.0,,32864.9,30.43,-0.34,-0.03,0.02,-3.2,38.1,2.4,34.63,,,,,,,,,,
15.30.15.758,48.0,12.0,0,23.0,,25861.9,38.67,-0.27,-0.05,-0.03,16.8,33.2,22.8,34.63,,,,,,,,,,
15.30.15.770,40.2,10.0,0,23.0,,24967.8,40.05,-0.29,-0.08,-0.09,6.4,20.5,41.1,34.63,,,,,,,,,,
15.30.15.778,96.8,24.2,0,23.0,,40492.8,24.7,-0.3,-0.18,-0.2,11.7,14.0,56.5,34.63,,,,,,,,,,
15.30.15.815,47.0,11.8,0,23.0,,35068.3,28.52,-0.44,-0.23,-0.12,16.4,2.0,55.0,34.63,,,,,,,,,,
15.30.15.827,-23.1,5.8,0,23.0,,32919.2,30.38,-0.5,-0.26,0.19,69.2,17.8,20.8,34.63,,,,,,,,,,
15.30.15.836,-59.6,14.9,0,23.0,,29282.9,34.15,,,,,,,,,,,,,,,,,
15.30.16.231,107.6,26.9,1,24.0,133.8,31794.1,31.45,-0.36,1.06,-0.06,-51.9,66.0,18.4,34.63,,,,,,,,,,
15.30.16.233,,18.8,0,24.0,,27601.6,36.23,-0.36,1.06,-0.06,-51.9,66.0,18.4,34.63,,,,,,,,,,
15.30.16.234,76.7,19.2,0,24.0,,34079.3,29.34,-0.62,1.02,-0.11,-69.2,82.0,30.4,34.63,,,,,,,,,,
15.30.16.245,47.9,12.0,0,24.0,,28562.2,35.01,-0.99,1.09,-0.11,-77.9,120.1,31.3,34.63,,,,,,,,,,
15.30.16.257,59.2,14.8,0,24.0,,29634.1,33.74,-1.59,1.31,0.25,-64.3,83.4,27.2,34.63,,,,,,,,,,
15.30.16.266,-6.4,1.6,0,24.0,,36528.0,27.38,-1.84,1.31,0.41,-55.6,42.8,-7.0,34.63,,,,,,,,,,
15.30.16.278,60.7,15.2,0,24.0,,30239.7,33.07,-2.0,1.12,0.17,-86.9,66.2,-62.3,34.63,,,,,,,,,,
15.30.16.286,-54.2,13.6,0,24.0,,32307.1,30.95,-1.7,0.97,-0.3,-126.8,40.7,-63.2,34.63,,,,,,,,,,
15.30.16.298,-1.2,0.3,0,24.0,,29441.0,33.97,-1.76,0.96,-0.23,-128.6,40.8,-86.0,34.63,,,,,,,,,,
15.30.16.310,-14.2,3.6,0,24.0,,30716.3,32.56,-1.59,0.89,-0.24,-117.5,41.3,-76.2,34.63,,,,,,,,,,
15.30.16.319,-51.5,12.9,0,24.0,,28567.5,35.0,-1.81,0.89,-0.14,-101.3,33.5,-78.2,34.63,,,,,,,,,,
15.30.16.331,-76.9,19.2,0,24.0,,39058.4,25.6,-1.77,0.89,0.04,-89.2,25.0,-81.0,34.63,,,,,,,,,,
15.30.16.343,-21.1,5.3,0,24.0,,28196.5,35.47,-1.68,0.73,0.01,-79.8,3.1,-80.3,34.63,,,,,,,,,,
15.30.16.356,-80.0,20.0,0,24.0,,32931.2,30.37,-1.47,0.53,-0.05,-84.5,0.5,-93.7,34.63,,,,,,,,,,
15.30.16.364,-76.1,19.0,0,24.0,,33595.1,29.77,-1.38,0.51,-0.1,-88.0,1.1,-101.6,34.63,,,,,,,,,,
15.30.16.376,-69.1,17.3,0,24.0,,32644.8,30.63,-1.01,0.44,-0.24,-93.6,2.3,-110.6,34.63,,,,,,,,,,
15.30.16.384,-80.5,20.1,0,24.0,,31074.3,32.18,-1.14,0.41,-0.21,-75.4,6.5,-121.2,34.63,,,,,,,,,,
15.30.16.397,-173.0,43.2,0,24.0,,31699.8,31.55,-0.68,0.24,-0.15,-65.7,-6.1,-130.9,34.63,,,,,,,,,,
15.30.16.409,-194.8,48.7,0,24.0,,33582.3,29.78,-0.57,0.15,-0.16,-35.6,-29.5,-107.2,34.63,,,,,,,,,,
15.30.16.417,-192.5,48.1,0,24.0,,26873.0,37.21,-0.63,0.03,-0.1,-34.0,-20.7,-94.2,34.63,,,,,,,,,,
15.30.16.429,-133.6,33.4,0,24.0,,26910.9,37.16,-0.61,-0.01,0.0,-3.4,-20.9,-79.4,34.63,,,,,,,,,,
15.30.16.437,-146.0,36.5,0,24.0,,29525.7,33.87,-0.25,-0.07,0.03,16.5,-15.4,-78.8,34.63,,,,,,,,,,
15.30.16.450,-145.6,36.4,0,24.0,,30245.3,33.06,-0.1,-0.05,,,69.0,-104.9,34.56,,,,,,,,,,
15.30.17.003,487.3,121.8,1,25.0,135.0,29250.0,34.19,-1.25,0.88,-0.86,-43.7,69.0,-104.9,34.56,,,,,,,,,,
15.30.17.004,425.1,106.3,0,25.0,,30939.7,32.32,-1.25,0.88,-0.86,-69.2,64.5,-102.0,34.56,,,,,,,,,,
15.30.17.011,420.6,105.2,0,25.0,,30083.2,33.24,-1.31,0.94,-0.87,-80.2,71.3,-97.7,34.56,,,,,,,,,,
15.30.17.019,437.7,109.4,0,25.0,,29995.8,33.34,-1.5,1.0,-0.76,-96.6,60.2,-86.1,34.56,,,,,,,,,,
15.30.17.031,319.0,79.8,0,25.0,,28886.8,34.62,-1.39,0.72,-0.76,-100.2,27.5,-88.1,34.56,,,,,,,,,,
15.30.17.040,288.1,72.0,0,25.0,,31542.4,31.7,-1.2,0.56,-0.71,-106.2,4.3,-87.1,34.56,,,,,,,,,,
15.30.17.056,94.3,23.6,0,25.0,,31220.4,32.03,-1.11,0.33,-0.59,-79.3,-6.0,-96.1,34.56,,,,,,,,,,
15.30.17.064,107.7,26.9,0,25.0,,33641.2,29.73,-0.99,0.29,-0.47,-51.1,-10.1,-103.1,34.56,,,,,,,,,,
15.30.17.076,25.7,6.4,0,25.0,,28683.4,34.86,-0.94,0.31,-0.38,-25.1,-0.9,-103.6,34.56,,,,,,,,,,
15.30.17.089,23.2,5.8,0,25.0,,30309.8,32.99,-0.85,0.27,-0.31,-4.3,1.0,-100.6,34.56,,,,,,,,,,
15.30.17.098,71.5,17.9,0,25.0,,25715.3,38.89,-0.68,0.24,-0.25,10.2,1.0,-89.7,34.56,,,,,,,,,,
15.30.17.109,134.9,33.7,0,25.0,,34730.6,28.79,-0.63,0.16,-0.18,8.6,-7.2,-76.0,34.56,,,,,,,,,,
15.30.17.117,106.7,26.7,0,25.0,,33283.6,30.04,-0.49,0.1,-0.09,24.6,-15.3,-66.9,34.56,,,,,,,,,,
15.30.17.130,123.4,30.8,0,25.0,,35824.5,27.91,-0.37,0.25,-0.03,21.7,-9.0,-49.2,34.56,,,,,,,,,,
15.30.17.138,86.8,21.7,0,25.0,,33281.5,30.05,-0.37,0.3,0.01,43.7,-21.7,-51.9,34.56,,,,,,,,,,
15.30.17.150,48.0,12.0,0,25.0,,31887.0,31.36,-0.19,0.29,0.04,28.9,-20.5,-40.9,34.56,,,,,,,,,,
15.30.17.163,-35.5,8.9,0,25.0,,31903.3,31.34,-0.32,0.12,0.02,26.4,-18.7,-40.0,34.56,,,,,,,,,,
15.30.17.171,-38.4,9.6,0,25.0,,33679.4,29.69,-0.27,0.02,-0.01,25.9,-0.4,-27.7,34.56,,,,,,,,,,
15.30.17.183,-51.2,12.8,0,25.0,,29249.1,34.19,-0.38,-0.08,-0.01,34.1,-0.9,-21.7,34.56,,,,,,,,,,
15.30.17.191,-17.8,4.4,0,25.0,,32497.2,30.77,-0.47,-0.24,0.01,55.5,-3.1,-26.0,34.56,,,,,,,,,,
15.30.17.203,-2.2,0.6,0,25.0,,34163.0,29.27,-0.38,-0.2,-0.04,78.7,12.5,-20.6,34.56,,,,,,,,,,
15.30.17.216,-19.9,5.0,0,25.0,,29793.3,33.56,-0.62,-0.08,-0.05,98.0,7.2,-16.9,34.56,,,,,,,,,,
15.30.17.224,-74.9,18.7,0,25.0,,29857.5,33.49,-0.79,0.34,-0.07,100.7,22.2,-7.3,34.56,,,,,,,,,,
15.30.17.236,-85.0,21.2,0,25.0,,23945.8,41.76,-0.95,0.69,-0.11,42.7,30.4,13.0,34.56,,,,,,,,,,
15.30.17.244,-134.8,33.7,0,25.0,,32439.9,30.83,-1.1,0.75,-0.26,-0.9,31.5,31.8,34.56,,,,,,,,,,
15.30.17.257,-96.9,24.2,0,25.0,,35799.9,27.93,-1.35,0.44,-0.55,-32.9,37.0,54.6,34.56,,,,,,,,,,
15.30.17.265,-92.8,23.2,0,25.0,,31452.4,31.79,-1.59,0.19,-0.52,-43.5,56.3,68.2,34.56,,,,,,,,,,
15.30.17.277,-164.3,41.1,0,25.0,,30667.0,32.61,-1.64,0.26,-0.59,-44.1,39.5,83.4,34.56,,,,,,,,,,
15.30.17.289,-85.0,21.2,0,25.0,,27569.9,36.27,-1.94,0.27,-0.83,-32.0,18.3,81.8,34.56,,,,,,,,,,
15.30.17.298,-206.3,51.6,0,25.0,,34596.1,28.91,-1.71,0.35,-0.9,-15.4,-13.2,96.4,34.56,,,,,,,,,,
15.30.17.310,-239.6,59.9,0,25.0,,34237.9,29.21,-1.52,0.59,-0.81,14.2,-17.3,97.7,34.56,,,,,,,,,,
15.30.17.318,-227.0,56.8,0,25.0,,35028.7,28.55,-1.61,0.65,-0.78,22.9,-15.0,97.9,34.56,,,,,,,,,,
15.30.17.330,-145.2,36.3,0,25.0,,34364.2,29.1,-1.37,0.66,-0.61,22.8,6.8,102.2,34.56,,,,,,,,,,
15.30.17.344,-174.7,43.7,0,25.0,,33483.3,29.87,-1.42,0.52,-0.54,31.2,11.2,95.2,34.56,,,,,,,,,,
15.30.17.351,-195.2,48.8,0,25.0,,27496.7,36.37,-1.24,0.56,-0.58,34.7,37.9,82.1,34.56,,,,,,,,,,
15.30.17.363,98.4,24.6,1,26.0,140.6,26532.6,37.69,-1.1,0.47,-0.61,65.6,22.6,95.6,34.56,,,,,,,,,,
15.30.17.371,163.9,41.0,0,26.0,,31376.4,31.87,-0.99,0.55,-0.62,76.1,5.8,86.3,34.56,,,,,,,,,,
15.30.17.384,148.3,37.1,0,26.0,,31479.9,31.77,-0.94,0.54,-0.68,67.1,-8.2,76.5,34.56,,,,,,,,,,
15.30.17.392,297.6,74.4,0,26.0,,24130.0,41.44,-0.94,0.56,-0.63,65.0,-23.4,74.9,34.56,,,,,,,,,,
15.30.17.433,448.7,112.2,0,26.0,,33147.4,30.17,-0.78,0.56,-0.61,60.1,-37.3,75.9,34.56,,,,,,,,,,
15.30.17.441,548.6,137.2,0,26.0,,36098.8,27.7,-0.19,0.29,-0.29,101.1,-53.4,43.2,34.56,,,,,,,,,,
15.30.17.453,469.8,117.4,0,26.0,,34507.5,28.98,0.07,0.51,-0.28,99.5,-29.1,41.0,34.56,,,,,,,,,,
15.30.17.462,422.1,105.5,0,26.0,,32691.9,30.59,-0.11,0.57,-0.2,85.3,-26.5,38.0,34.56,,,,,,,,,,
15.30.17.474,372.6,93.2,0,26.0,,28662.3,34.89,0.09,0.47,-0.19,73.1,-17.8,29.5,34.56,,,,,,,,,,
15.30.17.486,239.8,60.0,0,26.0,,27649.7,36.17,0.17,0.36,-0.18,49.2,-14.4,31.0,34.56,,,,,,,,,,
15.30.17.494,219.3,54.8,0,26.0,,30632.8,32.64,0.21,0.21,-0.28,52.3,-6.7,22.6,34.56,,,,,,,,,,
15.30.17.507,98.5,24.6,0,26.0,,35192.5,28.42,0.28,0.27,-0.38,57.0,7.2,24.9,34.56,,,,,,,,,,
15.30.17.515,-4.7,1.2,0,26.0,,34128.2,29.3,0.05,0.17,-0.35,58.7,18.0,28.6,34.56,,,,,,,,,,
15.30.17.527,27.4,6.8,0,26.0,,25193.2,39.69,-0.06,0.17,-0.35,59.2,23.7,20.0,34.56,,,,,,,,,,
15.30.17.539,47.6,11.9,0,26.0,,28389.8,35.22,-0.12,0.37,-0.38,54.9,22.9,9.5,34.56,,,,,,,,,,
15.30.17.548,81.2,20.3,0,26.0,,23036.3,43.41,-0.17,0.51,-0.3,40.9,21.5,1.0,34.56,,,,,,,,,,
15.30.17.560,91.5,22.9,0,26.0,,27065.8,36.95,-0.11,0.65,-0.33,12.4,23.9,0.5,34.56,,,,,,,,,,
15.30.17.568,58.4,14.6,0,26.0,,29720.9,33.65,-0.07,0.58,-0.49,-7.0,34.4,-0.4,34.56,,,,,,,,,,
15.30.17.580,82.4,20.6,0,26.0,,27696.8,36.11,-0.03,0.55,-0.62,-14.8,47.1,2.1,34.56,,,,,,,,,,
15.30.17.589,73.6,18.4,0,26.0,,32144.4,31.11,-0.01,0.42,-0.71,-12.4,58.0,0.8,34.56,,,,,,,,,,
15.30.17.601,42.9,10.7,0,26.0,,32099.1,31.15,-0.03,0.44,-0.82,5.2,76.8,-10.7,34.56,,,,,,,,,,
15.30.17.613,-22.4,5.6,0,26.0,,31795.1,31.45,-0.16,0.57,-0.85,18.1,106.4,-27.5,34.56,,,,,,,,,,
15.30.17.621,1.8,0.4,0,26.0,,35540.3,28.14,-0.49,0.64,-0.96,28.2,131.1,-41.3,34.56,,,,,,,,,,
15.30.17.634,78.2,19.6,0,26.0,,32012.4,31.24,-0.97,0.9,-1.09,10.9,171.3,-41.9,34.56,,,,,,,,,,
15.30.17.646,-26.4,6.6,0,26.0,,30430.8,32.86,-1.41,1.19,-0.98,-31.2,168.2,-49.8,34.56,,,,,,,,,,
15.30.17.654,-76.0,19.0,0,26.0,,30336.6,32.96,-1.46,1.1,-1.03,-107.2,115.1,-60.9,34.56,,,,,,,,,,
15.30.17.666,-39.3,9.8,0,26.0,,32677.4,30.6,-1.78,0.92,-1.01,-133.3,44.8,-71.8,34.56,,,,,,,,,,
15.30.17.679,-70.3,17.6,0,26.0,,32118.3,31.13,-1.41,0.51,-1.22,-111.7,-2.9,-95.9,34.56,,,,,,,,,,
15.30.17.687,-111.0,27.8,0,26.0,,34165.2,29.27,-1.39,0.58,-1.16,-108.2,-17.7,-106.0,34.56,,,,,,,,,,
15.30.17.699,-155.1,38.8,0,26.0,,24683.9,40.51,-1.36,0.62,-1.11,-101.3,-6.9,-114.0,34.56,,,,,,,,,,
15.30.17.711,-133.6,33.4,0,26.0,,35112.2,28.48,-1.49,0.71,-0.86,-107.4,10.4,-119.2,34.56,,,,,,,,,,
15.30.17.724,-164.2,41.0,0,26.0,,26425.6,37.84,-1.44,0.66,-0.7,-112.7,-4.8,-120.5,34.56,,,,,,,,,,
15.30.17.736,-143.1,35.8,0,26.0,,32003.1,31.25,-1.36,0.55,-0.71,-108.6,-19.5,-124.1,34.56,,,,,,,,,,
15.30.17.744,-151.4,37.8,0,26.0,,33151.3,30.16,-1.27,0.43,-0.65,-99.8,-39.0,-120.6,34.56,,,,,,,,,,
15.30.17.756,-99.8,25.0,0,26.0,,32280.0,30.98,-1.1,0.38,-0.65,-94.5,-51.6,-117.2,34.56,,,,,,,,,,
15.30.17.765,-101.6,25.4,0,26.0,,31326.4,31.92,-0.98,0.12,-0.48,-84.3,-63.0,-117.2,34.56,,,,,,,,,,
15.30.17.777,-228.7,57.2,0,26.0,,31752.5,31.49,-0.81,-0.07,-0.33,-53.8,-70.6,-122.8,34.56,,,,,,,,,,
15.30.17.789,-150.8,37.7,0,26.0,,28232.8,35.42,-0.69,-0.18,-0.23,-16.1,-59.4,-129.6,34.56,,,,,,,,,,
15.30.17.797,-220.1,55.0,0,26.0,,31253.1,32.0,-0.53,-0.01,-0.14,12.2,-33.8,-129.3,34.56,,,,,,,,,,
15.30.17.810,35.9,9.0,1,27.0,136.1,32436.6,30.83,-0.59,0.07,0.02,22.8,-17.6,-113.0,34.56,,,,,,,,,,
15.30.17.822,137.6,34.4,0,27.0,,32853.9,30.44,-0.21,0.19,0.06,-9.9,-7.9,-94.3,34.56,,,,,,,,,,
15.30.17.830,276.9,69.2,0,27.0,,31347.6,31.9,-0.23,0.02,0.07,-18.8,-8.2,-78.7,34.56,,,,,,,,,,
15.30.17.843,351.7,87.9,0,27.0,,33672.4,29.7,-0.06,-0.13,-0.04,-20.2,-8.1,-72.8,34.56,,,,,,,,,,
15.30.17.855,486.4,121.6,0,27.0,,33983.6,29.43,-0.14,-0.15,0.02,-12.9,-10.7,-54.1,34.56,,,,,,,,,,
15.30.17.863,413.3,103.3,0,27.0,,32559.1,30.71,-0.3,-0.21,0.01,-3.6,-19.2,-41.3,34.56,,,,,,,,,,
15.30.17.875,530.6,132.6,0,27.0,,31873.4,31.37,-0.48,-0.15,0.03,-1.6,-23.7,-35.5,34.56,,,,,,,,,,
15.30.17.883,472.1,118.0,0,27.0,,26627.3,37.56,-0.68,-0.07,-0.08,-6.7,-25.3,-28.5,34.56,,,,,,,,,,
15.30.17.896,469.1,117.3,0,27.0,,26981.5,37.06,-0.83,-0.09,-0.01,-11.9,-28.0,-21.4,34.56,,,,,,,,,,
15.30.17.908,447.8,112.0,0,27.0,,34970.2,28.6,-0.76,0.14,-0.07,-20.9,-28.3,-7.5,34.56,,,,,,,,,,
15.30.17.916,407.9,102.0,0,27.0,,30889.6,32.37,-0.57,0.05,-0.25,-20.4,-10.3,-0.7,34.56,,,,,,,,,,
15.30.17.929,312.5,78.1,0,27.0,,33428.3,29.91,-0.52,0.0,-0.32,-9.1,4.2,15.8,34.56,,,,,,,,,,
15.30.17.941,213.8,53.4,0,27.0,,35679.7,28.03,-0.51,0.08,-0.29,16.8,29.3,29.3,34.56,,,,,,,,,,
15.30.17.949,151.1,37.8,0,27.0,,30192.1,33.12,-0.59,0.2,-0.28,29.5,50.7,50.3,34.56,,,,,,,,,,
15.30.17.961,-1.2,0.3,0,27.0,,34508.2,28.98,-0.91,0.23,-0.44,54.0,67.6,69.9,34.56,,,,,,,,,,
15.30.17.970,45.7,11.4,0,27.0,,29677.6,33.7,-1.3,0.23,-0.56,60.4,89.8,83.6,34.56,,,,,,,,,,
15.30.17.982,75.3,18.8,0,27.0,,26520.8,37.71,-2.0,0.47,-0.27,74.7,39.8,98.0,34.56,,,,,,,,,,
15.30.17.990,95.0,23.8,0,27.0,,32356.9,30.91,-1.59,0.32,-0.6,87.4,0.6,99.5,34.56,,,,,,,,,,
15.30.18.002,97.9,24.5,0,27.0,,34460.9,29.02,-1.61,0.79,-0.7,76.1,16.2,75.6,34.56,,,,,,,,,,
15.30.18.015,38.9,9.7,0,27.0,,34924.9,28.63,-1.34,0.64,-0.76,100.8,-33.3,91.7,34.56,,,,,,,,,,
15.30.18.023,130.8,32.7,0,27.0,,31058.0,32.2,-1.36,0.89,-0.7,74.5,-18.7,84.4,34.56,,,,,,,,,,
15.30.18.035,36.7,9.2,0,27.0,,29259.4,34.18,-1.25,0.88,-0.67,45.9,-1.2,69.3,34.56,,,,,,,,,,
15.30.18.043,71.2,17.8,0,27.0,,27628.9,36.19,-1.31,1.02,-0.67,13.5,16.4,54.5,34.56,,,,,,,,,,
15.30.18.056,-11.3,2.8,0,27.0,,27737.9,36.05,-1.34,0.93,-0.65,-15.2,26.9,57.5,34.56,,,,,,,,,,
15.30.18.068,-0.9,0.2,0,27.0,,31465.8,31.78,-1.24,0.84,-0.6,-9.8,2.1,54.8,34.56,,,,,,,,,,
15.30.18.076,-41.0,10.2,0,27.0,,39546.4,25.29,-1.05,0.67,-0.7,-8.2,-19.8,41.7,34.56,,,,,,,,,,
15.30.18.088,-14.8,3.7,0,27.0,,32064.2,31.19,-0.9,0.54,-0.74,-1.8,-36.6,35.9,34.56,,,,,,,,,,
15.30.18.096,-58.4,14.6,0,27.0,,31596.3,31.65,-0.88,0.41,-0.7,13.3,-53.7,42.2,34.56,,,,,,,,,,
15.30.18.113,-60.7,15.2,0,27.0,,32238.1,31.02,-0.69,0.44,-0.61,47.9,-54.1,57.2,34.56,,,,,,,,,,
15.30.18.121,-39.7,9.9,0,27.0,,29883.0,33.46,-0.58,0.46,-0.48,52.4,-48.2,56.5,34.56,,,,,,,,,,
15.30.18.133,-65.2,16.3,0,27.0,,32979.4,30.32,-0.47,0.44,-0.45,64.3,-41.3,45.5,34.56,,,,,,,,,,
15.30.18.142,-43.9,11.0,0,27.0,,29626.3,33.75,-0.32,0.55,-0.35,58.6,-30.2,35.6,34.56,,,,,,,,,,
15.30.18.154,-104.2,26.0,0,27.0,,35157.2,28.44,-0.26,0.45,-0.24,71.1,-29.1,26.6,34.56,,,,,,,,,,
15.30.18.162,-146.4,36.6,0,27.0,,28722.7,34.82,-0.07,0.42,-0.22,68.3,-31.0,25.6,34.56,,,,,,,,,,
15.30.18.174,-65.2,16.3,0,27.0,,29061.5,34.41,0.05,0.39,-0.28,67.2,-30.0,17.3,34.56,,,,,,,,,,
15.30.18.187,-119.4,29.8,0,27.0,,31320.8,31.93,0.08,0.51,-0.32,59.6,-13.8,16.5,34.56,,,,,,,,,,
15.30.18.198,-117.0,29.2,0,27.0,,30034.2,33.3,-0.07,0.63,-0.3,40.3,0.1,21.0,34.56,,,,,,,,,,
15.30.18.231,-175.1,43.8,0,27.0,,33165.3,30.15,-0.07,0.64,-0.28,21.2,7.3,32.1,34.5,,,,,,,,,,
15.30.18.244,-184.9,46.2,0,27.0,,32571.0,30.7,-0.05,0.47,-0.46,-0.2,13.0,1.3,34.5,,,,,,,,,,
15.30.18.252,0.5,0.1,1,28.0,132.2,30747.7,32.52,-0.07,0.47,-0.58,-20.9,21.3,-5.8,34.5,,,,,,,,,,
15.30.18.264,174.0,43.5,0,28.0,,30825.5,32.44,-0.14,0.56,-0.57,-50.4,36.4,-8.3,34.5,,,,,,,,,,
15.30.18.277,290.3,72.6,0,28.0,,30083.0,33.24,-0.09,0.69,-0.63,-106.0,42.1,-2.5,34.5,,,,,,,,,,
15.30.18.285,327.7,81.9,0,28.0,,30604.7,32.67,-0.27,0.24,-0.67,-110.8,56.4,-19.5,34.5,,,,,,,,,,
15.30.18.297,347.8,87.0,0,28.0,,24686.8,40.51,-0.43,0.58,-0.5,-82.1,85.0,-27.2,34.5,,,,,,,,,,
15.30.18.305,496.6,124.2,0,28.0,,24883.5,40.19,-0.93,0.55,-0.77,-105.5,90.5,-9.5,34.5,,,,,,,,,,
15.30.18.318,491.6,122.9,0,28.0,,24106.1,41.48,-1.13,0.66,-0.8,-86.0,109.1,-40.1,34.5,,,,,,,,,,
15.30.18.330,505.6,126.4,0,28.0,,31475.1,31.77,-1.48,0.96,-0.72,-131.4,90.4,-51.6,34.5,,,,,,,,,,
15.30.18.338,382.1,95.5,0,28.0,,32898.7,30.4,-1.79,0.9,-0.77,-150.8,40.4,-64.7,34.5,,,,,,,,,,
15.30.18.350,423.6,105.9,0,28.0,,27545.8,36.3,-1.67,0.75,-0.8,-165.7,3.0,-76.5,34.5,,,,,,,,,,
15.30.18.363,409.3,102.3,0,28.0,,31351.3,31.9,-1.5,0.53,-0.92,-165.2,-29.9,-97.2,34.5,,,,,,,,,,
15.30.18.371,327.0,81.8,0,28.0,,34952.7,28.61,-1.71,0.35,-0.78,-139.1,-87.5,-122.5,34.5,,,,,,,,,,
15.30.18.383,218.9,54.7,0,28.0,,32388.8,30.87,-1.15,0.48,-0.8,-120.8,-1.7,-116.4,34.5,,,,,,,,,,
15.30.18.396,142.5,35.6,0,28.0,,28302.0,35.33,-1.63,0.71,-0.84,-103.3,23.5,-111.6,34.5,,,,,,,,,,
15.30.18.404,26.5,6.6,0,28.0,,25162.2,39.74,-1.65,0.56,-0.77,-91.9,24.5,-112.0,34.5,,,,,,,,,,
15.30.18.416,28.8,7.2,0,28.0,,30603.2,32.68,-1.44,0.44,-0.63,-92.1,-2.3,-132.1,34.5,,,,,,,,,,
15.30.18.428,55.0,13.8,0,28.0,,31321.2,31.93,-1.29,0.35,-0.62,-81.3,-18.3,-137.0,34.5,,,,,,,,,,
15.30.18.437,44.9,11.2,0,28.0,,29825.4,33.53,-1.19,0.45,-0.53,-91.3,-33.6,-135.5,34.5,,,,,,,,,,
15.30.18.449,58.3,14.6,0,28.0,,27307.4,36.62,-1.06,0.32,-0.48,-112.5,-53.7,-133.4,34.5,,,,,,,,,,
15.30.18.457,162.0,40.5,0,28.0,,33659.1,29.71,-0.94,0.21,-0.42,-123.5,-66.3,-127.2,34.5,,,,,,,,,,
15.30.18.469,92.5,23.1,0,28.0,,33838.3,29.55,-0.84,-0.03,-0.3,-109.9,-71.3,-118.4,34.5,,,,,,,,,,
15.30.18.482,18.7,4.7,0,28.0,,31893.2,31.35,-0.79,-0.2,-0.17,-73.0,-76.2,-116.4,34.5,,,,,,,,,,
15.30.18.494,-58.9,14.7,0,28.0,,25257.3,39.59,-0.7,-0.28,-0.08,-10.5,-30.0,-108.5,34.5,,,,,,,,,,
15.30.18.502,-15.4,3.8,0,28.0,,27862.1,35.89,-0.53,-0.21,-0.03,46.9,-37.0,-102.6,34.5,,,,,,,,,,
15.30.18.514,-44.5,11.1,0,28.0,,32825.8,30.46,-0.34,0.01,0.01,53.7,-37.0,-95.2,34.5,,,,,,,,,,
15.30.18.523,-0.5,0.1,0,28.0,,30330.3,32.97,-0.21,0.09,-0.02,33.2,-29.4,-80.6,34.5,,,,,,,,,,
15.30.18.535,-93.3,23.3,0,28.0,,26716.6,37.43,-0.03,0.22,-0.06,1.6,-23.9,-64.9,34.5,,,,,,,,,,
15.30.18.547,-90.5,22.6,0,28.0,,29778.1,33.58,-0.31,0.13,0.05,-44.7,-31.5,-48.2,34.5,,,,,,,,,,
15.30.18.555,-37.2,9.3,0,28.0,,32863.6,30.43,-0.34,-0.15,0.07,-65.2,-41.8,-33.0,34.5,,,,,,,,,,
15.30.18.568,-63.9,16.0,0,28.0,,27833.4,35.93,-0.44,-0.36,0.08,-41.8,-46.5,-29.2,34.5,,,,,,,,,,
15.30.18.580,-131.5,32.9,0,28.0,,35584.6,28.1,-0.44,-0.31,0.01,-19.2,-42.6,-28.6,34.5,,,,,,,,,,
15.30.18.588,-128.9,32.2,0,28.0,,29376.6,34.04,-0.57,-0.28,0.0,4.8,-33.8,-22.3,34.5,,,,,,,,,,
15.30.18.600,-100.9,25.2,0,28.0,,29365.4,34.05,-0.61,-0.16,0.03,23.9,-28.8,-15.4,34.5,,,,,,,,,,
15.30.18.609,-57.2,14.3,0,28.0,,31250.1,32.0,-0.59,0.01,0.03,14.9,-20.5,3.5,34.5,,,,,,,,,,
15.30.18.621,-149.0,37.2,0,28.0,,31302.0,31.95,-0.42,0.09,-0.08,-4.4,-6.9,26.5,34.5,,,,,,,,,,
15.30.18.633,-168.8,42.2,0,28.0,,28636.8,34.92,-0.64,0.11,-0.15,-12.8,-2.4,53.8,34.5,,,,,,,,,,
15.30.18.641,-163.3,40.8,0,28.0,,25799.1,38.76,-1.0,-0.25,-0.24,-19.1,21.4,71.8,34.5,,,,,,,,,,
15.30.18.654,-122.7,30.7,0,28.0,,30230.2,33.08,-1.42,-0.43,-0.23,9.3,49.8,69.2,34.5,,,,,,,,,,
15.30.18.662,-186.5,46.6,0,28.0,,31964.7,31.28,-2.0,0.02,-0.29,51.5,131.6,16.3,34.5,,,,,,,,,,
15.30.18.674,-135.2,33.8,0,28.0,,30158.0,33.16,-2.0,-0.08,-0.24,150.4,-67.8,65.7,34.5,,,,,,,,,,
15.30.18.686,-207.0,51.8,0,28.0,,25961.0,38.52,-2.0,0.36,-0.24,144.4,-76.7,70.5,34.5,,,,,,,,,,
15.30.18.695,5.5,1.4,1,29.0,135.8,27891.5,35.85,-1.89,-0.34,-0.02,250.1,-100.0,30.5,34.5,,,,,,,,,,
