timestamp,ppg,threshold,beat,beat_count,inst_bpm,gsr_resistance_ohm,gsr_conductance_us,accel_x,accel_y,accel_z,gyro_x,gyro_y,gyro_z,temp_c,window_bpm,window_temp_c,status_message,SpO2,bmi,age,height,weight,env_temp_c,env_humidity_pct
14.49.58.308,0.0,0.0,0,,,71170.2,14.05,-0.36,0.57,0.72,0.6,6.0,-0.5,35.19,92.3,,,,25.0,21.0,162.56,66.0,37.0,52.0
14.49.58.320,74.5,18.6,0,,,70751.6,14.13,-0.37,0.56,0.73,-1.0,4.8,0.0,35.19,,,,,,,,,,
14.49.58.329,112.9,28.2,0,,,64628.7,15.47,-0.37,0.57,0.73,-0.5,5.5,1.0,35.19,,,,,,,,,,
14.49.58.341,256.3,64.1,0,,,71245.4,14.04,-0.37,0.57,0.75,-0.5,6.4,1.6,35.19,,,,,,,,,,
14.49.58.353,322.4,80.6,0,,,66031.7,15.14,-0.38,0.56,0.75,-0.4,6.7,1.6,35.19,,,,,,,,,,
14.49.58.361,347.7,86.9,0,,,67204.0,14.88,-0.37,0.54,0.75,1.7,7.6,2.1,35.19,,,,,,,,,,
14.49.58.374,343.4,85.8,0,,,64945.5,15.4,-0.37,0.54,0.74,2.8,7.3,1.5,35.19,,,,,,,,,,
14.49.58.386,501.0,125.2,0,,,70953.0,14.09,-0.37,0.54,0.73,1.5,4.6,0.3,35.19,,,,,,,,,,
14.49.58.394,386.8,96.7,0,,,66155.4,15.12,-0.36,0.54,0.72,1.9,6.0,-0.5,35.19,,,,,,,,,,
14.49.58.406,513.8,128.4,0,,,65885.6,15.18,-0.37,0.54,0.72,0.5,5.9,-1.8,35.19,,,,,,,,,,
14.49.58.419,506.1,126.5,0,,,69877.6,14.31,-0.38,0.55,0.72,-0.1,3.3,-2.3,35.19,,,,,,,,,,
14.49.58.431,477.9,119.5,0,,,71131.7,14.06,-0.38,0.56,0.75,0.4,2.8,-1.8,35.19,,,,,,,,,,
14.49.58.439,421.5,105.4,0,,,67302.6,14.86,-0.37,0.57,0.75,0.3,5.2,-1.7,35.19,,,,,,,,,,
14.49.58.451,487.8,122.0,0,,,63747.0,15.69,-0.38,0.56,0.75,0.2,8.0,-2.0,35.19,,,,,,,,,,
14.49.58.464,376.9,94.2,0,,,70538.7,14.18,-0.38,0.55,0.73,0.6,7.9,-2.3,35.19,,,,,,,,,,
14.49.58.472,297.9,74.5,0,,,64948.1,15.4,-0.38,0.55,0.72,0.8,5.6,-1.9,35.19,,,,,,,,,,
14.49.58.484,357.4,89.4,0,,,66269.4,15.09,-0.38,0.55,0.74,0.7,3.5,-1.8,35.19,,,,,,,,,,
14.49.58.496,270.7,67.7,0,,,66714.9,14.99,-0.38,0.55,0.74,1.5,4.5,-1.2,35.19,,,,,,,,,,
14.49.58.505,221.2,55.3,0,,,66124.7,15.12,-0.39,0.56,0.75,1.6,5.6,-0.6,35.19,,,,,,,,,,
14.49.58.517,115.7,28.9,0,,,66550.0,15.03,-0.38,0.55,0.74,1.8,6.2,-0.8,35.19,,,,,,,,,,
14.49.58.529,-59.0,14.8,0,,,68539.2,14.59,-0.38,0.55,0.73,1.3,6.4,-1.2,35.19,,,,,,,,,,
14.49.58.537,72.6,18.2,0,,,65731.9,15.21,-0.38,0.55,0.73,1.8,5.6,-1.1,35.19,,,,,,,,,,
14.49.58.550,39.3,9.8,0,,,65612.5,15.24,-0.38,0.56,0.74,1.8,5.0,-1.5,35.19,,,,,,,,,,
14.49.58.562,31.9,8.0,0,,,67889.8,14.73,-0.37,0.57,0.74,-0.1,5.7,-2.2,35.19,,,,,,,,,,
14.49.58.575,63.9,16.0,0,,,69877.1,14.31,-0.37,0.57,0.74,-1.5,7.0,-2.5,35.19,,,,,,,,,,
14.49.58.583,79.5,19.9,0,,,66574.6,15.02,-0.37,0.57,0.74,-2.4,6.1,-2.0,35.19,,,,,,,,,,
14.49.58.595,70.4,17.6,0,,,66478.3,15.04,-0.36,0.55,0.74,-3.1,4.5,-1.3,35.19,,,,,,,,,,
14.49.58.607,94.0,23.5,0,,,69747.6,14.34,-0.36,0.54,0.73,-2.3,5.7,-1.5,35.19,,,,,,,,,,
14.49.58.615,134.0,33.5,0,,,67230.1,14.87,-0.36,0.54,0.72,-2.4,6.7,-2.1,35.19,,,,,,,,,,
14.49.58.628,100.2,25.0,0,,,64639.2,15.47,-0.36,0.53,0.72,-0.9,6.1,-2.2,35.19,,,,,,,,,,
14.49.58.640,37.2,9.3,0,,,62100.0,16.1,-0.37,0.53,0.73,1.2,4.9,-2.0,35.19,,,,,,,,,,
14.49.58.648,-19.6,4.9,0,,,64648.3,15.47,-0.37,0.54,0.72,2.1,3.6,-2.4,35.19,,,,,,,,,,
14.49.58.660,1.0,0.2,0,,,64846.4,15.42,-0.37,0.55,0.73,2.1,3.1,-2.3,35.19,,,,,,,,,,
14.49.58.673,50.0,12.5,0,,,64937.0,15.4,-0.37,0.55,0.74,2.4,3.4,-2.2,35.19,,,,,,,,,,
14.49.58.681,10.5,2.6,0,,,66625.4,15.01,-0.37,0.56,0.74,2.7,3.9,-2.1,35.19,,,,,,,,,,
14.49.58.693,16.3,4.1,0,,,60225.2,16.6,-0.38,0.57,0.75,2.6,4.2,-2.0,35.19,,,,,,,,,,
14.49.58.705,-2.4,0.6,0,,,67924.2,14.72,-0.38,0.56,0.75,1.7,4.4,-1.5,35.19,,,,,,,,,,
14.49.58.718,4.7,1.2,0,,,65732.1,15.21,-0.38,0.56,0.75,1.3,6.0,-1.7,35.19,,,,,,,,,,
14.49.58.726,-22.8,5.7,0,,,68922.0,14.51,-0.37,0.56,0.75,0.5,5.9,-1.6,35.19,,,,,,,,,,
14.49.58.738,-104.3,26.1,0,,,70110.9,14.26,-0.37,0.56,0.74,0.3,6.3,-1.6,35.19,,,,,,,,,,
14.49.58.751,-82.6,20.6,0,,,64074.3,15.61,-0.37,0.55,0.74,0.6,7.3,-1.3,35.19,,,,,,,,,,
14.49.58.759,-66.8,16.7,0,,,65085.1,15.36,-0.36,0.55,0.74,1.4,7.3,-1.2,35.19,,,,,,,,,,
14.49.58.771,-105.5,26.4,0,,,67387.9,14.84,-0.37,0.55,0.73,0.6,5.6,-1.8,35.19,,,,,,,,,,
14.49.58.783,-50.2,12.6,0,,,66670.5,15.0,-0.36,0.55,0.74,1.3,4.3,-1.2,35.19,,,,,,,,,,
14.49.58.791,-130.7,32.7,0,,,63646.8,15.71,-0.37,0.56,0.75,1.9,4.6,-1.1,35.19,,,,,,,,,,
14.49.58.804,-99.5,24.9,0,,,65978.3,15.16,-0.37,0.56,0.74,2.3,5.8,-0.8,35.19,,,,,,,,,,
14.49.58.816,-160.5,40.1,0,,,67654.3,14.78,-0.37,0.55,0.74,2.2,5.9,-1.0,35.19,,,,,,,,,,
14.49.58.824,-87.4,21.8,0,,,63356.0,15.78,-0.37,0.55,0.73,2.0,5.2,-0.9,35.19,,,,,,,,,,
14.49.58.836,-136.9,34.2,0,,,62919.6,15.89,-0.37,0.56,0.74,1.6,4.8,-1.0,35.19,,,,,,,,,,
14.49.58.849,-147.7,36.9,0,,,62771.6,15.93,-0.38,0.56,0.73,0.5,6.0,-1.6,35.19,,,,,,,,,,
14.49.58.861,-93.4,23.4,0,,,61220.5,16.33,-0.38,0.56,0.73,0.3,7.9,-1.3,35.19,,,,,,,,,,
14.49.58.869,-194.9,48.7,0,,,65030.4,15.38,-0.38,0.55,0.73,0.3,7.3,-1.1,35.19,,,,,,,,,,
14.49.58.882,-158.5,39.6,0,,,67460.9,14.82,-0.39,0.55,0.74,-0.5,5.5,-0.5,35.19,,,,,,,,,,
14.49.58.894,-174.7,43.7,0,,,66520.6,15.03,-0.38,0.55,0.75,1.2,5.6,0.3,35.19,,,,,,,,,,
14.49.58.902,-159.2,39.8,0,,,60346.7,16.57,-0.39,0.55,0.74,1.4,7.1,-0.1,35.19,,,,,,,,,,
14.49.58.914,-130.1,32.5,0,,,61032.7,16.38,-0.38,0.54,0.73,0.6,7.8,-1.5,35.19,,,,,,,,,,
14.49.58.927,-171.3,42.8,0,,,62791.5,15.93,-0.37,0.54,0.73,2.2,7.3,-1.3,35.19,,,,,,,,,,
14.49.58.939,-208.4,52.1,0,,,65511.8,15.26,-0.38,0.55,0.72,1.9,4.8,-1.0,35.19,,,,,,,,,,
14.49.58.947,-157.6,39.4,0,,,63624.7,15.72,-0.38,0.55,0.74,1.0,3.4,-1.8,35.19,,,,,,,,,,
14.49.58.959,54.9,13.7,1,1.0,93.7,60897.9,16.42,-0.38,0.56,0.75,1.7,5.2,-1.2,35.19,,,,,,,,,,
14.49.58.972,180.7,45.2,0,1.0,,63141.0,15.84,-0.38,0.56,0.75,2.3,4.9,-0.7,35.19,,,,,,,,,,
14.49.58.980,157.3,39.3,0,1.0,,64612.2,15.48,-0.38,0.56,0.75,2.1,4.7,0.1,35.19,,,,,,,,,,
14.49.58.992,305.4,76.4,0,1.0,,65870.2,15.18,-0.38,0.56,0.74,2.0,5.6,0.7,35.19,,,,,,,,,,
14.49.59.004,350.2,87.6,0,1.0,,59490.7,16.81,-0.37,0.56,0.74,2.7,5.4,0.7,35.19,,,,,,,,,,
14.49.59.013,406.4,101.6,0,1.0,,69209.0,14.45,-0.37,0.55,0.73,2.2,4.6,-0.2,35.19,,,,,,,,,,
14.49.59.025,398.4,99.6,0,1.0,,63407.6,15.77,-0.36,0.56,0.74,2.1,4.9,-0.8,35.19,,,,,,,,,,
14.49.59.037,429.2,107.3,0,1.0,,70155.9,14.25,-0.36,0.56,0.73,1.5,4.6,-0.7,35.19,,,,,,,,,,
14.49.59.045,444.7,111.2,0,1.0,,69295.0,14.43,-0.36,0.57,0.73,0.7,4.2,-0.8,35.19,,,,,,,,,,
14.49.59.058,488.0,122.0,0,1.0,,63076.5,15.85,-0.37,0.56,0.74,1.2,6.1,-0.8,35.19,,,,,,,,,,
14.49.59.070,505.6,126.4,0,1.0,,68657.0,14.57,-0.36,0.56,0.74,1.3,6.1,-0.6,35.19,,,,,,,,,,
14.49.59.111,436.9,109.2,0,1.0,,68465.2,14.61,-0.36,0.57,0.73,0.5,6.1,-1.9,35.19,,,,,,,,,,
14.49.59.119,351.3,87.8,0,1.0,,64620.7,15.47,-0.36,0.57,0.73,0.5,7.1,-2.3,35.19,,,,,,,,,,
14.49.59.131,348.1,87.0,0,1.0,,66868.7,14.95,-0.36,0.56,0.73,0.0,7.0,-2.5,35.19,,,,,,,,,,
14.49.59.144,210.1,52.5,0,1.0,,67644.1,14.78,-0.36,0.57,0.73,-0.2,7.0,-2.0,35.19,,,,,,,,,,
14.49.59.156,94.0,23.5,0,1.0,,67739.2,14.76,-0.37,0.57,0.74,-0.7,7.1,-1.6,35.19,,,,,,,,,,
14.49.59.164,74.3,18.6,0,1.0,,63786.0,15.68,-0.37,0.57,0.74,-1.1,7.7,-1.7,35.19,,,,,,,,,,
14.49.59.177,42.4,10.6,0,1.0,,68735.9,14.55,-0.37,0.56,0.74,-0.6,7.5,-1.1,35.19,,,,,,,,,,
14.49.59.189,-1.6,0.4,0,1.0,,66588.9,15.02,-0.37,0.55,0.74,0.6,7.1,-0.3,35.19,,,,,,,,,,
14.49.59.201,71.6,17.9,0,1.0,,66282.2,15.09,-0.37,0.55,0.73,0.9,7.0,-0.9,35.19,,,,,,,,,,
14.49.59.209,29.1,7.3,0,1.0,,55967.3,17.87,-0.37,0.56,0.73,0.8,7.0,-1.9,35.19,,,,,,,,,,
14.49.59.222,106.8,26.7,0,1.0,,71616.5,13.96,-0.37,0.56,0.73,0.0,6.6,-2.0,35.19,,,,,,,,,,
14.49.59.234,27.8,7.0,0,1.0,,61837.7,16.17,-0.38,0.56,0.73,0.3,6.3,-1.2,35.19,,,,,,,,,,
14.49.59.242,48.1,12.0,0,1.0,,68439.7,14.61,-0.38,0.56,0.74,0.5,7.1,-1.0,35.19,,,,,,,,,,
14.49.59.254,87.6,21.9,0,1.0,,68466.2,14.61,-0.38,0.56,0.74,0.0,7.2,-1.0,35.19,,,,,,,,,,
14.49.59.267,39.3,9.8,0,1.0,,65524.0,15.26,-0.38,0.55,0.74,-0.2,6.8,-1.1,35.19,,,,,,,,,,
14.49.59.279,49.3,12.3,0,1.0,,66449.9,15.05,-0.37,0.55,0.73,0.1,6.9,-1.7,35.19,,,,,,,,,,
14.49.59.287,-14.9,3.7,0,1.0,,64130.8,15.59,-0.37,0.55,0.73,-0.9,7.4,-2.0,35.19,,,,,,,,,,
14.49.59.299,54.9,13.7,0,1.0,,67037.3,14.92,-0.38,0.55,0.75,-1.0,6.7,-1.5,35.19,,,,,,,,,,
14.49.59.312,-31.0,7.8,0,1.0,,66241.4,15.1,-0.38,0.55,0.75,0.6,6.4,-0.8,35.19,,,,,,,,,,
14.49.59.320,21.4,5.4,0,1.0,,60839.9,16.44,-0.38,0.54,0.73,0.8,7.0,-1.1,35.19,,,,,,,,,,
14.49.59.332,-7.2,1.8,0,1.0,,65248.1,15.33,-0.38,0.54,0.73,1.1,7.3,-1.9,35.19,,,,,,,,,,
14.49.59.344,-101.3,25.3,0,1.0,,64103.8,15.6,-0.38,0.55,0.73,1.1,5.9,-2.2,35.19,,,,,,,,,,
14.49.59.353,1.2,0.3,0,1.0,,66613.4,15.01,-0.38,0.56,0.73,1.0,4.6,-2.4,35.19,,,,,,,,,,
14.49.59.365,-41.2,10.3,0,1.0,,70813.6,14.12,-0.37,0.57,0.75,0.4,5.0,-1.9,35.19,,,,,,,,,,
14.49.59.377,-32.4,8.1,0,1.0,,68153.9,14.67,-0.38,0.57,0.74,0.3,7.1,-2.0,35.19,,,,,,,,,,
14.49.59.385,-12.4,3.1,0,1.0,,63931.0,15.64,-0.38,0.56,0.74,0.3,7.5,-1.4,35.19,,,,,,,,,,
14.49.59.398,-43.1,10.8,0,1.0,,66134.0,15.12,-0.38,0.55,0.74,-0.3,6.2,-1.3,35.19,,,,,,,,,,
14.49.59.410,-34.6,8.6,0,1.0,,60671.4,16.48,-0.38,0.55,0.73,-0.1,6.4,-1.8,35.19,,,,,,,,,,
14.49.59.422,-88.8,22.2,0,1.0,,67346.6,14.85,-0.37,0.56,0.74,0.2,7.2,-2.3,35.19,,,,,,,,,,
14.49.59.431,-101.5,25.4,0,1.0,,65498.7,15.27,-0.37,0.56,0.73,-0.2,5.9,-2.2,35.19,,,,,,,,,,
14.49.59.443,-20.9,5.2,0,1.0,,60677.0,16.48,-0.37,0.56,0.74,1.1,6.2,-1.6,35.19,,,,,,,,,,
14.49.59.455,-16.5,4.1,0,1.0,,74047.4,13.5,-0.37,0.56,0.74,0.8,6.6,-1.4,35.19,,,,,,,,,,
14.49.59.463,-123.1,30.8,0,1.0,,70931.4,14.1,-0.37,0.56,0.73,0.3,6.1,-1.4,35.19,,,,,,,,,,
14.49.59.476,-64.1,16.0,0,1.0,,62179.9,16.08,-0.37,0.56,0.73,0.6,4.9,-1.1,35.19,,,,,,,,,,
14.49.59.488,-102.7,25.7,0,1.0,,64673.6,15.46,-0.37,0.56,0.74,0.8,5.7,-1.2,35.19,,,,,,,,,,
14.49.59.500,-138.3,34.6,0,1.0,,65192.8,15.34,-0.37,0.55,0.73,-0.1,6.4,-1.7,35.19,,,,,,,,,,
14.49.59.508,-98.8,24.7,0,1.0,,72423.9,13.81,-0.37,0.55,0.74,-0.2,6.3,-1.7,35.19,,,,,,,,,,
14.49.59.521,-131.1,32.8,0,1.0,,67411.6,14.83,-0.37,0.56,0.74,0.8,4.9,-1.2,35.19,,,,,,,,,,
14.49.59.533,-149.0,37.2,0,1.0,,62849.4,15.91,-0.36,0.54,0.73,0.8,3.9,-1.5,35.19,,,,,,,,,,
14.49.59.541,-122.3,30.6,0,1.0,,65367.3,15.3,-0.36,0.54,0.72,1.7,4.3,-2.0,35.19,,,,,,,,,,
14.49.59.553,-173.5,43.4,0,1.0,,66916.8,14.94,-0.35,0.53,0.73,2.9,3.3,-2.1,35.19,,,,,,,,,,
14.49.59.566,-158.0,39.5,0,1.0,,62530.0,15.99,-0.34,0.52,0.72,2.9,1.3,-2.9,35.19,,,,,,,,,,
14.49.59.578,-103.1,25.8,0,1.0,,70365.3,14.21,-0.35,0.52,0.71,5.0,1.7,-3.6,35.19,,,,,,,,,,
14.49.59.586,-176.7,44.2,0,1.0,,65482.4,15.27,-0.36,0.52,0.73,6.6,1.2,-4.7,35.19,,,,,,,,,,
14.49.59.598,65.4,16.4,1,2.0,99.5,65867.6,15.18,-0.36,0.53,0.73,8.1,2.9,-6.0,35.19,,,,,,,,,,
14.49.59.611,116.9,29.2,0,2.0,,67798.8,14.75,-0.37,0.54,0.74,8.0,5.3,-6.6,35.19,,,,,,,,,,
14.49.59.619,109.5,27.4,0,2.0,,61456.9,16.27,-0.38,0.58,0.74,11.6,4.8,-5.3,35.19,,,,,,,,,,
14.49.59.631,199.1,49.8,0,2.0,,60450.0,16.54,-0.39,0.58,0.73,8.1,3.3,-5.1,35.19,,,,,,,,,,
14.49.59.644,294.9,73.7,0,2.0,,66278.8,15.09,-0.41,0.61,0.79,7.6,2.9,-4.3,35.19,,,,,,,,,,
14.49.59.652,355.8,89.0,0,2.0,,65912.7,15.17,-0.39,0.63,0.78,8.9,11.7,-0.3,35.19,,,,,,,,,,
14.49.59.664,378.2,94.6,0,2.0,,66378.1,15.07,-0.39,0.59,0.71,0.8,16.2,-2.8,35.19,,,,,,,,,,
14.49.59.676,418.2,104.6,0,2.0,,65300.1,15.31,-0.39,0.58,0.72,-2.5,10.4,-4.2,35.19,,,,,,,,,,
14.49.59.689,463.0,115.8,0,2.0,,67390.8,14.84,-0.39,0.59,0.73,-0.6,6.8,-2.5,35.19,,,,,,,,,,
14.49.59.697,532.7,133.2,0,2.0,,62680.2,15.95,-0.38,0.59,0.75,-4.0,10.6,-2.9,35.19,,,,,,,,,,
14.49.59.709,395.2,98.8,0,2.0,,66803.1,14.97,-0.38,0.58,0.74,-3.6,17.1,-2.1,35.19,,,,,,,,,,
14.49.59.721,472.8,118.2,0,2.0,,63841.6,15.66,-0.38,0.58,0.73,-2.3,13.3,0.2,35.19,,,,,,,,,,
14.49.59.734,410.0,102.5,0,2.0,,63951.8,15.64,-0.38,0.56,0.72,-4.2,5.4,0.4,35.19,,,,,,,,,,
14.49.59.742,464.7,116.2,0,2.0,,64223.6,15.57,-0.37,0.56,0.73,-3.7,5.7,0.2,35.19,,,,,,,,,,
14.49.59.755,405.7,101.4,0,2.0,,64739.6,15.45,-0.37,0.55,0.72,-2.6,9.1,-0.1,35.19,,,,,,,,,,
14.49.59.766,316.7,79.2,0,2.0,,61053.6,16.38,-0.38,0.54,0.72,-2.1,7.5,-0.2,35.19,,,,,,,,,,
14.49.59.779,339.1,84.8,0,2.0,,64657.9,15.47,-0.38,0.54,0.72,-0.2,3.3,0.4,35.19,,,,,,,,,,
14.49.59.787,205.4,51.4,0,2.0,,67291.6,14.86,-0.39,0.55,0.72,1.5,3.2,0.1,35.19,,,,,,,,,,
14.49.59.799,198.1,49.5,0,2.0,,64297.8,15.55,-0.4,0.54,0.73,2.7,4.6,0.2,35.19,,,,,,,,,,
14.49.59.812,117.8,29.4,0,2.0,,62855.6,15.91,-0.41,0.55,0.72,2.7,3.6,-0.2,35.19,,,,,,,,,,
14.49.59.820,54.1,13.5,0,2.0,,65269.4,15.32,-0.42,0.56,0.74,2.4,0.4,-0.4,35.19,,,,,,,,,,
14.49.59.832,22.9,5.7,0,2.0,,62148.3,16.09,-0.4,0.56,0.72,2.4,4.3,0.5,35.19,,,,,,,,,,
14.49.59.844,-10.7,2.7,0,2.0,,65474.2,15.27,-0.41,0.57,0.72,0.9,8.0,-0.5,35.19,,,,,,,,,,
14.49.59.852,110.2,27.6,0,2.0,,69216.0,14.45,-0.41,0.57,0.72,-1.1,7.0,0.1,35.19,,,,,,,,,,
14.49.59.865,62.1,15.5,0,2.0,,68465.3,14.61,-0.41,0.57,0.73,-1.4,7.3,1.4,35.19,,,,,,,,,,
14.49.59.877,122.0,30.5,0,2.0,,70888.0,14.11,-0.41,0.57,0.73,-3.9,8.5,1.6,35.19,,,,,,,,,,
14.49.59.918,49.9,12.5,0,2.0,,64545.0,15.49,-0.4,0.55,0.74,-4.5,9.0,2.7,35.13,,,,,,,,,,
14.49.59.926,88.3,22.1,0,2.0,,66082.9,15.13,-0.41,0.55,0.75,-4.1,13.5,2.1,35.13,,,,,,,,,,
14.49.59.939,-25.6,6.4,0,2.0,,66336.6,15.07,-0.42,0.56,0.74,-8.0,16.0,1.0,35.13,,,,,,,,,,
14.49.59.951,-15.1,3.8,0,2.0,,63448.5,15.76,-0.42,0.57,0.74,-13.4,13.1,-1.0,35.13,,,,,,,,,,
14.49.59.963,-17.1,4.3,0,2.0,,62052.7,16.12,-0.42,0.56,0.75,-15.3,13.3,-2.4,35.13,,,,,,,,,,
14.49.59.971,14.7,3.7,0,2.0,,63462.9,15.76,-0.4,0.56,0.74,-17.2,13.8,-2.8,35.13,,,,,,,,,,
14.49.59.984,19.1,4.8,0,2.0,,73138.8,13.67,-0.39,0.54,0.75,-19.3,9.5,-2.7,35.13,,,,,,,,,,
14.49.59.996,-27.2,6.8,0,2.0,,70137.5,14.26,-0.38,0.53,0.76,-18.3,6.4,-1.5,35.13,,,,,,,,,,
14.50.00.008,-61.5,15.4,0,2.0,,62692.1,15.95,-0.36,0.51,0.76,-15.3,5.5,-0.9,35.13,,,,,,,,,,
14.50.00.016,-77.8,19.4,0,2.0,,66256.1,15.09,-0.36,0.49,0.77,-12.6,5.6,-0.4,35.13,,,,,,,,,,
14.50.00.029,-42.5,10.6,0,2.0,,65257.1,15.32,-0.36,0.47,0.75,-8.1,5.0,-0.2,35.13,,,,,,,,,,
14.50.00.041,-60.4,15.1,0,2.0,,64041.5,15.61,-0.35,0.47,0.74,-2.1,2.7,-0.5,35.13,,,,,,,,,,
14.50.00.053,-118.5,29.6,0,2.0,,65711.2,15.22,-0.35,0.48,0.73,3.1,0.9,-1.1,35.13,,,,,,,,,,
14.50.00.061,-85.2,21.3,0,2.0,,66244.3,15.1,-0.35,0.48,0.72,7.1,-0.3,-2.0,35.13,,,,,,,,,,
14.50.00.074,-115.7,28.9,0,2.0,,72889.4,13.72,-0.34,0.51,0.72,10.7,-2.9,-1.5,35.13,,,,,,,,,,
14.50.00.086,-112.1,28.0,0,2.0,,67826.7,14.74,-0.34,0.53,0.71,13.2,-5.5,-0.9,35.13,,,,,,,,,,
14.50.00.099,-102.4,25.6,0,2.0,,67709.0,14.77,-0.33,0.55,0.72,13.8,-3.3,-1.1,35.13,,,,,,,,,,
14.50.00.107,-125.0,31.2,0,2.0,,67099.7,14.9,-0.33,0.58,0.72,12.8,0.0,-2.3,35.13,,,,,,,,,,
14.50.00.119,-55.8,14.0,0,2.0,,70140.1,14.26,-0.32,0.61,0.73,8.9,0.1,-3.3,35.13,,,,,,,,,,
14.50.00.131,-159.5,39.9,0,2.0,,64128.8,15.59,-0.32,0.63,0.73,5.2,3.0,-3.4,35.13,,,,,,,,,,
14.50.00.142,-208.8,52.2,0,2.0,,64465.7,15.51,-0.32,0.63,0.73,0.4,9.2,-3.7,35.13,,,,,,,,,,
14.50.00.152,-103.7,25.9,0,2.0,,65440.3,15.28,-0.33,0.62,0.73,-4.4,14.5,-3.6,35.13,,,,,,,,,,
14.50.00.164,-152.8,38.2,0,2.0,,69330.7,14.42,-0.34,0.6,0.73,-7.7,13.4,-2.9,35.13,,,,,,,,,,
14.50.00.176,-186.8,46.7,0,2.0,,65157.3,15.35,-0.35,0.57,0.73,-9.5,12.2,-1.3,35.13,,,,,,,,,,
14.50.00.188,-97.1,24.3,0,2.0,,61831.1,16.17,-0.36,0.55,0.75,-9.3,12.7,-0.6,35.13,,,,,,,,,,
14.50.00.197,-139.7,34.9,0,2.0,,67176.2,14.89,-0.39,0.53,0.75,-8.0,13.0,-0.4,35.13,,,,,,,,,,
14.50.00.209,-234.9,58.7,0,2.0,,68571.7,14.58,-0.39,0.51,0.76,-5.6,12.5,-0.2,35.13,,,,,,,,,,
14.50.00.221,-197.1,49.3,0,2.0,,62083.0,16.11,-0.39,0.51,0.76,-3.0,9.9,0.2,35.13,,,,,,,,,,
14.50.00.234,-127.6,31.9,0,2.0,,67546.8,14.8,-0.39,0.51,0.75,-0.8,8.4,-0.7,35.13,,,,,,,,,,
14.50.00.242,-168.1,42.0,0,2.0,,67915.2,14.72,-0.39,0.51,0.75,1.1,8.4,-1.0,35.13,,,,,,,,,,
14.50.00.254,116.5,29.1,1,3.0,88.0,66063.2,15.14,-0.4,0.52,0.75,2.9,8.6,-0.3,35.13,,,,,,,,,,
14.50.00.267,144.0,36.0,0,3.0,,68348.5,14.63,-0.4,0.53,0.75,3.0,6.3,-0.1,35.13,,,,,,,,,,
14.50.00.275,239.7,59.9,0,3.0,,69430.0,14.4,-0.4,0.53,0.75,1.7,3.1,0.1,35.13,,,,,,,,,,
14.50.00.291,308.1,77.0,0,3.0,,66781.4,14.97,-0.4,0.53,0.76,3.0,2.3,0.9,35.13,,,,,,,,,,
14.50.00.299,365.4,91.4,0,3.0,,68809.1,14.53,-0.4,0.52,0.75,3.5,3.6,0.4,35.13,,,,,,,,,,
14.50.00.307,424.6,106.2,0,3.0,,64057.8,15.61,-0.41,0.52,0.75,3.3,4.8,-0.3,35.13,,,,,,,,,,
14.50.00.320,435.3,108.8,0,3.0,,62383.0,16.03,-0.41,0.53,0.74,4.1,5.9,-0.6,35.13,,,,,,,,,,
14.50.00.332,523.7,130.9,0,3.0,,70450.9,14.19,-0.4,0.53,0.73,3.7,5.2,-1.1,35.13,,,,,,,,,,
14.50.00.340,436.8,109.2,0,3.0,,64286.8,15.56,-0.4,0.54,0.74,1.9,4.1,-1.1,35.13,,,,,,,,,,
14.50.00.352,485.8,121.4,0,3.0,,65761.5,15.21,-0.4,0.55,0.74,1.3,4.5,-0.7,35.13,,,,,,,,,,
14.50.00.361,468.8,117.2,0,3.0,,63317.0,15.79,-0.41,0.54,0.74,0.5,5.0,-0.6,35.13,,,,,,,,,,
14.50.00.373,483.1,120.8,0,3.0,,62929.6,15.89,-0.4,0.52,0.74,0.1,4.6,-0.9,35.13,,,,,,,,,,
14.50.00.381,471.6,117.9,0,3.0,,66758.7,14.98,-0.4,0.52,0.74,0.7,3.7,-1.2,35.13,,,,,,,,,,
14.50.00.393,442.0,110.5,0,3.0,,65649.0,15.23,-0.4,0.52,0.74,0.9,3.5,-2.4,35.13,,,,,,,,,,
14.50.00.402,404.3,101.1,0,3.0,,65995.3,15.15,-0.4,0.52,0.73,1.7,5.1,-3.7,35.13,,,,,,,,,,
14.50.00.414,361.1,90.3,0,3.0,,66101.7,15.13,-0.39,0.53,0.73,2.5,5.3,-4.1,35.13,,,,,,,,,,
14.50.00.422,276.6,69.2,0,3.0,,71851.0,13.92,-0.4,0.54,0.73,2.7,3.7,-3.8,35.13,,,,,,,,,,
14.50.00.434,279.4,69.8,0,3.0,,70072.0,14.27,-0.39,0.54,0.74,2.7,2.3,-3.0,35.13,,,,,,,,,,
14.50.00.443,128.8,32.2,0,3.0,,70394.3,14.21,-0.39,0.54,0.75,2.0,1.8,-2.6,35.13,,,,,,,,,,
14.50.00.455,60.6,15.2,0,3.0,,60321.1,16.58,-0.39,0.53,0.75,2.7,3.0,-2.2,35.13,,,,,,,,,,
14.50.00.463,45.8,11.4,0,3.0,,68098.8,14.68,-0.38,0.53,0.75,3.9,4.0,-2.0,35.13,,,,,,,,,,
14.50.00.475,-47.2,11.8,0,3.0,,61017.3,16.39,-0.38,0.54,0.75,3.6,3.9,-2.5,35.13,,,,,,,,,,
14.50.00.483,-14.8,3.7,0,3.0,,63925.2,15.64,-0.37,0.54,0.75,2.6,3.1,-2.8,35.13,,,,,,,,,,
14.50.00.496,56.6,14.2,0,3.0,,71025.9,14.08,-0.36,0.55,0.75,2.4,2.7,-2.9,35.13,,,,,,,,,,
14.50.00.504,112.5,28.1,0,3.0,,70371.3,14.21,-0.37,0.56,0.75,2.4,4.0,-3.1,35.13,,,,,,,,,,
14.50.00.516,106.3,26.6,0,3.0,,68881.0,14.52,-0.38,0.55,0.75,2.0,5.2,-2.9,35.13,,,,,,,,,,
14.50.00.524,75.7,18.9,0,3.0,,68128.5,14.68,-0.38,0.55,0.75,3.5,5.3,-2.4,35.13,,,,,,,,,,
14.50.00.537,61.5,15.4,0,3.0,,66959.1,14.93,-0.37,0.55,0.74,4.5,3.6,-1.8,35.13,,,,,,,,,,
14.50.00.545,61.7,15.4,0,3.0,,67377.5,14.84,-0.37,0.56,0.74,3.7,2.4,-2.0,35.13,,,,,,,,,,
14.50.00.557,51.9,13.0,0,3.0,,69297.9,14.43,-0.35,0.56,0.75,3.1,3.0,-1.8,35.13,,,,,,,,,,
14.50.00.565,23.0,5.8,0,3.0,,61621.2,16.23,-0.36,0.57,0.74,3.2,4.8,-1.5,35.13,,,,,,,,,,
14.50.00.578,48.3,12.1,0,3.0,,66924.9,14.94,-0.36,0.57,0.74,2.0,5.1,-1.4,35.13,,,,,,,,,,
14.50.00.586,-9.0,2.2,0,3.0,,63767.3,15.68,-0.36,0.56,0.75,1.7,4.0,-0.9,35.13,,,,,,,,,,
14.50.00.599,-20.7,5.2,0,3.0,,64925.3,15.4,-0.36,0.57,0.73,2.1,4.5,-0.3,35.13,,,,,,,,,,
14.50.00.610,39.3,9.8,0,3.0,,65439.8,15.28,-0.35,0.56,0.74,0.9,4.1,0.0,35.13,,,,,,,,,,
14.50.00.619,-22.5,5.6,0,3.0,,66190.7,15.11,-0.35,0.55,0.74,0.5,3.5,-0.4,35.13,,,,,,,,,,
14.50.00.631,-28.8,7.2,0,3.0,,64290.1,15.55,-0.35,0.54,0.73,1.0,3.8,-1.5,35.13,,,,,,,,,,
14.50.00.639,-18.8,4.7,0,3.0,,59094.0,16.92,-0.36,0.54,0.73,0.9,3.3,-2.2,35.13,,,,,,,,,,
14.50.00.651,-30.6,7.6,0,3.0,,66301.8,15.08,-0.37,0.54,0.73,1.2,3.5,-2.7,35.13,,,,,,,,,,
14.50.00.660,-34.9,8.7,0,3.0,,64634.4,15.47,-0.38,0.54,0.74,2.4,4.2,-2.1,35.13,,,,,,,,,,
14.50.00.672,-45.9,11.5,0,3.0,,65082.1,15.37,-0.39,0.55,0.74,3.4,5.2,-1.6,35.13,,,,,,,,,,
14.50.00.680,-75.7,18.9,0,3.0,,68076.4,14.69,-0.39,0.54,0.75,3.2,6.3,-1.2,35.13,,,,,,,,,,
14.50.00.717,-115.4,28.8,0,3.0,,66668.5,15.0,-0.39,0.55,0.74,3.0,7.0,-0.7,35.19,,,,,,,,,,
14.50.00.729,-51.8,13.0,0,3.0,,66385.5,15.06,-0.39,0.55,0.74,1.2,6.9,-2.4,35.19,,,,,,,,,,
14.50.00.742,-92.3,23.1,0,3.0,,65561.7,15.25,-0.39,0.55,0.74,0.4,6.5,-2.1,35.19,,,,,,,,,,
14.50.00.750,-84.2,21.0,0,3.0,,65872.3,15.18,-0.4,0.54,0.75,0.5,6.6,-1.5,35.19,,,,,,,,,,
14.50.00.762,-130.8,32.7,0,3.0,,62887.8,15.9,-0.4,0.53,0.75,1.2,5.7,-0.8,35.19,,,,,,,,,,
14.50.00.771,-100.2,25.0,0,3.0,,66402.7,15.06,-0.4,0.53,0.75,1.6,4.6,-0.1,35.19,,,,,,,,,,
14.50.00.783,-164.7,41.2,0,3.0,,63254.7,15.81,-0.39,0.53,0.75,4.2,4.5,0.4,35.19,,,,,,,,,,
14.50.00.791,-131.5,32.9,0,3.0,,64269.5,15.56,-0.38,0.54,0.75,3.9,4.3,-0.5,35.19,,,,,,,,,,
14.50.00.803,-154.5,38.6,0,3.0,,62011.1,16.13,-0.37,0.54,0.75,2.4,4.8,-2.2,35.19,,,,,,,,,,
14.50.00.811,-124.0,31.0,0,3.0,,67553.3,14.8,-0.36,0.54,0.73,3.7,5.4,-2.5,35.19,,,,,,,,,,
14.50.00.823,-138.2,34.6,0,3.0,,71875.3,13.91,-0.36,0.55,0.73,3.4,3.9,-3.1,35.19,,,,,,,,,,
14.50.00.832,-149.0,37.2,0,3.0,,67589.7,14.8,-0.36,0.55,0.74,2.2,3.0,-3.5,35.19,,,,,,,,,,
14.50.00.844,-96.8,24.2,0,3.0,,57785.2,17.31,-0.36,0.56,0.75,2.6,3.7,-3.0,35.19,,,,,,,,,,
14.50.00.852,-219.7,54.9,0,3.0,,66916.2,14.94,-0.36,0.56,0.75,2.1,4.0,-2.8,35.19,,,,,,,,,,
14.50.00.864,-195.6,48.9,0,3.0,,65098.0,15.36,-0.37,0.57,0.75,1.5,4.8,-3.0,35.19,,,,,,,,,,
14.50.00.873,-163.6,40.9,0,3.0,,66647.9,15.0,-0.37,0.56,0.75,1.1,6.4,-3.0,35.19,,,,,,,,,,
14.50.00.885,-183.0,45.8,0,3.0,,69801.6,14.33,-0.37,0.57,0.74,-0.4,7.1,-3.6,35.19,,,,,,,,,,
14.50.00.893,96.4,24.1,1,4.0,93.1,66770.3,14.98,-0.37,0.57,0.73,-1.7,7.7,-4.5,35.19,,,,,,,,,,
14.50.00.905,85.2,21.3,0,4.0,,68607.3,14.58,-0.37,0.56,0.73,-1.3,7.5,-4.6,35.19,,,,,,,,,,
14.50.00.914,169.7,42.4,0,4.0,,67242.7,14.87,-0.38,0.57,0.73,-1.5,6.7,-4.2,35.19,,,,,,,,,,
14.50.00.926,229.2,57.3,0,4.0,,62488.8,16.0,-0.38,0.56,0.74,-1.1,5.4,-3.7,35.19,,,,,,,,,,
14.50.00.938,285.2,71.3,0,4.0,,68634.0,14.57,-0.38,0.56,0.73,0.2,4.6,-2.5,35.19,,,,,,,,,,
14.50.00.946,433.8,108.4,0,4.0,,68446.6,14.61,-0.39,0.56,0.74,0.9,3.7,-1.7,35.19,,,,,,,,,,
14.50.00.959,370.2,92.6,0,4.0,,66112.3,15.13,-0.38,0.55,0.73,1.6,3.8,-0.7,35.19,,,,,,,,,,
14.50.00.967,423.4,105.8,0,4.0,,68842.8,14.53,-0.38,0.55,0.72,1.9,5.0,-0.1,35.19,,,,,,,,,,
14.50.00.979,464.2,116.0,0,4.0,,68480.8,14.6,-0.37,0.54,0.72,0.9,5.2,0.0,35.19,,,,,,,,,,
14.50.00.987,428.6,107.2,0,4.0,,65678.5,15.23,-0.37,0.53,0.73,0.6,3.3,0.0,35.19,,,,,,,,,,
14.50.01.000,479.8,120.0,0,4.0,,63706.4,15.7,-0.37,0.53,0.74,2.5,2.7,0.6,35.19,,,,,,,,,,
14.50.01.008,539.9,135.0,0,4.0,,64245.9,15.57,-0.37,0.53,0.75,4.3,1.7,0.6,35.19,,,,,,,,,,
14.50.01.020,425.8,106.4,0,4.0,,69814.5,14.32,-0.38,0.52,0.74,6.0,2.3,0.7,35.19,,,,,,,,,,
14.50.01.028,535.3,133.8,0,4.0,,64921.1,15.4,-0.38,0.53,0.75,7.1,3.7,0.4,35.19,,,,,,,,,,
14.50.01.041,490.9,122.7,0,4.0,,67892.9,14.73,-0.37,0.53,0.74,7.8,3.5,-0.3,35.19,,,,,,,,,,
14.50.01.049,442.8,110.7,0,4.0,,64306.9,15.55,-0.37,0.53,0.74,7.8,1.4,-1.4,35.19,,,,,,,,,,
14.50.01.061,347.1,86.8,0,4.0,,65296.8,15.31,-0.37,0.55,0.74,6.9,0.7,-1.5,35.19,,,,,,,,,,
14.50.01.069,324.2,81.0,0,4.0,,68616.1,14.57,-0.37,0.56,0.75,5.0,2.5,-2.4,35.19,,,,,,,,,,
14.50.01.082,219.4,54.8,0,4.0,,68227.7,14.66,-0.37,0.57,0.74,2.8,5.7,-3.2,35.19,,,,,,,,,,
14.50.01.090,173.1,43.3,0,4.0,,65540.9,15.26,-0.37,0.57,0.76,1.0,7.2,-3.0,35.19,,,,,,,,,,
14.50.01.102,52.4,13.1,0,4.0,,70279.7,14.23,-0.38,0.57,0.76,0.1,6.4,-2.5,35.19,,,,,,,,,,
14.50.01.110,18.2,4.6,0,4.0,,63896.8,15.65,-0.38,0.56,0.77,-0.1,7.2,-1.7,35.19,,,,,,,,,,
14.50.01.123,39.8,10.0,0,4.0,,63633.1,15.72,-0.38,0.56,0.75,0.0,8.2,-2.0,35.19,,,,,,,,,,
14.50.01.131,72.7,18.2,0,4.0,,65963.6,15.16,-0.38,0.55,0.74,-0.1,7.8,-2.2,35.19,,,,,,,,,,
14.50.01.143,33.5,8.4,0,4.0,,68613.3,14.57,-0.37,0.56,0.74,-0.2,6.0,-2.8,35.19,,,,,,,,,,
14.50.01.151,68.4,17.1,0,4.0,,72731.5,13.75,-0.37,0.56,0.73,-0.4,5.6,-2.5,35.19,,,,,,,,,,
14.50.01.163,101.6,25.4,0,4.0,,61459.2,16.27,-0.36,0.57,0.73,-0.5,6.0,-2.1,35.19,,,,,,,,,,
14.50.01.176,96.0,24.0,0,4.0,,66312.9,15.08,-0.37,0.57,0.73,-0.1,6.3,-1.7,35.19,,,,,,,,,,
14.50.01.184,70.0,17.5,0,4.0,,70070.1,14.27,-0.37,0.56,0.73,1.0,5.8,-0.8,35.19,,,,,,,,,,
14.50.01.196,55.3,13.8,0,4.0,,66733.1,14.99,-0.37,0.56,0.73,1.3,5.7,-0.1,35.19,,,,,,,,,,
14.50.01.204,94.4,23.6,0,4.0,,64102.1,15.6,-0.37,0.56,0.73,0.7,5.0,-0.3,35.19,,,,,,,,,,
14.50.01.217,82.7,20.7,0,4.0,,65576.6,15.25,-0.37,0.56,0.73,0.7,5.2,-0.3,35.19,,,,,,,,,,
14.50.01.229,39.8,10.0,0,4.0,,65801.1,15.2,-0.37,0.56,0.73,0.6,5.4,0.0,35.19,,,,,,,,,,
14.50.01.237,19.6,4.9,0,4.0,,70548.0,14.17,-0.37,0.56,0.73,1.0,5.6,0.2,35.19,,,,,,,,,,
14.50.01.250,1.5,0.4,0,4.0,,70559.8,14.17,-0.37,0.56,0.73,0.9,5.2,0.2,35.19,,,,,,,,,,
14.50.01.258,-13.2,3.3,0,4.0,,63840.0,15.66,-0.38,0.54,0.73,1.0,6.4,0.0,35.19,,,,,,,,,,
14.50.01.270,27.1,6.8,0,4.0,,71792.8,13.93,-0.38,0.54,0.73,2.0,6.5,-0.4,35.19,,,,,,,,,,
14.50.01.278,41.7,10.4,0,4.0,,64694.0,15.46,-0.38,0.54,0.73,2.2,4.2,-0.6,35.19,,,,,,,,,,
14.50.01.291,15.6,3.9,0,4.0,,67227.9,14.87,-0.38,0.54,0.73,2.0,3.2,-0.8,35.19,,,,,,,,,,
14.50.01.299,-22.3,5.6,0,4.0,,67370.0,14.84,-0.37,0.55,0.74,2.4,4.6,-1.3,35.19,,,,,,,,,,
14.50.01.311,-37.0,9.2,0,4.0,,64211.6,15.57,-0.37,0.55,0.74,2.2,6.3,-1.4,35.19,,,,,,,,,,
14.50.01.319,-119.3,29.8,0,4.0,,68861.7,14.52,-0.37,0.55,0.74,1.6,5.6,-2.2,35.19,,,,,,,,,,
14.50.01.331,-96.7,24.2,0,4.0,,61802.4,16.18,-0.37,0.55,0.74,2.3,4.8,-2.4,35.19,,,,,,,,,,
14.50.01.340,-61.2,15.3,0,4.0,,67541.5,14.81,-0.37,0.55,0.75,2.2,4.0,-1.9,35.19,,,,,,,,,,
14.50.01.352,-72.0,18.0,0,4.0,,68556.7,14.59,-0.37,0.56,0.75,2.2,4.6,-1.6,35.19,,,,,,,,,,
14.50.01.360,-73.2,18.3,0,4.0,,68170.1,14.67,-0.36,0.57,0.74,2.0,5.3,-1.7,35.19,,,,,,,,,,
14.50.01.372,-93.4,23.4,0,4.0,,70672.1,14.15,-0.37,0.55,0.74,1.9,5.7,-1.8,35.19,,,,,,,,,,
14.50.01.381,-81.5,20.4,0,4.0,,66032.0,15.14,-0.37,0.56,0.74,1.1,6.0,-2.1,35.19,,,,,,,,,,
14.50.01.393,-105.9,26.5,0,4.0,,59864.4,16.7,-0.36,0.56,0.74,-0.5,4.1,-1.9,35.19,,,,,,,,,,
14.50.01.401,-106.1,26.5,0,4.0,,71148.8,14.06,-0.37,0.55,0.75,0.0,5.3,-1.5,35.19,,,,,,,,,,
14.50.01.413,-61.6,15.4,0,4.0,,65376.1,15.3,-0.37,0.56,0.74,0.2,7.4,-2.0,35.19,,,,,,,,,,
14.50.01.422,-114.2,28.6,0,4.0,,64862.8,15.42,-0.37,0.55,0.74,-0.9,6.5,-2.0,35.19,,,,,,,,,,
14.50.01.434,-162.1,40.5,0,4.0,,63430.3,15.77,-0.37,0.55,0.74,-0.6,5.7,-2.4,35.19,,,,,,,,,,
14.50.01.443,-140.0,35.0,0,4.0,,62055.6,16.11,-0.37,0.55,0.74,0.8,6.2,-2.4,35.19,,,,,,,,,,
14.50.01.455,-154.7,38.7,0,4.0,,60989.2,16.4,-0.37,0.55,0.74,1.6,6.6,-2.5,35.19,,,,,,,,,,
14.50.01.463,-89.7,22.4,0,4.0,,66729.0,14.99,-0.37,0.56,0.74,2.2,6.0,-2.0,35.19,,,,,,,,,,
14.50.01.475,-205.8,51.4,0,4.0,,69508.0,14.39,-0.37,0.55,0.74,2.3,5.6,-1.8,35.19,,,,,,,,,,
14.50.01.483,-172.1,43.0,0,4.0,,64769.9,15.44,-0.37,0.56,0.73,3.1,5.6,-1.6,35.19,,,,,,,,,,
14.50.01.520,-221.1,55.3,0,4.0,,67349.9,14.85,-0.36,0.56,0.73,3.1,5.8,-1.9,35.19,,,,,,,,,,
14.50.01.532,-216.7,54.2,0,4.0,,71269.7,14.03,-0.37,0.56,0.73,1.4,7.9,-1.8,35.19,,,,,,,,,,
14.50.01.540,50.6,12.6,1,5.0,88.4,66564.1,15.02,-0.37,0.56,0.73,1.6,7.7,-1.6,35.19,,,,,,,,,,
14.50.01.553,174.0,43.5,0,5.0,,63199.9,15.82,-0.37,0.56,0.74,1.3,6.3,-1.8,35.19,,,,,,,,,,
14.50.01.565,207.9,52.0,0,5.0,,66886.6,14.95,-0.37,0.56,0.73,1.5,7.0,-1.9,35.19,,,,,,,,,,
14.50.01.573,316.6,79.2,0,5.0,,63952.9,15.64,-0.36,0.56,0.73,1.2,7.3,-1.8,35.19,,,,,,,,,,
14.50.01.585,334.7,83.7,0,5.0,,67725.5,14.77,-0.36,0.56,0.73,0.5,7.1,-2.2,35.19,,,,,,,,,,
14.50.01.594,374.3,93.6,0,5.0,,63453.7,15.76,-0.37,0.56,0.73,0.1,7.4,-2.1,35.19,,,,,,,,,,
14.50.01.606,373.3,93.3,0,5.0,,61470.3,16.27,-0.38,0.56,0.73,0.1,8.3,-1.5,35.19,,,,,,,,,,
14.50.01.614,399.5,99.9,0,5.0,,69280.9,14.43,-0.39,0.55,0.74,-1.2,7.6,-1.4,35.19,,,,,,,,,,
14.50.01.626,440.3,110.1,0,5.0,,66802.9,14.97,-0.39,0.56,0.75,-0.5,7.3,-0.4,35.19,,,,,,,,,,
14.50.01.635,548.5,137.1,0,5.0,,68055.2,14.69,-0.4,0.56,0.75,1.1,7.3,-0.2,35.19,,,,,,,,,,
14.50.01.647,506.1,126.5,0,5.0,,64011.1,15.62,-0.39,0.56,0.75,0.5,6.2,-0.1,35.19,,,,,,,,,,
14.50.01.655,481.7,120.4,0,5.0,,61564.8,16.24,-0.39,0.56,0.74,0.5,6.6,0.0,35.19,,,,,,,,,,
14.50.01.667,485.4,121.4,0,5.0,,68981.5,14.5,-0.38,0.57,0.73,-0.1,7.0,-0.3,35.19,,,,,,,,,,
14.50.01.676,511.7,127.9,0,5.0,,69293.3,14.43,-0.38,0.57,0.73,-1.3,7.3,-0.8,35.19,,,,,,,,,,
14.50.01.688,410.8,102.7,0,5.0,,63497.1,15.75,-0.38,0.57,0.74,-1.7,7.7,-0.6,35.19,,,,,,,,,,
14.50.01.696,425.8,106.4,0,5.0,,69634.9,14.36,-0.38,0.56,0.74,-2.7,6.8,-0.9,35.19,,,,,,,,,,
14.50.01.708,356.3,89.1,0,5.0,,66603.4,15.01,-0.38,0.54,0.75,-1.9,7.0,-1.1,35.19,,,,,,,,,,
14.50.01.717,295.7,73.9,0,5.0,,65664.9,15.23,-0.38,0.53,0.75,-0.6,7.2,-1.5,35.19,,,,,,,,,,
14.50.01.729,258.4,64.6,0,5.0,,63630.8,15.72,-0.38,0.52,0.74,0.2,6.6,-2.3,35.19,,,,,,,,,,
14.50.01.737,203.7,50.9,0,5.0,,68073.4,14.69,-0.38,0.52,0.73,2.7,5.3,-3.1,35.19,,,,,,,,,,
14.50.01.749,11.4,2.8,0,5.0,,67810.7,14.75,-0.37,0.52,0.72,3.7,3.2,-4.1,35.19,,,,,,,,,,
14.50.01.757,46.1,11.5,0,5.0,,67630.7,14.79,-0.37,0.53,0.73,4.0,2.3,-4.3,35.19,,,,,,,,,,
14.50.01.770,-8.5,2.1,0,5.0,,59434.1,16.83,-0.37,0.56,0.72,4.7,2.9,-4.3,35.19,,,,,,,,,,
14.50.01.782,31.4,7.8,0,5.0,,64822.6,15.43,-0.38,0.56,0.73,3.4,3.0,-4.5,35.19,,,,,,,,,,
14.50.01.790,80.8,20.2,0,5.0,,66581.9,15.02,-0.38,0.56,0.73,3.8,4.6,-4.3,35.19,,,,,,,,,,
14.50.01.803,129.1,32.3,0,5.0,,66524.9,15.03,-0.38,0.56,0.73,3.1,2.4,-3.3,35.19,,,,,,,,,,
14.50.01.811,63.0,15.8,0,5.0,,61607.2,16.23,-0.38,0.57,0.74,3.4,1.1,-1.9,35.19,,,,,,,,,,
14.50.01.823,104.6,26.2,0,5.0,,67603.9,14.79,-0.38,0.58,0.75,3.5,0.9,-0.4,35.19,,,,,,,,,,
14.50.01.831,73.0,18.2,0,5.0,,69280.8,14.43,-0.37,0.58,0.76,2.7,2.5,0.6,35.19,,,,,,,,,,
14.50.01.844,58.3,14.6,0,5.0,,60724.6,16.47,-0.38,0.57,0.75,3.5,5.1,1.5,35.19,,,,,,,,,,
14.50.01.852,81.1,20.3,0,5.0,,66563.3,15.02,-0.38,0.56,0.74,4.5,5.2,2.2,35.19,,,,,,,,,,
14.50.01.864,41.5,10.4,0,5.0,,63068.5,15.86,-0.37,0.55,0.73,4.1,3.8,1.8,35.19,,,,,,,,,,
14.50.01.872,99.5,24.9,0,5.0,,66547.1,15.03,-0.36,0.55,0.72,3.3,3.3,0.9,35.19,,,,,,,,,,
14.50.01.884,-20.5,5.1,0,5.0,,62814.6,15.92,-0.36,0.56,0.73,2.8,3.3,-0.2,35.19,,,,,,,,,,
14.50.01.893,-24.7,6.2,0,5.0,,66215.8,15.1,-0.35,0.57,0.73,3.2,5.2,-0.5,35.19,,,,,,,,,,
14.50.01.905,1.2,0.3,0,5.0,,66099.2,15.13,-0.36,0.57,0.74,3.1,6.9,-0.5,35.19,,,,,,,,,,
14.50.01.913,-56.6,14.2,0,5.0,,71523.5,13.98,-0.36,0.58,0.73,1.5,7.0,-1.2,35.19,,,,,,,,,,
14.50.01.925,9.3,2.3,0,5.0,,69556.0,14.38,-0.35,0.57,0.74,0.8,5.9,-1.0,35.19,,,,,,,,,,
14.50.01.934,-9.2,2.3,0,5.0,,71179.1,14.05,-0.36,0.57,0.73,0.2,5.0,-0.8,35.19,,,,,,,,,,
14.50.01.946,-58.9,14.7,0,5.0,,63614.7,15.72,-0.35,0.57,0.74,0.3,5.9,-0.6,35.19,,,,,,,,,,
14.50.01.954,-31.2,7.8,0,5.0,,60294.1,16.59,-0.36,0.56,0.73,0.8,7.1,-0.8,35.19,,,,,,,,,,
14.50.01.967,-20.6,5.2,0,5.0,,61972.9,16.14,-0.36,0.56,0.73,0.7,7.1,-1.3,35.19,,,,,,,,,,
14.50.01.979,2.3,0.6,0,5.0,,63278.2,15.8,-0.35,0.56,0.73,0.1,7.2,-2.0,35.19,,,,,,,,,,
14.50.01.987,-11.5,2.9,0,5.0,,66379.4,15.06,-0.36,0.56,0.73,-0.7,7.2,-2.3,35.19,,,,,,,,,,
14.50.01.999,-9.8,2.4,0,5.0,,71186.5,14.05,-0.36,0.56,0.73,-1.2,7.3,-2.3,35.19,,,,,,,,,,
14.50.02.007,-16.2,4.0,0,5.0,,65940.6,15.17,-0.36,0.56,0.74,-0.6,8.1,-2.3,35.19,,,,,,,,,,
14.50.02.020,-113.4,28.4,0,5.0,,67434.0,14.83,-0.37,0.56,0.75,-0.5,8.2,-2.2,35.19,,,,,,,,,,
14.50.02.028,-72.1,18.0,0,5.0,,68822.9,14.53,-0.37,0.56,0.75,0.1,7.6,-2.5,35.19,,,,,,,,,,
14.50.02.040,-118.3,29.6,0,5.0,,64696.6,15.46,-0.37,0.56,0.75,0.7,7.4,-3.0,35.19,,,,,,,,,,
14.50.02.048,-124.4,31.1,0,5.0,,66525.0,15.03,-0.37,0.56,0.74,2.0,8.3,-2.8,35.19,,,,,,,,,,
14.50.02.061,-145.4,36.4,0,5.0,,62814.3,15.92,-0.37,0.57,0.74,2.9,8.3,-2.7,35.19,,,,,,,,,,
14.50.02.069,-142.2,35.6,0,5.0,,59910.7,16.69,-0.37,0.59,0.72,1.5,7.1,-2.2,35.19,,,,,,,,,,
14.50.02.081,-25.3,6.3,0,5.0,,66896.2,14.95,-0.37,0.58,0.72,0.5,7.3,-1.4,35.19,,,,,,,,,,
14.50.02.089,-139.8,35.0,0,5.0,,66303.2,15.08,-0.37,0.58,0.72,0.2,8.3,-1.5,35.19,,,,,,,,,,
14.50.02.102,-164.0,41.0,0,5.0,,66676.7,15.0,-0.38,0.58,0.72,-1.9,8.3,-1.7,35.19,,,,,,,,,,
14.50.02.110,-135.4,33.8,0,5.0,,69251.7,14.44,-0.38,0.57,0.73,-2.9,8.3,-2.1,35.19,,,,,,,,,,
14.50.02.123,-146.6,36.6,0,5.0,,70448.0,14.19,-0.38,0.57,0.73,-2.5,8.3,-1.8,35.19,,,,,,,,,,
14.50.02.130,-165.4,41.4,0,5.0,,65907.4,15.17,-0.39,0.57,0.74,-1.5,8.3,-1.2,35.19,,,,,,,,,,
14.50.02.143,-223.2,55.8,0,5.0,,63303.5,15.8,-0.39,0.57,0.73,-1.8,6.9,-0.5,35.19,,,,,,,,,,
14.50.02.155,-190.1,47.5,0,5.0,,63806.1,15.67,-0.39,0.56,0.74,-1.5,5.3,0.1,35.19,,,,,,,,,,
14.50.02.163,-250.5,62.6,0,5.0,,61276.7,16.32,-0.39,0.56,0.74,-0.8,5.3,0.7,35.19,,,,,,,,,,
14.50.02.175,-124.2,31.0,0,5.0,,71134.5,14.06,-0.39,0.55,0.73,-0.9,5.8,1.3,35.19,,,,,,,,,,
14.50.02.184,27.3,6.8,1,6.0,86.7,62806.9,15.92,-0.39,0.55,0.74,-0.6,6.4,0.9,35.19,,,,,,,,,,
14.50.02.196,69.0,17.2,0,6.0,,66561.2,15.02,-0.39,0.54,0.73,-1.1,5.2,0.6,35.19,,,,,,,,,,
14.50.02.204,174.1,43.5,0,6.0,,61156.5,16.35,-0.39,0.53,0.74,-0.7,4.7,0.2,35.19,,,,,,,,,,
14.50.02.216,227.1,56.8,0,6.0,,66759.4,14.98,-0.39,0.54,0.74,0.9,5.7,-0.1,35.19,,,,,,,,,,
14.50.02.225,333.1,83.3,0,6.0,,65225.4,15.33,-0.39,0.54,0.74,1.0,7.1,-1.3,35.19,,,,,,,,,,
14.50.02.237,339.1,84.8,0,6.0,,61297.2,16.31,-0.39,0.54,0.72,-0.1,6.7,-2.2,35.19,,,,,,,,,,
14.50.02.245,374.3,93.6,0,6.0,,63176.4,15.83,-0.39,0.55,0.73,-0.2,5.0,-2.8,35.19,,,,,,,,,,
14.50.02.257,443.7,110.9,0,6.0,,63417.7,15.77,-0.39,0.54,0.73,0.5,4.0,-2.4,35.19,,,,,,,,,,
14.50.02.266,390.9,97.7,0,6.0,,67146.6,14.89,-0.39,0.54,0.74,0.3,4.1,-2.9,35.19,,,,,,,,,,
14.50.02.278,418.3,104.6,0,6.0,,68162.7,14.67,-0.39,0.56,0.74,1.5,5.3,-2.7,35.19,,,,,,,,,,
14.50.02.286,519.2,129.8,0,6.0,,67041.5,14.92,-0.38,0.55,0.74,1.1,4.3,-2.5,35.19,,,,,,,,,,
14.50.02.323,432.5,108.1,0,6.0,,66013.8,15.15,-0.38,0.55,0.75,0.9,2.7,-2.5,35.19,,,,,,,,,,
14.50.02.335,398.1,99.5,0,6.0,,66992.8,14.93,-0.37,0.55,0.75,1.7,3.4,-2.6,35.19,,,,,,,,,,
14.50.02.343,440.3,110.1,0,6.0,,63387.9,15.78,-0.37,0.55,0.74,2.0,3.8,-2.3,35.19,,,,,,,,,,
14.50.02.356,297.2,74.3,0,6.0,,66553.9,15.03,-0.36,0.55,0.74,2.6,4.1,-1.7,35.19,,,,,,,,,,
14.50.02.368,245.3,61.3,0,6.0,,65569.3,15.25,-0.36,0.55,0.75,3.3,4.4,-1.1,35.19,,,,,,,,,,
14.50.02.376,253.4,63.4,0,6.0,,65460.2,15.28,-0.36,0.56,0.74,4.1,5.0,-1.1,35.19,,,,,,,,,,
14.50.02.388,177.1,44.3,0,6.0,,66633.7,15.01,-0.35,0.56,0.73,4.0,3.7,-1.8,35.19,,,,,,,,,,
14.50.02.397,33.6,8.4,0,6.0,,62091.7,16.11,-0.35,0.57,0.72,3.9,4.0,-2.5,35.19,,,,,,,,,,
14.50.02.409,-0.7,0.2,0,6.0,,61790.7,16.18,-0.35,0.57,0.73,4.1,5.0,-2.9,35.19,,,,,,,,,,
14.50.02.417,55.0,13.8,0,6.0,,68392.4,14.62,-0.35,0.59,0.72,3.0,4.9,-2.9,35.19,,,,,,,,,,
14.50.02.429,-7.5,1.9,0,6.0,,64407.2,15.53,-0.35,0.6,0.73,1.8,4.5,-2.2,35.19,,,,,,,,,,
14.50.02.442,101.8,25.4,0,6.0,,68246.0,14.65,-0.36,0.6,0.73,0.8,4.5,-1.1,35.19,,,,,,,,,,
14.50.02.450,100.0,25.0,0,6.0,,65689.1,15.22,-0.36,0.59,0.73,0.1,5.1,-0.2,35.19,,,,,,,,,,
14.50.02.462,33.0,8.2,0,6.0,,65901.5,15.17,-0.36,0.58,0.72,-0.3,6.0,0.1,35.19,,,,,,,,,,
14.50.02.470,35.0,8.8,0,6.0,,69977.6,14.29,-0.36,0.57,0.72,-0.7,6.4,-0.4,35.19,,,,,,,,,,
14.50.02.483,128.7,32.2,0,6.0,,66226.1,15.1,-0.37,0.56,0.72,-1.4,7.1,-0.8,35.19,,,,,,,,,,
14.50.02.491,106.1,26.5,0,6.0,,64332.8,15.54,-0.37,0.56,0.71,-1.9,6.9,-1.7,35.19,,,,,,,,,,
14.50.02.503,80.7,20.2,0,6.0,,64678.8,15.46,-0.37,0.56,0.72,-2.7,6.0,-1.5,35.19,,,,,,,,,,
14.50.02.511,5.1,1.3,0,6.0,,67862.3,14.74,-0.37,0.57,0.74,-1.9,6.5,-0.7,35.19,,,,,,,,,,
14.50.02.524,19.6,4.9,0,6.0,,61793.0,16.18,-0.37,0.57,0.74,-2.0,8.0,0.0,35.19,,,,,,,,,,
14.50.02.532,14.0,3.5,0,6.0,,63709.7,15.7,-0.37,0.57,0.74,-4.2,8.1,0.1,35.19,,,,,,,,,,
14.50.02.544,-35.5,8.9,0,6.0,,61876.3,16.16,-0.37,0.55,0.73,-6.2,9.5,-0.5,35.19,,,,,,,,,,
14.50.02.552,48.0,12.0,0,6.0,,63967.9,15.63,-0.37,0.54,0.73,-6.2,10.0,-1.6,35.19,,,,,,,,,,
14.50.02.565,-13.6,3.4,0,6.0,,65433.0,15.28,-0.37,0.54,0.73,-6.4,9.6,-2.5,35.19,,,,,,,,,,
14.50.02.573,13.4,3.4,0,6.0,,64839.2,15.42,-0.38,0.54,0.74,-7.2,8.7,-3.2,35.19,,,,,,,,,,
14.50.02.585,-44.2,11.0,0,6.0,,62052.4,16.12,-0.37,0.54,0.75,-5.5,8.9,-2.5,35.19,,,,,,,,,,
14.50.02.597,-64.4,16.1,0,6.0,,66218.5,15.1,-0.38,0.54,0.75,-3.5,8.8,-1.7,35.19,,,,,,,,,,
14.50.02.605,-46.1,11.5,0,6.0,,67027.9,14.92,-0.38,0.54,0.75,-3.6,7.8,-1.7,35.19,,,,,,,,,,
14.50.02.618,-41.5,10.4,0,6.0,,66502.8,15.04,-0.38,0.53,0.75,-4.2,7.3,-1.7,35.19,,,,,,,,,,
14.50.02.626,-61.0,15.2,0,6.0,,70159.9,14.25,-0.39,0.52,0.75,-2.7,7.6,-1.6,35.19,,,,,,,,,,
14.50.02.639,-64.9,16.2,0,6.0,,68003.6,14.71,-0.39,0.53,0.76,-1.3,7.1,-1.4,35.19,,,,,,,,,,
14.50.02.647,-63.5,15.9,0,6.0,,64960.4,15.39,-0.39,0.53,0.76,1.1,6.7,-1.1,35.19,,,,,,,,,,
14.50.02.659,-16.5,4.1,0,6.0,,75562.5,13.23,-0.39,0.54,0.76,1.8,5.1,-1.1,35.19,,,,,,,,,,
14.50.02.667,-73.4,18.4,0,6.0,,61969.5,16.14,-0.38,0.54,0.75,2.9,3.8,-1.5,35.19,,,,,,,,,,
14.50.02.679,-152.8,38.2,0,6.0,,63284.9,15.8,-0.37,0.55,0.74,4.2,3.9,-1.1,35.19,,,,,,,,,,
14.50.02.687,-100.0,25.0,0,6.0,,64925.7,15.4,-0.38,0.56,0.74,3.0,3.7,-1.4,35.19,,,,,,,,,,
14.50.02.700,-131.3,32.8,0,6.0,,60632.3,16.49,-0.37,0.56,0.74,1.9,4.0,-1.5,35.19,,,,,,,,,,
14.50.02.712,-110.1,27.5,0,6.0,,70552.6,14.17,-0.37,0.57,0.73,1.4,4.8,-1.1,35.19,,,,,,,,,,
14.50.02.720,-91.9,23.0,0,6.0,,62673.9,15.96,-0.37,0.56,0.73,0.8,5.4,-1.2,35.19,,,,,,,,,,
14.50.02.732,-126.6,31.6,0,6.0,,63436.9,15.76,-0.37,0.56,0.73,1.0,5.7,-0.8,35.19,,,,,,,,,,
14.50.02.741,-176.6,44.2,0,6.0,,65965.3,15.16,-0.37,0.56,0.72,1.0,5.6,-0.9,35.19,,,,,,,,,,
14.50.02.753,-137.6,34.4,0,6.0,,67035.5,14.92,-0.37,0.55,0.72,1.0,5.5,-0.9,35.19,,,,,,,,,,
14.50.02.761,-180.1,45.0,0,6.0,,62519.3,16.0,-0.37,0.55,0.73,1.4,5.3,-0.4,35.19,,,,,,,,,,
14.50.02.773,-172.8,43.2,0,6.0,,62891.4,15.9,-0.36,0.55,0.73,1.7,4.4,-0.7,35.19,,,,,,,,,,
14.50.02.782,-174.1,43.5,0,6.0,,66322.7,15.08,-0.35,0.56,0.73,1.8,5.0,-1.4,35.19,,,,,,,,,,
14.50.02.794,-202.6,50.6,0,6.0,,66106.9,15.13,-0.36,0.55,0.73,1.6,5.9,-1.7,35.19,,,,,,,,,,
14.50.02.802,-139.0,34.8,0,6.0,,69905.5,14.31,-0.37,0.56,0.73,1.9,5.4,-1.5,35.19,,,,,,,,,,
14.50.02.814,-178.4,44.6,0,6.0,,66910.7,14.95,-0.36,0.56,0.74,2.3,5.0,-1.1,35.19,,,,,,,,,,
14.50.02.823,-222.1,55.5,0,6.0,,66981.6,14.93,-0.38,0.56,0.73,2.3,5.3,-0.9,35.19,,,,,,,,,,
14.50.02.835,104.3,26.1,1,7.0,90.1,67164.7,14.89,-0.37,0.56,0.74,2.6,5.4,-0.4,35.19,,,,,,,,,,
14.50.02.843,151.5,37.9,0,7.0,,66313.6,15.08,-0.37,0.57,0.74,2.3,5.3,-0.9,35.19,,,,,,,,,,
14.50.02.855,183.9,46.0,0,7.0,,62623.1,15.97,-0.37,0.56,0.74,1.4,5.3,-1.1,35.19,,,,,,,,,,
14.50.02.864,234.6,58.6,0,7.0,,66299.9,15.08,-0.38,0.56,0.74,0.9,6.1,-1.2,35.19,,,,,,,,,,
14.50.02.876,331.6,82.9,0,7.0,,64897.3,15.41,-0.37,0.57,0.74,-0.1,6.7,-1.9,35.19,,,,,,,,,,
14.50.02.884,296.3,74.1,0,7.0,,61964.5,16.14,-0.37,0.56,0.74,-0.6,6.9,-1.9,35.19,,,,,,,,,,
14.50.02.896,429.1,107.3,0,7.0,,66302.8,15.08,-0.37,0.57,0.74,-1.0,6.3,-1.8,35.19,,,,,,,,,,
14.50.02.905,452.1,113.0,0,7.0,,62904.0,15.9,-0.37,0.56,0.74,-2.5,6.8,-1.9,35.19,,,,,,,,,,
14.50.02.917,516.0,129.0,0,7.0,,68653.6,14.57,-0.37,0.57,0.74,-2.9,8.2,-1.4,35.19,,,,,,,,,,
14.50.02.929,466.4,116.6,0,7.0,,64618.3,15.48,-0.38,0.57,0.74,-3.1,8.6,-0.4,35.19,,,,,,,,,,
14.50.02.942,432.6,108.2,0,7.0,,69093.3,14.47,-0.37,0.57,0.73,-4.8,8.4,0.2,35.19,,,,,,,,,,
14.50.02.950,464.9,116.2,0,7.0,,64006.5,15.62,-0.36,0.57,0.74,-7.3,9.5,0.2,35.19,,,,,,,,,,
14.50.02.962,440.6,110.2,0,7.0,,66916.2,14.94,-0.37,0.56,0.73,-8.9,11.6,-0.3,35.19,,,,,,,,,,
14.50.02.971,370.4,92.6,0,7.0,,65634.8,15.24,-0.37,0.55,0.73,-10.4,11.4,0.0,35.19,,,,,,,,,,
14.50.02.983,479.3,119.8,0,7.0,,63651.7,15.71,-0.37,0.55,0.75,-10.9,11.2,0.4,35.19,,,,,,,,,,
14.50.02.991,387.8,97.0,0,7.0,,65370.4,15.3,-0.38,0.55,0.75,-10.4,11.7,0.7,35.19,,,,,,,,,,
14.50.03.003,298.1,74.5,0,7.0,,66135.6,15.12,-0.39,0.53,0.75,-9.8,12.2,0.6,35.19,,,,,,,,,,
14.50.03.011,305.1,76.3,0,7.0,,66676.2,15.0,-0.39,0.51,0.75,-8.3,10.7,0.6,35.19,,,,,,,,,,
14.50.03.023,116.6,29.2,0,7.0,,61828.3,16.17,-0.39,0.51,0.74,-5.4,8.8,0.1,35.19,,,,,,,,,,
14.50.03.032,88.1,22.0,0,7.0,,67501.6,14.81,-0.39,0.51,0.75,-3.4,7.3,-1.3,35.19,,,,,,,,,,
14.50.03.044,43.1,10.8,0,7.0,,65963.8,15.16,-0.38,0.52,0.74,-2.3,7.0,-2.1,35.19,,,,,,,,,,
14.50.03.052,16.5,4.1,0,7.0,,66640.3,15.01,-0.38,0.53,0.74,-0.2,7.3,-2.7,35.19,,,,,,,,,,
14.50.03.064,36.7,9.2,0,7.0,,63616.5,15.72,-0.38,0.54,0.74,0.6,6.1,-2.4,35.19,,,,,,,,,,
14.50.03.073,10.9,2.7,0,7.0,,62005.8,16.13,-0.38,0.55,0.74,0.3,4.9,-2.4,35.19,,,,,,,,,,
14.50.03.085,27.7,6.9,0,7.0,,63425.7,15.77,-0.37,0.56,0.73,0.5,4.0,-1.6,35.19,,,,,,,,,,
14.50.03.097,-12.7,3.2,0,7.0,,68427.8,14.61,-0.37,0.56,0.74,-0.9,4.3,-1.3,35.19,,,,,,,,,,
14.50.03.134,67.1,16.8,0,7.0,,59102.3,16.92,-0.38,0.54,0.74,-2.5,6.3,-1.4,35.19,,,,,,,,,,
14.50.03.143,104.5,26.1,0,7.0,,64905.1,15.41,-0.38,0.54,0.76,-1.3,7.5,-2.2,35.19,,,,,,,,,,
14.50.03.155,85.6,21.4,0,7.0,,69502.3,14.39,-0.37,0.53,0.75,0.6,10.0,-1.4,35.19,,,,,,,,,,
14.50.03.163,52.4,13.1,0,7.0,,65123.7,15.36,-0.38,0.54,0.74,0.5,6.6,-1.3,35.19,,,,,,,,,,
14.50.03.175,7.6,1.9,0,7.0,,65840.9,15.19,-0.39,0.54,0.74,0.3,4.0,-1.1,35.19,,,,,,,,,,
14.50.03.183,-14.3,3.6,0,7.0,,62296.1,16.05,-0.39,0.54,0.75,1.3,4.5,-1.5,35.19,,,,,,,,,,
14.50.03.195,12.5,3.1,0,7.0,,67396.0,14.84,-0.38,0.54,0.75,1.6,5.7,-1.5,35.19,,,,,,,,,,
14.50.03.204,-21.5,5.4,0,7.0,,67158.5,14.89,-0.39,0.54,0.75,1.0,5.6,-1.5,35.19,,,,,,,,,,
14.50.03.216,-26.7,6.7,0,7.0,,64385.7,15.53,-0.38,0.54,0.75,1.3,5.3,-1.3,35.19,,,,,,,,,,
14.50.03.224,-47.2,11.8,0,7.0,,64684.2,15.46,-0.38,0.54,0.74,2.0,5.5,-0.8,35.19,,,,,,,,,,
14.50.03.236,-37.0,9.2,0,7.0,,63816.5,15.67,-0.38,0.55,0.74,1.9,5.6,-1.2,35.19,,,,,,,,,,
14.50.03.245,-51.7,12.9,0,7.0,,69945.4,14.3,-0.37,0.54,0.73,0.6,5.3,-1.6,35.19,,,,,,,,,,
14.50.03.257,-129.7,32.4,0,7.0,,70560.3,14.17,-0.37,0.54,0.74,0.4,6.2,-2.1,35.19,,,,,,,,,,
14.50.03.265,-71.2,17.8,0,7.0,,67858.0,14.74,-0.38,0.54,0.74,0.0,6.4,-1.8,35.19,,,,,,,,,,
14.50.03.277,-98.5,24.6,0,7.0,,68159.7,14.67,-0.38,0.54,0.75,-0.3,5.7,-1.8,35.19,,,,,,,,,,
14.50.03.286,-67.6,16.9,0,7.0,,65542.4,15.26,-0.38,0.54,0.76,-0.2,5.4,-1.6,35.19,,,,,,,,,,
14.50.03.298,-122.9,30.7,0,7.0,,66259.3,15.09,-0.38,0.53,0.75,0.3,6.1,-1.2,35.19,,,,,,,,,,
14.50.03.306,-60.1,15.0,0,7.0,,69705.4,14.35,-0.38,0.53,0.74,1.0,6.6,-1.5,35.19,,,,,,,,,,
14.50.03.318,-115.8,29.0,0,7.0,,60747.2,16.46,-0.38,0.53,0.74,1.0,6.5,-1.9,35.19,95.3,,,,,,,,,
14.50.03.327,-115.9,29.0,0,7.0,,64087.0,15.6,-0.38,0.53,0.74,2.0,5.8,-2.0,35.19,,,,,,,,,,
14.50.03.339,-43.9,11.0,0,7.0,,64448.5,15.52,-0.38,0.55,0.74,1.3,5.0,-1.5,35.19,,,,,,,,,,
14.50.03.351,-119.1,29.8,0,7.0,,64940.2,15.4,-0.37,0.55,0.74,1.1,5.5,-1.3,35.19,,,,,,,,,,
14.50.03.359,-172.6,43.2,0,7.0,,68376.9,14.62,-0.37,0.54,0.75,1.5,6.5,-1.2,35.19,,,,,,,,,,
14.50.03.372,-80.6,20.2,0,7.0,,67147.6,14.89,-0.37,0.54,0.74,1.4,5.9,-1.2,35.19,,,,,,,,,,
14.50.03.380,-148.2,37.0,0,7.0,,67249.3,14.87,-0.38,0.54,0.74,0.8,5.0,-1.1,35.19,,,,,,,,,,
14.50.03.392,-161.7,40.4,0,7.0,,68143.2,14.67,-0.38,0.54,0.75,1.4,5.3,-1.3,35.19,,,,,,,,,,
14.50.03.400,-168.6,42.2,0,7.0,,67400.1,14.84,-0.38,0.54,0.75,2.0,6.1,-1.1,35.19,,,,,,,,,,
14.50.03.413,-117.2,29.3,0,7.0,,63213.5,15.82,-0.38,0.54,0.74,1.1,5.7,-2.0,35.19,,,,,,,,,,
14.50.03.421,-169.8,42.4,0,7.0,,67313.3,14.86,-0.38,0.54,0.75,1.3,4.9,-1.2,35.19,,,,,,,,,,
14.50.03.433,-197.2,49.3,0,7.0,,61320.9,16.31,-0.37,0.54,0.74,1.8,5.4,-1.0,35.19,,,,,,,,,,
14.50.03.441,-99.8,25.0,0,7.0,,66875.7,14.95,-0.37,0.54,0.74,1.1,6.3,-1.7,35.19,,,,,,,,,,
14.50.03.454,-149.5,37.4,0,7.0,,66414.5,15.06,-0.38,0.54,0.75,0.4,6.3,-2.2,35.19,,,,,,,,,,
14.50.03.462,-218.8,54.7,0,7.0,,64455.3,15.51,-0.38,0.54,0.75,0.8,5.6,-1.9,35.19,,,,,,,,,,
14.50.03.474,-20.5,5.1,1,8.0,93.2,66249.7,15.09,-0.38,0.54,0.75,0.9,6.3,-2.3,35.19,,,,,,,,,,
14.50.03.482,106.2,26.6,0,8.0,,60855.0,16.43,-0.39,0.54,0.75,0.5,6.3,-1.8,35.19,,,,,,,,,,
14.50.03.495,127.4,31.8,0,8.0,,69431.7,14.4,-0.38,0.54,0.75,1.0,5.6,-1.4,35.19,,,,,,,,,,
14.50.03.503,249.6,62.4,0,8.0,,66332.8,15.08,-0.38,0.55,0.75,1.4,5.0,-0.7,35.19,,,,,,,,,,
14.50.03.515,274.2,68.6,0,8.0,,69228.4,14.44,-0.38,0.54,0.74,0.5,4.6,-1.2,35.19,,,,,,,,,,
14.50.03.527,310.1,77.5,0,8.0,,59645.6,16.77,-0.38,0.54,0.74,0.5,7.0,-1.4,35.19,,,,,,,,,,
14.50.03.535,388.7,97.2,0,8.0,,62846.2,15.91,-0.37,0.54,0.74,0.3,6.1,-1.3,35.19,,,,,,,,,,
14.50.03.548,388.2,97.0,0,8.0,,66562.2,15.02,-0.38,0.54,0.74,1.2,4.7,-1.4,35.19,,,,,,,,,,
14.50.03.556,449.7,112.4,0,8.0,,66327.4,15.08,-0.38,0.54,0.75,2.0,5.3,-0.8,35.19,,,,,,,,,,
14.50.03.568,500.9,125.2,0,8.0,,60127.6,16.63,-0.38,0.53,0.75,2.1,4.6,-0.8,35.19,,,,,,,,,,
14.50.03.576,528.8,132.2,0,8.0,,64977.7,15.39,-0.38,0.54,0.75,2.5,4.9,-0.4,35.19,,,,,,,,,,
14.50.03.589,469.0,117.2,0,8.0,,63598.1,15.72,-0.39,0.55,0.75,3.2,4.7,-0.1,35.19,,,,,,,,,,
14.50.03.601,512.8,128.2,0,8.0,,68735.4,14.55,-0.38,0.55,0.75,2.2,4.8,-0.5,35.19,,,,,,,,,,
14.50.03.613,510.6,127.6,0,8.0,,69591.2,14.37,-0.38,0.55,0.74,1.6,6.1,-0.9,35.19,,,,,,,,,,
14.50.03.621,433.8,108.4,0,8.0,,71186.6,14.05,-0.38,0.55,0.75,1.0,6.6,-0.7,35.19,,,,,,,,,,
14.50.03.634,402.7,100.7,0,8.0,,65304.9,15.31,-0.37,0.56,0.75,0.1,6.2,-0.8,35.19,,,,,,,,,,
14.50.03.646,366.0,91.5,0,8.0,,65620.5,15.24,-0.38,0.55,0.75,-0.1,6.4,-0.5,35.19,,,,,,,,,,
14.50.03.654,244.5,61.1,0,8.0,,62290.9,16.05,-0.38,0.54,0.75,-0.4,6.4,-0.5,35.19,,,,,,,,,,
14.50.03.667,152.2,38.0,0,8.0,,72655.4,13.76,-0.38,0.54,0.75,-0.3,6.7,-0.5,35.19,,,,,,,,,,
14.50.03.679,93.6,23.4,0,8.0,,70475.2,14.19,-0.37,0.53,0.75,-0.2,6.8,-0.8,35.19,,,,,,,,,,
14.50.03.691,43.5,10.9,0,8.0,,62921.0,15.89,-0.38,0.53,0.75,0.1,6.4,-0.9,35.19,,,,,,,,,,
14.50.03.699,19.5,4.9,0,8.0,,68289.7,14.64,-0.38,0.54,0.74,0.1,6.0,-1.4,35.19,,,,,,,,,,
14.50.03.712,13.8,3.4,0,8.0,,72291.4,13.83,-0.37,0.54,0.74,-0.4,6.1,-1.8,35.19,,,,,,,,,,
14.50.03.724,21.3,5.3,0,8.0,,62577.3,15.98,-0.37,0.55,0.73,0.4,6.4,-2.1,35.19,,,,,,,,,,
14.50.03.732,40.0,10.0,0,8.0,,62921.8,15.89,-0.38,0.55,0.74,0.5,5.9,-1.9,35.19,,,,,,,,,,
14.50.03.744,94.1,23.5,0,8.0,,66483.5,15.04,-0.38,0.54,0.74,0.6,5.4,-1.6,35.19,,,,,,,,,,
14.50.03.757,30.9,7.7,0,8.0,,65792.0,15.2,-0.38,0.54,0.74,0.5,5.3,-1.6,35.19,,,,,,,,,,
14.50.03.769,152.6,38.2,0,8.0,,66664.3,15.0,-0.38,0.55,0.75,1.1,5.4,-1.6,35.19,,,,,,,,,,
14.50.03.777,78.2,19.6,0,8.0,,71343.9,14.02,-0.38,0.54,0.74,0.7,5.1,-1.6,35.19,,,,,,,,,,
14.50.03.789,17.6,4.4,0,8.0,,66512.4,15.03,-0.38,0.54,0.74,0.8,6.2,-1.8,35.19,,,,,,,,,,
14.50.03.802,64.8,16.2,0,8.0,,64979.5,15.39,-0.38,0.55,0.74,1.2,5.9,-1.6,35.19,,,,,,,,,,
14.50.03.810,17.9,4.5,0,8.0,,66305.2,15.08,-0.38,0.55,0.74,1.0,5.0,-1.3,35.19,,,,,,,,,,
14.50.03.822,11.5,2.9,0,8.0,,66140.7,15.12,-0.38,0.55,0.74,0.9,5.6,-1.3,35.19,,,,,,,,,,
14.50.03.835,-38.0,9.5,0,8.0,,66022.7,15.15,-0.37,0.54,0.74,0.8,6.4,-1.3,35.19,,,,,,,,,,
14.50.03.843,13.2,3.3,0,8.0,,64459.2,15.51,-0.38,0.54,0.74,0.5,6.1,-1.1,35.19,,,,,,,,,,
14.50.03.855,-21.6,5.4,0,8.0,,64731.1,15.45,-0.38,0.55,0.75,1.1,4.8,-1.3,35.19,,,,,,,,,,
14.50.03.867,33.9,8.5,0,8.0,,64820.4,15.43,-0.38,0.54,0.75,0.9,4.8,-1.3,35.19,,,,,,,,,,
14.50.03.880,5.1,1.3,0,8.0,,64745.3,15.45,-0.37,0.54,0.74,1.0,6.4,-1.7,35.19,,,,,,,,,,
14.50.03.888,-28.2,7.0,0,8.0,,68298.1,14.64,-0.37,0.54,0.74,1.1,6.0,-1.8,35.19,,,,,,,,,,
14.50.03.900,-86.9,21.7,0,8.0,,63687.6,15.7,-0.37,0.54,0.74,0.5,5.5,-1.9,35.19,,,,,,,,,,
14.50.03.941,-46.5,11.6,0,8.0,,63990.1,15.63,-0.37,0.54,0.75,1.0,5.9,-1.5,35.19,,,,,,,,,,
14.50.03.953,-21.5,5.4,0,8.0,,68564.2,14.58,-0.38,0.54,0.75,1.2,6.4,-1.6,35.19,,,,,,,,,,
14.50.03.962,-64.4,16.1,0,8.0,,65543.0,15.26,-0.38,0.54,0.74,0.8,5.5,-1.8,35.19,,,,,,,,,,
14.50.03.974,-69.9,17.5,0,8.0,,63960.0,15.63,-0.38,0.54,0.75,1.3,4.9,-1.6,35.19,,,,,,,,,,
14.50.03.987,-159.3,39.8,0,8.0,,67821.9,14.74,-0.38,0.55,0.74,1.4,6.0,-1.4,35.19,,,,,,,,,,
14.50.03.995,-175.3,43.8,0,8.0,,75590.4,13.23,-0.38,0.55,0.75,1.1,7.0,-1.2,35.19,,,,,,,,,,
14.50.04.007,-129.0,32.2,0,8.0,,67910.9,14.73,-0.37,0.55,0.74,0.1,5.8,-1.5,35.19,,,,,,,,,,
14.50.04.019,-111.7,27.9,0,8.0,,65352.4,15.3,-0.37,0.55,0.74,-0.2,6.3,-1.4,35.19,,,,,,,,,,
14.50.04.027,-176.1,44.0,0,8.0,,68605.6,14.58,-0.38,0.54,0.74,-0.5,6.8,-1.7,35.19,,,,,,,,,,
14.50.04.039,-116.3,29.1,0,8.0,,70746.3,14.14,-0.38,0.54,0.74,-0.9,6.6,-1.5,35.19,,,,,,,,,,
14.50.04.052,-72.4,18.1,0,8.0,,61889.4,16.16,-0.38,0.54,0.75,-0.1,6.1,-1.4,35.19,,,,,,,,,,
14.50.04.064,-175.0,43.8,0,8.0,,67883.1,14.73,-0.38,0.54,0.75,0.8,6.5,-1.0,35.19,,,,,,,,,,
14.50.04.072,-175.6,43.9,0,8.0,,67286.4,14.86,-0.39,0.54,0.74,1.2,6.0,-0.8,35.19,,,,,,,,,,
14.50.04.084,-207.1,51.8,0,8.0,,68838.3,14.53,-0.38,0.53,0.74,1.9,5.3,-1.1,35.19,,,,,,,,,,
14.50.04.097,-148.3,37.1,0,8.0,,61827.4,16.17,-0.38,0.54,0.74,2.3,4.6,-1.3,35.19,,,,,,,,,,
14.50.04.105,-148.4,37.1,0,8.0,,64128.5,15.59,-0.37,0.54,0.74,1.6,4.7,-1.4,35.19,,,,,,,,,,
14.50.04.117,-215.3,53.8,0,8.0,,66068.3,15.14,-0.38,0.54,0.74,1.5,5.7,-1.4,35.19,,,,,,,,,,
14.50.04.129,156.6,39.2,1,9.0,87.1,67728.7,14.76,-0.37,0.55,0.74,0.8,5.9,-1.5,35.19,,,,,,,,,,
14.50.04.138,144.9,36.2,0,9.0,,63276.8,15.8,-0.38,0.55,0.74,0.5,5.6,-1.6,35.19,,,,,,,,,,
14.50.04.150,210.3,52.6,0,9.0,,68002.8,14.71,-0.38,0.54,0.75,0.3,6.1,-1.5,35.19,,,,,,,,,,
14.50.04.162,358.9,89.7,0,9.0,,65364.8,15.3,-0.37,0.54,0.74,0.8,6.8,-1.2,35.19,,,,,,,,,,
14.50.04.175,366.8,91.7,0,9.0,,62996.4,15.87,-0.38,0.54,0.74,0.1,5.8,-1.8,35.19,,,,,,,,,,
14.50.04.183,390.4,97.6,0,9.0,,70812.9,14.12,-0.38,0.54,0.75,1.2,5.0,-1.9,35.19,,,,,,,,,,
14.50.04.195,470.2,117.6,0,9.0,,66895.9,14.95,-0.38,0.54,0.74,2.0,5.0,-1.3,35.19,,,,,,,,,,
14.50.04.207,476.1,119.0,0,9.0,,67857.4,14.74,-0.38,0.54,0.75,1.1,5.1,-1.2,35.19,,,,,,,,,,
14.50.04.215,480.5,120.1,0,9.0,,70083.7,14.27,-0.38,0.54,0.74,1.3,5.8,-0.8,35.19,,,,,,,,,,
14.50.04.228,518.1,129.5,0,9.0,,66179.1,15.11,-0.38,0.54,0.75,1.4,5.1,-0.8,35.19,,,,,,,,,,
14.50.04.240,470.2,117.6,0,9.0,,65964.7,15.16,-0.38,0.54,0.75,0.8,5.5,-1.0,35.19,,,,,,,,,,
14.50.04.252,511.6,127.9,0,9.0,,67847.6,14.74,-0.37,0.55,0.74,1.0,5.7,-1.7,35.19,,,,,,,,,,
14.50.04.261,505.3,126.3,0,9.0,,66067.1,15.14,-0.37,0.54,0.75,0.7,5.5,-2.1,35.19,,,,,,,,,,
14.50.04.273,439.4,109.8,0,9.0,,66271.5,15.09,-0.37,0.55,0.75,0.8,6.3,-1.7,35.19,,,,,,,,,,
14.50.04.285,391.3,97.8,0,9.0,,68542.1,14.59,-0.37,0.55,0.75,0.2,6.0,-1.7,35.19,,,,,,,,,,
14.50.04.293,301.6,75.4,0,9.0,,66781.4,14.97,-0.37,0.54,0.75,0.0,5.8,-1.5,35.19,,,,,,,,,,
14.50.04.306,210.4,52.6,0,9.0,,64585.2,15.48,-0.38,0.54,0.75,1.3,6.6,-1.2,35.19,,,,,,,,,,
14.50.04.318,162.4,40.6,0,9.0,,62728.4,15.94,-0.37,0.54,0.75,1.6,6.1,-1.0,35.19,,,,,,,,,,
14.50.04.326,157.1,39.3,0,9.0,,62221.2,16.07,-0.37,0.54,0.74,1.1,5.6,-1.5,35.19,,,,,,,,,,
14.50.04.339,4.9,1.2,0,9.0,,65937.8,15.17,-0.37,0.54,0.74,1.4,6.1,-1.6,35.19,,,,,,,,,,
14.50.04.351,-11.4,2.8,0,9.0,,64916.2,15.4,-0.38,0.55,0.74,1.3,5.3,-1.7,35.19,,,,,,,,,,
14.50.04.363,-18.8,4.7,0,9.0,,60881.1,16.43,-0.37,0.55,0.74,0.8,5.0,-1.5,35.19,,,,,,,,,,
14.50.04.371,73.9,18.5,0,9.0,,65731.1,15.21,-0.38,0.55,0.74,0.3,6.1,-1.3,35.19,,,,,,,,,,
14.50.04.383,58.6,14.6,0,9.0,,70040.5,14.28,-0.38,0.55,0.75,0.5,6.4,-1.1,35.19,,,,,,,,,,
14.50.04.396,106.4,26.6,0,9.0,,64960.0,15.39,-0.38,0.54,0.74,0.1,6.3,-1.1,35.19,,,,,,,,,,
14.50.04.404,87.6,21.9,0,9.0,,65674.0,15.23,-0.37,0.54,0.74,0.4,6.7,-1.6,35.19,,,,,,,,,,
14.50.04.416,101.2,25.3,0,9.0,,65264.4,15.32,-0.38,0.54,0.74,0.5,6.9,-1.9,35.19,,,,,,,,,,
14.50.04.428,28.4,7.1,0,9.0,,71590.6,13.97,-0.38,0.54,0.74,1.0,7.0,-2.3,35.19,,,,,,,,,,
14.50.04.437,20.8,5.2,0,9.0,,66583.3,15.02,-0.37,0.55,0.75,0.9,5.0,-1.4,35.19,,,,,,,,,,
14.50.04.449,55.0,13.8,0,9.0,,64539.6,15.49,-0.38,0.54,0.75,1.2,4.8,-1.1,35.19,,,,,,,,,,
14.50.04.461,48.9,12.2,0,9.0,,66944.8,14.94,-0.38,0.54,0.74,1.2,7.1,-0.7,35.19,,,,,,,,,,
14.50.04.474,18.1,4.5,0,9.0,,65387.4,15.29,-0.38,0.54,0.74,0.7,6.1,-0.9,35.19,,,,,,,,,,
14.50.04.482,-75.7,18.9,0,9.0,,59853.4,16.71,-0.38,0.54,0.75,1.6,5.8,-1.0,35.19,,,,,,,,,,
14.50.04.494,-32.5,8.1,0,9.0,,64723.5,15.45,-0.38,0.55,0.74,0.9,7.0,-1.4,35.19,,,,,,,,,,
14.50.04.507,-27.7,6.9,0,9.0,,65310.3,15.31,-0.37,0.54,0.74,0.6,6.7,-1.7,35.19,,,,,,,,,,
14.50.04.519,9.9,2.5,0,9.0,,62421.2,16.02,-0.37,0.54,0.73,0.9,5.0,-1.6,35.19,,,,,,,,,,
14.50.04.527,-24.5,6.1,0,9.0,,65119.9,15.36,-0.37,0.54,0.75,0.9,4.8,-1.5,35.19,,,,,,,,,,
14.50.04.539,-44.6,11.2,0,9.0,,63815.8,15.67,-0.38,0.54,0.75,0.9,6.2,-1.8,35.19,,,,,,,,,,
14.50.04.551,-58.1,14.5,0,9.0,,63002.8,15.87,-0.38,0.54,0.76,1.1,6.2,-1.8,35.19,,,,,,,,,,
14.50.04.560,-55.5,13.9,0,9.0,,65435.4,15.28,-0.39,0.54,0.75,1.2,6.0,-2.0,35.19,,,,,,,,,,
14.50.04.572,-53.7,13.4,0,9.0,,66784.1,14.97,-0.38,0.55,0.74,1.4,6.2,-1.8,35.19,,,,,,,,,,
14.50.04.584,-47.9,12.0,0,9.0,,69057.9,14.48,-0.38,0.55,0.75,1.2,6.7,-1.7,35.19,,,,,,,,,,
14.50.04.592,-61.0,15.2,0,9.0,,65023.8,15.38,-0.37,0.55,0.74,0.2,5.9,-1.6,35.19,,,,,,,,,,
14.50.04.605,-92.6,23.2,0,9.0,,69102.6,14.47,-0.38,0.55,0.74,0.2,6.2,-1.3,35.19,,,,,,,,,,
14.50.04.617,-63.1,15.8,0,9.0,,64556.1,15.49,-0.37,0.55,0.75,0.0,6.9,-1.1,35.19,,,,,,,,,,
14.50.04.629,-78.4,19.6,0,9.0,,57164.1,17.49,-0.38,0.55,0.75,-0.6,6.6,-0.7,35.19,,,,,,,,,,
14.50.04.637,-101.4,25.4,0,9.0,,70008.9,14.28,-0.38,0.54,0.74,-0.2,6.7,-1.1,35.19,,,,,,,,,,
14.50.04.650,-136.3,34.1,0,9.0,,69555.3,14.38,-0.38,0.54,0.74,0.1,6.9,-1.2,35.19,,,,,,,,,,
14.50.04.662,-196.7,49.2,0,9.0,,62148.9,16.09,-0.38,0.54,0.74,0.5,6.3,-1.5,35.19,,,,,,,,,,
14.50.04.674,-125.7,31.4,0,9.0,,68277.5,14.65,-0.37,0.54,0.74,0.7,6.0,-1.8,35.19,,,,,,,,,,
14.50.04.683,-155.3,38.8,0,9.0,,67404.8,14.84,-0.37,0.55,0.73,1.4,5.6,-1.2,35.19,,,,,,,,,,
14.50.04.695,-123.3,30.8,0,9.0,,65064.1,15.37,-0.37,0.54,0.73,1.2,6.0,-1.4,35.19,,,,,,,,,,
14.50.04.703,-118.0,29.5,0,9.0,,68589.7,14.58,-0.37,0.55,0.74,1.4,6.4,-1.2,35.19,,,,,,,,,,
14.50.04.740,-212.3,53.1,0,9.0,,65273.7,15.32,-0.38,0.55,0.75,0.9,5.7,-0.7,35.19,,,,,,,,,,
14.50.04.752,-171.4,42.8,0,9.0,,67581.8,14.8,-0.38,0.55,0.75,0.6,6.2,-1.2,35.19,,,,,,,,,,
14.50.04.760,-228.2,57.0,0,9.0,,66329.0,15.08,-0.38,0.54,0.74,0.5,6.6,-1.1,35.19,,,,,,,,,,
14.50.04.773,85.1,21.3,1,10.0,90.2,68201.4,14.66,-0.38,0.54,0.74,0.5,6.2,-1.0,35.19,,,,,,,,,,
14.50.04.781,102.8,25.7,0,10.0,,63643.2,15.71,-0.38,0.54,0.74,1.0,6.1,-1.1,35.19,,,,,,,,,,
14.50.04.793,178.6,44.6,0,10.0,,68994.1,14.49,-0.39,0.54,0.74,1.1,6.4,-1.3,35.19,,,,,,,,,,
14.50.04.801,207.6,51.9,0,10.0,,67879.8,14.73,-0.39,0.54,0.74,1.3,6.1,-1.6,35.19,,,,,,,,,,
14.50.04.814,311.3,77.8,0,10.0,,69702.5,14.35,-0.38,0.54,0.74,1.8,5.6,-1.4,35.19,,,,,,,,,,
14.50.04.822,362.9,90.7,0,10.0,,65498.8,15.27,-0.38,0.54,0.74,2.4,5.9,-1.1,35.19,,,,,,,,,,
14.50.04.835,384.7,96.2,0,10.0,,69483.8,14.39,-0.38,0.55,0.74,1.4,6.1,-1.3,35.19,,,,,,,,,,
14.50.04.842,499.6,124.9,0,10.0,,65332.0,15.31,-0.38,0.54,0.74,0.5,6.0,-1.3,35.19,,,,,,,,,,
14.50.04.855,508.4,127.1,0,10.0,,64398.6,15.53,-0.38,0.54,0.75,0.9,6.7,-1.6,35.19,,,,,,,,,,
14.50.04.863,528.7,132.2,0,10.0,,63335.9,15.79,-0.38,0.54,0.75,0.7,6.9,-1.6,35.19,,,,,,,,,,
14.50.04.875,453.7,113.4,0,10.0,,67103.6,14.9,-0.38,0.54,0.75,0.2,6.5,-1.5,35.19,,,,,,,,,,
14.50.04.883,419.8,105.0,0,10.0,,67898.0,14.73,-0.38,0.54,0.75,0.9,6.2,-1.2,35.19,,,,,,,,,,
14.50.04.896,495.7,123.9,0,10.0,,57851.6,17.29,-0.38,0.54,0.75,1.2,6.0,-1.1,35.19,,,,,,,,,,
14.50.04.904,458.2,114.6,0,10.0,,71041.4,14.08,-0.37,0.55,0.75,1.4,6.3,-1.2,35.19,,,,,,,,,,
14.50.04.916,431.0,107.8,0,10.0,,66909.1,14.95,-0.38,0.54,0.74,1.2,6.2,-1.3,35.19,,,,,,,,,,
14.50.04.924,437.1,109.3,0,10.0,,68054.7,14.69,-0.38,0.55,0.74,1.4,5.6,-1.0,35.19,,,,,,,,,,
14.50.04.937,266.2,66.6,0,10.0,,63232.2,15.81,-0.38,0.55,0.73,1.2,6.1,-1.2,35.19,,,,,,,,,,
14.50.04.945,298.5,74.6,0,10.0,,66296.0,15.08,-0.38,0.55,0.74,0.7,6.1,-1.4,35.19,,,,,,,,,,
14.50.04.957,224.1,56.0,0,10.0,,67156.5,14.89,-0.38,0.55,0.74,0.3,5.9,-1.3,35.19,,,,,,,,,,
14.50.04.969,95.4,23.8,0,10.0,,63131.0,15.84,-0.38,0.55,0.74,0.6,5.7,-1.2,35.19,,,,,,,,,,
14.50.04.977,133.0,33.2,0,10.0,,72985.1,13.7,-0.38,0.55,0.74,1.2,6.1,-0.4,35.19,,,,,,,,,,
14.50.04.990,29.0,7.2,0,10.0,,63712.6,15.7,-0.38,0.55,0.73,1.3,6.5,-0.6,35.19,,,,,,,,,,
14.50.04.998,36.9,9.2,0,10.0,,66181.0,15.11,-0.37,0.54,0.74,0.7,5.9,-1.1,35.19,,,,,,,,,,
14.50.05.010,24.0,6.0,0,10.0,,68469.2,14.61,-0.37,0.54,0.74,0.9,5.9,-1.5,35.19,,,,,,,,,,
14.50.05.019,44.9,11.2,0,10.0,,65350.8,15.3,-0.37,0.55,0.74,1.1,6.5,-1.4,35.19,,,,,,,,,,
14.50.05.031,99.8,25.0,0,10.0,,63105.1,15.85,-0.38,0.55,0.74,0.5,6.4,-1.0,35.19,,,,,,,,,,
14.50.05.039,126.5,31.6,0,10.0,,64795.5,15.43,-0.37,0.55,0.74,0.6,5.9,-1.0,35.19,,,,,,,,,,
14.50.05.051,75.6,18.9,0,10.0,,64319.3,15.55,-0.38,0.55,0.74,1.0,5.9,-1.1,35.19,,,,,,,,,,
14.50.05.059,117.5,29.4,0,10.0,,64353.1,15.54,-0.38,0.54,0.74,1.1,6.3,-1.0,35.19,,,,,,,,,,
14.50.05.072,78.0,19.5,0,10.0,,66125.4,15.12,-0.38,0.54,0.74,0.8,6.4,-1.3,35.19,,,,,,,,,,
14.50.05.080,-0.3,0.1,0,10.0,,67740.0,14.76,-0.38,0.54,0.74,1.5,6.2,-0.8,35.19,,,,,,,,,,
14.50.05.092,27.3,6.8,0,10.0,,67264.8,14.87,-0.38,0.55,0.74,1.9,5.5,-0.6,35.19,,,,,,,,,,
14.50.05.100,57.1,14.3,0,10.0,,63667.5,15.71,-0.38,0.54,0.74,1.7,5.0,-0.6,35.19,,,,,,,,,,
14.50.05.113,31.9,8.0,0,10.0,,66915.6,14.94,-0.38,0.54,0.73,1.8,5.5,-1.0,35.19,,,,,,,,,,
14.50.05.121,9.0,2.2,0,10.0,,63649.8,15.71,-0.38,0.54,0.73,1.3,5.8,-1.3,35.19,,,,,,,,,,
14.50.05.133,-26.7,6.7,0,10.0,,69512.6,14.39,-0.38,0.54,0.74,0.9,5.2,-1.2,35.19,,,,,,,,,,
14.50.05.141,32.6,8.2,0,10.0,,67829.0,14.74,-0.38,0.55,0.74,1.5,5.2,-1.5,35.19,,,,,,,,,,
14.50.05.154,-3.6,0.9,0,10.0,,67599.8,14.79,-0.38,0.55,0.74,1.4,5.5,-1.5,35.19,,,,,,,,,,
14.50.05.162,-43.2,10.8,0,10.0,,63154.6,15.83,-0.39,0.55,0.75,1.1,6.1,-1.5,35.19,,,,,,,,,,
14.50.05.174,-55.2,13.8,0,10.0,,68702.3,14.56,-0.38,0.55,0.75,1.5,6.7,-1.3,35.19,,,,,,,,,,
14.50.05.183,-49.4,12.4,0,10.0,,68977.0,14.5,-0.38,0.55,0.74,1.0,5.5,-0.8,35.19,,,,,,,,,,
14.50.05.195,-58.3,14.6,0,10.0,,64434.4,15.52,-0.38,0.55,0.74,0.0,4.9,-0.8,35.19,,,,,,,,,,
14.50.05.203,-38.0,9.5,0,10.0,,63944.1,15.64,-0.38,0.55,0.75,0.6,6.1,-1.0,35.19,,,,,,,,,,
14.50.05.215,-51.3,12.8,0,10.0,,66265.5,15.09,-0.38,0.55,0.74,0.7,5.7,-1.2,35.19,,,,,,,,,,
14.50.05.223,-90.6,22.6,0,10.0,,64726.5,15.45,-0.38,0.54,0.75,0.4,5.3,-1.5,35.19,,,,,,,,,,
14.50.05.236,-11.2,2.8,0,10.0,,66587.4,15.02,-0.39,0.54,0.75,0.9,5.6,-1.8,35.19,,,,,,,,,,
14.50.05.244,-80.7,20.2,0,10.0,,64758.0,15.44,-0.38,0.54,0.75,0.8,5.6,-1.8,35.19,,,,,,,,,,
14.50.05.256,-108.2,27.0,0,10.0,,66133.1,15.12,-0.38,0.55,0.74,0.5,4.9,-1.6,35.19,,,,,,,,,,
14.50.05.264,-141.8,35.4,0,10.0,,62001.3,16.13,-0.38,0.55,0.74,0.3,4.8,-1.7,35.19,,,,,,,,,,
14.50.05.281,-61.5,15.4,0,10.0,,65566.9,15.25,-0.38,0.55,0.74,1.3,5.4,-1.2,35.19,,,,,,,,,,
14.50.05.289,-134.1,33.5,0,10.0,,64452.5,15.52,-0.38,0.54,0.74,1.2,5.0,-1.2,35.19,,,,,,,,,,
14.50.05.301,-104.8,26.2,0,10.0,,65170.2,15.34,-0.38,0.54,0.73,0.8,5.4,-1.6,35.19,,,,,,,,,,
14.50.05.309,-168.5,42.1,0,10.0,,67352.2,14.85,-0.38,0.55,0.73,1.3,5.2,-1.5,35.19,,,,,,,,,,
14.50.05.322,-123.7,30.9,0,10.0,,63961.7,15.63,-0.38,0.55,0.74,1.4,5.2,-1.8,35.19,,,,,,,,,,
14.50.05.330,-147.0,36.8,0,10.0,,72777.9,13.74,-0.37,0.55,0.73,0.9,4.7,-1.4,35.19,,,,,,,,,,
14.50.05.342,-154.7,38.7,0,10.0,,71158.5,14.05,-0.37,0.55,0.74,1.3,4.8,-1.2,35.19,,,,,,,,,,
14.50.05.351,-192.1,48.0,0,10.0,,70777.9,14.13,-0.38,0.55,0.75,1.0,5.2,-1.2,35.19,,,,,,,,,,
14.50.05.363,-167.0,41.8,0,10.0,,61720.5,16.2,-0.38,0.55,0.75,0.6,5.2,-1.2,35.19,,,,,,,,,,
14.50.05.371,-156.9,39.2,0,10.0,,66810.9,14.97,-0.37,0.55,0.74,1.4,6.1,-1.4,35.19,,,,,,,,,,
14.50.05.383,-176.0,44.0,0,10.0,,60939.7,16.41,-0.37,0.55,0.74,0.7,6.2,-1.7,35.19,,,,,,,,,,
14.50.05.391,-211.8,53.0,0,10.0,,61886.7,16.16,-0.37,0.55,0.74,0.1,5.4,-1.9,35.19,,,,,,,,,,
14.50.05.404,-214.1,53.5,0,10.0,,61561.5,16.24,-0.37,0.55,0.75,0.5,5.4,-1.5,35.19,,,,,,,,,,
14.50.05.412,-70.7,17.7,1,11.0,93.8,67871.2,14.73,-0.37,0.55,0.74,0.1,5.7,-1.4,35.19,,,,,,,,,,
14.50.05.424,129.8,32.4,0,11.0,,63412.8,15.77,-0.37,0.55,0.74,0.1,6.3,-1.5,35.19,,,,,,,,,,
14.50.05.432,166.6,41.6,0,11.0,,62526.1,15.99,-0.37,0.54,0.74,-0.3,5.9,-1.3,35.19,,,,,,,,,,
14.50.05.445,225.5,56.4,0,11.0,,64087.2,15.6,-0.37,0.54,0.74,0.0,5.9,-1.4,35.19,,,,,,,,,,
14.50.05.453,298.2,74.6,0,11.0,,67486.5,14.82,-0.37,0.54,0.74,0.5,6.2,-1.5,35.19,,,,,,,,,,
14.50.05.465,333.9,83.5,0,11.0,,65092.2,15.36,-0.37,0.54,0.74,1.1,5.8,-1.5,35.19,,,,,,,,,,
14.50.05.473,327.6,81.9,0,11.0,,69625.2,14.36,-0.38,0.54,0.74,1.9,5.4,-1.8,35.19,,,,,,,,,,
14.50.05.485,456.6,114.2,0,11.0,,68109.7,14.68,-0.38,0.55,0.74,2.0,5.1,-1.4,35.19,,,,,,,,,,
14.50.05.494,457.3,114.3,0,11.0,,67370.0,14.84,-0.38,0.54,0.74,1.8,5.5,-1.6,35.19,,,,,,,,,,
14.50.05.506,463.9,116.0,0,11.0,,71170.1,14.05,-0.38,0.55,0.75,1.8,5.4,-1.3,35.19,,,,,,,,,,
14.50.05.543,522.9,130.7,0,11.0,,68057.7,14.69,-0.38,0.55,0.74,1.5,4.7,-1.3,35.25,,,,,,,,,,
14.50.05.551,510.1,127.5,0,11.0,,62578.9,15.98,-0.37,0.55,0.74,0.5,6.3,-1.2,35.25,,,,,,,,,,
14.50.05.563,435.3,108.8,0,11.0,,65482.9,15.27,-0.38,0.55,0.75,0.8,5.6,-0.9,35.25,,,,,,,,,,
14.50.05.572,357.7,89.4,0,11.0,,69638.5,14.36,-0.38,0.55,0.74,0.7,6.2,-1.2,35.25,,,,,,,,,,
14.50.05.584,343.2,85.8,0,11.0,,71046.3,14.08,-0.38,0.55,0.73,0.7,5.8,-1.5,35.25,,,,,,,,,,
14.50.05.592,324.9,81.2,0,11.0,,63128.7,15.84,-0.37,0.54,0.74,0.8,5.7,-1.2,35.25,,,,,,,,,,
14.50.05.604,241.7,60.4,0,11.0,,66305.1,15.08,-0.38,0.54,0.74,1.5,6.5,-1.3,35.25,,,,,,,,,,
14.50.05.612,221.4,55.4,0,11.0,,73283.9,13.65,-0.38,0.54,0.74,1.3,5.8,-1.4,35.25,,,,,,,,,,
14.50.05.625,108.6,27.2,0,11.0,,59578.7,16.78,-0.38,0.54,0.74,1.4,4.9,-1.2,35.25,,,,,,,,,,
14.50.05.637,43.5,10.9,0,11.0,,62713.3,15.95,-0.38,0.54,0.74,1.9,5.5,-1.1,35.25,,,,,,,,,,
14.50.05.645,27.4,6.8,0,11.0,,60153.2,16.62,-0.38,0.55,0.74,1.8,5.5,-1.1,35.25,,,,,,,,,,
14.50.05.658,86.0,21.5,0,11.0,,68663.0,14.56,-0.38,0.54,0.74,1.6,5.4,-1.0,35.25,,,,,,,,,,
14.50.05.666,79.9,20.0,0,11.0,,61939.1,16.14,-0.39,0.54,0.74,1.7,4.9,-1.3,35.25,,,,,,,,,,
14.50.05.678,-8.5,2.1,0,11.0,,65615.1,15.24,-0.38,0.55,0.74,1.6,4.9,-0.7,35.25,,,,,,,,,,
14.50.05.686,96.0,24.0,0,11.0,,71251.2,14.03,-0.38,0.55,0.74,1.1,5.7,-1.2,35.25,,,,,,,,,,
14.50.05.698,124.3,31.1,0,11.0,,65000.2,15.38,-0.38,0.55,0.73,0.7,6.0,-1.7,35.25,,,,,,,,,,
14.50.05.707,84.1,21.0,0,11.0,,64183.3,15.58,-0.38,0.55,0.74,0.6,5.5,-1.5,35.25,,,,,,,,,,
14.50.05.719,111.2,27.8,0,11.0,,67795.5,14.75,-0.38,0.54,0.74,1.0,5.2,-1.2,35.25,,,,,,,,,,
14.50.05.727,131.4,32.8,0,11.0,,66303.1,15.08,-0.38,0.55,0.75,0.5,5.5,-1.4,35.25,,,,,,,,,,
14.50.05.739,38.6,9.6,0,11.0,,69172.7,14.46,-0.38,0.55,0.74,0.1,5.6,-1.3,35.25,,,,,,,,,,
14.50.05.748,56.2,14.0,0,11.0,,73569.1,13.59,-0.38,0.54,0.74,0.7,5.9,-1.3,35.25,,,,,,,,,,
14.50.05.760,59.6,14.9,0,11.0,,65651.3,15.23,-0.38,0.54,0.74,1.3,5.4,-1.1,35.25,,,,,,,,,,
14.50.05.768,12.1,3.0,0,11.0,,63910.8,15.65,-0.38,0.55,0.74,1.3,4.9,-1.0,35.25,,,,,,,,,,
14.50.05.780,27.4,6.8,0,11.0,,74375.0,13.45,-0.38,0.55,0.75,0.8,5.4,-1.3,35.25,,,,,,,,,,
14.50.05.789,28.0,7.0,0,11.0,,69635.8,14.36,-0.38,0.55,0.75,1.2,4.9,-0.9,35.25,,,,,,,,,,
14.50.05.801,-12.0,3.0,0,11.0,,71101.6,14.06,-0.38,0.54,0.74,1.6,5.3,-0.6,35.25,,,,,,,,,,
14.50.05.809,1.2,0.3,0,11.0,,67320.2,14.85,-0.38,0.55,0.74,1.3,5.3,-1.1,35.25,,,,,,,,,,
14.50.05.821,-38.1,9.5,0,11.0,,60788.1,16.45,-0.39,0.55,0.74,0.7,4.5,-1.1,35.25,,,,,,,,,,
14.50.05.830,-49.3,12.3,0,11.0,,64155.5,15.59,-0.38,0.55,0.74,1.3,4.8,-0.7,35.25,,,,,,,,,,
14.50.05.842,-141.5,35.4,0,11.0,,64564.3,15.49,-0.39,0.55,0.75,1.1,5.4,-0.2,35.25,,,,,,,,,,
14.50.05.850,-17.1,4.3,0,11.0,,70788.3,14.13,-0.38,0.55,0.75,0.5,4.5,0.0,35.25,,,,,,,,,,
14.50.05.862,-59.9,15.0,0,11.0,,65550.1,15.26,-0.38,0.55,0.75,0.9,4.3,0.0,35.25,,,,,,,,,,
14.50.05.870,-139.8,35.0,0,11.0,,66786.3,14.97,-0.38,0.55,0.75,1.1,6.2,-0.3,35.25,,,,,,,,,,
14.50.05.887,-61.3,15.3,0,11.0,,62848.8,15.91,-0.38,0.55,0.74,0.4,7.1,-0.4,35.25,,,,,,,,,,
14.50.05.895,-71.9,18.0,0,11.0,,69089.2,14.47,-0.38,0.55,0.73,-0.1,6.1,-0.2,35.25,,,,,,,,,,
14.50.05.907,-80.5,20.1,0,11.0,,70064.7,14.27,-0.37,0.55,0.73,0.7,4.5,1.0,35.25,,,,,,,,,,
14.50.05.916,-100.7,25.2,0,11.0,,66364.4,15.07,-0.36,0.55,0.73,0.4,3.2,1.2,35.25,,,,,,,,,,
14.50.05.928,-95.7,23.9,0,11.0,,66329.2,15.08,-0.36,0.55,0.74,0.4,3.2,1.3,35.25,,,,,,,,,,
14.50.05.936,-103.3,25.8,0,11.0,,67445.0,14.83,-0.35,0.55,0.74,1.5,4.3,1.9,35.25,,,,,,,,,,
14.50.05.948,-128.7,32.2,0,11.0,,66427.5,15.05,-0.34,0.55,0.75,1.7,2.7,2.4,35.25,,,,,,,,,,
14.50.05.957,-158.5,39.6,0,11.0,,68851.4,14.52,-0.34,0.55,0.74,2.3,2.6,1.9,35.25,,,,,,,,,,
14.50.05.969,-185.5,46.4,0,11.0,,67275.2,14.86,-0.35,0.54,0.73,3.7,5.3,1.7,35.25,,,,,,,,,,
14.50.05.981,-135.6,33.9,0,11.0,,66905.5,14.95,-0.36,0.55,0.73,3.3,4.7,0.5,35.25,,,,,,,,,,
14.50.05.989,-145.7,36.4,0,11.0,,65614.9,15.24,-0.37,0.55,0.73,2.6,4.6,-0.3,35.25,,,,,,,,,,
14.50.06.002,-185.1,46.3,0,11.0,,66800.9,14.97,-0.37,0.57,0.73,2.6,6.2,-1.2,35.25,,,,,,,,,,
14.50.06.014,-179.9,45.0,0,11.0,,65374.0,15.3,-0.37,0.57,0.73,0.9,6.8,-1.0,35.25,,,,,,,,,,
14.50.06.026,-157.9,39.5,0,11.0,,67111.8,14.9,-0.36,0.56,0.73,-1.1,6.9,-0.9,35.25,,,,,,,,,,
14.50.06.034,-228.0,57.0,0,11.0,,64777.0,15.44,-0.37,0.56,0.73,-2.5,6.7,-0.4,35.25,,,,,,,,,,
14.50.06.047,-217.4,54.4,0,11.0,,64764.8,15.44,-0.37,0.55,0.75,-3.3,7.4,-0.3,35.25,,,,,,,,,,
14.50.06.059,-173.7,43.4,0,11.0,,67037.6,14.92,-0.38,0.55,0.76,-3.8,8.4,-0.4,35.25,,,,,,,,,,
14.50.06.067,12.9,3.2,1,12.0,91.4,68471.2,14.6,-0.39,0.54,0.76,-2.2,9.6,-0.8,35.25,,,,,,,,,,
14.50.06.079,149.4,37.4,0,12.0,,59127.7,16.91,-0.39,0.53,0.76,-0.8,9.0,-0.5,35.25,,,,,,,,,,
14.50.06.092,222.0,55.5,0,12.0,,64858.9,15.42,-0.39,0.52,0.76,1.0,7.6,-0.4,35.25,,,,,,,,,,
14.50.06.104,275.4,68.8,0,12.0,,64868.4,15.42,-0.38,0.53,0.75,3.2,5.6,0.3,35.25,,,,,,,,,,
14.50.06.112,308.7,77.2,0,12.0,,67025.7,14.92,-0.38,0.53,0.75,4.7,4.3,0.5,35.25,,,,,,,,,,
14.50.06.124,414.5,103.6,0,12.0,,67560.7,14.8,-0.37,0.54,0.75,6.3,4.2,0.5,35.25,,,,,,,,,,
14.50.06.137,395.0,98.8,0,12.0,,72069.8,13.88,-0.36,0.55,0.74,6.5,4.4,0.0,35.25,,,,,,,,,,
14.50.06.145,570.8,142.7,0,12.0,,64043.1,15.61,-0.35,0.55,0.74,5.4,3.5,-0.6,35.25,,,,,,,,,,
14.50.06.157,419.9,105.0,0,12.0,,71446.3,14.0,-0.35,0.56,0.73,4.9,4.2,-1.4,35.25,,,,,,,,,,
14.50.06.170,521.5,130.4,0,12.0,,59886.6,16.7,-0.35,0.57,0.72,4.2,6.4,-1.5,35.25,,,,,,,,,,
14.50.06.178,530.4,132.6,0,12.0,,61334.9,16.3,-0.35,0.57,0.73,1.8,6.5,-1.5,35.25,,,,,,,,,,
14.50.06.190,455.4,113.8,0,12.0,,62332.3,16.04,-0.34,0.57,0.73,1.5,4.9,-0.8,35.25,,,,,,,,,,
14.50.06.202,431.4,107.8,0,12.0,,70075.9,14.27,-0.36,0.57,0.74,2.6,4.8,-0.2,35.25,,,,,,,,,,
14.50.06.211,379.0,94.8,0,12.0,,67401.0,14.84,-0.36,0.56,0.74,1.9,5.1,-0.6,35.25,,,,,,,,,,
14.50.06.223,346.1,86.5,0,12.0,,69876.2,14.31,-0.37,0.56,0.75,3.3,6.5,-0.3,35.25,,,,,,,,,,
14.50.06.235,314.3,78.6,0,12.0,,71051.7,14.07,-0.37,0.56,0.74,3.9,5.6,-0.5,35.25,,,,,,,,,,
14.50.06.243,281.9,70.5,0,12.0,,65750.4,15.21,-0.37,0.56,0.73,4.1,4.6,-0.3,35.25,,,,,,,,,,
14.50.06.256,196.3,49.1,0,12.0,,66377.3,15.07,-0.38,0.57,0.74,4.2,4.3,-0.3,35.25,,,,,,,,,,
14.50.06.268,149.2,37.3,0,12.0,,66069.4,15.14,-0.37,0.57,0.73,3.9,4.1,0.3,35.25,,,,,,,,,,
14.50.06.280,84.1,21.0,0,12.0,,67238.1,14.87,-0.36,0.58,0.73,3.1,5.3,0.6,35.25,,,,,,,,,,
14.50.06.288,-2.2,0.6,0,12.0,,69403.9,14.41,-0.37,0.58,0.73,1.4,6.5,0.6,35.25,,,,,,,,,,
14.50.06.301,84.7,21.2,0,12.0,,65733.0,15.21,-0.36,0.58,0.73,0.3,8.4,1.0,35.25,,,,,,,,,,
14.50.06.313,55.3,13.8,0,12.0,,68795.6,14.54,-0.37,0.57,0.72,-0.2,9.6,0.6,35.25,,,,,,,,,,
14.50.06.350,144.4,36.1,0,12.0,,67168.0,14.89,-0.37,0.56,0.74,-3.8,11.8,-2.4,35.25,,,,,,,,,,
14.50.06.362,119.6,29.9,0,12.0,,70558.4,14.17,-0.38,0.56,0.74,-2.8,11.3,-2.0,35.25,,,,,,,,,,
14.50.06.374,46.9,11.7,0,12.0,,62964.2,15.88,-0.38,0.56,0.74,-3.0,9.0,-2.0,35.25,,,,,,,,,,
14.50.06.387,104.2,26.0,0,12.0,,68018.2,14.7,-0.39,0.55,0.71,-1.8,9.2,-1.9,35.25,,,,,,,,,,
14.50.06.395,92.7,23.2,0,12.0,,60370.3,16.56,-0.39,0.58,0.76,-1.8,6.9,-2.3,35.25,,,,,,,,,,
14.50.06.407,-46.4,11.6,0,12.0,,63475.2,15.75,-0.39,0.56,0.76,-2.6,9.7,-2.1,35.25,,,,,,,,,,
14.50.06.419,-22.5,5.6,0,12.0,,64270.4,15.56,-0.37,0.56,0.74,-2.4,13.0,-1.2,35.25,,,,,,,,,,
14.50.06.432,-65.3,16.3,0,12.0,,65980.8,15.16,-0.37,0.56,0.73,-3.7,8.4,-1.6,35.25,,,,,,,,,,
14.50.06.440,-25.4,6.4,0,12.0,,70293.5,14.23,-0.37,0.54,0.73,-4.5,5.3,-2.3,35.25,,,,,,,,,,
14.50.06.452,-43.9,11.0,0,12.0,,65420.7,15.29,-0.36,0.55,0.75,-3.6,9.0,-2.2,35.25,,,,,,,,,,
14.50.06.465,-33.4,8.4,0,12.0,,62413.9,16.02,-0.37,0.55,0.75,-4.3,10.1,-3.5,35.25,,,,,,,,,,
14.50.06.477,2.4,0.6,0,12.0,,70572.7,14.17,-0.37,0.54,0.75,-4.7,8.2,-3.6,35.25,,,,,,,,,,
14.50.06.485,-30.7,7.7,0,12.0,,62707.4,15.95,-0.38,0.55,0.75,-3.1,6.4,-3.1,35.25,,,,,,,,,,
14.50.06.497,-35.2,8.8,0,12.0,,69073.8,14.48,-0.37,0.55,0.74,-2.8,6.4,-3.1,35.25,,,,,,,,,,
14.50.06.510,-107.3,26.8,0,12.0,,60679.4,16.48,-0.37,0.55,0.74,-2.3,7.2,-3.2,35.25,,,,,,,,,,
14.50.06.518,-107.9,27.0,0,12.0,,63699.3,15.7,-0.37,0.54,0.72,-1.1,7.6,-2.8,35.25,,,,,,,,,,
14.50.06.530,-62.4,15.6,0,12.0,,64864.6,15.42,-0.37,0.54,0.73,-0.4,6.3,-2.2,35.25,,,,,,,,,,
14.50.06.542,-121.5,30.4,0,12.0,,63584.9,15.73,-0.37,0.55,0.73,0.4,5.4,-2.4,35.25,,,,,,,,,,
14.50.06.551,-32.3,8.1,0,12.0,,68687.0,14.56,-0.37,0.55,0.73,-0.6,5.4,-2.9,35.25,,,,,,,,,,
14.50.06.563,-126.6,31.6,0,12.0,,60621.3,16.5,-0.38,0.55,0.74,-0.8,7.0,-2.9,35.25,,,,,,,,,,
14.50.06.575,-117.9,29.5,0,12.0,,66090.7,15.13,-0.38,0.55,0.74,-0.1,7.6,-3.1,35.25,,,,,,,,,,
14.50.06.587,-120.7,30.2,0,12.0,,65329.0,15.31,-0.39,0.55,0.74,-0.9,6.5,-2.6,35.25,,,,,,,,,,
14.50.06.596,-132.9,33.2,0,12.0,,66448.9,15.05,-0.38,0.56,0.74,-1.2,6.1,-1.5,35.25,,,,,,,,,,
14.50.06.608,-134.5,33.6,0,12.0,,65260.3,15.32,-0.38,0.55,0.74,-0.7,6.2,-1.1,35.25,,,,,,,,,,
14.50.06.620,-177.4,44.4,0,12.0,,66353.3,15.07,-0.39,0.54,0.75,-0.6,6.4,-1.0,35.25,,,,,,,,,,
14.50.06.633,-120.6,30.2,0,12.0,,63429.5,15.77,-0.39,0.54,0.74,0.0,6.8,-0.6,35.25,,,,,,,,,,
14.50.06.641,-124.5,31.1,0,12.0,,65330.8,15.31,-0.39,0.54,0.74,0.4,6.3,-0.7,35.25,,,,,,,,,,
14.50.06.653,-121.1,30.3,0,12.0,,66334.7,15.08,-0.38,0.54,0.74,0.2,5.5,-0.6,35.25,,,,,,,,,,
14.50.06.665,-235.5,58.9,0,12.0,,67543.6,14.81,-0.37,0.54,0.74,0.0,5.2,-0.8,35.25,,,,,,,,,,
14.50.06.673,-170.2,42.6,0,12.0,,71763.4,13.93,-0.37,0.54,0.74,0.0,6.3,-1.1,35.25,,,,,,,,,,
14.50.06.686,-182.9,45.7,0,12.0,,66808.2,14.97,-0.37,0.54,0.74,0.6,6.3,-1.1,35.25,,,,,,,,,,
14.50.06.698,-193.3,48.3,0,12.0,,71458.1,13.99,-0.38,0.54,0.74,0.9,5.0,-1.3,35.25,,,,,,,,,,
14.50.06.706,-227.9,57.0,0,12.0,,65091.8,15.36,-0.39,0.54,0.75,1.4,4.5,-1.1,35.25,,,,,,,,,,
14.50.06.719,126.4,31.6,1,13.0,99.5,64379.7,15.53,-0.39,0.55,0.75,2.0,4.5,-0.7,35.25,,,,,,,,,,
14.50.06.731,165.3,41.3,0,13.0,,63483.2,15.75,-0.39,0.54,0.75,2.4,3.7,-0.4,35.25,,,,,,,,,,
14.50.06.743,231.6,57.9,0,13.0,,64293.7,15.55,-0.4,0.54,0.75,3.6,2.6,0.8,35.25,,,,,,,,,,
14.50.06.751,232.6,58.2,0,13.0,,62600.4,15.97,-0.39,0.55,0.75,4.4,1.8,1.5,35.25,,,,,,,,,,
14.50.06.764,335.6,83.9,0,13.0,,58392.8,17.13,-0.39,0.55,0.74,4.0,1.9,2.5,35.25,,,,,,,,,,
14.50.06.776,428.3,107.1,0,13.0,,64863.9,15.42,-0.39,0.55,0.74,4.5,2.7,1.5,35.25,,,,,,,,,,
14.50.06.784,404.6,101.2,0,13.0,,69234.1,14.44,-0.38,0.54,0.74,4.6,1.5,1.9,35.25,,,,,,,,,,
14.50.06.796,531.3,132.8,0,13.0,,70789.1,14.13,-0.36,0.55,0.74,5.4,0.1,2.2,35.25,,,,,,,,,,
14.50.06.809,513.3,128.3,0,13.0,,67729.0,14.76,-0.36,0.55,0.74,3.7,1.2,0.9,35.25,,,,,,,,,,
14.50.06.817,526.4,131.6,0,13.0,,62737.4,15.94,-0.33,0.55,0.73,0.8,4.3,-1.0,35.25,,,,,,,,,,
14.50.06.829,505.7,126.4,0,13.0,,62969.9,15.88,-0.33,0.55,0.73,0.3,4.5,-1.4,35.25,,,,,,,,,,
14.50.06.841,436.4,109.1,0,13.0,,65821.8,15.19,-0.34,0.54,0.73,2.0,5.0,-1.4,35.25,,,,,,,,,,
14.50.06.850,500.9,125.2,0,13.0,,66351.8,15.07,-0.35,0.53,0.72,4.7,6.5,-1.4,35.25,,,,,,,,,,
14.50.06.862,404.6,101.2,0,13.0,,67316.2,14.86,-0.36,0.53,0.7,6.0,5.0,-2.0,35.25,,,,,,,,,,
14.50.06.874,439.6,109.9,0,13.0,,62166.3,16.09,-0.35,0.56,0.73,5.4,-0.6,-2.1,35.25,,,,,,,,,,
14.50.06.887,310.1,77.5,0,13.0,,64477.8,15.51,-0.36,0.55,0.74,5.7,1.2,-2.6,35.25,,,,,,,,,,
14.50.06.895,209.4,52.4,0,13.0,,64838.4,15.42,-0.36,0.56,0.73,5.8,6.7,-3.5,35.25,,,,,,,,,,
14.50.06.907,149.6,37.4,0,13.0,,66829.5,14.96,-0.37,0.56,0.75,3.8,4.6,-4.5,35.25,,,,,,,,,,
14.50.06.919,84.3,21.1,0,13.0,,67749.5,14.76,-0.37,0.57,0.75,2.5,2.8,-4.3,35.25,,,,,,,,,,
14.50.06.932,8.5,2.1,0,13.0,,68506.6,14.6,-0.37,0.58,0.77,1.9,6.3,-3.9,35.25,,,,,,,,,,
14.50.06.940,38.4,9.6,0,13.0,,68800.5,14.53,-0.37,0.59,0.78,0.8,8.5,-3.9,35.25,,,,,,,,,,
14.50.06.952,62.8,15.7,0,13.0,,65961.8,15.16,-0.38,0.59,0.76,0.7,8.2,-2.5,35.25,,,,,,,,,,
14.50.06.964,33.7,8.4,0,13.0,,64519.8,15.5,-0.38,0.58,0.75,0.9,7.0,-0.8,35.25,,,,,,,,,,
14.50.06.973,111.1,27.8,0,13.0,,69124.6,14.47,-0.37,0.57,0.74,0.2,7.5,0.2,35.25,,,,,,,,,,
14.50.06.985,87.3,21.8,0,13.0,,66661.1,15.0,-0.36,0.56,0.73,-0.4,8.5,1.0,35.25,,,,,,,,,,
14.50.06.997,124.1,31.0,0,13.0,,63849.5,15.66,-0.36,0.56,0.73,-0.5,7.7,1.1,35.25,,,,,,,,,,
14.50.07.005,48.1,12.0,0,13.0,,71076.7,14.07,-0.36,0.55,0.72,-0.6,5.5,0.6,35.25,,,,,,,,,,
14.50.07.018,58.4,14.6,0,13.0,,67534.2,14.81,-0.35,0.55,0.72,0.1,6.4,0.3,35.25,,,,,,,,,,
14.50.07.030,61.6,15.4,0,13.0,,62924.4,15.89,-0.36,0.55,0.73,1.5,6.0,-0.5,35.25,,,,,,,,,,
14.50.07.042,66.0,16.5,0,13.0,,69389.9,14.41,-0.35,0.54,0.73,2.6,4.5,-0.6,35.25,,,,,,,,,,
14.50.07.050,-3.8,1.0,0,13.0,,65424.2,15.28,-0.36,0.55,0.72,3.5,3.2,-0.7,35.25,,,,,,,,,,
14.50.07.063,-62.7,15.7,0,13.0,,66032.1,15.14,-0.38,0.56,0.73,3.5,3.2,-1.2,35.25,,,,,,,,,,
14.50.07.075,-3.3,0.8,0,13.0,,64165.1,15.58,-0.38,0.56,0.73,3.9,4.0,-1.3,35.25,,,,,,,,,,
14.50.07.087,46.1,11.5,0,13.0,,69918.3,14.3,-0.38,0.57,0.73,3.6,4.4,-1.4,35.25,,,,,,,,,,
14.50.07.095,22.4,5.6,0,13.0,,65640.1,15.23,-0.38,0.57,0.73,2.4,4.3,-2.2,35.25,,,,,,,,,,
14.50.07.108,-37.8,9.4,0,13.0,,66455.7,15.05,-0.38,0.57,0.73,1.1,4.9,-2.4,35.25,,,,,,,,,,
14.50.07.116,-51.8,13.0,0,13.0,,68265.9,14.65,-0.37,0.56,0.72,0.3,6.2,-2.1,35.25,,,,,,,,,,
14.50.07.153,-62.9,15.7,0,13.0,,63552.1,15.74,-0.38,0.55,0.73,-0.8,7.0,-1.7,35.25,,,,,,,,,,
14.50.07.165,-91.1,22.8,0,13.0,,64484.9,15.51,-0.38,0.54,0.75,-0.7,7.4,-2.7,35.25,,,,,,,,,,
14.50.07.173,-53.9,13.5,0,13.0,,65653.8,15.23,-0.38,0.53,0.75,-0.3,7.0,-3.1,35.25,,,,,,,,,,
14.50.07.186,-39.7,9.9,0,13.0,,60642.6,16.49,-0.38,0.55,0.74,0.5,6.3,-3.0,35.25,,,,,,,,,,
14.50.07.194,-62.6,15.6,0,13.0,,73840.5,13.54,-0.38,0.55,0.75,1.3,5.8,-2.8,35.25,,,,,,,,,,
14.50.07.206,-98.2,24.6,0,13.0,,64681.6,15.46,-0.37,0.56,0.75,1.3,4.3,-1.9,35.25,,,,,,,,,,
14.50.07.218,-122.9,30.7,0,13.0,,64190.2,15.58,-0.37,0.56,0.76,2.4,4.3,-1.7,35.25,,,,,,,,,,
14.50.07.227,-96.3,24.1,0,13.0,,66478.8,15.04,-0.37,0.57,0.75,2.1,3.8,-1.2,35.25,,,,,,,,,,
14.50.07.239,-107.8,27.0,0,13.0,,67786.3,14.75,-0.36,0.57,0.75,0.9,3.8,-1.1,35.25,,,,,,,,,,
14.50.07.251,-87.5,21.9,0,13.0,,65548.0,15.26,-0.35,0.57,0.74,0.6,5.0,-0.9,35.25,,,,,,,,,,
14.50.07.259,-174.8,43.7,0,13.0,,66665.6,15.0,-0.35,0.56,0.73,-0.2,5.3,-1.3,35.25,,,,,,,,,,
14.50.07.272,-124.0,31.0,0,13.0,,66433.3,15.05,-0.35,0.56,0.74,-0.4,5.3,-1.7,35.25,,,,,,,,,,
14.50.07.284,-197.6,49.4,0,13.0,,66648.7,15.0,-0.35,0.56,0.74,0.0,4.8,-1.5,35.25,,,,,,,,,,
14.50.07.296,-159.1,39.8,0,13.0,,67592.3,14.79,-0.36,0.56,0.73,0.0,5.0,-1.5,35.25,,,,,,,,,,
14.50.07.304,-52.6,13.2,0,13.0,,73723.9,13.56,-0.36,0.56,0.74,0.4,5.2,-1.3,35.25,,,,,,,,,,
14.50.07.317,-228.5,57.1,0,13.0,,71419.6,14.0,-0.36,0.56,0.73,-0.2,5.7,-1.9,35.25,,,,,,,,,,
14.50.07.329,-193.0,48.2,0,13.0,,67933.5,14.72,-0.36,0.56,0.73,-0.5,6.2,-2.1,35.25,,,,,,,,,,
14.50.07.341,-97.7,24.4,0,13.0,,67345.3,14.85,-0.36,0.56,0.73,-0.9,7.1,-2.3,35.25,,,,,,,,,,
14.50.07.349,-184.1,46.0,0,13.0,,63943.3,15.64,-0.36,0.56,0.73,-1.5,7.8,-2.6,35.25,,,,,,,,,,
14.50.07.362,104.5,26.1,1,14.0,93.1,61145.7,16.35,-0.36,0.56,0.73,-1.6,7.6,-2.2,35.25,,,,,,,,,,
14.50.07.374,134.1,33.5,0,14.0,,67908.0,14.73,-0.36,0.56,0.74,-1.0,6.4,-2.3,35.25,,,,,,,,,,
14.50.07.382,212.2,53.0,0,14.0,,68331.3,14.63,-0.37,0.55,0.74,0.5,7.0,-1.8,35.25,,,,,,,,,,
14.50.07.395,290.9,72.7,0,14.0,,66517.5,15.03,-0.36,0.56,0.74,-0.7,6.9,-2.3,35.25,,,,,,,,,,
14.50.07.407,337.2,84.3,0,14.0,,57807.1,17.3,-0.36,0.56,0.73,0.9,7.3,-1.7,35.25,,,,,,,,,,
14.50.07.419,459.6,114.9,0,14.0,,64331.1,15.54,-0.37,0.56,0.73,1.1,6.5,-1.6,35.25,,,,,,,,,,
14.50.07.427,423.0,105.8,0,14.0,,66649.5,15.0,-0.37,0.56,0.74,0.3,5.7,-1.4,35.25,,,,,,,,,,
14.50.07.440,470.5,117.6,0,14.0,,61646.4,16.22,-0.37,0.56,0.74,0.1,6.3,-1.0,35.25,,,,,,,,,,
14.50.07.452,462.0,115.5,0,14.0,,68957.5,14.5,-0.37,0.57,0.74,0.3,6.1,-0.4,35.25,,,,,,,,,,
14.50.07.460,541.3,135.3,0,14.0,,66248.2,15.09,-0.37,0.57,0.74,-1.3,6.1,-0.2,35.25,,,,,,,,,,
14.50.07.472,467.3,116.8,0,14.0,,62893.4,15.9,-0.37,0.56,0.74,-2.7,7.2,-0.1,35.25,,,,,,,,,,
14.50.07.485,544.6,136.2,0,14.0,,61642.4,16.22,-0.37,0.55,0.74,-2.0,7.7,0.8,35.25,,,,,,,,,,
14.50.07.493,439.4,109.8,0,14.0,,66172.0,15.11,-0.39,0.52,0.74,-6.3,6.0,0.7,35.25,,,,,,,,,,
14.50.07.505,448.1,112.0,0,14.0,,67701.8,14.77,-0.37,0.53,0.75,-2.0,8.0,-0.2,35.25,,,,,,,,,,
14.50.07.517,335.7,83.9,0,14.0,,61705.6,16.21,-0.38,0.55,0.74,-0.1,6.9,0.7,35.25,,,,,,,,,,
14.50.07.530,385.6,96.4,0,14.0,,64975.3,15.39,-0.38,0.54,0.75,-1.5,3.2,0.1,35.25,,,,,,,,,,
14.50.07.538,262.2,65.6,0,14.0,,67478.7,14.82,-0.38,0.55,0.74,-0.5,5.3,-0.5,35.25,,,,,,,,,,
14.50.07.550,150.1,37.5,0,14.0,,62491.2,16.0,-0.37,0.55,0.74,0.4,8.6,-0.1,35.25,,,,,,,,,,
14.50.07.562,106.8,26.7,0,14.0,,68929.7,14.51,-0.36,0.55,0.72,-0.7,6.1,-0.8,35.25,,,,,,,,,,
14.50.07.571,97.0,24.2,0,14.0,,66087.7,15.13,-0.37,0.53,0.74,0.9,4.7,-2.2,35.25,,,,,,,,,,
14.50.07.583,-51.8,13.0,0,14.0,,65607.0,15.24,-0.38,0.54,0.74,0.9,5.7,-2.4,35.25,,,,,,,,,,
14.50.07.595,61.5,15.4,0,14.0,,68913.1,14.51,-0.37,0.55,0.76,1.9,7.3,-2.9,35.25,,,,,,,,,,
14.50.07.603,83.2,20.8,0,14.0,,69603.7,14.37,-0.38,0.56,0.75,1.8,6.6,-2.4,35.25,,,,,,,,,,
14.50.07.616,72.6,18.2,0,14.0,,62564.3,15.98,-0.38,0.55,0.75,1.4,5.2,-2.1,35.25,,,,,,,,,,
14.50.07.628,46.2,11.6,0,14.0,,69502.9,14.39,-0.37,0.56,0.75,1.7,6.9,-1.9,35.25,,,,,,,,,,
14.50.07.636,116.3,29.1,0,14.0,,70547.6,14.17,-0.37,0.56,0.75,0.9,7.0,-2.2,35.25,,,,,,,,,,
14.50.07.648,45.5,11.4,0,14.0,,63883.6,15.65,-0.37,0.56,0.74,-0.4,6.3,-1.8,35.25,,,,,,,,,,
14.50.07.661,103.2,25.8,0,14.0,,67971.6,14.71,-0.37,0.56,0.74,-0.4,7.2,-1.3,35.25,,,,,,,,,,
14.50.07.673,78.8,19.7,0,14.0,,65389.4,15.29,-0.37,0.56,0.74,-0.3,7.2,-1.0,35.25,,,,,,,,,,
14.50.07.681,45.6,11.4,0,14.0,,65912.8,15.17,-0.37,0.55,0.74,-0.4,5.8,-1.3,35.25,,,,,,,,,,
14.50.07.694,21.4,5.4,0,14.0,,66806.3,14.97,-0.37,0.55,0.75,0.4,4.9,-1.3,35.25,,,,,,,,,,
14.50.07.706,-4.0,1.0,0,14.0,,60710.7,16.47,-0.37,0.55,0.75,0.7,5.6,-1.2,35.25,,,,,,,,,,
14.50.07.714,-4.0,1.0,0,14.0,,60479.4,16.53,-0.37,0.55,0.75,1.0,5.8,-1.8,35.25,,,,,,,,,,
14.50.07.726,-7.7,1.9,0,14.0,,60854.6,16.43,-0.37,0.55,0.74,1.1,5.1,-1.7,35.25,,,,,,,,,,
14.50.07.739,-8.6,2.2,0,14.0,,69854.7,14.32,-0.37,0.55,0.74,1.5,5.1,-1.4,35.25,,,,,,,,,,
14.50.07.747,-100.7,25.2,0,14.0,,67130.2,14.9,-0.37,0.55,0.74,1.6,4.5,-1.2,35.25,,,,,,,,,,
14.50.07.759,-0.5,0.1,0,14.0,,64928.3,15.4,-0.37,0.55,0.74,1.9,4.9,-1.2,35.25,,,,,,,,,,
14.50.07.771,,,0,14.0,,70374.9,14.21,,,,,,,35.25,,,,,,,,,,
14.50.07.788,,,0,14.0,,67838.6,14.74,,,,,,,35.25,,35.2,,,,,,,,
14.50.07.796,-59.9,15.0,0,14.0,,68763.8,14.54,-0.37,0.56,0.74,1.2,5.5,-1.3,35.25,,,,,,,,,,
14.50.07.808,-72.7,18.2,0,14.0,,70671.6,14.15,-0.37,0.56,0.75,0.8,5.3,-0.9,35.25,,,,,,,,,,
14.50.07.816,-33.4,8.4,0,14.0,,57701.4,17.33,-0.37,0.55,0.74,0.6,5.5,-1.1,35.25,,,,,,,,,,
14.50.07.829,-64.6,16.2,0,14.0,,65396.8,15.29,-0.37,0.54,0.73,0.4,5.8,-1.4,35.25,,,,,,,,,,
14.50.07.841,-122.4,30.6,0,14.0,,69367.5,14.42,-0.37,0.55,0.73,0.9,5.5,-1.5,35.25,,,,,,,,,,
14.50.07.849,-92.3,23.1,0,14.0,,68847.2,14.52,-0.37,0.55,0.74,1.4,4.9,-1.3,35.25,,,,,,,,,,
14.50.07.862,-128.2,32.0,0,14.0,,63250.0,15.81,-0.37,0.55,0.74,1.4,5.3,-1.3,35.25,,,,,,,,,,
14.50.07.870,-122.4,30.6,0,14.0,,64760.9,15.44,-0.37,0.55,0.75,1.2,5.2,-1.2,35.25,,,,,,,,,,
14.50.07.882,-80.1,20.0,0,14.0,,66537.9,15.03,-0.37,0.55,0.74,2.0,4.7,-0.5,35.25,,,,,,,,,,
14.50.07.890,-111.6,27.9,0,14.0,,67259.8,14.87,-0.37,0.55,0.75,2.3,4.4,-0.4,35.25,,,,,,,,,,
14.50.07.903,-62.0,15.5,0,14.0,,67460.7,14.82,-0.37,0.55,0.75,2.9,4.6,-0.3,35.25,,,,,,,,,,
14.50.07.911,-113.1,28.3,0,14.0,,65824.2,15.19,-0.36,0.56,0.74,3.1,5.3,-0.2,35.25,,,,,,,,,,
14.50.07.923,-140.9,35.2,0,14.0,,64697.4,15.46,-0.36,0.55,0.73,3.1,5.6,-0.6,35.25,,,,,,,,,,
14.50.07.960,-147.6,36.9,0,14.0,,65193.3,15.34,-0.36,0.55,0.73,2.4,4.8,-0.7,35.25,,,,,,,,,,
14.50.07.972,-221.8,55.4,0,14.0,,72952.6,13.71,-0.38,0.55,0.74,4.0,5.6,-2.2,35.25,,,,,,,,,,
14.50.07.980,-213.8,53.4,0,14.0,,63358.1,15.78,-0.37,0.55,0.74,3.8,5.7,-2.9,35.25,,,,,,,,,,
14.50.07.993,-215.0,53.8,0,14.0,,64793.0,15.43,-0.37,0.56,0.74,3.7,5.6,-3.3,35.25,,,,,,,,,,
14.50.08.001,-206.4,51.6,0,14.0,,69237.6,14.44,-0.36,0.56,0.74,3.6,6.1,-2.7,35.25,,,,,,,,,,
14.50.08.013,73.5,18.4,1,15.0,92.1,65680.7,15.23,-0.36,0.57,0.73,2.5,6.5,-3.2,35.25,,,,,,,,,,
14.50.08.021,165.4,41.4,0,15.0,,65009.0,15.38,-0.36,0.56,0.73,1.4,7.3,-3.0,35.25,,,,,,,,,,
14.50.08.034,255.3,63.8,0,15.0,,64333.9,15.54,-0.37,0.57,0.73,1.3,6.4,-2.1,35.25,,,,,,,,,,
14.50.08.042,241.3,60.3,0,15.0,,69055.5,14.48,-0.37,0.56,0.73,0.9,4.9,-1.5,35.25,,,,,,,,,,
14.50.08.054,308.5,77.1,0,15.0,,67497.5,14.82,-0.37,0.56,0.75,1.6,5.1,-1.2,35.25,,,,,,,,,,
14.50.08.062,330.5,82.6,0,15.0,,69632.3,14.36,-0.37,0.56,0.75,1.9,6.0,-1.0,35.25,,,,,,,,,,
14.50.08.075,468.6,117.2,0,15.0,,65097.7,15.36,-0.36,0.56,0.74,1.5,5.6,-1.5,35.25,,,,,,,,,,
14.50.08.083,368.5,92.1,0,15.0,,71970.2,13.89,-0.36,0.56,0.74,1.5,5.6,-1.4,35.25,,,,,,,,,,
14.50.08.095,526.6,131.6,0,15.0,,64846.7,15.42,-0.37,0.57,0.74,1.0,5.5,-1.4,35.25,,,,,,,,,,
14.50.08.103,488.6,122.2,0,15.0,,65576.4,15.25,-0.36,0.57,0.74,0.8,5.9,-1.5,35.25,,,,,,,,,,
14.50.08.116,511.0,127.8,0,15.0,,71516.7,13.98,-0.37,0.56,0.73,0.4,6.0,-1.3,35.25,,,,,,,,,,
14.50.08.124,455.0,113.8,0,15.0,,66509.4,15.04,-0.37,0.56,0.73,-0.1,5.4,-1.0,35.25,,,,,,,,,,
14.50.08.136,522.4,130.6,0,15.0,,66083.6,15.13,-0.37,0.56,0.73,-0.3,5.0,-1.1,35.25,,,,,,,,,,
14.50.08.144,412.5,103.1,0,15.0,,61478.1,16.27,-0.37,0.56,0.74,-0.3,5.5,-1.4,35.25,,,,,,,,,,
14.50.08.157,436.2,109.0,0,15.0,,65768.1,15.2,-0.37,0.55,0.74,0.2,6.4,-1.3,35.25,,,,,,,,,,
14.50.08.165,425.0,106.2,0,15.0,,70254.1,14.23,-0.37,0.55,0.74,0.3,6.1,-1.4,35.25,,,,,,,,,,
14.50.08.177,284.1,71.0,0,15.0,,63439.9,15.76,-0.37,0.56,0.73,0.3,5.6,-1.4,35.25,,,,,,,,,,
14.50.08.189,255.0,63.8,0,15.0,,59549.0,16.79,-0.37,0.56,0.74,0.3,6.0,-1.1,35.25,,,,,,,,,,
14.50.08.197,220.9,55.2,0,15.0,,66264.8,15.09,-0.38,0.56,0.74,-0.4,6.2,-1.0,35.25,,,,,,,,,,
14.50.08.210,80.9,20.2,0,15.0,,60361.6,16.57,-0.37,0.56,0.75,-0.4,6.0,-1.1,35.25,,,,,,,,,,
14.50.08.218,43.7,10.9,0,15.0,,68368.3,14.63,-0.37,0.56,0.74,0.2,5.7,-0.5,35.25,,,,,,,,,,
14.50.08.231,-30.0,7.5,0,15.0,,68497.1,14.6,-0.37,0.55,0.74,0.9,5.7,-0.9,35.25,,,,,,,,,,
14.50.08.238,41.9,10.5,0,15.0,,72626.3,13.77,-0.37,0.55,0.73,0.7,6.1,-1.5,35.25,,,,,,,,,,
14.50.08.251,63.6,15.9,0,15.0,,68329.7,14.63,-0.37,0.55,0.74,0.7,5.8,-1.7,35.25,,,,,,,,,,
14.50.08.259,11.0,2.8,0,15.0,,68016.4,14.7,-0.37,0.55,0.73,1.1,5.7,-2.0,35.25,,,,,,,,,,
14.50.08.271,39.7,9.9,0,15.0,,63959.1,15.63,-0.37,0.56,0.74,0.1,5.7,-2.1,35.25,,,,,,,,,,
14.50.08.279,113.5,28.4,0,15.0,,60933.2,16.41,-0.37,0.56,0.73,0.8,6.1,-2.2,35.25,,,,,,,,,,
14.50.08.292,69.8,17.4,0,15.0,,64710.2,15.45,-0.38,0.56,0.74,0.6,5.5,-1.5,35.25,,,,,,,,,,
14.50.08.300,77.6,19.4,0,15.0,,67815.3,14.75,-0.37,0.56,0.75,0.7,5.0,-1.2,35.25,,,,,,,,,,
14.50.08.312,22.7,5.7,0,15.0,,69511.3,14.39,-0.37,0.55,0.75,1.6,5.6,-0.4,35.25,,,,,,,,,,
14.50.08.320,42.6,10.6,0,15.0,,67770.3,14.76,-0.37,0.55,0.75,1.1,4.7,-0.8,35.25,95.4,,,,,,,,,
14.50.08.333,69.1,17.3,0,15.0,,66977.6,14.93,-0.36,0.55,0.74,1.6,5.0,-1.4,35.25,,,,,,,,,,
14.50.08.345,40.7,10.2,0,15.0,,70428.6,14.2,-0.36,0.56,0.74,1.7,5.7,-1.5,35.25,,,,,,,,,,
14.50.08.353,-11.7,2.9,0,15.0,,65806.0,15.2,-0.36,0.56,0.74,0.5,6.1,-1.7,35.25,,,,,,,,,,
14.50.08.365,-1.6,0.4,0,15.0,,69238.3,14.44,-0.36,0.56,0.73,0.3,6.6,-1.8,35.25,,,,,,,,,,
14.50.08.374,-5.1,1.3,0,15.0,,64001.5,15.62,-0.37,0.56,0.74,0.7,6.1,-1.6,35.25,,,,,,,,,,
14.50.08.386,-58.0,14.5,0,15.0,,68960.8,14.5,-0.37,0.55,0.74,1.0,5.5,-1.2,35.25,,,,,,,,,,
14.50.08.394,-42.1,10.5,0,15.0,,65031.7,15.38,-0.37,0.56,0.74,1.3,4.9,-0.9,35.25,,,,,,,,,,
14.50.08.406,-44.3,11.1,0,15.0,,65665.4,15.23,-0.36,0.55,0.74,1.5,4.6,-1.2,35.25,,,,,,,,,,
14.50.08.415,6.5,1.6,0,15.0,,67641.7,14.78,-0.36,0.56,0.74,1.9,5.6,-1.2,35.25,,,,,,,,,,
14.50.08.427,-77.4,19.4,0,15.0,,69472.7,14.39,-0.37,0.56,0.74,1.6,5.8,-1.3,35.25,,,,,,,,,,
14.50.08.435,-90.2,22.6,0,15.0,,68147.6,14.67,-0.36,0.57,0.74,0.7,5.6,-1.0,35.25,,,,,,,,,,
14.50.08.447,-53.7,13.4,0,15.0,,67963.2,14.71,-0.36,0.56,0.73,1.1,6.5,-1.1,35.25,,,,,,,,,,
14.50.08.460,-17.0,4.2,0,15.0,,66241.3,15.1,-0.36,0.56,0.73,0.8,6.6,-1.3,35.25,,,,,,,,,,
14.50.08.468,-30.2,7.6,0,15.0,,67405.3,14.84,-0.36,0.56,0.73,0.0,5.2,-1.4,35.25,,,,,,,,,,
14.50.08.480,-43.8,11.0,0,15.0,,62536.8,15.99,-0.37,0.56,0.74,0.5,5.1,-1.1,35.25,,,,,,,,,,
14.50.08.492,-52.4,13.1,0,15.0,,68114.9,14.68,-0.37,0.56,0.74,1.4,5.9,-1.1,35.25,,,,,,,,,,
14.50.08.501,-123.9,31.0,0,15.0,,66600.2,15.01,-0.37,0.56,0.75,0.9,6.9,-1.2,35.25,,,,,,,,,,
14.50.08.513,-28.9,7.2,0,15.0,,62173.4,16.08,-0.37,0.56,0.74,0.9,6.8,-1.5,35.25,,,,,,,,,,
14.50.08.525,-88.4,22.1,0,15.0,,62360.2,16.04,-0.37,0.56,0.74,0.9,6.3,-1.6,35.25,,,,,,,,,,
14.50.08.533,-93.6,23.4,0,15.0,,72127.8,13.86,-0.37,0.56,0.74,0.2,5.4,-1.5,35.25,,,,,,,,,,
14.50.08.546,-137.2,34.3,0,15.0,,68498.8,14.6,-0.38,0.56,0.74,0.7,5.7,-1.2,35.25,,,,,,,,,,
14.50.08.558,-161.0,40.2,0,15.0,,67713.3,14.77,-0.37,0.56,0.75,0.6,5.5,-1.2,35.25,,,,,,,,,,
14.50.08.566,-133.8,33.4,0,15.0,,63417.4,15.77,-0.37,0.55,0.74,0.7,5.8,-0.9,35.25,,,,,,,,,,
14.50.08.578,-171.9,43.0,0,15.0,,71303.5,14.02,-0.37,0.56,0.74,0.6,6.2,-1.2,35.25,,,,,,,,,,
14.50.08.591,-149.3,37.3,0,15.0,,63350.0,15.79,-0.37,0.56,0.74,0.5,5.6,-1.1,35.25,,,,,,,,,,
14.50.08.599,-223.7,55.9,0,15.0,,66405.8,15.06,-0.37,0.56,0.74,0.5,5.5,-1.1,35.25,,,,,,,,,,
14.50.08.611,-219.5,54.9,0,15.0,,66641.9,15.01,-0.37,0.56,0.74,0.4,5.5,-1.0,35.25,,,,,,,,,,
14.50.08.623,-150.7,37.7,0,15.0,,57982.5,17.25,-0.37,0.55,0.74,0.6,5.6,-1.1,35.25,,,,,,,,,,
14.50.08.636,-245.9,61.5,0,15.0,,65268.8,15.32,-0.37,0.55,0.74,0.5,5.3,-1.0,35.25,,,,,,,,,,
14.50.08.644,-209.5,52.4,0,15.0,,68558.0,14.59,-0.36,0.56,0.74,0.6,5.2,-1.5,35.25,,,,,,,,,,
14.50.08.656,49.8,12.4,1,16.0,93.3,68125.9,14.68,-0.37,0.55,0.75,1.0,5.6,-1.1,35.25,,,,,,,,,,
14.50.08.669,136.1,34.0,0,16.0,,65092.3,15.36,-0.37,0.55,0.74,0.7,6.4,-1.7,35.25,,,,,,,,,,
14.50.08.677,192.4,48.1,0,16.0,,65146.8,15.35,-0.37,0.55,0.74,0.9,6.1,-1.6,35.25,,,,,,,,,,
14.50.08.689,184.7,46.2,0,16.0,,65649.3,15.23,-0.37,0.56,0.73,1.1,5.9,-1.5,35.25,,,,,,,,,,
14.50.08.701,293.3,73.3,0,16.0,,66320.6,15.08,-0.37,0.56,0.73,0.5,5.3,-1.4,35.25,,,,,,,,,,
14.50.08.710,330.8,82.7,0,16.0,,64821.5,15.43,-0.36,0.56,0.74,-0.1,6.1,-1.5,35.25,,,,,,,,,,
14.50.08.722,370.6,92.6,0,16.0,,67372.9,14.84,-0.36,0.56,0.74,-0.1,6.2,-1.6,35.25,,,,,,,,,,
14.50.08.763,548.6,137.2,0,16.0,,67841.1,14.74,-0.37,0.56,0.74,0.2,6.3,-1.6,35.25,,,,,,,,,,
14.50.08.775,499.0,124.8,0,16.0,,68852.2,14.52,-0.36,0.55,0.75,0.4,6.2,-1.8,35.25,,,,,,,,,,
14.50.08.783,458.5,114.6,0,16.0,,68455.7,14.61,-0.37,0.56,0.75,0.4,6.1,-1.5,35.25,,,,,,,,,,
14.50.08.796,500.5,125.1,0,16.0,,70846.6,14.12,-0.37,0.56,0.74,1.0,6.3,-1.8,35.25,,,,,,,,,,
14.50.08.808,414.9,103.7,0,16.0,,64549.6,15.49,-0.37,0.56,0.74,0.6,5.9,-1.3,35.25,,,,,,,,,,
14.50.08.816,321.0,80.2,0,16.0,,66880.4,14.95,-0.37,0.56,0.74,0.8,5.4,-1.1,35.25,,,,,,,,,,
14.50.08.828,324.0,81.0,0,16.0,,64057.5,15.61,-0.36,0.56,0.74,0.8,5.3,-1.3,35.25,,,,,,,,,,
14.50.08.841,266.1,66.5,0,16.0,,65196.6,15.34,-0.36,0.56,0.74,0.7,5.8,-1.2,35.25,,,,,,,,,,
14.50.08.853,99.7,24.9,0,16.0,,65752.0,15.21,-0.36,0.55,0.73,0.5,6.3,-1.4,35.25,,,,,,,,,,
14.50.08.861,133.7,33.4,0,16.0,,64546.2,15.49,-0.36,0.56,0.73,-0.1,6.2,-1.4,35.25,,,,,,,,,,
14.50.08.873,10.3,2.6,0,16.0,,69422.0,14.4,-0.36,0.56,0.74,0.3,6.4,-0.8,35.25,,,,,,,,,,
14.50.08.886,24.7,6.2,0,16.0,,66529.0,15.03,-0.36,0.56,0.74,-0.1,5.6,-0.8,35.25,,,,,,,,,,
14.50.08.894,-12.5,3.1,0,16.0,,66316.1,15.08,-0.37,0.55,0.74,0.1,5.7,-1.0,35.25,,,,,,,,,,
14.50.08.906,44.8,11.2,0,16.0,,68104.2,14.68,-0.37,0.55,0.74,0.4,6.5,-1.3,35.25,,,,,,,,,,
14.50.08.918,88.0,22.0,0,16.0,,67932.8,14.72,-0.37,0.55,0.73,0.7,6.5,-1.2,35.25,,,,,,,,,,
14.50.08.927,109.7,27.4,0,16.0,,65928.4,15.17,-0.36,0.55,0.73,0.4,6.2,-1.5,35.25,,,,,,,,,,
14.50.08.939,73.2,18.3,0,16.0,,66182.2,15.11,-0.37,0.56,0.73,0.5,5.9,-1.7,35.25,,,,,,,,,,
14.50.08.951,76.2,19.0,0,16.0,,73449.0,13.61,-0.37,0.56,0.74,0.5,6.1,-1.4,35.25,,,,,,,,,,
14.50.08.964,111.9,28.0,0,16.0,,64743.3,15.45,-0.37,0.56,0.74,0.6,6.5,-1.2,35.25,,,,,,,,,,
14.50.08.972,37.7,9.4,0,16.0,,65393.6,15.29,-0.38,0.56,0.74,0.2,5.7,-1.3,35.25,,,,,,,,,,
14.50.08.984,65.6,16.4,0,16.0,,63337.6,15.79,-0.37,0.55,0.74,0.4,6.1,-1.4,35.25,,,,,,,,,,
14.50.08.996,25.9,6.5,0,16.0,,69464.1,14.4,-0.37,0.56,0.73,0.0,5.8,-1.9,35.25,,,,,,,,,,
14.50.09.009,-41.7,10.4,0,16.0,,62284.4,16.06,-0.37,0.55,0.74,1.1,5.4,-1.7,35.25,,,,,,,,,,
14.50.09.017,-30.7,7.7,0,16.0,,67237.7,14.87,-0.38,0.55,0.73,1.5,7.5,-2.1,35.25,,,,,,,,,,
14.50.09.029,-38.3,9.6,0,16.0,,62699.6,15.95,-0.37,0.56,0.74,-0.6,4.5,-2.2,35.25,,,,,,,,,,
14.50.09.041,18.4,4.6,0,16.0,,71887.8,13.91,-0.37,0.57,0.74,0.7,5.0,-1.5,35.25,,,,,,,,,,
14.50.09.050,-72.5,18.1,0,16.0,,60332.0,16.57,-0.37,0.56,0.74,0.4,7.3,-1.4,35.25,,,,,,,,,,
14.50.09.062,-64.1,16.0,0,16.0,,63699.8,15.7,-0.37,0.56,0.74,-0.2,6.8,-1.5,35.25,,,,,,,,,,
14.50.09.074,-16.8,4.2,0,16.0,,65538.3,15.26,-0.37,0.55,0.73,0.4,5.1,-1.6,35.25,,,,,,,,,,
14.50.09.087,-110.9,27.7,0,16.0,,70056.2,14.27,-0.37,0.55,0.74,0.6,5.1,-1.6,35.25,,,,,,,,,,
14.50.09.095,-23.1,5.8,0,16.0,,60743.2,16.46,-0.37,0.54,0.73,0.6,6.6,-2.0,35.25,,,,,,,,,,
14.50.09.107,-43.3,10.8,0,16.0,,65993.2,15.15,-0.37,0.55,0.73,0.7,6.0,-1.9,35.25,,,,,,,,,,
14.50.09.119,-88.2,22.0,0,16.0,,63625.2,15.72,-0.37,0.55,0.74,1.2,4.5,-1.7,35.25,,,,,,,,,,
14.50.09.127,-64.7,16.2,0,16.0,,67263.8,14.87,-0.37,0.55,0.74,1.6,5.6,-1.3,35.25,,,,,,,,,,
14.50.09.140,-82.3,20.6,0,16.0,,66345.6,15.07,-0.37,0.55,0.75,1.6,6.0,-1.3,35.25,,,,,,,,,,
14.50.09.152,-63.3,15.8,0,16.0,,65898.0,15.17,-0.37,0.55,0.74,1.5,4.5,-1.2,35.25,,,,,,,,,,
14.50.09.160,-93.9,23.5,0,16.0,,65578.4,15.25,-0.37,0.56,0.74,2.6,5.7,-1.6,35.25,,,,,,,,,,
14.50.09.177,-113.8,28.4,0,16.0,,65417.3,15.29,-0.37,0.56,0.74,2.0,6.1,-2.0,35.25,,,,,,,,,,
14.50.09.185,-99.1,24.8,0,16.0,,62702.8,15.95,-0.36,0.56,0.73,0.9,5.7,-2.0,35.25,,,,,,,,,,
14.50.09.197,-114.0,28.5,0,16.0,,59104.1,16.92,-0.37,0.56,0.73,1.3,5.3,-1.5,35.25,,,,,,,,,,
14.50.09.205,-119.4,29.8,0,16.0,,64940.4,15.4,-0.37,0.57,0.74,1.1,6.0,-1.4,35.25,,,,,,,,,,
14.50.09.218,-140.1,35.0,0,16.0,,67028.6,14.92,-0.37,0.57,0.75,0.2,6.2,-1.7,35.25,,,,,,,,,,
14.50.09.226,-166.7,41.7,0,16.0,,68131.2,14.68,-0.37,0.56,0.74,-0.1,6.2,-0.9,35.25,,,,,,,,,,
14.50.09.238,-115.3,28.8,0,16.0,,64243.8,15.57,-0.36,0.56,0.74,0.2,6.6,-0.8,35.25,,,,,,,,,,
14.50.09.246,-146.2,36.6,0,16.0,,69072.1,14.48,-0.36,0.56,0.74,0.2,6.9,-1.2,35.25,,,,,,,,,,
14.50.09.259,-89.2,22.3,0,16.0,,61285.7,16.32,-0.36,0.55,0.74,-0.1,6.5,-1.7,35.25,,,,,,,,,,
14.50.09.267,-150.6,37.6,0,16.0,,67444.1,14.83,-0.36,0.56,0.74,0.1,5.7,-1.7,35.25,,,,,,,,,,
14.50.09.279,-133.1,33.3,0,16.0,,69427.4,14.4,-0.37,0.56,0.74,0.3,5.5,-1.6,35.25,,,,,,,,,,
14.50.09.287,-240.4,60.1,0,16.0,,65841.2,15.19,-0.37,0.56,0.74,0.1,6.0,-1.0,35.25,,,,,,,,,,
14.50.09.299,-10.9,2.7,1,17.0,91.7,65675.3,15.23,-0.37,0.56,0.73,0.7,6.6,-1.2,35.25,,,,,,,,,,
14.50.09.308,23.1,5.8,0,17.0,,66738.3,14.98,-0.37,0.56,0.74,0.5,5.7,-0.6,35.25,,,,,,,,,,
14.50.09.320,118.5,29.6,0,17.0,,64315.1,15.55,-0.37,0.55,0.74,-0.2,4.6,-0.7,35.25,,,,,,,,,,
14.50.09.332,236.3,59.1,0,17.0,,71017.8,14.08,-0.37,0.55,0.74,0.0,6.2,-0.7,35.25,,,,,,,,,,
14.50.09.340,329.4,82.4,0,17.0,,64319.5,15.55,-0.36,0.55,0.74,0.7,7.2,-0.8,35.25,,,,,,,,,,
14.50.09.353,343.1,85.8,0,17.0,,64509.6,15.5,-0.37,0.55,0.73,0.5,5.7,-1.4,35.25,,,,,,,,,,
14.50.09.365,375.7,93.9,0,17.0,,68965.4,14.5,-0.37,0.55,0.73,0.8,5.6,-1.5,35.25,,,,,,,,,,
14.50.09.373,441.8,110.4,0,17.0,,66702.8,14.99,-0.37,0.55,0.74,1.4,5.8,-1.6,35.25,,,,,,,,,,
14.50.09.385,401.2,100.3,0,17.0,,66730.3,14.99,-0.38,0.55,0.73,0.8,5.2,-1.6,35.25,,,,,,,,,,
14.50.09.398,485.4,121.4,0,17.0,,63936.0,15.64,-0.37,0.55,0.74,1.2,4.9,-1.7,35.25,,,,,,,,,,
14.50.09.410,545.6,136.4,0,17.0,,63090.6,15.85,-0.37,0.55,0.75,1.3,4.5,-1.4,35.25,,,,,,,,,,
14.50.09.418,533.5,133.4,0,17.0,,66012.1,15.15,-0.37,0.55,0.74,1.7,5.7,-1.5,35.25,,,,,,,,,,
14.50.09.431,455.0,113.8,0,17.0,,62387.7,16.03,-0.36,0.56,0.73,1.4,6.0,-1.7,35.25,,,,,,,,,,
14.50.09.443,411.7,102.9,0,17.0,,68134.5,14.68,-0.37,0.56,0.73,1.0,5.6,-2.0,35.25,,,,,,,,,,
14.50.09.451,403.0,100.8,0,17.0,,64680.8,15.46,-0.36,0.56,0.73,0.8,5.9,-1.8,35.25,,,,,,,,,,
14.50.09.463,387.4,96.8,0,17.0,,63847.1,15.66,-0.37,0.56,0.74,-0.6,5.8,-2.0,35.25,,,,,,,,,,
14.50.09.476,349.7,87.4,0,17.0,,70570.3,14.17,-0.37,0.56,0.75,-0.5,6.2,-1.7,35.25,,,,,,,,,,
14.50.09.484,258.0,64.5,0,17.0,,68340.4,14.63,-0.37,0.56,0.75,-0.3,6.2,-1.4,35.25,,,,,,,,,,
14.50.09.496,241.9,60.5,0,17.0,,63025.5,15.87,-0.37,0.55,0.75,-0.1,6.1,-1.2,35.25,,,,,,,,,,
14.50.09.508,139.9,35.0,0,17.0,,62827.7,15.92,-0.37,0.55,0.74,0.8,6.4,-1.3,35.25,,,,,,,,,,
14.50.09.521,28.1,7.0,0,17.0,,62892.0,15.9,-0.37,0.55,0.74,1.0,5.9,-1.4,35.25,,,,,,,,,,
14.50.09.529,22.3,5.6,0,17.0,,68689.5,14.56,-0.37,0.56,0.73,1.1,5.7,-1.1,35.25,,,,,,,,,,
14.50.09.570,88.5,22.1,0,17.0,,64394.0,15.53,-0.36,0.56,0.73,0.4,6.1,-1.3,35.25,,,,,,,,,,
14.50.09.583,81.7,20.4,0,17.0,,68635.6,14.57,-0.37,0.56,0.74,-0.1,6.8,-1.3,35.25,,,,,,,,,,
14.50.09.595,107.2,26.8,0,17.0,,63430.0,15.77,-0.37,0.57,0.74,-0.2,6.1,-0.9,35.25,,,,,,,,,,
14.50.09.603,114.9,28.7,0,17.0,,67862.2,14.74,-0.37,0.56,0.74,0.2,5.9,-1.1,35.25,,,,,,,,,,
14.50.09.615,110.9,27.7,0,17.0,,72650.1,13.76,-0.37,0.55,0.74,-0.4,6.8,-1.1,35.25,,,,,,,,,,
14.50.09.627,100.6,25.2,0,17.0,,65955.6,15.16,-0.37,0.56,0.74,-0.2,7.6,-0.9,35.25,,,,,,,,,,
14.50.09.635,46.0,11.5,0,17.0,,64098.3,15.6,-0.37,0.55,0.73,-0.1,6.1,-1.2,35.25,,,,,,,,,,
14.50.09.648,0.3,0.1,0,17.0,,64409.5,15.53,-0.37,0.55,0.73,0.2,4.9,-1.1,35.25,,,,,,,,,,
14.50.09.660,-27.7,6.9,0,17.0,,68529.6,14.59,-0.37,0.55,0.73,0.6,5.8,-1.5,35.25,,,,,,,,,,
14.50.09.668,-33.8,8.4,0,17.0,,63315.8,15.79,-0.37,0.55,0.75,0.9,7.0,-1.8,35.25,,,,,,,,,,
14.50.09.680,-60.6,15.2,0,17.0,,67037.8,14.92,-0.37,0.55,0.74,0.7,6.1,-1.4,35.25,,,,,,,,,,
14.50.09.693,-115.4,28.8,0,17.0,,72735.3,13.75,-0.37,0.55,0.73,1.1,5.3,-1.0,35.25,,,,,,,,,,
14.50.09.705,-2.8,0.7,0,17.0,,71234.0,14.04,-0.38,0.55,0.74,0.8,5.6,-1.0,35.25,,,,,,,,,,
14.50.09.713,-5.7,1.4,0,17.0,,69359.4,14.42,-0.37,0.55,0.74,1.3,6.4,-1.3,35.25,,,,,,,,,,
14.50.09.725,-79.5,19.9,0,17.0,,67067.7,14.91,-0.37,0.56,0.74,1.0,5.7,-1.4,35.25,,,,,,,,,,
14.50.09.738,-30.2,7.6,0,17.0,,64505.3,15.5,-0.37,0.56,0.74,-0.1,4.9,-1.5,35.25,,,,,,,,,,
14.50.09.746,-75.0,18.8,0,17.0,,66065.3,15.14,-0.37,0.55,0.75,1.5,6.2,-1.2,35.25,,,,,,,,,,
14.50.09.758,-54.7,13.7,0,17.0,,59663.2,16.76,-0.37,0.56,0.74,0.5,7.3,-1.5,35.25,,,,,,,,,,
14.50.09.771,-85.6,21.4,0,17.0,,63891.4,15.65,-0.38,0.56,0.74,-0.8,4.4,-1.8,35.25,,,,,,,,,,
14.50.09.783,-48.9,12.2,0,17.0,,71272.9,14.03,-0.37,0.56,0.74,1.5,5.9,-1.1,35.25,,,,,,,,,,
14.50.09.791,-69.7,17.4,0,17.0,,74179.1,13.48,-0.37,0.56,0.74,0.6,7.2,-1.1,35.25,,,,,,,,,,
14.50.09.803,-57.5,14.4,0,17.0,,65760.9,15.21,-0.37,0.56,0.74,-0.7,4.7,-1.1,35.25,,,,,,,,,,
14.50.09.816,-102.5,25.6,0,17.0,,56607.6,17.67,-0.36,0.55,0.74,0.5,4.8,-0.5,35.25,,,,,,,,,,
14.50.09.824,-91.7,22.9,0,17.0,,65752.5,15.21,-0.37,0.56,0.74,0.2,7.1,-0.8,35.25,,,,,,,,,,
14.50.09.836,-129.8,32.4,0,17.0,,70830.7,14.12,-0.37,0.55,0.74,-0.7,6.8,-1.5,35.25,,,,,,,,,,
14.50.09.848,-150.0,37.5,0,17.0,,69150.6,14.46,-0.37,0.55,0.74,0.3,5.8,-1.2,35.25,,,,,,,,,,
14.50.09.861,-152.6,38.2,0,17.0,,70769.4,14.13,-0.37,0.55,0.74,1.4,5.5,-1.2,35.25,,,,,,,,,,
14.50.09.869,-164.3,41.1,0,17.0,,66091.9,15.13,-0.37,0.55,0.74,1.6,5.7,-1.1,35.25,,,,,,,,,,
14.50.09.881,-128.8,32.2,0,17.0,,66519.6,15.03,-0.37,0.55,0.74,2.1,5.3,-0.7,35.25,,,,,,,,,,
14.50.09.893,-174.2,43.6,0,17.0,,63812.5,15.67,-0.37,0.56,0.74,2.4,4.5,-0.7,35.25,,,,,,,,,,
14.50.09.902,-178.2,44.6,0,17.0,,68083.1,14.69,-0.37,0.56,0.74,2.0,4.8,-0.6,35.25,,,,,,,,,,
14.50.09.914,-190.9,47.7,0,17.0,,65545.1,15.26,-0.37,0.56,0.74,1.3,4.8,-0.7,35.25,,,,,,,,,,
14.50.09.927,-201.5,50.4,0,17.0,,67040.4,14.92,-0.36,0.56,0.74,1.2,4.4,-0.5,35.25,,,,,,,,,,
14.50.09.935,-173.1,43.3,0,17.0,,67482.3,14.82,-0.36,0.55,0.75,1.1,4.8,-0.5,35.25,,,,,,,,,,
14.50.09.947,-34.5,8.6,1,18.0,92.7,65382.9,15.29,-0.35,0.55,0.74,1.6,5.2,-0.8,35.25,,,,,,,,,,
14.50.09.959,95.1,23.8,0,18.0,,71042.0,14.08,-0.36,0.54,0.74,1.8,5.7,-1.4,35.25,,,,,,,,,,
14.50.09.971,172.0,43.0,0,18.0,,68314.1,14.64,-0.36,0.55,0.73,1.6,5.7,-1.8,35.25,,,,,,,,,,
14.50.09.979,203.0,50.8,0,18.0,,65701.3,15.22,-0.36,0.55,0.73,1.7,5.8,-2.1,35.25,,,,,,,,,,
14.50.09.992,300.4,75.1,0,18.0,,63892.9,15.65,-0.37,0.56,0.73,1.4,5.3,-1.8,35.25,,,,,,,,,,
14.50.10.004,373.7,93.4,0,18.0,,63056.5,15.86,-0.36,0.56,0.74,1.0,4.9,-1.3,35.25,,,,,,,,,,
14.50.10.012,384.2,96.0,0,18.0,,63902.8,15.65,-0.36,0.56,0.74,1.0,5.0,-1.5,35.25,,,,,,,,,,
14.50.10.025,356.5,89.1,0,18.0,,65036.4,15.38,-0.36,0.56,0.75,0.5,5.7,-1.8,35.25,,,,,,,,,,
14.50.10.037,474.2,118.6,0,18.0,,64046.0,15.61,-0.36,0.56,0.74,0.7,6.7,-1.9,35.25,,,,,,,,,,
14.50.10.045,461.6,115.4,0,18.0,,62367.8,16.03,-0.36,0.56,0.74,0.7,7.8,-2.0,35.25,,,,,,,,,,
14.50.10.057,479.6,119.9,0,18.0,,70039.5,14.28,-0.36,0.56,0.74,0.6,9.1,-2.6,35.25,,,,,,,,,,
14.50.10.070,466.7,116.7,0,18.0,,65329.0,15.31,-0.37,0.56,0.73,-0.2,8.5,-2.3,35.25,,,,,,,,,,
14.50.10.082,544.1,136.0,0,18.0,,68652.2,14.57,-0.37,0.57,0.73,-0.5,7.1,-2.4,35.25,,,,,,,,,,
14.50.10.090,427.0,106.8,0,18.0,,65251.4,15.33,-0.38,0.57,0.73,0.0,7.1,-1.3,35.25,,,,,,,,,,
14.50.10.103,376.8,94.2,0,18.0,,61522.0,16.25,-0.37,0.56,0.75,-0.2,7.0,-1.0,35.25,,,,,,,,,,
14.50.10.115,377.4,94.4,0,18.0,,61207.7,16.34,-0.38,0.56,0.75,-0.2,6.4,-1.2,35.25,,,,,,,,,,
14.50.10.123,322.6,80.6,0,18.0,,63107.4,15.85,-0.37,0.56,0.74,-0.4,6.5,-1.8,35.25,,,,,,,,,,
14.50.10.135,325.3,81.3,0,18.0,,68276.5,14.65,-0.37,0.56,0.74,-0.4,7.2,-1.4,35.25,,,,,,,,,,
14.50.10.147,110.6,27.6,0,18.0,,66387.8,15.06,-0.37,0.55,0.74,-0.5,7.7,-1.4,35.25,,,,,,,,,,
14.50.10.160,91.3,22.8,0,18.0,,69104.6,14.47,-0.37,0.56,0.73,-0.9,7.1,-1.1,35.25,,,,,,,,,,
14.50.10.168,-4.7,1.2,0,18.0,,66044.5,15.14,-0.36,0.55,0.73,-0.2,6.4,-1.1,35.25,,,,,,,,,,
14.50.10.180,-35.0,8.8,0,18.0,,64802.0,15.43,-0.37,0.55,0.74,0.1,5.7,-1.1,35.25,,,,,,,,,,
14.50.10.193,78.4,19.6,0,18.0,,68801.2,14.53,-0.37,0.55,0.74,0.9,5.8,-0.9,35.25,,,,,,,,,,
14.50.10.201,77.3,19.3,0,18.0,,68342.8,14.63,-0.38,0.55,0.73,0.7,5.7,-1.4,35.25,,,,,,,,,,
14.50.10.213,60.5,15.1,0,18.0,,67190.8,14.88,-0.37,0.56,0.73,0.9,5.5,-1.7,35.25,,,,,,,,,,
14.50.10.225,59.5,14.9,0,18.0,,68682.3,14.56,-0.37,0.56,0.74,1.0,6.2,-1.3,35.25,,,,,,,,,,
14.50.10.238,85.8,21.4,0,18.0,,63001.6,15.87,-0.37,0.56,0.73,0.4,5.6,-1.4,35.25,,,,,,,,,,
14.50.10.246,36.3,9.1,0,18.0,,65639.4,15.23,-0.37,0.56,0.74,-0.1,5.5,-1.5,35.25,,,,,,,,,,
14.50.10.258,78.1,19.5,0,18.0,,69344.7,14.42,-0.38,0.55,0.73,-0.2,6.8,-1.8,35.25,,,,,,,,,,
14.50.10.270,22.4,5.6,0,18.0,,66348.9,15.07,-0.38,0.56,0.73,-0.3,6.7,-1.7,35.25,,,,,,,,,,
14.50.10.279,117.0,29.2,0,18.0,,69715.9,14.34,-0.38,0.56,0.74,-0.7,6.0,-1.7,35.25,,,,,,,,,,
14.50.10.291,97.6,24.4,0,18.0,,68855.9,14.52,-0.38,0.55,0.75,-0.5,5.4,-1.3,35.25,,,,,,,,,,
14.50.10.303,7.2,1.8,0,18.0,,70036.3,14.28,-0.37,0.55,0.75,0.3,5.8,-0.8,35.25,,,,,,,,,,
14.50.10.315,-11.0,2.8,0,18.0,,71312.1,14.02,-0.37,0.55,0.75,0.9,6.2,-0.9,35.25,,,,,,,,,,
14.50.10.324,29.4,7.4,0,18.0,,64252.2,15.56,-0.37,0.54,0.74,0.6,6.8,-1.4,35.25,,,,,,,,,,
14.50.10.336,-44.4,11.1,0,18.0,,74321.1,13.46,-0.37,0.55,0.73,0.2,7.0,-2.1,35.25,,,,,,,,,,
14.50.10.377,-58.2,14.6,0,18.0,,66614.1,15.01,-0.37,0.55,0.74,0.2,5.5,-1.7,35.31,,,,,,,,,,
14.50.10.389,-7.2,1.8,0,18.0,,67406.6,14.84,-0.37,0.56,0.75,0.9,6.1,-1.3,35.31,,,,,,,,,,
14.50.10.397,-43.4,10.8,0,18.0,,70393.7,14.21,-0.37,0.55,0.75,0.2,5.7,-1.3,35.31,,,,,,,,,,
14.50.10.410,-77.0,19.2,0,18.0,,67188.4,14.88,-0.37,0.55,0.75,0.8,6.4,-1.4,35.31,,,,,,,,,,
14.50.10.422,-47.0,11.8,0,18.0,,67817.3,14.75,-0.37,0.56,0.74,0.6,7.1,-2.1,35.31,,,,,,,,,,
14.50.10.430,-82.1,20.5,0,18.0,,70400.7,14.2,-0.36,0.56,0.74,-0.9,7.1,-2.7,35.31,,,,,,,,,,
14.50.10.442,-52.0,13.0,0,18.0,,61225.0,16.33,-0.37,0.56,0.73,-1.2,7.2,-2.3,35.31,,,,,,,,,,
14.50.10.455,-77.4,19.4,0,18.0,,69344.2,14.42,-0.36,0.56,0.74,-0.6,6.5,-2.0,35.31,,,,,,,,,,
14.50.10.467,-102.0,25.5,0,18.0,,66121.6,15.12,-0.37,0.55,0.73,-0.8,5.2,-1.7,35.31,,,,,,,,,,
14.50.10.475,-122.7,30.7,0,18.0,,67496.1,14.82,-0.36,0.55,0.74,0.3,6.2,-1.2,35.31,,,,,,,,,,
14.50.10.487,-105.2,26.3,0,18.0,,69374.7,14.41,-0.37,0.55,0.73,1.0,7.1,-1.3,35.31,,,,,,,,,,
14.50.10.500,-117.2,29.3,0,18.0,,62020.1,16.12,-0.37,0.55,0.73,1.0,6.2,-1.3,35.31,,,,,,,,,,
14.50.10.512,-197.5,49.4,0,18.0,,60224.8,16.6,-0.37,0.55,0.73,1.0,6.0,-1.4,35.31,,,,,,,,,,
14.50.10.520,-139.2,34.8,0,18.0,,72152.1,13.86,-0.37,0.56,0.74,0.8,6.3,-1.3,35.31,,,,,,,,,,
14.50.10.533,-154.4,38.6,0,18.0,,68509.7,14.6,-0.37,0.56,0.74,0.2,6.6,-1.2,35.31,,,,,,,,,,
14.50.10.545,-141.0,35.2,0,18.0,,61158.1,16.35,-0.37,0.56,0.74,-0.1,6.9,-1.0,35.31,,,,,,,,,,
14.50.10.553,-167.2,41.8,0,18.0,,73629.4,13.58,-0.37,0.56,0.74,0.1,6.9,-0.9,35.31,,,,,,,,,,
14.50.10.565,-192.8,48.2,0,18.0,,66291.3,15.08,-0.37,0.56,0.74,-0.4,6.5,-1.2,35.31,,,,,,,,,,
14.50.10.578,-175.0,43.8,0,18.0,,67079.7,14.91,-0.37,0.55,0.74,-0.5,7.1,-1.7,35.31,,,,,,,,,,
14.50.10.590,-216.6,54.2,0,18.0,,69243.7,14.44,-0.37,0.55,0.75,-0.6,7.7,-1.7,35.31,,,,,,,,,,
14.50.10.602,167.8,42.0,1,19.0,93.5,67421.1,14.83,-0.37,0.55,0.75,-0.7,7.8,-1.7,35.31,,,,,,,,,,
14.50.10.610,48.6,12.2,0,19.0,,60424.8,16.55,-0.38,0.55,0.74,-0.6,8.3,-1.2,35.31,,,,,,,,,,
14.50.10.623,210.1,52.5,0,19.0,,59539.7,16.8,-0.38,0.55,0.74,-0.6,7.2,-1.6,35.31,,,,,,,,,,
14.50.10.631,184.3,46.1,0,19.0,,75070.7,13.32,-0.38,0.54,0.74,-0.7,6.6,-1.6,35.31,,,,,,,,,,
14.50.10.643,292.9,73.2,0,19.0,,69672.9,14.35,-0.39,0.53,0.74,0.7,6.9,-1.8,35.31,,,,,,,,,,
14.50.10.651,320.7,80.2,0,19.0,,67532.7,14.81,-0.38,0.55,0.74,1.3,7.0,-1.8,35.31,,,,,,,,,,
14.50.10.664,372.2,93.0,0,19.0,,63903.3,15.65,-0.37,0.56,0.74,0.5,3.1,-1.4,35.31,,,,,,,,,,
14.50.10.672,405.9,101.5,0,19.0,,66694.6,14.99,-0.37,0.55,0.74,2.0,4.5,-0.6,35.31,,,,,,,,,,
14.50.10.684,420.3,105.1,0,19.0,,62504.0,16.0,-0.37,0.56,0.74,0.5,7.3,-1.6,35.31,,,,,,,,,,
14.50.10.692,443.4,110.8,0,19.0,,68982.8,14.5,-0.37,0.55,0.73,-0.9,6.8,-2.1,35.31,,,,,,,,,,
14.50.10.705,516.8,129.2,0,19.0,,63474.0,15.75,-0.38,0.55,0.73,0.0,6.5,-1.5,35.31,,,,,,,,,,
14.50.10.713,444.8,111.2,0,19.0,,64554.8,15.49,-0.38,0.55,0.74,0.3,6.3,-1.6,35.31,,,,,,,,,,
14.50.10.725,463.7,115.9,0,19.0,,71455.5,13.99,-0.37,0.55,0.74,-0.7,5.9,-1.7,35.31,,,,,,,,,,
14.50.10.733,441.6,110.4,0,19.0,,65176.1,15.34,-0.37,0.55,0.74,-0.3,6.1,-1.4,35.31,,,,,,,,,,
14.50.10.746,416.5,104.1,0,19.0,,67249.7,14.87,-0.37,0.54,0.74,1.0,6.6,-1.6,35.31,,,,,,,,,,
14.50.10.754,444.0,111.0,0,19.0,,64392.5,15.53,-0.37,0.54,0.74,1.3,6.8,-1.4,35.31,,,,,,,,,,
14.50.10.767,328.4,82.1,0,19.0,,65676.8,15.23,-0.38,0.55,0.73,0.6,5.9,-2.1,35.31,,,,,,,,,,
14.50.10.774,280.0,70.0,0,19.0,,63534.6,15.74,-0.37,0.54,0.74,1.4,5.9,-2.0,35.31,,,,,,,,,,
14.50.10.787,206.8,51.7,0,19.0,,74034.7,13.51,-0.37,0.55,0.74,1.5,6.7,-1.8,35.31,,,,,,,,,,
14.50.10.795,178.1,44.5,0,19.0,,63181.5,15.83,-0.37,0.56,0.73,0.2,6.6,-1.9,35.31,,,,,,,,,,
14.50.10.807,105.7,26.4,0,19.0,,67926.0,14.72,-0.37,0.56,0.74,0.3,7.1,-1.4,35.31,,,,,,,,,,
14.50.10.815,-10.3,2.6,0,19.0,,68595.9,14.58,-0.37,0.56,0.74,-0.3,6.4,-1.5,35.31,,,,,,,,,,
14.50.10.828,-4.9,1.2,0,19.0,,67654.7,14.78,-0.37,0.55,0.74,-0.8,6.4,-1.7,35.31,,,,,,,,,,
14.50.10.836,32.8,8.2,0,19.0,,66090.1,15.13,-0.37,0.55,0.74,-0.7,7.5,-1.6,35.31,,,,,,,,,,
14.50.10.848,90.8,22.7,0,19.0,,66725.4,14.99,-0.37,0.55,0.74,-0.1,7.0,-1.5,35.31,,,,,,,,,,
14.50.10.856,61.1,15.3,0,19.0,,68616.7,14.57,-0.37,0.55,0.74,-0.1,6.1,-1.3,35.31,,,,,,,,,,
14.50.10.869,80.2,20.0,0,19.0,,61913.7,16.15,-0.38,0.55,0.75,0.4,6.1,-1.0,35.31,,,,,,,,,,
14.50.10.877,107.2,26.8,0,19.0,,61960.4,16.14,-0.38,0.54,0.74,0.6,6.6,-1.2,35.31,,,,,,,,,,
14.50.10.889,113.0,28.2,0,19.0,,64581.4,15.48,-0.38,0.55,0.74,1.1,6.3,-0.9,35.31,,,,,,,,,,
14.50.10.901,73.9,18.5,0,19.0,,65310.7,15.31,-0.38,0.55,0.74,1.8,5.4,-1.2,35.31,,,,,,,,,,
14.50.10.909,99.4,24.8,0,19.0,,64707.4,15.45,-0.38,0.55,0.74,1.3,5.8,-1.3,35.31,,,,,,,,,,
14.50.10.922,93.3,23.3,0,19.0,,66398.4,15.06,-0.38,0.55,0.75,1.2,6.6,-1.5,35.31,,,,,,,,,,
14.50.10.930,74.2,18.6,0,19.0,,65547.2,15.26,-0.37,0.56,0.74,0.8,6.4,-0.8,35.31,,,,,,,,,,
14.50.10.942,-8.3,2.1,0,19.0,,65465.9,15.28,-0.37,0.56,0.74,0.4,5.6,-0.8,35.31,,,,,,,,,,
14.50.10.951,-17.5,4.4,0,19.0,,64365.8,15.54,-0.38,0.56,0.74,0.0,5.8,-1.0,35.31,,,,,,,,,,
14.50.10.963,-4.5,1.1,0,19.0,,67028.3,14.92,-0.38,0.55,0.74,0.2,6.2,-1.1,35.31,,,,,,,,,,
14.50.10.971,-8.5,2.1,0,19.0,,66718.0,14.99,-0.38,0.55,0.74,0.7,6.3,-0.7,35.31,,,,,,,,,,
14.50.10.983,-25.1,6.3,0,19.0,,69145.0,14.46,-0.38,0.55,0.74,0.7,5.9,-0.5,35.31,,,,,,,,,,
14.50.10.991,-21.8,5.4,0,19.0,,64196.0,15.58,-0.38,0.55,0.74,0.6,5.7,-0.7,35.31,,,,,,,,,,
14.50.11.004,-73.8,18.4,0,19.0,,65832.2,15.19,-0.38,0.54,0.73,1.0,5.8,-1.4,35.31,,,,,,,,,,
14.50.11.012,-55.6,13.9,0,19.0,,61244.4,16.33,-0.37,0.54,0.74,1.5,5.7,-1.2,35.31,,,,,,,,,,
14.50.11.024,16.3,4.1,0,19.0,,70268.0,14.23,-0.38,0.54,0.73,1.4,4.9,-1.5,35.31,,,,,,,,,,
14.50.11.032,-12.9,3.2,0,19.0,,68827.0,14.53,-0.37,0.54,0.74,1.4,4.8,-1.7,35.31,,,,,,,,,,
14.50.11.045,-69.0,17.2,0,19.0,,71377.7,14.01,-0.37,0.55,0.74,2.2,5.5,-1.8,35.31,,,,,,,,,,
14.50.11.053,-42.7,10.7,0,19.0,,68840.7,14.53,-0.38,0.55,0.73,1.8,5.0,-1.7,35.31,,,,,,,,,,
14.50.11.065,-96.8,24.2,0,19.0,,67455.1,14.82,-0.38,0.55,0.74,1.6,5.7,-2.0,35.31,,,,,,,,,,
14.50.11.077,-105.1,26.3,0,19.0,,67481.2,14.82,-0.38,0.55,0.74,2.0,6.0,-1.5,35.31,,,,,,,,,,
14.50.11.086,-103.8,26.0,0,19.0,,69263.4,14.44,-0.38,0.56,0.74,1.2,4.7,-1.6,35.31,,,,,,,,,,
14.50.11.098,-64.6,16.2,0,19.0,,64842.0,15.42,-0.37,0.55,0.74,1.5,4.2,-1.6,35.31,,,,,,,,,,
14.50.11.106,-45.9,11.5,0,19.0,,68096.2,14.69,-0.37,0.56,0.74,1.4,5.1,-1.3,35.31,,,,,,,,,,
14.50.11.118,-144.3,36.1,0,19.0,,69771.0,14.33,-0.37,0.55,0.74,1.0,5.7,-1.4,35.31,,,,,,,,,,
14.50.11.127,-101.7,25.4,0,19.0,,65410.9,15.29,-0.37,0.55,0.74,0.7,5.6,-1.6,35.31,,,,,,,,,,
14.50.11.139,-118.1,29.5,0,19.0,,65481.3,15.27,-0.38,0.55,0.74,1.0,5.2,-1.3,35.31,,,,,,,,,,
14.50.11.176,-148.5,37.1,0,19.0,,59579.7,16.78,-0.37,0.55,0.74,1.5,4.7,-1.6,35.25,,,,,,,,,,
14.50.11.184,-138.6,34.6,0,19.0,,68079.7,14.69,-0.37,0.55,0.74,2.3,4.6,-1.3,35.25,,,,,,,,,,
14.50.11.196,-68.3,17.1,0,19.0,,71449.4,14.0,-0.37,0.56,0.74,2.1,3.9,-1.4,35.25,,,,,,,,,,
14.50.11.204,-142.2,35.6,0,19.0,,67107.9,14.9,-0.38,0.56,0.74,1.5,4.8,-1.4,35.25,,,,,,,,,,
14.50.11.217,-161.7,40.4,0,19.0,,66331.6,15.08,-0.37,0.56,0.75,1.3,6.1,-1.2,35.25,,,,,,,,,,
14.50.11.225,-221.2,55.3,0,19.0,,63243.3,15.81,-0.38,0.56,0.75,0.9,5.8,-0.9,35.25,,,,,,,,,,
14.50.11.237,-214.6,53.6,0,19.0,,70276.4,14.23,-0.38,0.55,0.74,0.3,5.4,-0.7,35.25,,,,,,,,,,
14.50.11.245,-34.1,8.5,1,20.0,89.3,69927.1,14.3,-0.38,0.55,0.73,0.8,6.6,-0.8,35.25,,,,,,,,,,
14.50.11.258,88.1,22.0,0,20.0,,70724.1,14.14,-0.38,0.55,0.73,0.3,6.4,-1.0,35.25,,,,,,,,,,
14.50.11.266,128.7,32.2,0,20.0,,70068.5,14.27,-0.38,0.55,0.73,0.2,5.1,-1.4,35.25,,,,,,,,,,
14.50.11.278,219.9,55.0,0,20.0,,69197.9,14.45,-0.38,0.55,0.74,0.6,4.5,-1.2,35.25,,,,,,,,,,
14.50.11.290,302.6,75.6,0,20.0,,63216.8,15.82,-0.37,0.56,0.74,1.1,5.8,-0.8,35.25,,,,,,,,,,
14.50.11.299,374.1,93.5,0,20.0,,62261.6,16.06,-0.38,0.55,0.74,0.4,6.3,-1.1,35.25,,,,,,,,,,
14.50.11.311,361.3,90.3,0,20.0,,67111.5,14.9,-0.37,0.55,0.73,0.5,5.6,-0.7,35.25,,,,,,,,,,
14.50.11.319,425.2,106.3,0,20.0,,67224.6,14.88,-0.37,0.55,0.73,1.0,4.8,-0.7,35.25,,,,,,,,,,
14.50.11.331,416.0,104.0,0,20.0,,59880.9,16.7,-0.37,0.55,0.73,0.7,4.9,-1.0,35.25,,,,,,,,,,
14.50.11.340,459.7,114.9,0,20.0,,68927.7,14.51,-0.37,0.56,0.73,0.4,5.8,-1.5,35.25,,,,,,,,,,
14.50.11.352,431.2,107.8,0,20.0,,71885.3,13.91,-0.37,0.55,0.73,0.4,5.3,-1.6,35.25,,,,,,,,,,
14.50.11.360,497.6,124.4,0,20.0,,70302.8,14.22,-0.37,0.55,0.73,0.2,5.7,-1.4,35.25,,,,,,,,,,
14.50.11.372,467.1,116.8,0,20.0,,68494.2,14.6,-0.37,0.55,0.74,0.4,5.7,-1.5,35.25,,,,,,,,,,
14.50.11.381,428.3,107.1,0,20.0,,64473.5,15.51,-0.38,0.55,0.73,0.3,5.3,-1.3,35.25,,,,,,,,,,
14.50.11.393,399.4,99.8,0,20.0,,63469.8,15.76,-0.38,0.55,0.74,0.4,5.2,-1.5,35.25,,,,,,,,,,
14.50.11.401,426.9,106.7,0,20.0,,66459.0,15.05,-0.38,0.54,0.74,1.5,5.8,-1.6,35.25,,,,,,,,,,
14.50.11.413,311.5,77.9,0,20.0,,71028.3,14.08,-0.37,0.55,0.73,1.2,5.1,-1.9,35.25,,,,,,,,,,
14.50.11.422,357.8,89.4,0,20.0,,69970.1,14.29,-0.37,0.55,0.74,1.7,4.6,-1.5,35.25,,,,,,,,,,
14.50.11.434,275.5,68.9,0,20.0,,61044.1,16.38,-0.38,0.56,0.74,1.9,4.4,-1.2,35.25,,,,,,,,,,
14.50.11.442,253.5,63.4,0,20.0,,64249.5,15.56,-0.37,0.56,0.73,1.4,5.1,-1.6,35.25,,,,,,,,,,
14.50.11.454,99.5,24.9,0,20.0,,58902.9,16.98,-0.37,0.56,0.74,0.6,6.1,-1.6,35.25,,,,,,,,,,
14.50.11.463,42.9,10.7,0,20.0,,62941.3,15.89,-0.37,0.56,0.75,0.9,6.0,-1.5,35.25,,,,,,,,,,
14.50.11.475,15.6,3.9,0,20.0,,65602.5,15.24,-0.37,0.55,0.74,0.2,5.6,-1.5,35.25,,,,,,,,,,
14.50.11.483,-40.5,10.1,0,20.0,,63587.4,15.73,-0.37,0.56,0.74,0.2,5.7,-1.5,35.25,,,,,,,,,,
14.50.11.495,43.1,10.8,0,20.0,,68041.9,14.7,-0.37,0.55,0.74,0.6,6.0,-1.7,35.25,,,,,,,,,,
14.50.11.504,80.8,20.2,0,20.0,,68005.4,14.7,-0.37,0.55,0.74,0.6,5.4,-1.8,35.25,,,,,,,,,,
14.50.11.516,44.4,11.1,0,20.0,,67710.4,14.77,-0.37,0.55,0.74,1.8,5.2,-1.5,35.25,,,,,,,,,,
14.50.11.528,108.2,27.0,0,20.0,,71461.7,13.99,-0.37,0.55,0.74,1.1,5.2,-1.7,35.25,,,,,,,,,,
14.50.11.536,80.2,20.0,0,20.0,,67943.4,14.72,-0.37,0.56,0.74,0.4,5.0,-1.9,35.25,,,,,,,,,,
14.50.11.549,71.8,18.0,0,20.0,,66370.9,15.07,-0.37,0.55,0.74,1.0,5.9,-1.3,35.25,,,,,,,,,,
14.50.11.557,55.4,13.8,0,20.0,,66282.7,15.09,-0.37,0.56,0.73,0.8,5.7,-1.0,35.25,,,,,,,,,,
14.50.11.569,34.5,8.6,0,20.0,,68632.5,14.57,-0.37,0.55,0.73,0.3,5.4,-1.2,35.25,,,,,,,,,,
14.50.11.577,42.0,10.5,0,20.0,,68082.9,14.69,-0.37,0.55,0.74,1.0,5.3,-0.8,35.25,,,,,,,,,,
14.50.11.590,43.1,10.8,0,20.0,,70136.1,14.26,-0.37,0.55,0.74,1.0,5.0,-1.2,35.25,,,,,,,,,,
14.50.11.598,-10.5,2.6,0,20.0,,60663.6,16.48,-0.37,0.55,0.74,1.1,5.5,-1.5,35.25,,,,,,,,,,
14.50.11.610,55.0,13.8,0,20.0,,71100.9,14.06,-0.37,0.55,0.74,1.3,6.3,-1.6,35.25,,,,,,,,,,
14.50.11.618,-20.6,5.2,0,20.0,,62423.9,16.02,-0.37,0.55,0.74,0.4,6.6,-1.8,35.25,,,,,,,,,,
14.50.11.631,-32.3,8.1,0,20.0,,68010.4,14.7,-0.37,0.56,0.74,0.1,6.1,-1.3,35.25,,,,,,,,,,
14.50.11.639,-22.7,5.7,0,20.0,,69164.7,14.46,-0.37,0.56,0.74,-0.2,5.9,-1.2,35.25,,,,,,,,,,
14.50.11.651,-24.2,6.0,0,20.0,,68302.3,14.64,-0.37,0.55,0.74,0.0,6.4,-1.3,35.25,,,,,,,,,,
14.50.11.659,-44.4,11.1,0,20.0,,67355.4,14.85,-0.37,0.55,0.74,0.4,7.4,-0.9,35.25,,,,,,,,,,
14.50.11.671,20.2,5.0,0,20.0,,67790.6,14.75,-0.37,0.55,0.74,0.4,6.0,-1.2,35.25,,,,,,,,,,
14.50.11.680,-51.4,12.8,0,20.0,,64279.8,15.56,-0.38,0.54,0.74,0.1,5.1,-1.3,35.25,,,,,,,,,,
14.50.11.692,-115.6,28.9,0,20.0,,67306.3,14.86,-0.37,0.55,0.74,1.2,5.9,-1.1,35.25,,,,,,,,,,
14.50.11.700,-30.9,7.7,0,20.0,,68499.3,14.6,-0.37,0.55,0.74,1.3,5.9,-1.3,35.25,,,,,,,,,,
14.50.11.712,-57.3,14.3,0,20.0,,68925.6,14.51,-0.38,0.55,0.74,1.0,5.5,-1.2,35.25,,,,,,,,,,
14.50.11.721,-102.4,25.6,0,20.0,,67425.3,14.83,-0.38,0.56,0.73,1.2,5.2,-1.1,35.25,,,,,,,,,,
14.50.11.733,-171.8,43.0,0,20.0,,69759.8,14.33,-0.37,0.56,0.74,1.0,4.9,-0.9,35.25,,,,,,,,,,
14.50.11.741,-39.9,10.0,0,20.0,,70079.9,14.27,-0.37,0.55,0.74,0.8,4.8,-1.1,35.25,,,,,,,,,,
14.50.11.753,-101.2,25.3,0,20.0,,68661.6,14.56,-0.37,0.55,0.74,1.2,5.4,-0.9,35.25,,,,,,,,,,
14.50.11.762,-50.9,12.7,0,20.0,,67984.7,14.71,-0.37,0.55,0.74,1.2,5.0,-1.0,35.25,,,,,,,,,,
14.50.11.774,-56.3,14.1,0,20.0,,62744.8,15.94,-0.38,0.54,0.74,1.3,4.9,-0.9,35.25,,,,,,,,,,
14.50.11.782,-128.3,32.1,0,20.0,,63108.5,15.85,-0.38,0.55,0.74,2.0,4.7,-0.6,35.25,,,,,,,,,,
14.50.11.794,-108.0,27.0,0,20.0,,71106.3,14.06,-0.38,0.55,0.74,1.8,5.5,-0.8,35.25,,,,,,,,,,
14.50.11.803,-93.5,23.4,0,20.0,,67031.8,14.92,-0.37,0.56,0.74,-0.1,5.5,-1.2,35.25,,,,,,,,,,
14.50.11.815,-168.2,42.0,0,20.0,,69580.1,14.37,-0.37,0.56,0.75,0.6,6.6,-0.9,35.25,,,,,,,,,,
14.50.11.827,-123.6,30.9,0,20.0,,71840.6,13.92,-0.37,0.56,0.74,0.2,7.8,-0.9,35.25,,,,,,,,,,
14.50.11.835,-199.8,50.0,0,20.0,,66359.0,15.07,-0.37,0.56,0.74,-2.0,6.0,-1.4,35.25,,,,,,,,,,
14.50.11.848,-136.7,34.2,0,20.0,,70684.1,14.15,-0.36,0.56,0.74,-1.5,6.3,-1.4,35.25,,,,,,,,,,
14.50.11.856,-146.5,36.6,0,20.0,,65860.2,15.18,-0.36,0.55,0.73,-1.6,7.6,-2.0,35.25,,,,,,,,,,
14.50.11.868,-179.0,44.8,0,20.0,,62712.4,15.95,-0.37,0.55,0.74,-1.7,7.1,-2.2,35.25,,,,,,,,,,
14.50.11.876,-175.2,43.8,0,20.0,,68554.6,14.59,-0.37,0.54,0.73,-1.2,6.7,-2.2,35.25,,,,,,,,,,
14.50.11.889,-252.4,63.1,0,20.0,,70667.6,14.15,-0.37,0.54,0.73,-0.6,5.9,-1.9,35.25,,,,,,,,,,
14.50.11.897,-15.6,3.9,1,21.0,88.0,71141.2,14.06,-0.38,0.54,0.74,0.1,5.1,-1.6,35.25,,,,,,,,,,
14.50.11.909,113.8,28.4,0,21.0,,67280.4,14.86,-0.37,0.54,0.74,1.1,5.1,-1.0,35.25,,,,,,,,,,
14.50.11.921,190.9,47.7,0,21.0,,65490.8,15.27,-0.37,0.55,0.73,1.0,4.6,-1.1,35.25,,,,,,,,,,
14.50.11.930,230.1,57.5,0,21.0,,63866.4,15.66,-0.36,0.56,0.74,1.3,5.1,-1.4,35.25,,,,,,,,,,
14.50.11.942,281.9,70.5,0,21.0,,63985.1,15.63,-0.36,0.56,0.73,1.3,5.1,-1.6,35.25,,,,,,,,,,
14.50.11.979,483.0,120.8,0,21.0,,67723.1,14.77,-0.36,0.56,0.74,0.8,5.4,-1.7,35.25,,,,,,,,,,
14.50.11.987,515.9,129.0,0,21.0,,75809.7,13.19,-0.37,0.55,0.74,0.7,5.2,-0.8,35.25,,,,,,,,,,
14.50.11.999,487.8,122.0,0,21.0,,68336.5,14.63,-0.37,0.56,0.74,1.2,6.1,-0.6,35.25,,,,,,,,,,
14.50.12.007,470.6,117.6,0,21.0,,67874.6,14.73,-0.37,0.55,0.74,1.4,6.3,-1.1,35.25,,,,,,,,,,
14.50.12.020,472.2,118.0,0,21.0,,68529.0,14.59,-0.37,0.55,0.73,1.2,6.0,-1.2,35.25,,,,,,,,,,
14.50.12.028,485.8,121.4,0,21.0,,66179.9,15.11,-0.37,0.56,0.73,0.7,5.7,-1.6,35.25,,,,,,,,,,
14.50.12.040,496.6,124.2,0,21.0,,69285.3,14.43,-0.37,0.55,0.74,-0.1,5.7,-1.5,35.25,,,,,,,,,,
14.50.12.048,525.3,131.3,0,21.0,,65939.0,15.17,-0.37,0.56,0.74,-0.1,5.5,-1.2,35.25,,,,,,,,,,
14.50.12.061,319.7,79.9,0,21.0,,71478.9,13.99,-0.37,0.55,0.74,0.4,5.7,-1.0,35.25,,,,,,,,,,
14.50.12.069,379.7,94.9,0,21.0,,65050.4,15.37,-0.37,0.55,0.74,0.1,5.4,-0.9,35.25,,,,,,,,,,
14.50.12.081,198.8,49.7,0,21.0,,65398.1,15.29,-0.38,0.54,0.74,0.7,5.2,-0.7,35.25,,,,,,,,,,
14.50.12.089,171.5,42.9,0,21.0,,67667.1,14.78,-0.37,0.54,0.75,1.3,5.6,-1.1,35.25,,,,,,,,,,
14.50.12.102,199.4,49.8,0,21.0,,66388.8,15.06,-0.38,0.54,0.74,1.7,5.5,-1.3,35.25,,,,,,,,,,
14.50.12.110,86.7,21.7,0,21.0,,69543.6,14.38,-0.38,0.55,0.74,1.6,5.5,-1.8,35.25,,,,,,,,,,
14.50.12.122,-58.8,14.7,0,21.0,,68959.1,14.5,-0.37,0.55,0.74,1.7,5.5,-1.7,35.25,,,,,,,,,,
14.50.12.131,15.7,3.9,0,21.0,,67141.8,14.89,-0.37,0.55,0.74,1.3,5.3,-1.8,35.25,,,,,,,,,,
14.50.12.143,45.4,11.4,0,21.0,,67228.6,14.87,-0.37,0.56,0.73,0.9,5.5,-1.5,35.25,,,,,,,,,,
14.50.12.151,47.1,11.8,0,21.0,,66495.6,15.04,-0.37,0.56,0.74,0.6,5.9,-1.7,35.25,,,,,,,,,,
14.50.12.163,44.0,11.0,0,21.0,,67023.5,14.92,-0.37,0.56,0.74,0.3,6.0,-1.5,35.25,,,,,,,,,,
14.50.12.175,73.6,18.4,0,21.0,,61114.6,16.36,-0.36,0.56,0.74,0.2,5.9,-1.2,35.25,,,,,,,,,,
14.50.12.184,66.4,16.6,0,21.0,,61317.3,16.31,-0.37,0.56,0.74,0.0,6.0,-1.2,35.25,,,,,,,,,,
14.50.12.196,92.4,23.1,0,21.0,,60549.7,16.52,-0.37,0.56,0.74,0.3,6.6,-1.0,35.25,,,,,,,,,,
14.50.12.204,54.8,13.7,0,21.0,,67927.5,14.72,-0.37,0.55,0.74,0.5,6.3,-1.3,35.25,,,,,,,,,,
14.50.12.216,69.5,17.4,0,21.0,,69357.3,14.42,-0.37,0.55,0.74,1.2,6.1,-1.0,35.25,,,,,,,,,,
14.50.12.225,97.3,24.3,0,21.0,,64013.3,15.62,-0.37,0.55,0.74,1.0,5.6,-0.9,35.25,,,,,,,,,,
14.50.12.237,19.3,4.8,0,21.0,,67828.5,14.74,-0.37,0.55,0.73,0.6,4.9,-1.3,35.25,,,,,,,,,,
14.50.12.245,1.7,0.4,0,21.0,,71435.9,14.0,-0.36,0.56,0.74,1.2,5.8,-1.4,35.25,,,,,,,,,,
14.50.12.257,7.9,2.0,0,21.0,,68881.0,14.52,-0.36,0.56,0.74,0.5,5.6,-1.2,35.25,,,,,,,,,,
14.50.12.265,-24.6,6.2,0,21.0,,64803.8,15.43,-0.37,0.56,0.74,0.1,5.5,-1.3,35.25,,,,,,,,,,
14.50.12.278,-12.5,3.1,0,21.0,,61670.2,16.22,-0.37,0.56,0.74,-0.2,6.2,-0.9,35.25,,,,,,,,,,
14.50.12.286,-19.2,4.8,0,21.0,,67120.0,14.9,-0.38,0.55,0.74,0.5,6.3,-0.9,35.25,,,,,,,,,,
14.50.12.299,-62.1,15.5,0,21.0,,67847.1,14.74,-0.37,0.56,0.74,0.7,6.3,-0.8,35.25,,,,,,,,,,
14.50.12.306,-50.8,12.7,0,21.0,,66358.0,15.07,-0.37,0.55,0.73,0.3,5.8,-1.1,35.25,,,,,,,,,,
14.50.12.319,-59.0,14.8,0,21.0,,63849.0,15.66,-0.37,0.55,0.73,0.8,5.5,-1.5,35.25,,,,,,,,,,
14.50.12.327,20.1,5.0,0,21.0,,70206.7,14.24,-0.37,0.55,0.74,1.0,5.5,-1.6,35.25,,,,,,,,,,
14.50.12.339,-24.5,6.1,0,21.0,,70394.9,14.21,-0.37,0.55,0.74,0.9,5.9,-1.4,35.25,,,,,,,,,,
14.50.12.347,-24.0,6.0,0,21.0,,68459.3,14.61,-0.37,0.55,0.74,0.7,6.0,-1.2,35.25,,,,,,,,,,
14.50.12.360,-15.6,3.9,0,21.0,,61832.5,16.17,-0.37,0.56,0.74,1.1,5.9,-1.4,35.25,,,,,,,,,,
14.50.12.368,-86.6,21.6,0,21.0,,64443.3,15.52,-0.37,0.55,0.74,0.5,5.4,-1.5,35.25,,,,,,,,,,
14.50.12.380,-136.8,34.2,0,21.0,,69416.0,14.41,-0.36,0.55,0.74,1.2,5.4,-1.3,35.25,,,,,,,,,,
14.50.12.388,-83.7,20.9,0,21.0,,66927.2,14.94,-0.37,0.56,0.74,1.2,6.1,-1.3,35.25,,,,,,,,,,
14.50.12.401,-138.1,34.5,0,21.0,,63322.6,15.79,-0.37,0.55,0.74,0.8,5.6,-1.5,35.25,,,,,,,,,,
14.50.12.409,-160.4,40.1,0,21.0,,66393.0,15.06,-0.37,0.55,0.74,1.2,5.8,-1.1,35.25,,,,,,,,,,
14.50.12.421,-128.3,32.1,0,21.0,,69484.7,14.39,-0.37,0.56,0.74,1.3,5.3,-1.0,35.25,,,,,,,,,,
14.50.12.429,-90.2,22.6,0,21.0,,64464.0,15.51,-0.37,0.55,0.74,1.0,5.6,-1.2,35.25,,,,,,,,,,
14.50.12.442,-147.9,37.0,0,21.0,,72224.2,13.85,-0.37,0.55,0.74,0.5,5.8,-1.6,35.25,,,,,,,,,,
14.50.12.450,-162.5,40.6,0,21.0,,66022.2,15.15,-0.37,0.55,0.75,0.5,5.5,-1.2,35.25,,,,,,,,,,
14.50.12.463,-176.7,44.2,0,21.0,,66020.1,15.15,-0.37,0.56,0.75,0.9,5.6,-1.2,35.25,,,,,,,,,,
14.50.12.470,-192.9,48.2,0,21.0,,67911.5,14.73,-0.37,0.55,0.74,0.8,5.7,-1.7,35.25,,,,,,,,,,
14.50.12.483,-145.7,36.4,0,21.0,,67972.4,14.71,-0.37,0.55,0.75,1.1,6.6,-1.4,35.25,,,,,,,,,,
14.50.12.495,-217.1,54.3,0,21.0,,65316.2,15.31,-0.37,0.56,0.74,1.4,6.1,-1.0,35.25,,,,,,,,,,
14.50.12.503,-155.7,38.9,0,21.0,,62484.5,16.0,-0.37,0.56,0.74,0.4,5.2,-1.2,35.25,,,,,,,,,,
14.50.12.515,-98.4,24.6,0,21.0,,66925.3,14.94,-0.37,0.56,0.74,0.5,5.6,-0.7,35.25,,,,,,,,,,
14.50.12.524,-115.4,28.8,0,21.0,,68665.9,14.56,-0.37,0.56,0.74,0.2,7.5,-1.0,35.25,,,,,,,,,,
14.50.12.536,-203.8,51.0,0,21.0,,66868.2,14.95,-0.37,0.56,0.73,-0.6,6.4,-1.5,35.25,,,,,,,,,,
14.50.12.548,22.4,5.6,1,22.0,88.3,62680.2,15.95,-0.36,0.56,0.74,-0.7,5.9,-1.3,35.25,,,,,,,,,,
14.50.12.556,50.1,12.5,0,22.0,,64617.4,15.48,-0.37,0.56,0.75,-1.1,6.5,-1.4,35.25,,,,,,,,,,
14.50.12.569,161.2,40.3,0,22.0,,70344.2,14.22,-0.37,0.56,0.74,-1.7,6.9,-1.6,35.25,,,,,,,,,,
14.50.12.577,172.4,43.1,0,22.0,,65812.5,15.19,-0.37,0.55,0.74,-1.1,6.3,-0.9,35.25,,,,,,,,,,
14.50.12.589,276.3,69.1,0,22.0,,63915.1,15.65,-0.37,0.54,0.74,-0.7,5.8,-0.6,35.25,,,,,,,,,,
14.50.12.597,315.4,78.8,0,22.0,,66019.6,15.15,-0.38,0.55,0.74,0.3,5.3,-0.3,35.25,,,,,,,,,,
14.50.12.610,384.4,96.1,0,22.0,,63573.5,15.73,-0.38,0.55,0.73,1.6,7.8,-0.6,35.25,,,,,,,,,,
14.50.12.618,431.4,107.8,0,22.0,,66537.6,15.03,-0.37,0.55,0.74,-0.5,6.3,-1.2,35.25,,,,,,,,,,
14.50.12.631,477.7,119.4,0,22.0,,66774.9,14.98,-0.37,0.55,0.74,0.2,4.0,-0.6,35.25,,,,,,,,,,
14.50.12.638,459.4,114.8,0,22.0,,69798.9,14.33,-0.37,0.55,0.74,1.8,4.7,-0.4,35.25,,,,,,,,,,
14.50.12.651,507.8,127.0,0,22.0,,66004.5,15.15,-0.38,0.56,0.74,1.7,5.4,0.2,35.25,,,,,,,,,,
14.50.12.659,489.3,122.3,0,22.0,,65249.9,15.33,-0.38,0.54,0.74,1.4,4.7,-0.5,35.25,,,,,,,,,,
14.50.12.671,422.5,105.6,0,22.0,,60073.7,16.65,-0.37,0.54,0.74,2.1,4.1,-0.6,35.25,,,,,,,,,,
14.50.12.679,557.9,139.5,0,22.0,,72570.1,13.78,-0.37,0.55,0.74,2.3,3.6,-0.5,35.25,,,,,,,,,,
14.50.12.692,355.3,88.8,0,22.0,,69139.9,14.46,-0.37,0.55,0.74,1.9,4.8,-1.1,35.25,,,,,,,,,,
14.50.12.700,373.0,93.2,0,22.0,,69887.2,14.31,-0.36,0.55,0.74,2.0,4.9,-1.3,35.25,,,,,,,,,,
14.50.12.712,322.2,80.6,0,22.0,,67721.1,14.77,-0.37,0.55,0.74,2.1,3.6,-1.0,35.25,,,,,,,,,,
14.50.12.720,318.7,79.7,0,22.0,,66387.8,15.06,-0.37,0.55,0.74,2.4,3.2,-0.7,35.25,,,,,,,,,,
14.50.12.732,242.7,60.7,0,22.0,,65805.2,15.2,-0.36,0.56,0.74,2.3,4.2,-0.8,35.25,,,,,,,,,,
14.50.12.741,235.0,58.8,0,22.0,,62240.0,16.07,-0.36,0.55,0.74,2.3,5.5,-0.8,35.25,,,,,,,,,,
14.50.12.777,3.6,0.9,0,22.0,,58420.3,17.12,-0.36,0.55,0.74,1.6,5.1,-0.8,35.31,,,,,,,,,,
14.50.12.790,51.8,13.0,0,22.0,,66718.4,14.99,-0.37,0.56,0.75,1.5,5.1,-2.1,35.31,,,,,,,,,,
14.50.12.798,12.2,3.0,0,22.0,,68018.0,14.7,-0.37,0.56,0.75,2.0,5.1,-1.7,35.31,,,,,,,,,,
14.50.12.810,73.7,18.4,0,22.0,,65370.8,15.3,-0.36,0.56,0.74,1.8,4.9,-1.3,35.31,,,,,,,,,,
14.50.12.823,24.4,6.1,0,22.0,,68031.2,14.7,-0.36,0.56,0.74,2.1,4.8,-1.0,35.31,,,,,,,,,,
14.50.12.831,82.9,20.7,0,22.0,,64747.8,15.44,-0.36,0.56,0.75,1.9,5.1,-0.7,35.31,,,,,,,,,,
14.50.12.843,96.7,24.2,0,22.0,,69045.6,14.48,-0.36,0.56,0.74,1.5,5.2,-0.2,35.31,,,,,,,,,,
14.50.12.851,90.3,22.6,0,22.0,,66458.3,15.05,-0.36,0.55,0.74,1.5,6.0,-0.8,35.31,,,,,,,,,,
14.50.12.864,85.7,21.4,0,22.0,,68964.2,14.5,-0.35,0.56,0.73,0.9,5.7,-1.0,35.31,,,,,,,,,,
14.50.12.872,42.8,10.7,0,22.0,,67692.8,14.77,-0.36,0.56,0.73,1.2,4.8,-1.1,35.31,,,,,,,,,,
14.50.12.884,26.0,6.5,0,22.0,,60237.0,16.6,-0.36,0.56,0.74,1.1,4.9,-1.0,35.31,,,,,,,,,,
14.50.12.892,19.6,4.9,0,22.0,,64525.6,15.5,-0.36,0.56,0.75,1.5,6.3,-0.9,35.31,,,,,,,,,,
14.50.12.905,-55.8,14.0,0,22.0,,66943.0,14.94,-0.36,0.56,0.74,0.9,6.2,-1.1,35.31,,,,,,,,,,
14.50.12.913,-38.7,9.7,0,22.0,,64611.0,15.48,-0.37,0.56,0.74,0.9,5.6,-1.0,35.31,,,,,,,,,,
14.50.12.925,-41.2,10.3,0,22.0,,67798.9,14.75,-0.36,0.56,0.75,1.0,5.4,-1.0,35.31,,,,,,,,,,
14.50.12.933,0.5,0.1,0,22.0,,65436.2,15.28,-0.36,0.56,0.73,0.8,6.4,-1.5,35.31,,,,,,,,,,
14.50.12.946,-30.0,7.5,0,22.0,,68116.0,14.68,-0.37,0.56,0.73,0.6,6.0,-1.7,35.31,,,,,,,,,,
14.50.12.954,-9.7,2.4,0,22.0,,64588.3,15.48,-0.37,0.55,0.73,0.6,6.2,-0.8,35.31,,,,,,,,,,
