timestamp,ppg,threshold,beat,beat_count,inst_bpm,gsr_resistance_ohm,gsr_conductance_us,accel_x,accel_y,accel_z,gyro_x,gyro_y,gyro_z,temp_c,window_bpm,window_temp_c,status_message,SpO2,bmi,age,height,weight,env_temp_c,env_humidity_pct
14.37.04.426,,,0,,,,,,,,,5.8,-1.3,31.75,87.6,,,98.0,25.0,21.0,162.56,66.0,31.44,45.0
14.37.04.426,-1.1,0.3,0,,,97658.2,10.24,-0.06,0.46,0.88,0.8,6.0,-1.2,31.75,,,,,,,,,,
14.37.04.438,55.0,13.8,0,,,96025.2,10.41,-0.06,0.46,0.88,1.0,5.3,-1.4,31.75,,,,,,,,,,
14.37.04.447,77.5,19.4,0,,,97789.4,10.23,-0.06,0.46,0.88,1.0,5.4,-1.4,31.75,,,,,,,,,,
14.37.04.459,124.9,31.2,0,,,96398.8,10.37,-0.06,0.46,0.88,0.3,5.7,-1.2,31.75,,,,,,,,,,
14.37.04.467,170.8,42.7,0,,,96711.3,10.34,-0.06,0.46,0.88,0.5,5.5,-1.3,31.75,,,,,,,,,,
14.37.04.479,197.6,49.4,0,,,96108.8,10.4,-0.06,0.46,0.88,0.6,5.5,-1.3,31.75,,,,,,,,,,
14.37.04.488,220.5,55.1,0,,,97710.5,10.23,-0.06,0.46,0.88,0.9,5.7,-1.2,31.75,,,,,,,,,,
14.37.04.500,273.6,68.4,0,,,96431.0,10.37,-0.06,0.46,0.88,0.6,6.4,-1.1,31.75,,,,,,,,,,
14.37.04.508,298.4,74.6,0,,,96358.8,10.38,-0.06,0.46,0.88,0.6,6.7,-1.3,31.75,,,,,,,,,,
14.37.04.520,314.3,78.6,0,,,97423.1,10.26,-0.06,0.46,0.88,0.8,6.2,-1.5,31.75,,,,,,,,,,
14.37.04.529,312.3,78.1,0,,,97757.3,10.23,-0.06,0.46,0.88,0.6,6.5,-1.1,31.75,,,,,,,,,,
14.37.04.541,338.6,84.6,0,,,96736.0,10.34,-0.06,0.46,0.88,0.3,6.0,-1.5,31.75,,,,,,,,,,
14.37.04.549,343.5,85.9,0,,,95787.6,10.44,-0.06,0.46,0.88,-0.2,6.0,-1.3,31.75,,,,,,,,,,
14.37.04.561,326.4,81.6,0,,,97598.5,10.25,-0.06,0.46,0.88,-0.3,5.7,-1.3,31.75,,,,,,,,,,
14.37.04.570,341.9,85.5,0,,,96107.5,10.41,-0.06,0.45,0.89,0.0,5.7,-1.2,31.75,,,,,,,,,,
14.37.04.582,316.3,79.1,0,,,96459.6,10.37,-0.06,0.45,0.88,0.3,5.6,-1.3,31.75,,,,,,,,,,
14.37.04.590,289.1,72.3,0,,,96578.2,10.35,-0.06,0.46,0.88,0.8,5.8,-1.3,31.75,,,,,,,,,,
14.37.04.602,253.4,63.4,0,,,96420.6,10.37,-0.06,0.46,0.89,0.7,5.4,-1.2,31.75,,,,,,,,,,
14.37.04.615,213.8,53.4,0,,,96533.7,10.36,-0.06,0.46,0.88,0.8,5.6,-1.4,31.75,,,,,,,,,,
14.37.04.627,182.1,45.5,0,,,97063.9,10.3,-0.06,0.47,0.89,0.6,5.7,-1.2,31.75,,,,,,,,,,
14.37.04.635,155.6,38.9,0,,,96315.2,10.38,-0.06,0.46,0.88,0.3,5.5,-1.0,31.75,,,,,,,,,,
14.37.04.647,103.6,25.9,0,,,96283.1,10.39,-0.06,0.46,0.88,0.2,5.6,-1.4,31.75,,,,,,,,,,
14.37.04.656,71.7,17.9,0,,,96890.1,10.32,-0.06,0.46,0.88,0.4,5.6,-1.4,31.75,,,,,,,,,,
14.37.04.668,8.4,2.1,0,,,97419.8,10.26,-0.06,0.46,0.88,0.1,5.5,-1.4,31.75,,,,,,,,,,
14.37.04.676,11.4,2.8,0,,,96539.0,10.36,-0.06,0.46,0.88,0.2,5.5,-1.2,31.75,,,,,,,,,,
14.37.04.688,23.0,5.8,0,,,96513.0,10.36,-0.06,0.45,0.88,0.4,5.5,-1.2,31.75,,,,,,,,,,
14.37.04.697,40.1,10.0,0,,,97384.6,10.27,-0.06,0.46,0.88,0.9,5.7,-1.5,31.75,,,,,,,,,,
14.37.04.709,40.9,10.2,0,,,96713.1,10.34,-0.06,0.46,0.88,0.6,5.5,-1.3,31.75,,,,,,,,,,
14.37.04.717,51.1,12.8,0,,,96022.0,10.41,-0.05,0.47,0.87,0.5,5.7,-1.3,31.75,,,,,,,,,,
14.37.04.729,50.8,12.7,0,,,95344.6,10.49,-0.06,0.46,0.89,0.3,5.6,-1.1,31.75,,,,,,,,,,
14.37.04.738,48.2,12.0,0,,,96024.0,10.41,-0.06,0.46,0.88,0.4,6.0,-1.3,31.75,,,,,,,,,,
14.37.04.750,52.8,13.2,0,,,96076.6,10.41,-0.06,0.46,0.88,0.8,6.1,-0.9,31.75,,,,,,,,,,
14.37.04.758,56.7,14.2,0,,,96100.5,10.41,-0.06,0.46,0.88,0.8,6.0,-1.4,31.75,,,,,,,,,,
14.37.04.770,44.3,11.1,0,,,96550.5,10.36,-0.06,0.46,0.88,0.2,5.4,-1.3,31.75,,,,,,,,,,
14.37.04.779,40.1,10.0,0,,,94843.6,10.54,-0.06,0.46,0.88,0.3,5.5,-1.2,31.75,,,,,,,,,,
14.37.04.791,31.1,7.8,0,,,96896.4,10.32,-0.05,0.46,0.88,0.3,5.7,-1.1,31.75,,,,,,,,,,
14.37.04.799,23.4,5.8,0,,,96311.6,10.38,-0.06,0.46,0.88,0.6,5.5,-1.3,31.75,,,,,,,,,,
14.37.04.836,-11.9,3.0,0,,,97161.8,10.29,-0.06,0.46,0.89,0.5,5.7,-1.1,31.75,,,,,,,,,,
14.37.04.848,-20.2,5.0,0,,,97478.6,10.26,-0.06,0.46,0.88,0.2,5.9,-1.5,31.75,,,,,,,,,,
14.37.04.856,-10.4,2.6,0,,,95868.6,10.43,-0.06,0.46,0.87,0.8,5.6,-1.7,31.75,,,,,,,,,,
14.37.04.869,-22.1,5.5,0,,,96138.0,10.4,-0.06,0.46,0.88,0.6,5.7,-1.5,31.75,,,,,,,,,,
14.37.04.877,-17.5,4.4,0,,,96751.9,10.34,-0.06,0.46,0.88,0.7,5.6,-1.5,31.75,,,,,,,,,,
14.37.04.889,-30.2,7.6,0,,,96560.3,10.36,-0.06,0.46,0.88,0.5,5.7,-1.3,31.75,,,,,,,,,,
14.37.04.897,-27.3,6.8,0,,,95753.8,10.44,-0.06,0.46,0.88,0.7,5.5,-1.4,31.75,,,,,,,,,,
14.37.04.910,-37.6,9.4,0,,,96375.3,10.38,-0.06,0.46,0.88,0.8,5.9,-1.3,31.75,,,,,,,,,,
14.37.04.918,-36.6,9.2,0,,,96822.0,10.33,-0.06,0.46,0.88,0.4,5.9,-1.5,31.75,,,,,,,,,,
14.37.04.930,-42.1,10.5,0,,,95675.6,10.45,-0.06,0.46,0.89,0.2,5.5,-1.2,31.75,,,,,,,,,,
14.37.04.938,-50.5,12.6,0,,,95559.0,10.46,-0.06,0.46,0.88,0.2,5.7,-1.0,31.75,,,,,,,,,,
14.37.04.951,-58.8,14.7,0,,,95519.3,10.47,-0.06,0.46,0.88,0.3,5.7,-1.2,31.75,,,,,,,,,,
14.37.04.959,-52.6,13.2,0,,,95105.4,10.51,-0.06,0.46,0.89,0.5,5.8,-1.2,31.75,,,,,,,,,,
14.37.04.972,-67.3,16.8,0,,,96121.2,10.4,-0.06,0.46,0.88,0.6,5.9,-1.3,31.75,,,,,,,,,,
14.37.04.979,-59.3,14.8,0,,,96769.1,10.33,-0.06,0.46,0.88,0.4,5.7,-1.4,31.75,,,,,,,,,,
14.37.04.992,-70.0,17.5,0,,,96518.1,10.36,-0.06,0.46,0.88,0.1,5.7,-0.8,31.75,,,,,,,,,,
14.37.05.000,-69.5,17.4,0,,,94871.6,10.54,-0.06,0.46,0.88,-0.1,5.7,-1.3,31.75,,,,,,,,,,
14.37.05.012,-77.6,19.4,0,,,95054.2,10.52,-0.06,0.45,0.88,0.1,5.8,-1.1,31.75,,,,,,,,,,
14.37.05.020,-79.6,19.9,0,,,95523.0,10.47,-0.05,0.46,0.88,0.7,5.7,-1.0,31.75,,,,,,,,,,
14.37.05.033,-78.9,19.7,0,,,96248.2,10.39,-0.06,0.46,0.88,0.8,5.9,-1.5,31.75,,,,,,,,,,
14.37.05.045,-94.0,23.5,0,,,95744.8,10.44,-0.06,0.46,0.88,0.7,5.8,-1.5,31.75,,,,,,,,,,
14.37.05.053,-94.7,23.7,0,,,95017.4,10.52,-0.06,0.46,0.88,0.1,5.8,-1.3,31.75,,,,,,,,,,
14.37.05.065,-92.6,23.2,0,,,95615.3,10.46,-0.06,0.46,0.88,-0.1,5.5,-1.2,31.75,,,,,,,,,,
14.37.05.073,-104.7,26.2,0,,,96007.5,10.42,-0.06,0.46,0.89,0.4,5.6,-1.3,31.75,,,,,,,,,,
14.37.05.086,-105.8,26.4,0,,,96342.7,10.38,-0.05,0.46,0.88,1.2,5.5,-1.3,31.75,,,,,,,,,,
14.37.05.094,-104.4,26.1,0,,,94641.3,10.57,-0.06,0.45,0.88,1.7,5.8,-1.2,31.75,,,,,,,,,,
14.37.05.106,-110.0,27.5,0,,,97232.6,10.28,-0.06,0.46,0.88,2.0,6.5,-1.4,31.75,,,,,,,,,,
14.37.05.114,-120.1,30.0,0,,,95685.3,10.45,-0.06,0.46,0.88,2.0,6.6,-1.2,31.75,,,,,,,,,,
14.37.05.127,-126.9,31.7,0,,,97484.6,10.26,-0.06,0.46,0.88,1.0,6.3,-1.1,31.75,,,,,,,,,,
14.37.05.135,11.8,3.0,1,1.0,83.6,97254.9,10.28,-0.06,0.47,0.88,0.7,6.0,-1.2,31.75,,,,,,,,,,
14.37.05.147,65.7,16.4,0,1.0,,95596.4,10.46,-0.06,0.47,0.88,0.5,5.8,-1.4,31.75,,,,,,,,,,
14.37.05.155,97.1,24.3,0,1.0,,97084.3,10.3,-0.06,0.47,0.88,0.2,6.2,-1.1,31.75,,,,,,,,,,
14.37.05.168,149.1,37.3,0,1.0,,97032.6,10.31,-0.06,0.46,0.88,0.5,6.7,-1.2,31.75,,,,,,,,,,
14.37.05.176,175.2,43.8,0,1.0,,96007.2,10.42,-0.06,0.46,0.88,0.5,6.1,-1.1,31.75,,,,,,,,,,
14.37.05.188,202.2,50.6,0,1.0,,96606.4,10.35,-0.06,0.47,0.87,0.6,6.2,-1.6,31.75,,,,,,,,,,
14.37.05.196,233.4,58.4,0,1.0,,96813.0,10.33,-0.06,0.46,0.88,0.5,6.2,-1.3,31.75,,,,,,,,,,
14.37.05.209,287.5,71.9,0,1.0,,96838.1,10.33,-0.06,0.46,0.88,-0.1,5.8,-1.1,31.75,,,,,,,,,,
14.37.05.217,272.3,68.1,0,1.0,,95783.7,10.44,-0.06,0.45,0.89,-0.2,5.4,-1.1,31.75,,,,,,,,,,
14.37.05.229,293.9,73.5,0,1.0,,97103.4,10.3,-0.06,0.46,0.88,0.6,5.8,-1.2,31.75,,,,,,,,,,
14.37.05.237,307.5,76.9,0,1.0,,96530.7,10.36,-0.06,0.46,0.88,0.7,5.8,-1.6,31.75,,,,,,,,,,
14.37.05.250,319.6,79.9,0,1.0,,96448.6,10.37,-0.06,0.46,0.88,0.4,5.9,-1.3,31.75,,,,,,,,,,
14.37.05.258,295.4,73.8,0,1.0,,93697.8,10.67,-0.06,0.46,0.88,0.1,6.0,-1.3,31.75,,,,,,,,,,
14.37.05.270,302.7,75.7,0,1.0,,97870.7,10.22,-0.06,0.46,0.88,-0.4,5.9,-1.4,31.75,,,,,,,,,,
14.37.05.278,288.3,72.1,0,1.0,,95262.8,10.5,-0.06,0.46,0.88,-0.4,5.4,-1.1,31.75,,,,,,,,,,
14.37.05.291,287.6,71.9,0,1.0,,97023.1,10.31,-0.06,0.46,0.88,0.2,5.9,-1.5,31.75,,,,,,,,,,
14.37.05.303,228.1,57.0,0,1.0,,97030.0,10.31,-0.06,0.46,0.88,0.4,5.8,-1.0,31.75,,,,,,,,,,
14.37.05.315,257.6,64.4,0,1.0,,96245.1,10.39,-0.05,0.46,0.88,0.4,5.7,-1.2,31.75,,,,,,,,,,
14.37.05.323,213.7,53.4,0,1.0,,96491.8,10.36,-0.06,0.46,0.88,0.8,5.9,-1.1,31.75,,,,,,,,,,
14.37.05.336,159.3,39.8,0,1.0,,95873.2,10.43,-0.06,0.46,0.88,0.8,5.5,-1.4,31.75,,,,,,,,,,
14.37.05.348,121.8,30.4,0,1.0,,96648.0,10.35,-0.06,0.47,0.88,0.5,5.8,-1.2,31.75,,,,,,,,,,
14.37.05.356,85.8,21.4,0,1.0,,96435.5,10.37,-0.06,0.46,0.88,0.4,5.8,-1.0,31.75,,,,,,,,,,
14.37.05.368,42.1,10.5,0,1.0,,94994.9,10.53,-0.06,0.46,0.88,0.4,5.6,-1.3,31.75,,,,,,,,,,
14.37.05.381,1.1,0.3,0,1.0,,96170.2,10.4,-0.06,0.46,0.88,0.2,5.6,-1.3,31.75,,,,,,,,,,
14.37.05.389,22.6,5.6,0,1.0,,95864.8,10.43,-0.06,0.46,0.88,0.0,5.6,-1.1,31.75,,,,,,,,,,
14.37.05.401,18.7,4.7,0,1.0,,96533.8,10.36,-0.06,0.46,0.88,-0.1,5.4,-0.9,31.75,,,,,,,,,,
14.37.05.413,35.0,8.8,0,1.0,,97653.6,10.24,-0.06,0.46,0.88,-0.3,5.6,-0.7,31.75,,,,,,,,,,
14.37.05.426,45.5,11.4,0,1.0,,96944.1,10.32,-0.06,0.46,0.88,-0.3,5.7,-0.5,31.75,,,,,,,,,,
14.37.05.434,51.5,12.9,0,1.0,,95817.9,10.44,-0.06,0.46,0.89,-0.6,5.9,-0.4,31.75,,,,,,,,,,
14.37.05.446,60.4,15.1,0,1.0,,96405.0,10.37,-0.06,0.46,0.88,-0.6,5.8,-0.4,31.75,,,,,,,,,,
14.37.05.459,48.6,12.2,0,1.0,,94948.1,10.53,-0.05,0.46,0.88,-0.1,5.9,-0.6,31.75,,,,,,,,,,
14.37.05.471,54.4,13.6,0,1.0,,96727.9,10.34,-0.06,0.46,0.88,-0.1,6.4,-0.9,31.75,,,,,,,,,,
14.37.05.479,42.2,10.6,0,1.0,,96235.0,10.39,-0.06,0.46,0.88,0.1,6.4,-1.0,31.75,,,,,,,,,,
14.37.05.491,27.4,6.8,0,1.0,,94948.9,10.53,-0.06,0.46,0.88,-0.7,6.5,-0.9,31.75,,,,,,,,,,
14.37.05.504,24.1,6.0,0,1.0,,98514.1,10.15,-0.06,0.46,0.88,-0.6,6.2,-0.9,31.75,,,,,,,,,,
14.37.05.512,15.1,3.8,0,1.0,,97683.0,10.24,-0.05,0.45,0.88,0.1,5.5,-1.1,31.75,,,,,,,,,,
14.37.05.524,-0.1,0.0,0,1.0,,95349.0,10.49,-0.05,0.45,0.88,1.5,5.1,-1.2,31.75,,,,,,,,,,
14.37.05.536,-3.9,1.0,0,1.0,,96013.8,10.42,-0.06,0.45,0.87,2.0,5.4,-1.3,31.75,,,,,,,,,,
14.37.05.545,-10.7,2.7,0,1.0,,96152.0,10.4,-0.05,0.46,0.88,2.9,5.7,-1.2,31.75,,,,,,,,,,
14.37.05.557,-12.5,3.1,0,1.0,,98080.1,10.2,-0.06,0.46,0.88,2.1,5.9,-1.1,31.75,,,,,,,,,,
14.37.05.569,-19.2,4.8,0,1.0,,96743.2,10.34,-0.06,0.46,0.88,1.4,6.1,-1.5,31.75,,,,,,,,,,
14.37.05.581,-22.2,5.6,0,1.0,,95526.4,10.47,-0.06,0.46,0.88,0.9,5.9,-1.2,31.75,,,,,,,,,,
14.37.05.590,-29.0,7.2,0,1.0,,96197.6,10.4,-0.06,0.46,0.88,0.4,6.1,-1.3,31.75,,,,,,,,,,
14.37.05.602,-34.6,8.6,0,1.0,,96610.6,10.35,-0.06,0.46,0.88,0.2,6.2,-1.2,31.75,,,,,,,,,,
14.37.05.643,-54.7,13.7,0,1.0,,95440.3,10.48,-0.06,0.46,0.88,-0.5,5.7,-0.8,31.81,,,,,,,,,,
14.37.05.655,-56.2,14.0,0,1.0,,97529.4,10.25,-0.06,0.46,0.88,-0.3,5.8,-1.3,31.81,,,,,,,,,,
14.37.05.663,-52.0,13.0,0,1.0,,96227.2,10.39,-0.06,0.46,0.88,-0.1,5.9,-1.0,31.81,,,,,,,,,,
14.37.05.676,-62.0,15.5,0,1.0,,96329.6,10.38,-0.06,0.46,0.88,-0.2,5.8,-1.3,31.81,,,,,,,,,,
14.37.05.688,-58.9,14.7,0,1.0,,96844.3,10.33,-0.06,0.46,0.88,-0.1,6.2,-0.9,31.81,,,,,,,,,,
14.37.05.700,-78.5,19.6,0,1.0,,95153.0,10.51,-0.06,0.46,0.88,0.6,5.9,-1.2,31.81,,,,,,,,,,
14.37.05.708,-90.5,22.6,0,1.0,,94884.2,10.54,-0.06,0.46,0.88,0.7,5.8,-1.1,31.81,,,,,,,,,,
14.37.05.721,-84.1,21.0,0,1.0,,96438.3,10.37,-0.06,0.46,0.88,0.9,6.1,-0.7,31.81,,,,,,,,,,
14.37.05.733,-91.0,22.8,0,1.0,,96340.5,10.38,-0.06,0.46,0.88,1.1,5.7,-1.2,31.81,,,,,,,,,,
14.37.05.741,-97.9,24.5,0,1.0,,96464.4,10.37,-0.06,0.46,0.88,1.1,6.0,-1.3,31.81,,,,,,,,,,
14.37.05.753,-96.0,24.0,0,1.0,,96176.7,10.4,-0.06,0.46,0.88,1.1,6.0,-1.2,31.81,,,,,,,,,,
14.37.05.766,-94.1,23.5,0,1.0,,96733.9,10.34,-0.06,0.46,0.87,1.1,5.6,-1.2,31.81,,,,,,,,,,
14.37.05.778,-106.1,26.5,0,1.0,,95477.6,10.47,-0.06,0.46,0.88,0.8,5.4,-1.1,31.81,,,,,,,,,,
14.37.05.786,-100.1,25.0,0,1.0,,96576.8,10.35,-0.06,0.46,0.89,0.6,5.7,-0.8,31.81,,,,,,,,,,
14.37.05.799,-109.5,27.4,0,1.0,,95786.8,10.44,-0.06,0.46,0.88,0.3,6.1,-1.0,31.81,,,,,,,,,,
14.37.05.811,-113.8,28.4,0,1.0,,95815.9,10.44,-0.06,0.46,0.88,0.6,5.7,-1.2,31.81,,,,,,,,,,
14.37.05.819,-110.0,27.5,0,1.0,,95888.2,10.43,-0.06,0.46,0.88,0.6,6.2,-0.8,31.81,,,,,,,,,,
14.37.05.835,2.4,0.6,1,2.0,87.1,96025.5,10.41,-0.06,0.46,0.88,0.6,6.2,-1.2,31.81,,,,,,,,,,
14.37.05.844,37.5,9.4,0,2.0,,95042.4,10.52,-0.06,0.46,0.89,0.8,6.2,-1.2,31.81,,,,,,,,,,
14.37.05.856,80.7,20.2,0,2.0,,96003.3,10.42,-0.06,0.46,0.88,1.6,6.2,-1.2,31.81,,,,,,,,,,
14.37.05.864,109.7,27.4,0,2.0,,96705.4,10.34,-0.06,0.46,0.88,1.3,6.4,-1.0,31.81,,,,,,,,,,
14.37.05.876,160.3,40.1,0,2.0,,95906.8,10.43,-0.06,0.47,0.88,0.9,6.0,-1.2,31.81,,,,,,,,,,
14.37.05.885,188.6,47.2,0,2.0,,95522.0,10.47,-0.06,0.47,0.88,0.2,6.3,-1.4,31.81,,,,,,,,,,
14.37.05.897,208.3,52.1,0,2.0,,96165.5,10.4,-0.06,0.46,0.88,-0.1,5.9,-1.3,31.81,,,,,,,,,,
14.37.05.905,249.9,62.5,0,2.0,,95333.0,10.49,-0.06,0.46,0.88,-0.7,6.2,-1.4,31.81,,,,,,,,,,
14.37.05.917,269.8,67.4,0,2.0,,96219.7,10.39,-0.06,0.46,0.88,-0.5,5.8,-1.3,31.81,,,,,,,,,,
14.37.05.926,285.5,71.4,0,2.0,,97217.3,10.29,-0.06,0.46,0.89,-0.7,5.6,-1.2,31.81,,,,,,,,,,
14.37.05.939,323.7,80.9,0,2.0,,97016.8,10.31,-0.05,0.45,0.89,-0.1,5.7,-1.1,31.81,,,,,,,,,,
14.37.05.946,306.9,76.7,0,2.0,,97662.7,10.24,-0.06,0.46,0.88,0.4,5.5,-1.3,31.81,,,,,,,,,,
14.37.05.958,333.9,83.5,0,2.0,,95970.7,10.42,-0.06,0.46,0.88,0.6,5.5,-1.3,31.81,,,,,,,,,,
14.37.05.967,325.7,81.4,0,2.0,,96380.6,10.38,-0.06,0.47,0.88,0.7,5.9,-1.3,31.81,,,,,,,,,,
14.37.05.979,285.4,71.4,0,2.0,,96448.0,10.37,-0.06,0.46,0.88,0.8,5.9,-1.2,31.81,,,,,,,,,,
14.37.05.987,300.4,75.1,0,2.0,,95677.6,10.45,-0.06,0.46,0.88,0.6,5.9,-1.3,31.81,,,,,,,,,,
14.37.05.999,311.5,77.9,0,2.0,,95305.2,10.49,-0.06,0.46,0.88,0.7,5.6,-1.6,31.81,,,,,,,,,,
14.37.06.008,260.9,65.2,0,2.0,,95681.0,10.45,-0.06,0.45,0.88,1.5,5.7,-1.0,31.81,,,,,,,,,,
14.37.06.020,207.9,52.0,0,2.0,,98261.0,10.18,-0.06,0.46,0.88,1.8,5.6,-1.3,31.81,,,,,,,,,,
14.37.06.028,216.2,54.0,0,2.0,,97460.4,10.26,-0.06,0.46,0.88,1.1,5.6,-1.3,31.81,,,,,,,,,,
14.37.06.040,149.6,37.4,0,2.0,,95474.8,10.47,-0.06,0.46,0.88,0.7,5.8,-1.4,31.81,,,,,,,,,,
14.37.06.048,124.2,31.0,0,2.0,,96425.0,10.37,-0.06,0.46,0.88,0.5,5.9,-1.4,31.81,,,,,,,,,,
14.37.06.061,81.8,20.4,0,2.0,,96158.3,10.4,-0.06,0.46,0.88,0.5,5.7,-1.3,31.81,,,,,,,,,,
14.37.06.069,61.3,15.3,0,2.0,,95834.0,10.43,-0.06,0.46,0.87,0.4,6.1,-1.5,31.81,,,,,,,,,,
14.37.06.081,1.2,0.3,0,2.0,,96279.0,10.39,-0.06,0.47,0.88,0.4,6.5,-1.1,31.81,,,,,,,,,,
14.37.06.089,11.3,2.8,0,2.0,,96420.9,10.37,-0.06,0.46,0.88,0.2,5.9,-1.3,31.81,,,,,,,,,,
14.37.06.102,22.8,5.7,0,2.0,,98192.7,10.18,-0.06,0.46,0.88,0.3,5.9,-1.2,31.81,,,,,,,,,,
14.37.06.110,41.9,10.5,0,2.0,,96842.5,10.33,-0.06,0.46,0.88,0.7,5.9,-1.0,31.81,,,,,,,,,,
14.37.06.123,49.0,12.2,0,2.0,,96810.8,10.33,-0.06,0.46,0.88,0.5,6.3,-1.3,31.81,,,,,,,,,,
14.37.06.130,65.5,16.4,0,2.0,,96648.2,10.35,-0.06,0.46,0.88,0.4,6.0,-1.2,31.81,,,,,,,,,,
14.37.06.143,61.3,15.3,0,2.0,,97458.7,10.26,-0.06,0.46,0.88,0.3,6.2,-1.5,31.81,,,,,,,,,,
14.37.06.155,67.9,17.0,0,2.0,,95855.4,10.43,-0.06,0.47,0.88,0.2,5.8,-1.1,31.81,,,,,,,,,,
14.37.06.167,52.0,13.0,0,2.0,,95945.0,10.42,-0.07,0.46,0.88,-0.3,6.0,-1.4,31.81,,,,,,,,,,
14.37.06.176,45.6,11.4,0,2.0,,96204.7,10.39,-0.06,0.46,0.87,0.1,6.0,-1.1,31.81,,,,,,,,,,
14.37.06.188,35.8,9.0,0,2.0,,97241.9,10.28,-0.06,0.46,0.88,0.1,5.7,-1.1,31.81,,,,,,,,,,
14.37.06.196,34.6,8.6,0,2.0,,96128.8,10.4,-0.06,0.46,0.88,0.0,5.5,-1.4,31.81,,,,,,,,,,
14.37.06.208,17.4,4.4,0,2.0,,95241.5,10.5,-0.06,0.46,0.88,0.5,5.8,-1.1,31.81,,,,,,,,,,
14.37.06.216,8.6,2.2,0,2.0,,96666.7,10.34,-0.06,0.46,0.87,0.3,5.6,-1.4,31.81,,,,,,,,,,
14.37.06.229,-7.3,1.8,0,2.0,,97038.6,10.31,-0.06,0.46,0.88,0.5,5.4,-1.3,31.81,,,,,,,,,,
14.37.06.237,-10.1,2.5,0,2.0,,95308.1,10.49,-0.06,0.46,0.88,0.2,5.6,-1.2,31.81,,,,,,,,,,
14.37.06.249,-19.8,5.0,0,2.0,,96764.8,10.33,-0.06,0.46,0.88,0.0,5.6,-1.3,31.81,,,,,,,,,,
14.37.06.257,-12.2,3.0,0,2.0,,96862.9,10.32,-0.06,0.46,0.88,0.0,5.6,-1.2,31.81,,,,,,,,,,
14.37.06.270,-26.7,6.7,0,2.0,,96368.8,10.38,-0.06,0.47,0.88,-0.1,5.6,-1.3,31.81,,,,,,,,,,
14.37.06.278,-19.9,5.0,0,2.0,,96978.0,10.31,-0.06,0.46,0.87,-0.3,5.7,-1.2,31.81,,,,,,,,,,
14.37.06.290,-30.7,7.7,0,2.0,,97266.2,10.28,-0.06,0.46,0.88,0.1,5.6,-1.2,31.81,,,,,,,,,,
14.37.06.298,-30.5,7.6,0,2.0,,96559.6,10.36,-0.06,0.46,0.88,0.3,5.3,-1.4,31.81,,,,,,,,,,
14.37.06.311,-26.2,6.6,0,2.0,,97100.1,10.3,-0.06,0.46,0.88,0.1,5.7,-1.2,31.81,,,,,,,,,,
14.37.06.319,-29.2,7.3,0,2.0,,95833.0,10.43,-0.06,0.46,0.88,0.2,5.6,-1.4,31.81,,,,,,,,,,
14.37.06.331,-43.8,11.0,0,2.0,,95386.1,10.48,-0.06,0.46,0.88,0.2,5.8,-1.4,31.81,,,,,,,,,,
14.37.06.339,-49.4,12.4,0,2.0,,97537.3,10.25,-0.06,0.46,0.88,-0.1,5.5,-1.2,31.81,,,,,,,,,,
14.37.06.352,-60.8,15.2,0,2.0,,95893.3,10.43,-0.06,0.45,0.88,0.1,5.8,-1.5,31.81,,,,,,,,,,
14.37.06.360,-66.5,16.6,0,2.0,,96286.4,10.39,-0.06,0.46,0.87,0.6,5.5,-1.3,31.81,,,,,,,,,,
14.37.06.372,-64.4,16.1,0,2.0,,95634.3,10.46,-0.06,0.46,0.89,0.5,5.5,-1.4,31.81,,,,,,,,,,
14.37.06.380,-59.6,14.9,0,2.0,,95530.8,10.47,-0.06,0.46,0.88,1.2,5.3,-1.2,31.81,,,,,,,,,,
14.37.06.393,-64.1,16.0,0,2.0,,96551.7,10.36,-0.06,0.46,0.88,1.0,5.3,-1.4,31.81,,,,,,,,,,
14.37.06.401,-77.3,19.3,0,2.0,,96255.5,10.39,-0.06,0.46,0.88,1.1,5.4,-1.3,31.81,,,,,,,,,,
14.37.06.437,-88.3,22.1,0,2.0,,96347.4,10.38,-0.06,0.46,0.88,0.8,5.6,-1.4,31.75,,,,,,,,,,
14.37.06.450,-90.4,22.6,0,2.0,,96375.6,10.38,-0.06,0.46,0.88,0.4,5.8,-1.1,31.75,,,,,,,,,,
14.37.06.458,-93.5,23.4,0,2.0,,97908.5,10.21,-0.06,0.46,0.88,0.4,6.0,-1.3,31.75,,,,,,,,,,
14.37.06.470,-93.4,23.4,0,2.0,,97433.9,10.26,-0.06,0.47,0.88,-0.2,5.8,-1.4,31.75,,,,,,,,,,
14.37.06.483,-96.8,24.2,0,2.0,,97519.6,10.25,-0.05,0.46,0.88,-0.5,5.9,-0.9,31.75,,,,,,,,,,
14.37.06.491,-107.5,26.9,0,2.0,,94833.2,10.54,-0.06,0.46,0.88,0.5,6.2,-0.8,31.75,,,,,,,,,,
14.37.06.503,-106.5,26.6,0,2.0,,96907.1,10.32,-0.06,0.46,0.88,0.7,6.0,-1.4,31.75,,,,,,,,,,
14.37.06.511,-111.9,28.0,0,2.0,,95018.5,10.52,-0.06,0.46,0.88,0.9,6.0,-1.5,31.75,,,,,,,,,,
14.37.06.524,-135.3,33.8,0,2.0,,95793.7,10.44,-0.06,0.46,0.88,0.9,5.9,-1.7,31.75,,,,,,,,,,
14.37.06.532,-132.8,33.2,0,2.0,,97687.0,10.24,-0.06,0.47,0.87,0.7,5.8,-1.3,31.75,,,,,,,,,,
14.37.06.544,26.9,6.7,1,3.0,80.3,97512.2,10.26,-0.06,0.46,0.88,0.3,5.9,-1.2,31.75,,,,,,,,,,
14.37.06.552,52.3,13.1,0,3.0,,97114.6,10.3,-0.06,0.46,0.88,0.3,5.8,-1.3,31.75,,,,,,,,,,
14.37.06.565,99.7,24.9,0,3.0,,96913.7,10.32,-0.06,0.45,0.89,0.4,5.8,-1.2,31.75,,,,,,,,,,
14.37.06.573,137.9,34.5,0,3.0,,96601.7,10.35,-0.06,0.46,0.88,0.7,6.0,-1.3,31.75,,,,,,,,,,
14.37.06.585,161.6,40.4,0,3.0,,96713.0,10.34,-0.06,0.46,0.88,0.2,6.3,-1.4,31.75,,,,,,,,,,
14.37.06.593,219.5,54.9,0,3.0,,97224.9,10.29,-0.06,0.47,0.88,0.1,6.1,-1.2,31.75,,,,,,,,,,
14.37.06.606,223.3,55.8,0,3.0,,95177.6,10.51,-0.06,0.46,0.88,0.2,5.6,-1.4,31.75,,,,,,,,,,
14.37.06.618,247.9,62.0,0,3.0,,96591.7,10.35,-0.06,0.46,0.88,0.0,5.3,-1.3,31.75,,,,,,,,,,
14.37.06.626,282.5,70.6,0,3.0,,95749.5,10.44,-0.06,0.46,0.89,0.1,5.3,-1.5,31.75,,,,,,,,,,
14.37.06.638,296.5,74.1,0,3.0,,96058.0,10.41,-0.06,0.46,0.88,0.3,5.4,-1.5,31.75,,,,,,,,,,
14.37.06.647,309.4,77.4,0,3.0,,96195.0,10.4,-0.06,0.46,0.88,0.4,5.5,-1.5,31.75,,,,,,,,,,
14.37.06.659,313.5,78.4,0,3.0,,96395.0,10.37,-0.06,0.46,0.88,0.9,5.5,-1.2,31.75,,,,,,,,,,
14.37.06.667,334.7,83.7,0,3.0,,95888.0,10.43,-0.06,0.46,0.87,1.3,5.9,-1.2,31.75,,,,,,,,,,
14.37.06.679,307.2,76.8,0,3.0,,94502.2,10.58,-0.06,0.46,0.88,1.3,5.7,-1.4,31.75,,,,,,,,,,
14.37.06.688,313.0,78.2,0,3.0,,96424.0,10.37,-0.06,0.46,0.88,0.8,5.8,-1.2,31.75,,,,,,,,,,
14.37.06.700,281.5,70.4,0,3.0,,95979.2,10.42,-0.06,0.46,0.89,0.4,5.5,-1.4,31.75,,,,,,,,,,
14.37.06.708,273.7,68.4,0,3.0,,96098.3,10.41,-0.06,0.46,0.89,0.4,5.6,-1.5,31.75,,,,,,,,,,
14.37.06.720,221.1,55.3,0,3.0,,96896.6,10.32,-0.06,0.46,0.88,0.4,5.8,-1.1,31.75,,,,,,,,,,
14.37.06.729,214.2,53.6,0,3.0,,96520.7,10.36,-0.06,0.46,0.88,0.8,5.6,-1.2,31.75,,,,,,,,,,
14.37.06.741,164.4,41.1,0,3.0,,96445.0,10.37,-0.06,0.47,0.88,1.2,5.9,-1.3,31.75,,,,,,,,,,
14.37.06.749,145.3,36.3,0,3.0,,96225.0,10.39,-0.05,0.46,0.89,0.6,6.6,-1.7,31.75,,,,,,,,,,
14.37.06.762,84.5,21.1,0,3.0,,96307.7,10.38,-0.06,0.46,0.87,0.5,5.6,-1.2,31.75,,,,,,,,,,
14.37.06.770,68.5,17.1,0,3.0,,95511.6,10.47,-0.06,0.46,0.89,0.1,6.3,-1.4,31.75,,,,,,,,,,
14.37.06.782,12.1,3.0,0,3.0,,96448.7,10.37,-0.06,0.47,0.88,0.6,5.6,-1.0,31.75,,,,,,,,,,
14.37.06.790,3.5,0.9,0,3.0,,95609.0,10.46,-0.05,0.46,0.88,0.1,5.8,-1.5,31.75,,,,,,,,,,
14.37.06.802,29.2,7.3,0,3.0,,95879.4,10.43,-0.06,0.46,0.88,0.2,5.8,-1.3,31.75,,,,,,,,,,
14.37.06.810,27.7,6.9,0,3.0,,95277.0,10.5,-0.06,0.46,0.88,0.0,5.7,-0.9,31.75,,,,,,,,,,
14.37.06.823,35.3,8.8,0,3.0,,96754.7,10.34,-0.06,0.46,0.88,0.0,5.8,-1.3,31.75,,,,,,,,,,
14.37.06.831,45.7,11.4,0,3.0,,97907.0,10.21,-0.06,0.46,0.89,0.7,5.5,-1.0,31.75,,,,,,,,,,
14.37.06.843,61.4,15.4,0,3.0,,96764.0,10.33,-0.06,0.46,0.88,0.3,6.1,-1.3,31.75,,,,,,,,,,
14.37.06.851,56.4,14.1,0,3.0,,94149.2,10.62,-0.06,0.46,0.88,0.4,5.3,-1.3,31.75,,,,,,,,,,
14.37.06.864,53.4,13.4,0,3.0,,96583.9,10.35,-0.06,0.46,0.88,0.5,5.9,-1.3,31.75,,,,,,,,,,
14.37.06.872,54.1,13.5,0,3.0,,96098.9,10.41,-0.06,0.46,0.88,0.9,5.3,-1.3,31.75,,,,,,,,,,
14.37.06.884,38.3,9.6,0,3.0,,96512.0,10.36,-0.06,0.46,0.88,0.5,5.8,-1.4,31.75,,,,,,,,,,
14.37.06.897,33.7,8.4,0,3.0,,97352.7,10.27,-0.06,0.46,0.88,0.4,5.4,-1.7,31.75,,,,,,,,,,
14.37.06.905,23.0,5.8,0,3.0,,96544.2,10.36,-0.06,0.46,0.88,-0.1,5.3,-1.5,31.75,,,,,,,,,,
14.37.06.917,19.2,4.8,0,3.0,,97033.8,10.31,-0.06,0.46,0.89,-0.1,5.5,-1.5,31.75,,,,,,,,,,
14.37.06.925,-3.1,0.8,0,3.0,,96669.7,10.34,-0.06,0.45,0.88,0.1,5.2,-1.0,31.75,,,,,,,,,,
14.37.06.937,3.3,0.8,0,3.0,,95401.8,10.48,-0.06,0.46,0.88,0.2,5.6,-1.4,31.75,,,,,,,,,,
14.37.06.946,-3.4,0.8,0,3.0,,97040.3,10.31,-0.06,0.46,0.88,0.1,5.6,-1.1,31.75,,,,,,,,,,
14.37.06.958,-16.4,4.1,0,3.0,,96990.1,10.31,-0.06,0.46,0.89,0.4,5.9,-1.3,31.75,,,,,,,,,,
14.37.06.966,-15.5,3.9,0,3.0,,96367.4,10.38,-0.06,0.47,0.88,0.4,5.9,-1.3,31.75,,,,,,,,,,
14.37.06.978,-27.8,7.0,0,3.0,,97095.3,10.3,-0.06,0.46,0.88,0.5,5.9,-1.0,31.75,,,,,,,,,,
14.37.06.987,-33.2,8.3,0,3.0,,96998.6,10.31,-0.06,0.47,0.88,0.1,6.2,-1.3,31.75,,,,,,,,,,
14.37.06.999,-31.0,7.8,0,3.0,,96251.1,10.39,-0.06,0.46,0.88,0.5,5.5,-1.1,31.75,,,,,,,,,,
14.37.07.007,-38.2,9.6,0,3.0,,95725.0,10.45,-0.06,0.46,0.88,0.4,5.8,-1.3,31.75,,,,,,,,,,
14.37.07.019,-35.8,9.0,0,3.0,,95868.6,10.43,-0.05,0.46,0.88,0.8,5.6,-1.1,31.75,,,,,,,,,,
14.37.07.028,-39.1,9.8,0,3.0,,97353.4,10.27,-0.06,0.46,0.88,0.5,5.9,-1.4,31.75,,,,,,,,,,
14.37.07.040,-39.8,10.0,0,3.0,,96048.3,10.41,-0.06,0.46,0.88,0.1,5.8,-1.2,31.75,,,,,,,,,,
14.37.07.048,-36.7,9.2,0,3.0,,96840.5,10.33,-0.06,0.46,0.88,0.2,5.5,-1.2,31.75,,,,,,,,,,
14.37.07.060,-41.6,10.4,0,3.0,,95884.1,10.43,-0.06,0.46,0.89,0.6,5.6,-1.6,31.75,,,,,,,,,,
14.37.07.069,-57.8,14.4,0,3.0,,96147.8,10.4,-0.05,0.45,0.88,0.7,5.5,-1.1,31.75,,,,,,,,,,
14.37.07.081,-57.0,14.2,0,3.0,,97032.8,10.31,-0.06,0.45,0.88,0.8,5.7,-1.4,31.75,,,,,,,,,,
14.37.07.089,-68.5,17.1,0,3.0,,96929.0,10.32,-0.06,0.46,0.87,1.3,5.6,-1.1,31.75,,,,,,,,,,
14.37.07.101,-74.5,18.6,0,3.0,,96212.3,10.39,-0.06,0.46,0.88,1.0,5.7,-1.3,31.75,,,,,,,,,,
14.37.07.110,-68.2,17.0,0,3.0,,97475.7,10.26,-0.06,0.47,0.88,0.5,5.6,-1.4,31.75,,,,,,,,,,
14.37.07.122,-85.5,21.4,0,3.0,,95773.4,10.44,-0.06,0.47,0.88,0.0,5.8,-1.3,31.75,,,,,,,,,,
14.37.07.130,-90.8,22.7,0,3.0,,95702.9,10.45,-0.06,0.46,0.88,-0.3,5.9,-0.9,31.75,,,,,,,,,,
14.37.07.143,-86.2,21.6,0,3.0,,96324.1,10.38,-0.05,0.46,0.89,-0.1,5.9,-1.1,31.75,,,,,,,,,,
14.37.07.151,-87.0,21.8,0,3.0,,97030.5,10.31,-0.06,0.46,0.89,0.1,6.0,-1.1,31.75,,,,,,,,,,
14.37.07.163,-103.8,26.0,0,3.0,,98128.5,10.19,-0.06,0.46,0.88,0.9,6.2,-1.0,31.75,,,,,,,,,,
14.37.07.171,-104.3,26.1,0,3.0,,95122.3,10.51,-0.06,0.46,0.89,1.0,6.2,-1.3,31.75,,,,,,,,,,
14.37.07.183,-98.3,24.6,0,3.0,,96416.4,10.37,-0.05,0.46,0.88,1.0,5.9,-1.1,31.75,,,,,,,,,,
14.37.07.192,-119.0,29.8,0,3.0,,97418.2,10.27,-0.06,0.46,0.88,1.1,5.4,-1.3,31.75,,,,,,,,,,
14.37.07.204,-121.8,30.4,0,3.0,,96528.0,10.36,-0.06,0.46,0.87,0.1,6.4,-1.3,31.75,,,,,,,,,,
14.37.07.241,-126.1,31.5,0,3.0,,95826.0,10.44,-0.06,0.47,0.89,0.3,5.4,-1.3,31.81,,,,,,,,,,
14.37.07.249,17.4,4.4,1,4.0,89.7,96219.0,10.39,-0.06,0.46,0.88,0.9,5.8,-1.2,31.81,,,,,,,,,,
14.37.07.265,96.9,24.2,0,4.0,,96278.6,10.39,-0.06,0.46,0.88,-0.3,6.5,-1.6,31.81,,,,,,,,,,
14.37.07.273,108.7,27.2,0,4.0,,97544.2,10.25,-0.06,0.46,0.88,0.0,5.8,-1.3,31.81,,,,,,,,,,
14.37.07.286,159.4,39.8,0,4.0,,97547.1,10.25,-0.06,0.46,0.88,-0.1,5.9,-1.3,31.81,,,,,,,,,,
14.37.07.294,207.6,51.9,0,4.0,,95755.0,10.44,-0.05,0.46,0.88,0.3,5.9,-1.2,31.81,,,,,,,,,,
14.37.07.306,239.9,60.0,0,4.0,,97875.5,10.22,-0.06,0.46,0.89,1.0,5.0,-1.2,31.81,,,,,,,,,,
14.37.07.314,242.3,60.6,0,4.0,,95982.3,10.42,-0.06,0.46,0.88,1.1,5.8,-1.6,31.81,,,,,,,,,,
14.37.07.323,275.3,68.8,0,4.0,,96657.8,10.35,-0.06,0.47,0.88,1.2,5.8,-1.3,31.81,,,,,,,,,,
14.37.07.335,311.5,77.9,0,4.0,,96695.5,10.34,-0.06,0.46,0.88,1.2,5.4,-1.3,31.81,,,,,,,,,,
14.37.07.343,314.0,78.5,0,4.0,,95853.0,10.43,-0.06,0.46,0.88,0.9,6.0,-1.5,31.81,,,,,,,,,,
14.37.07.355,310.4,77.6,0,4.0,,97092.9,10.3,-0.06,0.46,0.89,0.7,5.3,-1.1,31.81,,,,,,,,,,
14.37.07.364,312.0,78.0,0,4.0,,95210.2,10.5,-0.07,0.46,0.88,-0.1,5.8,-1.4,31.81,,,,,,,,,,
14.37.07.376,342.9,85.7,0,4.0,,96740.4,10.34,-0.06,0.46,0.88,0.1,5.4,-1.3,31.81,,,,,,,,,,
14.37.07.384,315.8,79.0,0,4.0,,97010.9,10.31,-0.06,0.45,0.88,0.4,5.7,-1.3,31.81,,,,,,,,,,
14.37.07.396,305.9,76.5,0,4.0,,96907.6,10.32,-0.06,0.46,0.89,0.5,5.8,-1.7,31.81,,,,,,,,,,
14.37.07.404,283.5,70.9,0,4.0,,97574.6,10.25,-0.06,0.46,0.88,1.0,5.9,-1.2,31.81,,,,,,,,,,
14.37.07.417,231.4,57.8,0,4.0,,96337.0,10.38,-0.06,0.47,0.88,0.9,6.0,-1.2,31.81,,,,,,,,,,
14.37.07.425,241.3,60.3,0,4.0,,94692.1,10.56,-0.06,0.46,0.88,0.3,5.6,-1.3,31.81,,,,,,,,,,
14.37.07.437,174.4,43.6,0,4.0,,97701.0,10.24,-0.06,0.46,0.88,0.0,5.7,-1.0,31.81,,,,,,,,,,
14.37.07.445,171.5,42.9,0,4.0,,96161.5,10.4,-0.06,0.46,0.89,0.5,5.4,-1.0,31.81,,,,,,,,,,
14.37.07.458,110.7,27.7,0,4.0,,96024.4,10.41,-0.06,0.46,0.88,0.5,6.0,-1.2,31.81,,,,,,,,,,
14.37.07.466,101.3,25.3,0,4.0,,95642.1,10.46,-0.06,0.46,0.88,0.4,5.4,-1.0,31.81,,,,,,,,,,
14.37.07.478,43.2,10.8,0,4.0,,95275.3,10.5,-0.06,0.46,0.88,0.1,5.7,-1.4,31.81,,,,,,,,,,
14.37.07.486,22.3,5.6,0,4.0,,94990.8,10.53,-0.06,0.46,0.87,0.8,5.7,-1.3,31.81,,,,,,,,,,
14.37.07.499,8.4,2.1,0,4.0,,96521.2,10.36,-0.06,0.46,0.88,1.0,5.8,-1.3,31.81,,,,,,,,,,
14.37.07.507,25.8,6.4,0,4.0,,97262.0,10.28,-0.06,0.46,0.88,0.4,5.7,-1.3,31.81,,,,,,,,,,
14.37.07.519,33.6,8.4,0,4.0,,95998.3,10.42,-0.05,0.47,0.87,0.2,6.0,-1.3,31.81,,,,,,,,,,
14.37.07.532,45.8,11.4,0,4.0,,96685.8,10.34,-0.06,0.47,0.88,0.0,5.9,-1.1,31.81,,,,,,,,,,
14.37.07.541,53.2,13.3,0,4.0,,97730.8,10.23,-0.06,0.46,0.88,0.3,5.5,-1.1,31.81,,,,,,,,,,
14.37.07.552,52.4,13.1,0,4.0,,96475.8,10.37,-0.06,0.46,0.89,0.2,6.0,-1.3,31.81,,,,,,,,,,
14.37.07.560,53.8,13.4,0,4.0,,95578.5,10.46,-0.06,0.46,0.88,0.0,6.0,-1.1,31.81,,,,,,,,,,
14.37.07.572,67.2,16.8,0,4.0,,96561.4,10.36,-0.06,0.46,0.88,-0.2,5.7,-1.2,31.81,,,,,,,,,,
14.37.07.581,47.1,11.8,0,4.0,,95778.9,10.44,-0.06,0.46,0.88,-0.1,5.8,-1.2,31.81,,,,,,,,,,
14.37.07.593,50.7,12.7,0,4.0,,96784.6,10.33,-0.06,0.46,0.87,0.2,5.5,-1.1,31.81,,,,,,,,,,
14.37.07.601,28.9,7.2,0,4.0,,95645.3,10.46,-0.06,0.46,0.88,0.5,5.7,-1.2,31.81,,,,,,,,,,
14.37.07.613,27.5,6.9,0,4.0,,95116.1,10.51,-0.05,0.46,0.88,0.8,5.9,-1.1,31.81,,,,,,,,,,
14.37.07.622,1.0,0.2,0,4.0,,97198.8,10.29,-0.06,0.46,0.88,1.0,6.0,-1.3,31.81,,,,,,,,,,
14.37.07.634,-6.4,1.6,0,4.0,,96537.8,10.36,-0.06,0.46,0.88,0.6,5.9,-1.3,31.81,,,,,,,,,,
14.37.07.642,-1.2,0.3,0,4.0,,96871.5,10.32,-0.06,0.46,0.88,0.5,6.0,-1.4,31.81,,,,,,,,,,
14.37.07.654,-10.9,2.7,0,4.0,,95792.9,10.44,-0.06,0.46,0.88,0.2,5.8,-1.4,31.81,,,,,,,,,,
14.37.07.663,-19.0,4.8,0,4.0,,95140.3,10.51,-0.06,0.45,0.88,0.3,5.6,-1.3,31.81,,,,,,,,,,
14.37.07.675,-18.5,4.6,0,4.0,,97117.9,10.3,-0.06,0.46,0.89,0.2,5.6,-1.1,31.81,,,,,,,,,,
14.37.07.683,-21.7,5.4,0,4.0,,97200.8,10.29,-0.06,0.46,0.88,0.1,5.8,-1.3,31.81,,,,,,,,,,
14.37.07.696,-25.8,6.4,0,4.0,,95654.9,10.45,-0.06,0.46,0.88,0.8,5.7,-1.0,31.81,,,,,,,,,,
14.37.07.704,-27.9,7.0,0,4.0,,97291.5,10.28,-0.06,0.46,0.88,0.2,5.9,-1.4,31.81,,,,,,,,,,
14.37.07.716,-36.9,9.2,0,4.0,,96482.9,10.36,-0.05,0.46,0.88,0.5,5.7,-1.2,31.81,,,,,,,,,,
14.37.07.724,-36.1,9.0,0,4.0,,96232.4,10.39,-0.06,0.46,0.88,0.7,5.6,-1.2,31.81,,,,,,,,,,
14.37.07.736,-45.6,11.4,0,4.0,,95689.7,10.45,-0.06,0.46,0.89,0.5,6.0,-1.2,31.81,,,,,,,,,,
14.37.07.745,-48.8,12.2,0,4.0,,96874.3,10.32,-0.06,0.46,0.87,0.8,5.9,-1.3,31.81,,,,,,,,,,
14.37.07.757,-41.1,10.3,0,4.0,,96804.0,10.33,-0.06,0.46,0.89,0.7,5.8,-1.0,31.81,,,,,,,,,,
14.37.07.765,-44.8,11.2,0,4.0,,96755.8,10.34,-0.06,0.46,0.87,0.4,5.7,-1.5,31.81,,,,,,,,,,
14.37.07.777,-59.1,14.8,0,4.0,,94569.8,10.57,-0.06,0.46,0.89,0.6,5.9,-1.3,31.81,,,,,,,,,,
14.37.07.786,-60.2,15.0,0,4.0,,96006.5,10.42,-0.06,0.46,0.88,0.8,5.4,-1.2,31.81,,,,,,,,,,
14.37.07.798,-68.1,17.0,0,4.0,,96475.4,10.37,-0.06,0.46,0.89,0.9,5.7,-1.4,31.81,,,,,,,,,,
14.37.07.806,-71.1,17.8,0,4.0,,96460.0,10.37,-0.06,0.46,0.88,0.7,5.2,-1.4,31.81,,,,,,,,,,
14.37.07.818,-78.3,19.6,0,4.0,,95148.4,10.51,-0.06,0.46,0.88,0.6,5.7,-1.1,31.81,,,,,,,,,,
14.37.07.831,-84.2,21.0,0,4.0,,96747.3,10.34,-0.06,0.46,0.89,0.8,5.5,-0.8,31.81,,,,,,,,,,
14.37.07.843,-81.6,20.4,0,4.0,,97194.3,10.29,-0.06,0.46,0.89,0.4,6.1,-1.3,31.81,,,,,,,,,,
14.37.07.851,-78.4,19.6,0,4.0,,94912.4,10.54,-0.06,0.47,0.88,0.6,6.4,-1.1,31.81,,,,,,,,,,
14.37.07.863,-96.4,24.1,0,4.0,,96469.2,10.37,-0.06,0.46,0.88,0.2,6.1,-1.4,31.81,,,,,,,,,,
14.37.07.876,-91.3,22.8,0,4.0,,95537.0,10.47,-0.06,0.46,0.88,0.2,6.3,-1.3,31.81,,,,,,,,,,
14.37.07.884,-101.9,25.5,0,4.0,,96464.4,10.37,-0.06,0.46,0.88,0.0,6.0,-1.3,31.81,,,,,,,,,,
14.37.07.896,-100.7,25.2,0,4.0,,95468.8,10.47,-0.06,0.46,0.88,0.4,5.8,-1.4,31.81,,,,,,,,,,
14.37.07.908,-108.5,27.1,0,4.0,,96375.6,10.38,-0.05,0.46,0.88,1.0,6.0,-1.2,31.81,,,,,,,,,,
14.37.07.917,-111.1,27.8,0,4.0,,96344.3,10.38,-0.05,0.46,0.89,1.0,5.5,-1.4,31.81,,,,,,,,,,
14.37.07.929,-114.2,28.6,0,4.0,,97790.6,10.23,-0.06,0.46,0.88,1.5,4.9,-1.5,31.81,,,,,,,,,,
14.37.07.941,-127.0,31.8,0,4.0,,97265.7,10.28,-0.06,0.46,0.88,1.2,5.7,-1.1,31.81,,,,,,,,,,
14.37.07.953,18.0,4.5,1,5.0,87.9,97698.3,10.24,-0.05,0.46,0.88,1.0,5.9,-1.2,31.81,,,,,,,,,,
14.37.07.962,49.7,12.4,0,5.0,,95680.9,10.45,-0.06,0.46,0.89,1.3,5.9,-1.3,31.81,,,,,,,,,,
14.37.07.974,110.6,27.6,0,5.0,,94795.2,10.55,-0.06,0.46,0.88,0.8,6.2,-1.3,31.81,,,,,,,,,,
14.37.07.982,144.2,36.0,0,5.0,,95242.7,10.5,-0.07,0.47,0.88,0.0,7.0,-1.2,31.81,,,,,,,,,,
14.37.07.995,190.1,47.5,0,5.0,,95590.5,10.46,-0.06,0.47,0.89,-0.9,6.8,-1.4,31.81,,,,,,,,,,
14.37.08.003,212.7,53.2,0,5.0,,96417.3,10.37,-0.06,0.47,0.88,-1.7,6.4,-1.2,31.81,,,,,,,,,,
14.37.08.045,280.3,70.1,0,5.0,,97698.7,10.24,-0.06,0.45,0.88,-1.9,5.6,-1.2,31.75,,,,,,,,,,
14.37.08.052,330.9,82.7,0,5.0,,96299.6,10.38,-0.05,0.46,0.88,0.8,5.7,-1.4,31.75,,,,,,,,,,
14.37.08.064,345.4,86.4,0,5.0,,96697.6,10.34,-0.05,0.46,0.88,1.2,5.3,-1.4,31.75,,,,,,,,,,
14.37.08.072,313.8,78.4,0,5.0,,97067.8,10.3,-0.06,0.46,0.89,1.2,5.3,-1.4,31.75,,,,,,,,,,
14.37.08.085,309.1,77.3,0,5.0,,95967.2,10.42,-0.06,0.46,0.88,0.8,5.4,-1.2,31.75,,,,,,,,,,
14.37.08.093,296.8,74.2,0,5.0,,96454.6,10.37,-0.06,0.46,0.88,0.9,5.2,-1.1,31.75,,,,,,,,,,
14.37.08.105,283.5,70.9,0,5.0,,95464.8,10.48,-0.06,0.46,0.88,1.0,5.7,-1.3,31.75,,,,,,,,,,
14.37.08.113,289.3,72.3,0,5.0,,94690.3,10.56,-0.06,0.46,0.89,1.4,5.5,-1.3,31.75,,,,,,,,,,
14.37.08.126,228.9,57.2,0,5.0,,96552.9,10.36,-0.06,0.47,0.88,1.2,5.8,-1.4,31.75,,,,,,,,,,
14.37.08.134,223.6,55.9,0,5.0,,96394.6,10.37,-0.06,0.47,0.88,0.7,5.7,-0.6,31.75,,,,,,,,,,
14.37.08.146,176.1,44.0,0,5.0,,96493.9,10.36,-0.06,0.46,0.88,0.5,5.7,-0.9,31.75,,,,,,,,,,
14.37.08.154,155.9,39.0,0,5.0,,97180.4,10.29,-0.06,0.46,0.88,0.4,5.5,-1.0,31.75,,,,,,,,,,
14.37.08.166,107.3,26.8,0,5.0,,97499.2,10.26,-0.06,0.45,0.88,0.9,5.7,-1.3,31.75,,,,,,,,,,
14.37.08.175,75.0,18.8,0,5.0,,96288.2,10.39,-0.06,0.46,0.88,1.6,5.8,-1.3,31.75,,,,,,,,,,
14.37.08.187,17.8,4.4,0,5.0,,95593.6,10.46,-0.06,0.46,0.88,1.5,5.7,-1.2,31.75,,,,,,,,,,
14.37.08.195,1.7,0.4,0,5.0,,95727.4,10.45,-0.06,0.46,0.88,1.1,5.9,-1.1,31.75,,,,,,,,,,
14.37.08.207,31.9,8.0,0,5.0,,95052.7,10.52,-0.06,0.47,0.88,0.7,5.7,-1.2,31.75,,,,,,,,,,
14.37.08.218,32.1,8.0,0,5.0,,97681.2,10.24,-0.06,0.46,0.88,0.4,5.9,-1.0,31.75,,,,,,,,,,
14.37.08.229,47.7,11.9,0,5.0,,95460.3,10.48,-0.06,0.46,0.88,0.4,6.3,-1.2,31.75,,,,,,,,,,
14.37.08.236,59.2,14.8,0,5.0,,96461.2,10.37,-0.06,0.46,0.88,0.7,5.9,-1.1,31.75,,,,,,,,,,
14.37.08.248,54.2,13.6,0,5.0,,95019.8,10.52,-0.06,0.46,0.88,0.8,6.3,-1.2,31.75,,,,,,,,,,
14.37.08.257,51.9,13.0,0,5.0,,96513.7,10.36,-0.06,0.46,0.88,0.7,6.4,-1.1,31.75,,,,,,,,,,
14.37.08.269,58.3,14.6,0,5.0,,96104.4,10.41,-0.06,0.47,0.88,0.8,5.9,-1.0,31.75,,,,,,,,,,
14.37.08.277,45.5,11.4,0,5.0,,95056.6,10.52,-0.06,0.46,0.88,0.2,6.4,-1.1,31.75,,,,,,,,,,
14.37.08.289,33.3,8.3,0,5.0,,95557.6,10.46,-0.06,0.46,0.88,0.0,5.8,-1.3,31.75,,,,,,,,,,
14.37.08.298,33.3,8.3,0,5.0,,95621.7,10.46,-0.06,0.46,0.88,0.2,5.9,-1.3,31.75,,,,,,,,,,
14.37.08.311,26.1,6.5,0,5.0,,96615.8,10.35,-0.06,0.46,0.88,0.2,5.6,-1.1,31.75,,,,,,,,,,
14.37.08.318,20.1,5.0,0,5.0,,96886.6,10.32,-0.06,0.46,0.88,1.0,5.6,-1.3,31.75,,,,,,,,,,
14.37.08.331,-1.3,0.3,0,5.0,,96587.4,10.35,-0.06,0.46,0.88,1.2,5.6,-1.4,31.75,,,,,,,,,,
14.37.08.339,-0.8,0.2,0,5.0,,96312.9,10.38,-0.06,0.46,0.88,1.0,5.7,-1.1,31.75,,,,,,,,,,
14.37.08.351,-9.9,2.5,0,5.0,,96573.7,10.35,-0.06,0.46,0.88,1.0,5.7,-1.3,31.75,,,,,,,,,,
14.37.08.363,-15.1,3.8,0,5.0,,95612.2,10.46,-0.06,0.46,0.88,1.2,5.7,-1.3,31.75,,,,,,,,,,
14.37.08.371,-16.0,4.0,0,5.0,,96456.2,10.37,-0.06,0.47,0.88,0.8,5.7,-1.3,31.75,,,,,,,,,,
14.37.08.384,-14.4,3.6,0,5.0,,96193.4,10.4,-0.06,0.47,0.88,0.6,5.8,-1.5,31.75,,,,,,,,,,
14.37.08.392,-30.0,7.5,0,5.0,,96164.1,10.4,-0.06,0.46,0.88,0.1,5.8,-1.0,31.75,,,,,,,,,,
14.37.08.404,-24.4,6.1,0,5.0,,96476.8,10.37,-0.06,0.46,0.88,0.1,5.7,-1.3,31.75,,,,,,,,,,
14.37.08.412,-29.0,7.2,0,5.0,,95265.4,10.5,-0.06,0.46,0.89,-0.1,5.6,-1.2,31.75,,,,,,,,,,
14.37.08.425,-38.1,9.5,0,5.0,,95184.9,10.51,-0.06,0.46,0.88,0.7,6.1,-1.2,31.75,,,,,,,,,,
14.37.08.433,-39.0,9.8,0,5.0,,96945.2,10.32,-0.06,0.46,0.88,0.7,5.9,-1.0,31.75,,,,,,,,,,
14.37.08.445,-57.5,14.4,0,5.0,,95882.2,10.43,-0.06,0.46,0.88,0.8,5.8,-1.3,31.75,,,,,,,,,,
14.37.08.453,-46.6,11.6,0,5.0,,96905.7,10.32,-0.05,0.46,0.88,0.9,5.8,-1.2,31.75,,,,,,,,,,
14.37.08.466,-65.0,16.2,0,5.0,,96223.6,10.39,-0.06,0.46,0.88,0.9,6.0,-1.1,31.75,,,,,,,,,,
14.37.08.474,-60.5,15.1,0,5.0,,96280.1,10.39,-0.06,0.46,0.88,0.9,6.4,-1.0,31.75,,,,,,,,,,
14.37.08.486,-64.9,16.2,0,5.0,,97366.8,10.27,-0.05,0.47,0.88,0.8,5.8,-1.1,31.75,,,,,,,,,,
14.37.08.494,-58.0,14.5,0,5.0,,96366.2,10.38,-0.06,0.46,0.87,0.8,5.8,-1.5,31.75,,,,,,,,,,
14.37.08.507,-77.9,19.5,0,5.0,,95861.1,10.43,-0.06,0.46,0.88,0.5,6.4,-1.4,31.75,,,,,,,,,,
14.37.08.515,-83.4,20.8,0,5.0,,95953.2,10.42,-0.06,0.46,0.88,1.3,5.4,-1.1,31.75,,,,,,,,,,
14.37.08.527,-82.9,20.7,0,5.0,,96801.9,10.33,-0.06,0.46,0.88,1.2,5.8,-1.7,31.75,,,,,,,,,,
14.37.08.535,-79.9,20.0,0,5.0,,95183.2,10.51,-0.06,0.47,0.89,1.1,5.4,-1.2,31.75,,,,,,,,,,
14.37.08.547,-86.0,21.5,0,5.0,,95694.1,10.45,-0.07,0.47,0.88,0.2,6.2,-1.0,31.75,,,,,,,,,,
14.37.08.557,-85.3,21.3,0,5.0,,95205.0,10.5,-0.06,0.46,0.88,0.1,5.4,-1.0,31.75,,,,,,,,,,
14.37.08.568,-84.0,21.0,0,5.0,,95762.6,10.44,-0.06,0.46,0.88,-0.1,6.1,-1.2,31.75,,,,,,,,,,
14.37.08.576,-93.7,23.4,0,5.0,,96153.0,10.4,-0.06,0.47,0.88,-0.3,6.1,-1.0,31.75,,,,,,,,,,
14.37.08.588,-94.4,23.6,0,5.0,,95994.5,10.42,-0.05,0.46,0.88,-0.1,6.5,-1.2,31.75,,,,,,,,,,
14.37.08.597,-111.5,27.9,0,5.0,,95251.1,10.5,-0.05,0.46,0.88,0.3,6.5,-1.2,31.75,,,,,,,,,,
14.37.08.609,-111.9,28.0,0,5.0,,96361.8,10.38,-0.06,0.46,0.88,0.5,6.3,-1.3,31.75,,,,,,,,,,
14.37.08.617,-112.0,28.0,0,5.0,,96577.5,10.35,-0.06,0.47,0.87,0.3,6.2,-1.2,31.75,,,,,,,,,,
14.37.08.630,-121.1,30.3,0,5.0,,96437.2,10.37,-0.06,0.46,0.88,0.2,5.9,-1.2,31.75,,,,,,,,,,
14.37.08.638,-122.5,30.6,0,5.0,,97412.3,10.27,-0.06,0.46,0.88,0.0,6.0,-1.2,31.75,,,,,,,,,,
14.37.08.650,-118.6,29.6,0,5.0,,96837.0,10.33,-0.06,0.46,0.88,0.0,5.8,-1.3,31.75,,,,,,,,,,
14.37.08.658,29.9,7.5,1,6.0,84.4,96025.3,10.41,-0.06,0.46,0.88,-0.2,5.8,-1.2,31.75,,,,,,,,,,
14.37.08.670,81.7,20.4,0,6.0,,98852.3,10.12,-0.06,0.46,0.88,0.4,6.0,-1.3,31.75,,,,,,,,,,
14.37.08.679,116.7,29.2,0,6.0,,95227.3,10.5,-0.05,0.46,0.88,0.2,6.0,-1.2,31.75,,,,,,,,,,
14.37.08.691,166.9,41.7,0,6.0,,95577.8,10.46,-0.06,0.46,0.88,0.4,5.7,-1.0,31.75,,,,,,,,,,
14.37.08.703,220.2,55.0,0,6.0,,96015.2,10.42,-0.06,0.46,0.88,0.5,5.9,-1.1,31.75,,,,,,,,,,
14.37.08.711,210.3,52.6,0,6.0,,94870.1,10.54,-0.06,0.46,0.88,0.5,5.4,-1.0,31.75,,,,,,,,,,
14.37.08.724,237.0,59.2,0,6.0,,97515.2,10.25,-0.06,0.46,0.88,0.6,5.9,-1.3,31.75,,,,,,,,,,
14.37.08.732,287.6,71.9,0,6.0,,95414.0,10.48,-0.06,0.47,0.88,0.9,5.8,-1.2,31.75,,,,,,,,,,
14.37.08.744,309.3,77.3,0,6.0,,95617.3,10.46,-0.06,0.47,0.88,0.5,5.7,-1.7,31.75,,,,,,,,,,
14.37.08.752,314.1,78.5,0,6.0,,96291.3,10.39,-0.06,0.46,0.88,0.6,6.0,-1.3,31.75,,,,,,,,,,
14.37.08.765,326.7,81.7,0,6.0,,96576.5,10.35,-0.06,0.46,0.89,0.5,5.7,-0.9,31.75,,,,,,,,,,
14.37.08.773,317.0,79.2,0,6.0,,95372.0,10.49,-0.06,0.46,0.88,0.3,5.4,-1.4,31.75,,,,,,,,,,
14.37.08.785,350.1,87.5,0,6.0,,95470.9,10.47,-0.06,0.46,0.88,0.2,5.8,-1.1,31.75,,,,,,,,,,
14.37.08.797,338.2,84.6,0,6.0,,96385.7,10.37,-0.06,0.46,0.88,0.3,5.8,-1.2,31.75,,,,,,,,,,
14.37.08.806,307.7,76.9,0,6.0,,96328.0,10.38,-0.06,0.46,0.88,0.3,5.9,-1.5,31.75,,,,,,,,,,
14.37.08.843,216.0,54.0,0,6.0,,97340.5,10.27,-0.06,0.46,0.88,0.6,6.1,-1.3,31.75,,,,,,,,,,
14.37.08.855,140.5,35.1,0,6.0,,96541.7,10.36,-0.06,0.46,0.88,0.0,6.2,-1.4,31.75,,,,,,,,,,
14.37.08.863,139.5,34.9,0,6.0,,96560.4,10.36,-0.06,0.46,0.88,0.2,5.4,-1.2,31.75,,,,,,,,,,
14.37.08.875,88.2,22.0,0,6.0,,96609.0,10.35,-0.06,0.46,0.88,0.5,5.8,-1.4,31.75,,,,,,,,,,
14.37.08.883,55.9,14.0,0,6.0,,96381.8,10.38,-0.06,0.46,0.88,0.9,5.8,-1.2,31.75,,,,,,,,,,
14.37.08.896,3.2,0.8,0,6.0,,95397.5,10.48,-0.06,0.46,0.88,0.9,6.2,-1.5,31.75,,,,,,,,,,
14.37.08.904,27.1,6.8,0,6.0,,96377.7,10.38,-0.06,0.47,0.88,0.7,5.7,-1.3,31.75,,,,,,,,,,
14.37.08.916,23.4,5.8,0,6.0,,96003.5,10.42,-0.06,0.47,0.87,0.2,5.8,-1.3,31.75,,,,,,,,,,
14.37.08.924,43.5,10.9,0,6.0,,95221.2,10.5,-0.06,0.47,0.87,0.0,5.2,-1.2,31.75,,,,,,,,,,
14.37.08.937,35.2,8.8,0,6.0,,96377.9,10.38,-0.06,0.46,0.87,-0.1,6.1,-1.5,31.75,,,,,,,,,,
14.37.08.945,54.6,13.6,0,6.0,,95471.3,10.47,-0.05,0.46,0.87,0.0,5.3,-1.1,31.75,,,,,,,,,,
14.37.08.957,49.6,12.4,0,6.0,,97004.3,10.31,-0.06,0.46,0.88,0.0,5.5,-1.4,31.75,,,,,,,,,,
14.37.08.965,59.8,15.0,0,6.0,,95928.0,10.42,-0.06,0.46,0.88,0.1,5.5,-1.0,31.75,,,,,,,,,,
14.37.08.978,46.9,11.7,0,6.0,,97121.1,10.3,-0.05,0.45,0.89,0.5,5.4,-1.2,31.75,,,,,,,,,,
14.37.08.986,61.1,15.3,0,6.0,,95764.4,10.44,-0.06,0.46,0.88,1.0,5.9,-1.2,31.75,,,,,,,,,,
14.37.08.998,47.1,11.8,0,6.0,,96540.1,10.36,-0.06,0.47,0.88,1.0,6.0,-1.2,31.75,,,,,,,,,,
14.37.09.006,27.7,6.9,0,6.0,,96198.2,10.4,-0.06,0.47,0.88,0.3,6.3,-1.3,31.75,,,,,,,,,,
14.37.09.019,20.2,5.0,0,6.0,,95669.1,10.45,-0.06,0.47,0.88,0.0,5.9,-1.0,31.75,,,,,,,,,,
14.37.09.027,17.5,4.4,0,6.0,,96127.3,10.4,-0.06,0.46,0.88,-0.1,5.3,-1.3,31.75,,,,,,,,,,
14.37.09.039,6.6,1.6,0,6.0,,96331.1,10.38,-0.06,0.46,0.88,-0.3,5.8,-1.4,31.75,,,,,,,,,,
14.37.09.047,-1.3,0.3,0,6.0,,96475.1,10.37,-0.06,0.46,0.88,0.4,5.5,-1.3,31.75,,,,,,,,,,
14.37.09.060,-14.9,3.7,0,6.0,,95182.1,10.51,-0.06,0.46,0.89,0.7,5.0,-1.2,31.75,,,,,,,,,,
14.37.09.068,-12.7,3.2,0,6.0,,96694.8,10.34,-0.06,0.47,0.88,0.5,6.1,-1.0,31.75,,,,,,,,,,
14.37.09.080,-18.8,4.7,0,6.0,,96284.4,10.39,-0.06,0.46,0.88,0.5,5.5,-1.1,31.75,,,,,,,,,,
14.37.09.088,-20.7,5.2,0,6.0,,96464.7,10.37,-0.06,0.46,0.88,0.1,6.3,-1.1,31.75,,,,,,,,,,
14.37.09.101,-17.4,4.4,0,6.0,,95658.1,10.45,-0.06,0.46,0.88,0.3,5.5,-1.1,31.75,,,,,,,,,,
14.37.09.113,-31.3,7.8,0,6.0,,95228.3,10.5,-0.06,0.47,0.88,0.3,6.1,-1.2,31.75,,,,,,,,,,
14.37.09.121,-41.3,10.3,0,6.0,,95606.8,10.46,-0.06,0.47,0.88,0.0,5.4,-1.3,31.75,,,,,,,,,,
14.37.09.133,-32.5,8.1,0,6.0,,96940.4,10.32,-0.06,0.47,0.87,0.1,6.1,-1.2,31.75,,,,,,,,,,
14.37.09.142,-45.1,11.3,0,6.0,,94453.1,10.59,-0.06,0.46,0.88,0.4,5.6,-1.3,31.75,,,,,,,,,,
14.37.09.154,-48.9,12.2,0,6.0,,96000.3,10.42,-0.06,0.46,0.88,0.3,5.7,-1.7,31.75,,,,,,,,,,
14.37.09.162,-56.7,14.2,0,6.0,,97226.0,10.29,-0.06,0.46,0.88,0.4,5.7,-1.1,31.75,,,,,,,,,,
14.37.09.174,-42.0,10.5,0,6.0,,96058.2,10.41,-0.05,0.46,0.88,0.7,5.2,-1.4,31.75,,,,,,,,,,
14.37.09.182,-56.3,14.1,0,6.0,,96249.2,10.39,-0.06,0.46,0.88,0.9,5.5,-1.3,31.75,,,,,,,,,,
14.37.09.195,-50.3,12.6,0,6.0,,95303.7,10.49,-0.06,0.46,0.87,0.5,5.4,-1.4,31.75,,,,,,,,,,
14.37.09.203,-69.0,17.2,0,6.0,,96663.5,10.35,-0.06,0.46,0.88,0.9,5.6,-1.1,31.75,,,,,,,,,,
14.37.09.215,-69.7,17.4,0,6.0,,96599.9,10.35,-0.06,0.46,0.88,0.7,5.7,-1.3,31.75,,,,,,,,,,
14.37.09.223,-77.7,19.4,0,6.0,,95860.3,10.43,-0.06,0.47,0.88,0.5,5.0,-1.3,31.75,,,,,,,,,,
14.37.09.236,-76.1,19.0,0,6.0,,95939.7,10.42,-0.06,0.46,0.88,-0.1,5.5,-1.3,31.75,,,,,,,,,,
14.37.09.244,-88.8,22.2,0,6.0,,95708.1,10.45,-0.06,0.46,0.88,-0.1,5.6,-1.0,31.75,,,,,,,,,,
14.37.09.256,-90.8,22.7,0,6.0,,97342.3,10.27,-0.06,0.46,0.88,0.2,5.6,-1.1,31.75,,,,,,,,,,
14.37.09.264,-98.4,24.6,0,6.0,,97506.0,10.26,-0.06,0.46,0.88,0.3,5.6,-1.1,31.75,,,,,,,,,,
14.37.09.277,-97.5,24.4,0,6.0,,96785.2,10.33,-0.05,0.46,0.88,0.7,6.3,-1.5,31.75,,,,,,,,,,
14.37.09.285,-99.0,24.8,0,6.0,,96865.4,10.32,-0.06,0.47,0.88,0.4,6.2,-1.3,31.75,,,,,,,,,,
14.37.09.298,-87.3,21.8,0,6.0,,96167.3,10.4,-0.06,0.46,0.88,0.5,6.3,-1.2,31.75,,,,,,,,,,
14.37.09.306,-114.6,28.6,0,6.0,,96358.2,10.38,-0.06,0.46,0.88,0.5,6.1,-1.3,31.75,,,,,,,,,,
14.37.09.318,-114.7,28.7,0,6.0,,97277.0,10.28,-0.06,0.46,0.87,0.2,5.8,-1.1,31.75,,,,,,,,,,
14.37.09.326,-113.5,28.4,0,6.0,,94888.0,10.54,-0.06,0.46,0.88,0.4,5.7,-1.3,31.75,,,,,,,,,,
14.37.09.338,-129.2,32.3,0,6.0,,95778.3,10.44,-0.06,0.46,0.88,0.2,6.0,-1.3,31.75,,,,,,,,,,
14.37.09.346,-110.0,27.5,0,6.0,,95874.5,10.43,-0.06,0.46,0.88,0.4,5.7,-1.5,31.75,,,,,,,,,,
14.37.09.360,27.3,6.8,1,7.0,82.5,96005.4,10.42,-0.05,0.46,0.88,0.9,5.3,-1.3,31.75,,,,,,,,,,
14.37.09.367,54.4,13.6,0,7.0,,96921.7,10.32,-0.06,0.46,0.88,0.7,6.3,-1.6,31.75,,,,,,,,,,
14.37.09.379,94.4,23.6,0,7.0,,96593.6,10.35,-0.06,0.46,0.88,1.1,5.4,-1.5,31.75,,,,,,,,,,
14.37.09.391,157.6,39.4,0,7.0,,96620.5,10.35,-0.06,0.46,0.88,0.3,5.9,-1.6,31.75,,,,,,,,,,
14.37.09.400,178.1,44.5,0,7.0,,96858.7,10.32,-0.06,0.46,0.88,0.7,5.7,-1.4,31.75,,,,,,,,,,
14.37.09.412,198.3,49.6,0,7.0,,96660.3,10.35,-0.06,0.47,0.88,0.4,5.7,-1.5,31.75,,,,,,,,,,
14.37.09.420,252.4,63.1,0,7.0,,95543.7,10.47,-0.05,0.46,0.88,0.2,5.2,-1.1,31.75,,,,,,,,,,
14.37.09.432,273.3,68.3,0,7.0,,96636.7,10.35,-0.06,0.46,0.88,0.4,5.2,-0.9,31.75,85.6,,,,,,,,,
14.37.09.441,280.1,70.0,0,7.0,,95038.5,10.52,-0.06,0.46,0.88,0.4,5.8,-0.9,31.75,,,,,,,,,,
14.37.09.453,314.9,78.7,0,7.0,,96519.6,10.36,-0.06,0.46,0.88,0.5,6.1,-1.2,31.75,,,,,,,,,,
14.37.09.461,306.4,76.6,0,7.0,,96396.4,10.37,-0.06,0.46,0.88,1.3,5.3,-1.3,31.75,,,,,,,,,,
14.37.09.474,299.2,74.8,0,7.0,,95873.8,10.43,-0.06,0.46,0.88,1.1,5.9,-1.0,31.75,,,,,,,,,,
14.37.09.482,324.3,81.1,0,7.0,,96352.0,10.38,-0.06,0.47,0.88,0.6,6.3,-1.1,31.75,,,,,,,,,,
14.37.09.494,310.5,77.6,0,7.0,,94913.3,10.54,-0.06,0.47,0.88,0.2,6.0,-1.5,31.75,,,,,,,,,,
14.37.09.502,314.4,78.6,0,7.0,,97200.2,10.29,-0.06,0.47,0.88,-0.7,5.9,-1.6,31.75,,,,,,,,,,
14.37.09.515,294.8,73.7,0,7.0,,96373.6,10.38,-0.06,0.46,0.88,-1.1,5.4,-1.3,31.75,,,,,,,,,,
14.37.09.527,239.2,59.8,0,7.0,,97145.5,10.29,-0.06,0.46,0.88,-0.6,5.6,-1.5,31.75,,,,,,,,,,
14.37.09.535,218.1,54.5,0,7.0,,94589.9,10.57,-0.06,0.46,0.88,-0.1,5.8,-1.5,31.75,,,,,,,,,,
14.37.09.547,189.9,47.5,0,7.0,,95443.1,10.48,-0.06,0.46,0.88,-0.2,5.7,-1.4,31.75,,,,,,,,,,
14.37.09.555,155.5,38.9,0,7.0,,96433.9,10.37,-0.06,0.46,0.89,0.0,6.3,-1.1,31.75,,,,,,,,,,
14.37.09.568,139.9,35.0,0,7.0,,96371.0,10.38,-0.06,0.46,0.88,-0.1,5.6,-1.2,31.75,,,,,,,,,,
14.37.09.576,96.5,24.1,0,7.0,,94717.6,10.56,-0.06,0.46,0.88,0.2,5.6,-1.2,31.75,,,,,,,,,,
14.37.09.588,52.9,13.2,0,7.0,,96010.7,10.42,-0.05,0.46,0.88,0.0,6.2,-1.3,31.75,,,,,,,,,,
14.37.09.597,19.5,4.9,0,7.0,,95642.6,10.46,-0.05,0.46,0.88,0.5,5.5,-1.3,31.75,,,,,,,,,,
14.37.09.609,16.0,4.0,0,7.0,,97012.3,10.31,-0.06,0.46,0.88,0.1,6.4,-1.4,31.75,,,,,,,,,,
14.37.09.646,44.2,11.0,0,7.0,,97240.0,10.28,-0.06,0.47,0.88,0.4,5.7,-1.2,31.81,,,,,,,,,,
14.37.09.654,50.3,12.6,0,7.0,,97665.3,10.24,-0.06,0.46,0.88,0.2,5.5,-1.4,31.81,,,,,,,,,,
14.37.09.666,59.6,14.9,0,7.0,,96096.6,10.41,-0.06,0.46,0.88,0.4,5.5,-1.4,31.81,,,,,,,,,,
14.37.09.674,54.9,13.7,0,7.0,,96180.5,10.4,-0.06,0.46,0.88,0.7,5.6,-1.3,31.81,,,,,,,,,,
14.37.09.686,55.2,13.8,0,7.0,,95292.4,10.49,-0.05,0.46,0.88,0.6,5.6,-1.3,31.81,,,,,,,,,,
14.37.09.695,51.0,12.8,0,7.0,,98056.1,10.2,-0.06,0.46,0.88,0.7,6.1,-1.4,31.81,,,,,,,,,,
14.37.09.707,30.2,7.6,0,7.0,,97474.4,10.26,-0.06,0.47,0.88,0.4,5.2,-1.3,31.81,,,,,,,,,,
14.37.09.715,26.8,6.7,0,7.0,,95459.8,10.48,-0.06,0.46,0.88,-0.1,5.9,-1.3,31.81,,,,,,,,,,
14.37.09.728,15.9,4.0,0,7.0,,96891.2,10.32,-0.06,0.46,0.88,0.5,4.7,-0.9,31.81,,,,,,,,,,
14.37.09.736,2.3,0.6,0,7.0,,97958.1,10.21,-0.06,0.46,0.88,0.2,6.3,-1.3,31.81,,,,,,,,,,
14.37.09.748,-4.3,1.1,0,7.0,,95367.4,10.49,-0.06,0.46,0.88,0.8,5.7,-1.3,31.81,,,,,,,,,,
14.37.09.756,-9.8,2.4,0,7.0,,95459.1,10.48,-0.06,0.46,0.88,0.4,5.2,-1.4,31.81,,,,,,,,,,
14.37.09.768,-6.2,1.6,0,7.0,,96408.7,10.37,-0.06,0.46,0.88,0.2,5.9,-1.3,31.81,,,,,,,,,,
14.37.09.776,-10.5,2.6,0,7.0,,96224.1,10.39,-0.06,0.47,0.88,0.0,5.5,-1.2,31.81,,,,,,,,,,
14.37.09.789,-13.1,3.3,0,7.0,,96456.4,10.37,-0.06,0.46,0.88,-0.3,5.7,-1.5,31.81,,,,,,,,,,
14.37.09.801,-17.7,4.4,0,7.0,,97704.1,10.23,-0.06,0.46,0.88,-0.1,5.9,-1.1,31.81,,,,,,,,,,
14.37.09.810,-22.7,5.7,0,7.0,,96415.5,10.37,-0.06,0.46,0.88,-0.2,5.6,-1.1,31.81,,,,,,,,,,
14.37.09.822,-32.2,8.0,0,7.0,,96006.4,10.42,-0.06,0.46,0.88,0.0,5.9,-1.3,31.81,,,,,,,,,,
14.37.09.830,-42.0,10.5,0,7.0,,96359.8,10.38,-0.06,0.46,0.88,0.4,5.3,-1.3,31.81,,,,,,,,,,
14.37.09.842,-35.2,8.8,0,7.0,,96315.7,10.38,-0.06,0.46,0.88,0.3,5.8,-1.4,31.81,,,,,,,,,,
14.37.09.850,-37.0,9.2,0,7.0,,96284.0,10.39,-0.06,0.46,0.88,0.6,5.6,-1.2,31.81,,,,,,,,,,
14.37.09.863,-50.7,12.7,0,7.0,,95866.8,10.43,-0.06,0.46,0.88,0.6,5.6,-1.4,31.81,,,,,,,,,,
14.37.09.871,-49.0,12.2,0,7.0,,95939.1,10.42,-0.06,0.46,0.88,0.8,5.2,-1.4,31.81,,,,,,,,,,
14.37.09.883,-53.7,13.4,0,7.0,,95962.7,10.42,-0.05,0.46,0.89,0.5,5.7,-1.2,31.81,,,,,,,,,,
14.37.09.891,-62.1,15.5,0,7.0,,95942.5,10.42,-0.06,0.46,0.88,0.7,5.6,-0.9,31.81,,,,,,,,,,
14.37.09.903,-77.2,19.3,0,7.0,,96889.7,10.32,-0.06,0.46,0.88,0.8,5.5,-1.2,31.81,,,,,,,,,,
14.37.09.912,-79.1,19.8,0,7.0,,95660.0,10.45,-0.06,0.46,0.88,0.5,5.6,-1.4,31.81,,,,,,,,,,
14.37.09.924,-77.5,19.4,0,7.0,,95740.1,10.44,-0.06,0.46,0.88,0.1,5.4,-1.4,31.81,,,,,,,,,,
14.37.09.932,-78.6,19.6,0,7.0,,96959.6,10.31,-0.06,0.46,0.88,0.1,5.7,-1.4,31.81,,,,,,,,,,
14.37.09.944,-82.5,20.6,0,7.0,,96153.8,10.4,-0.06,0.46,0.89,0.4,5.9,-1.3,31.81,,,,,,,,,,
14.37.09.953,-76.7,19.2,0,7.0,,95731.4,10.45,-0.06,0.46,0.89,0.5,6.0,-1.4,31.81,,,,,,,,,,
14.37.09.965,-84.7,21.2,0,7.0,,96761.0,10.33,-0.06,0.47,0.89,0.4,6.0,-1.5,31.81,,,,,,,,,,
14.37.09.973,-100.6,25.2,0,7.0,,98832.4,10.12,-0.06,0.46,0.88,0.2,6.9,-1.3,31.81,,,,,,,,,,
14.37.09.985,-90.9,22.7,0,7.0,,96784.3,10.33,-0.06,0.46,0.88,0.2,5.9,-1.2,31.81,,,,,,,,,,
14.37.09.994,-101.6,25.4,0,7.0,,96101.8,10.41,-0.06,0.46,0.88,0.1,6.1,-1.1,31.81,,,,,,,,,,
14.37.10.006,-109.2,27.3,0,7.0,,96969.1,10.31,-0.05,0.46,0.88,-0.2,6.2,-1.1,31.81,,,,,,,,,,
14.37.10.014,-114.8,28.7,0,7.0,,97539.8,10.25,-0.06,0.46,0.88,0.1,6.1,-1.0,31.81,,,,,,,,,,
14.37.10.027,-117.8,29.4,0,7.0,,95177.7,10.51,-0.06,0.46,0.87,0.0,5.8,-1.2,31.81,,,,,,,,,,
14.37.10.035,-112.3,28.1,0,7.0,,96775.8,10.33,-0.06,0.46,0.88,0.1,5.7,-1.5,31.81,,,,,,,,,,
14.37.10.047,-115.1,28.8,0,7.0,,96616.4,10.35,-0.06,0.46,0.88,0.0,5.7,-1.4,31.81,,,,,,,,,,
14.37.10.055,-126.7,31.7,0,7.0,,97030.1,10.31,-0.05,0.46,0.88,0.3,5.6,-1.4,31.81,,,,,,,,,,
14.37.10.067,51.0,12.8,1,8.0,85.3,95160.2,10.51,-0.06,0.46,0.88,0.4,6.0,-1.4,31.81,,,,,,,,,,
14.37.10.080,93.0,23.2,0,8.0,,95773.7,10.44,-0.06,0.46,0.88,0.7,5.8,-1.3,31.81,,,,,,,,,,
14.37.10.092,150.8,37.7,0,8.0,,96290.7,10.39,-0.06,0.47,0.89,0.5,5.4,-1.5,31.81,,,,,,,,,,
14.37.10.100,143.3,35.8,0,8.0,,96733.2,10.34,-0.05,0.47,0.88,0.3,5.7,-1.2,31.81,,,,,,,,,,
14.37.10.113,195.2,48.8,0,8.0,,95545.9,10.47,-0.06,0.47,0.88,0.0,5.9,-1.1,31.81,,,,,,,,,,
14.37.10.121,233.1,58.3,0,8.0,,96805.9,10.33,-0.06,0.46,0.88,0.0,5.7,-1.1,31.81,,,,,,,,,,
14.37.10.133,264.0,66.0,0,8.0,,96102.2,10.41,-0.06,0.46,0.88,0.5,5.4,-1.6,31.81,,,,,,,,,,
14.37.10.141,253.0,63.2,0,8.0,,95470.4,10.47,-0.05,0.46,0.88,0.4,6.1,-1.4,31.81,,,,,,,,,,
14.37.10.149,282.0,70.5,0,8.0,,97554.6,10.25,-0.06,0.46,0.89,0.9,5.9,-1.3,31.81,,,,,,,,,,
14.37.10.162,319.8,80.0,0,8.0,,96509.9,10.36,-0.05,0.46,0.88,0.5,5.8,-1.5,31.81,,,,,,,,,,
14.37.10.174,333.4,83.4,0,8.0,,96766.0,10.33,-0.06,0.46,0.88,0.3,5.3,-1.4,31.81,,,,,,,,,,
14.37.10.182,311.4,77.8,0,8.0,,97359.5,10.27,-0.06,0.46,0.88,0.1,5.5,-1.3,31.81,,,,,,,,,,
14.37.10.195,332.3,83.1,0,8.0,,96318.0,10.38,-0.06,0.47,0.88,-0.4,5.7,-1.2,31.81,,,,,,,,,,
14.37.10.203,296.6,74.2,0,8.0,,96260.6,10.39,-0.05,0.46,0.88,0.0,6.1,-1.2,31.81,,,,,,,,,,
14.37.10.215,323.8,81.0,0,8.0,,96762.5,10.33,-0.06,0.46,0.88,0.3,6.6,-1.2,31.81,,,,,,,,,,
14.37.10.223,265.2,66.3,0,8.0,,96287.5,10.39,-0.06,0.45,0.88,0.7,6.6,-1.3,31.81,,,,,,,,,,
14.37.10.235,240.6,60.2,0,8.0,,96341.8,10.38,-0.06,0.46,0.88,1.2,6.6,-1.2,31.81,,,,,,,,,,
14.37.10.244,202.7,50.7,0,8.0,,96947.1,10.31,-0.05,0.46,0.88,0.8,6.8,-1.3,31.81,,,,,,,,,,
14.37.10.256,187.0,46.8,0,8.0,,96477.3,10.37,-0.06,0.47,0.89,0.7,6.0,-1.5,31.81,,,,,,,,,,
14.37.10.264,159.1,39.8,0,8.0,,95891.4,10.43,-0.06,0.46,0.88,0.4,6.1,-1.3,31.81,,,,,,,,,,
14.37.10.276,99.4,24.8,0,8.0,,95396.0,10.48,-0.06,0.46,0.88,0.5,5.4,-0.8,31.81,,,,,,,,,,
14.37.10.284,78.3,19.6,0,8.0,,95260.7,10.5,-0.06,0.46,0.88,0.2,5.6,-1.2,31.81,,,,,,,,,,
14.37.10.297,33.8,8.4,0,8.0,,96251.5,10.39,-0.05,0.46,0.89,0.6,5.5,-1.1,31.81,,,,,,,,,,
14.37.10.305,5.0,1.2,0,8.0,,95978.8,10.42,-0.05,0.45,0.87,0.9,6.0,-1.0,31.81,,,,,,,,,,
14.37.10.317,16.1,4.0,0,8.0,,94902.6,10.54,-0.06,0.45,0.89,1.1,5.4,-1.2,31.81,,,,,,,,,,
14.37.10.325,29.7,7.4,0,8.0,,96195.7,10.4,-0.06,0.46,0.88,1.5,5.7,-1.4,31.81,,,,,,,,,,
14.37.10.338,48.6,12.2,0,8.0,,97344.6,10.27,-0.06,0.47,0.88,1.0,5.5,-1.5,31.81,,,,,,,,,,
14.37.10.346,44.2,11.0,0,8.0,,95989.6,10.42,-0.06,0.47,0.88,0.3,5.6,-1.1,31.81,,,,,,,,,,
14.37.10.358,45.7,11.4,0,8.0,,96179.8,10.4,-0.06,0.47,0.87,-0.6,5.7,-1.2,31.81,,,,,,,,,,
14.37.10.366,61.9,15.5,0,8.0,,96070.4,10.41,-0.06,0.46,0.88,-0.3,5.3,-1.4,31.81,,,,,,,,,,
14.37.10.379,49.6,12.4,0,8.0,,97757.1,10.23,-0.06,0.45,0.89,-0.2,5.7,-1.3,31.81,,,,,,,,,,
14.37.10.387,64.2,16.0,0,8.0,,96421.6,10.37,-0.06,0.45,0.88,0.3,5.6,-1.1,31.81,,,,,,,,,,
14.37.10.399,48.3,12.1,0,8.0,,95876.4,10.43,-0.06,0.45,0.88,1.0,5.2,-1.3,31.81,,,,,,,,,,
14.37.10.407,43.6,10.9,0,8.0,,96517.6,10.36,-0.06,0.46,0.89,0.8,5.9,-1.1,31.81,,,,,,,,,,
14.37.10.444,7.0,1.8,0,8.0,,96101.8,10.41,-0.06,0.46,0.88,0.9,5.4,-1.4,31.81,,,,,,,,,,
14.37.10.457,-1.9,0.5,0,8.0,,94625.8,10.57,-0.05,0.46,0.88,0.5,5.3,-1.1,31.81,,,,,,,,,,
14.37.10.465,-16.3,4.1,0,8.0,,95924.3,10.42,-0.06,0.46,0.88,1.0,5.4,-1.3,31.81,,,,,,,,,,
14.37.10.477,-6.9,1.7,0,8.0,,96080.5,10.41,-0.06,0.46,0.89,0.2,5.9,-1.6,31.81,,,,,,,,,,
14.37.10.489,-18.5,4.6,0,8.0,,95309.9,10.49,-0.06,0.46,0.88,0.7,5.4,-1.1,31.81,,,,,,,,,,
14.37.10.498,-20.8,5.2,0,8.0,,96029.3,10.41,-0.06,0.46,0.88,0.5,6.0,-1.5,31.81,,,,,,,,,,
14.37.10.510,-38.0,9.5,0,8.0,,95681.3,10.45,-0.06,0.46,0.88,0.4,5.9,-1.5,31.81,,,,,,,,,,
14.37.10.518,-30.9,7.7,0,8.0,,95464.3,10.48,-0.06,0.46,0.88,0.4,5.3,-0.9,31.81,,,,,,,,,,
14.37.10.530,-45.4,11.4,0,8.0,,96112.8,10.4,-0.06,0.46,0.88,0.2,6.2,-1.3,31.81,,,,,,,,,,
14.37.10.538,-42.8,10.7,0,8.0,,96472.3,10.37,-0.06,0.46,0.88,0.5,6.0,-1.0,31.81,,,,,,,,,,
14.37.10.551,-51.7,12.9,0,8.0,,97078.4,10.3,-0.06,0.46,0.88,0.4,5.6,-1.3,31.81,,,,,,,,,,
14.37.10.559,-45.9,11.5,0,8.0,,96002.4,10.42,-0.06,0.46,0.89,0.5,5.9,-1.2,31.81,,,,,,,,,,
14.37.10.571,-63.3,15.8,0,8.0,,97089.9,10.3,-0.06,0.46,0.88,0.6,6.3,-1.1,31.81,,,,,,,,,,
14.37.10.579,-62.0,15.5,0,8.0,,95877.2,10.43,-0.06,0.46,0.88,0.6,6.1,-1.3,31.81,,,,,,,,,,
14.37.10.592,-54.7,13.7,0,8.0,,93905.8,10.65,-0.05,0.46,0.88,0.8,5.9,-1.2,31.81,,,,,,,,,,
14.37.10.600,-65.6,16.4,0,8.0,,97330.9,10.27,-0.05,0.46,0.89,0.3,5.5,-1.5,31.81,,,,,,,,,,
14.37.10.612,-81.9,20.5,0,8.0,,97209.7,10.29,-0.06,0.46,0.88,0.9,5.9,-1.2,31.81,,,,,,,,,,
14.37.10.621,-74.3,18.6,0,8.0,,95234.4,10.5,-0.05,0.46,0.88,0.7,5.8,-1.2,31.81,,,,,,,,,,
14.37.10.633,-75.9,19.0,0,8.0,,96868.4,10.32,-0.06,0.46,0.88,1.0,5.9,-1.1,31.81,,,,,,,,,,
14.37.10.641,-87.5,21.9,0,8.0,,96635.6,10.35,-0.06,0.47,0.88,1.0,5.3,-1.4,31.81,,,,,,,,,,
14.37.10.653,-85.4,21.4,0,8.0,,96011.1,10.42,-0.06,0.46,0.87,0.6,5.6,-1.5,31.81,,,,,,,,,,
14.37.10.661,-85.4,21.4,0,8.0,,96951.1,10.31,-0.06,0.47,0.88,-0.1,5.4,-1.3,31.81,,,,,,,,,,
14.37.10.674,-87.8,22.0,0,8.0,,96066.3,10.41,-0.05,0.46,0.88,0.1,5.7,-1.4,31.81,,,,,,,,,,
14.37.10.682,-87.2,21.8,0,8.0,,96681.6,10.34,-0.06,0.46,0.88,0.3,5.7,-1.2,31.81,,,,,,,,,,
14.37.10.694,-94.7,23.7,0,8.0,,96347.3,10.38,-0.05,0.47,0.89,0.1,6.5,-1.5,31.81,,,,,,,,,,
14.37.10.702,-115.8,29.0,0,8.0,,96846.4,10.33,-0.06,0.46,0.87,0.4,6.8,-1.3,31.81,,,,,,,,,,
14.37.10.715,-104.0,26.0,0,8.0,,95630.7,10.46,-0.06,0.46,0.89,0.3,6.1,-1.3,31.81,,,,,,,,,,
14.37.10.724,-113.1,28.3,0,8.0,,97057.3,10.3,-0.06,0.46,0.87,0.4,6.6,-1.2,31.81,,,,,,,,,,
14.37.10.735,-121.2,30.3,0,8.0,,96760.0,10.33,-0.06,0.46,0.88,0.3,6.0,-1.2,31.81,,,,,,,,,,
14.37.10.743,-119.5,29.9,0,8.0,,97245.8,10.28,-0.06,0.46,0.88,0.2,5.5,-1.4,31.81,,,,,,,,,,
14.37.10.756,-117.7,29.4,0,8.0,,96124.6,10.4,-0.06,0.47,0.88,0.0,5.9,-1.3,31.81,,,,,,,,,,
14.37.10.764,22.9,5.7,1,9.0,83.7,97187.1,10.29,-0.06,0.45,0.87,0.3,5.6,-1.2,31.81,,,,,,,,,,
14.37.10.776,58.3,14.6,0,9.0,,96079.7,10.41,-0.06,0.46,0.89,0.7,6.1,-1.3,31.81,,,,,,,,,,
14.37.10.784,85.7,21.4,0,9.0,,95830.6,10.44,-0.06,0.46,0.87,1.1,5.9,-1.5,31.81,,,,,,,,,,
14.37.10.797,155.7,38.9,0,9.0,,95547.0,10.47,-0.06,0.47,0.88,0.6,5.7,-1.5,31.81,,,,,,,,,,
14.37.10.805,169.3,42.3,0,9.0,,96551.5,10.36,-0.06,0.47,0.88,0.2,5.4,-1.3,31.81,,,,,,,,,,
14.37.10.817,191.6,47.9,0,9.0,,96763.2,10.33,-0.06,0.47,0.88,-0.2,5.6,-1.1,31.81,,,,,,,,,,
14.37.10.830,246.1,61.5,0,9.0,,94083.9,10.63,-0.05,0.45,0.88,-0.5,5.0,-1.1,31.81,,,,,,,,,,
14.37.10.842,268.3,67.1,0,9.0,,97600.9,10.25,-0.05,0.46,0.89,0.2,5.9,-1.3,31.81,,,,,,,,,,
14.37.10.850,285.3,71.3,0,9.0,,96498.8,10.36,-0.06,0.46,0.88,0.7,6.0,-1.3,31.81,,,,,,,,,,
14.37.10.862,312.3,78.1,0,9.0,,96804.1,10.33,-0.06,0.47,0.88,0.8,6.3,-1.7,31.81,,,,,,,,,,
14.37.10.874,330.3,82.6,0,9.0,,95517.8,10.47,-0.06,0.46,0.88,1.0,6.0,-1.4,31.81,,,,,,,,,,
14.37.10.883,319.7,79.9,0,9.0,,96334.6,10.38,-0.06,0.46,0.88,0.4,6.3,-1.6,31.81,,,,,,,,,,
14.37.10.895,319.6,79.9,0,9.0,,96563.9,10.36,-0.06,0.47,0.88,0.3,5.4,-1.3,31.81,,,,,,,,,,
14.37.10.907,317.4,79.4,0,9.0,,95490.1,10.47,-0.06,0.47,0.88,0.4,5.2,-1.2,31.81,,,,,,,,,,
14.37.10.915,291.1,72.8,0,9.0,,98117.7,10.19,-0.05,0.46,0.88,0.2,5.2,-1.2,31.81,,,,,,,,,,
14.37.10.928,268.4,67.1,0,9.0,,95644.8,10.46,-0.05,0.46,0.88,1.4,5.3,-1.4,31.81,,,,,,,,,,
14.37.10.940,250.3,62.6,0,9.0,,96302.8,10.38,-0.05,0.46,0.87,1.4,5.9,-1.5,31.81,,,,,,,,,,
14.37.10.952,208.2,52.0,0,9.0,,96912.8,10.32,-0.06,0.47,0.88,1.0,6.5,-1.3,31.81,,,,,,,,,,
14.37.10.960,170.8,42.7,0,9.0,,96081.0,10.41,-0.06,0.46,0.88,0.3,6.5,-1.2,31.81,,,,,,,,,,
14.37.10.973,131.4,32.8,0,9.0,,95481.9,10.47,-0.06,0.46,0.88,0.2,6.3,-1.4,31.81,,,,,,,,,,
14.37.10.985,99.0,24.8,0,9.0,,95932.5,10.42,-0.06,0.47,0.88,-0.2,5.9,-1.6,31.81,,,,,,,,,,
14.37.10.993,55.5,13.9,0,9.0,,95805.3,10.44,-0.05,0.46,0.88,-0.6,6.0,-1.3,31.81,,,,,,,,,,
14.37.11.005,-0.2,0.0,0,9.0,,95814.1,10.44,-0.06,0.46,0.88,0.2,6.0,-1.3,31.81,,,,,,,,,,
14.37.11.018,21.6,5.4,0,9.0,,96286.5,10.39,-0.05,0.46,0.88,0.5,6.1,-1.1,31.81,,,,,,,,,,
14.37.11.030,27.6,6.9,0,9.0,,96716.8,10.34,-0.06,0.46,0.88,0.8,5.5,-1.4,31.81,,,,,,,,,,
14.37.11.038,37.3,9.3,0,9.0,,96589.9,10.35,-0.06,0.46,0.88,1.2,5.9,-1.1,31.81,,,,,,,,,,
14.37.11.051,38.0,9.5,0,9.0,,95630.4,10.46,-0.06,0.46,0.88,1.4,5.9,-1.7,31.81,,,,,,,,,,
14.37.11.063,59.3,14.8,0,9.0,,96496.3,10.36,-0.06,0.46,0.87,1.0,5.7,-1.2,31.81,,,,,,,,,,
14.37.11.071,51.4,12.8,0,9.0,,95625.2,10.46,-0.06,0.47,0.88,0.6,6.3,-1.4,31.81,,,,,,,,,,
14.37.11.083,66.0,16.5,0,9.0,,97188.4,10.29,-0.06,0.47,0.88,0.2,5.7,-1.0,31.81,,,,,,,,,,
14.37.11.096,46.4,11.6,0,9.0,,96739.2,10.34,-0.06,0.46,0.88,0.3,5.8,-1.2,31.81,,,,,,,,,,
14.37.11.104,48.7,12.2,0,9.0,,96677.9,10.34,-0.05,0.46,0.88,1.0,5.6,-1.1,31.81,,,,,,,,,,
14.37.11.116,32.3,8.1,0,9.0,,95492.3,10.47,-0.06,0.46,0.88,0.9,6.3,-1.1,31.81,,,,,,,,,,
14.37.11.128,21.7,5.4,0,9.0,,96971.5,10.31,-0.06,0.46,0.88,0.6,6.1,-1.2,31.81,,,,,,,,,,
14.37.11.141,6.6,1.6,0,9.0,,97044.5,10.3,-0.06,0.46,0.88,0.0,5.8,-1.2,31.81,,,,,,,,,,
14.37.11.149,-3.4,0.8,0,9.0,,95832.9,10.43,-0.06,0.46,0.88,0.3,5.2,-1.3,31.81,,,,,,,,,,
14.37.11.161,-3.7,0.9,0,9.0,,95702.0,10.45,-0.06,0.46,0.88,0.5,5.3,-1.0,31.81,,,,,,,,,,
14.37.11.173,-5.7,1.4,0,9.0,,96320.7,10.38,-0.06,0.46,0.88,0.6,5.9,-1.0,31.81,,,,,,,,,,
14.37.11.186,-19.8,5.0,0,9.0,,95910.1,10.43,-0.06,0.46,0.88,0.7,5.5,-0.8,31.81,,,,,,,,,,
14.37.11.194,-19.7,4.9,0,9.0,,96406.1,10.37,-0.06,0.46,0.88,0.9,5.7,-1.1,31.81,,,,,,,,,,
14.37.11.206,-19.1,4.8,0,9.0,,95918.1,10.43,-0.05,0.46,0.88,1.0,6.1,-1.4,31.81,,,,,,,,,,
14.37.11.218,-31.8,8.0,0,9.0,,96284.6,10.39,-0.06,0.46,0.88,1.0,6.3,-1.0,31.81,,,,,,,,,,
14.37.11.255,-44.6,11.2,0,9.0,,95182.3,10.51,-0.06,0.47,0.88,-0.1,5.4,-1.2,31.81,,,,,,,,,,
14.37.11.268,-57.4,14.4,0,9.0,,96132.8,10.4,-0.05,0.46,0.88,0.4,5.8,-0.9,31.81,,,,,,,,,,
14.37.11.280,-52.7,13.2,0,9.0,,95835.4,10.43,-0.06,0.46,0.88,0.4,5.9,-1.2,31.81,,,,,,,,,,
14.37.11.292,-60.6,15.2,0,9.0,,96026.6,10.41,-0.06,0.46,0.88,0.3,6.2,-1.0,31.81,,,,,,,,,,
14.37.11.300,-69.5,17.4,0,9.0,,96608.3,10.35,-0.05,0.46,0.88,0.5,6.1,-1.1,31.81,,,,,,,,,,
14.37.11.313,-72.0,18.0,0,9.0,,95703.9,10.45,-0.06,0.46,0.88,0.2,5.9,-1.2,31.81,,,,,,,,,,
14.37.11.325,-81.8,20.4,0,9.0,,98054.7,10.2,-0.06,0.46,0.88,0.3,6.0,-1.0,31.81,,,,,,,,,,
14.37.11.337,-74.0,18.5,0,9.0,,97622.6,10.24,-0.06,0.46,0.87,0.8,5.9,-1.0,31.81,,,,,,,,,,
14.37.11.345,-79.6,19.9,0,9.0,,97520.9,10.25,-0.05,0.46,0.88,0.7,5.7,-1.2,31.81,,,,,,,,,,
14.37.11.358,-84.3,21.1,0,9.0,,95105.4,10.51,-0.06,0.46,0.88,0.6,5.7,-1.1,31.81,,,,,,,,,,
14.37.11.370,-96.8,24.2,0,9.0,,96462.6,10.37,-0.06,0.47,0.88,0.5,6.1,-1.3,31.81,,,,,,,,,,
14.37.11.378,-100.6,25.2,0,9.0,,94896.7,10.54,-0.06,0.47,0.88,0.1,5.9,-0.9,31.81,,,,,,,,,,
14.37.11.391,-89.5,22.4,0,9.0,,95149.0,10.51,-0.06,0.46,0.88,0.1,5.9,-0.9,31.81,,,,,,,,,,
14.37.11.403,-90.8,22.7,0,9.0,,95062.1,10.52,-0.06,0.47,0.88,-0.2,6.0,-1.2,31.81,,,,,,,,,,
14.37.11.411,-110.5,27.6,0,9.0,,96744.5,10.34,-0.05,0.46,0.88,0.0,6.5,-1.1,31.81,,,,,,,,,,
14.37.11.423,-120.8,30.2,0,9.0,,95555.3,10.47,-0.06,0.46,0.88,0.6,6.4,-1.1,31.81,,,,,,,,,,
14.37.11.436,-115.3,28.8,0,9.0,,95318.7,10.49,-0.06,0.46,0.88,0.5,6.7,-1.3,31.81,,,,,,,,,,
14.37.11.449,-119.6,29.9,0,9.0,,95734.7,10.45,-0.06,0.46,0.88,0.6,6.2,-0.9,31.81,,,,,,,,,,
14.37.11.456,-132.9,33.2,0,9.0,,96641.0,10.35,-0.06,0.46,0.87,0.3,6.3,-1.1,31.81,,,,,,,,,,
14.37.11.468,15.5,3.9,1,10.0,92.7,96002.3,10.42,-0.06,0.46,0.88,-0.1,6.0,-1.0,31.81,,,,,,,,,,
14.37.11.481,66.7,16.7,0,10.0,,97210.9,10.29,-0.06,0.46,0.88,-0.3,6.1,-1.0,31.81,,,,,,,,,,
14.37.11.489,109.5,27.4,0,10.0,,96806.5,10.33,-0.06,0.46,0.88,-0.1,5.7,-0.8,31.81,,,,,,,,,,
14.37.11.501,153.7,38.4,0,10.0,,96609.1,10.35,-0.06,0.46,0.88,0.7,5.8,-1.1,31.81,,,,,,,,,,
14.37.11.513,187.5,46.9,0,10.0,,97622.2,10.24,-0.06,0.46,0.88,0.8,5.8,-1.2,31.81,,,,,,,,,,
14.37.11.526,250.6,62.6,0,10.0,,96791.6,10.33,-0.06,0.47,0.88,0.6,6.1,-1.3,31.81,,,,,,,,,,
14.37.11.534,279.4,69.8,0,10.0,,95330.5,10.49,-0.06,0.47,0.88,0.5,5.3,-1.1,31.81,,,,,,,,,,
14.37.11.546,298.9,74.7,0,10.0,,96104.6,10.41,-0.06,0.46,0.88,-0.1,5.6,-1.3,31.81,,,,,,,,,,
14.37.11.559,271.7,67.9,0,10.0,,97212.6,10.29,-0.06,0.46,0.88,0.2,5.6,-1.3,31.81,,,,,,,,,,
14.37.11.567,297.1,74.3,0,10.0,,97587.8,10.25,-0.06,0.46,0.88,0.4,5.5,-1.3,31.81,,,,,,,,,,
14.37.11.579,332.3,83.1,0,10.0,,95476.2,10.47,-0.06,0.46,0.88,1.0,5.7,-1.2,31.81,,,,,,,,,,
14.37.11.591,306.6,76.6,0,10.0,,96323.0,10.38,-0.06,0.46,0.88,0.9,5.9,-1.2,31.81,,,,,,,,,,
14.37.11.599,315.4,78.8,0,10.0,,98183.9,10.18,-0.06,0.46,0.88,0.9,5.6,-1.1,31.81,,,,,,,,,,
14.37.11.612,296.7,74.2,0,10.0,,94528.9,10.58,-0.06,0.47,0.87,0.6,5.3,-1.5,31.81,,,,,,,,,,
14.37.11.624,290.0,72.5,0,10.0,,95364.5,10.49,-0.05,0.46,0.88,0.2,5.5,-1.3,31.81,,,,,,,,,,
14.37.11.632,268.1,67.0,0,10.0,,94681.6,10.56,-0.06,0.46,0.88,0.0,5.6,-1.2,31.81,,,,,,,,,,
14.37.11.645,236.4,59.1,0,10.0,,96950.7,10.31,-0.06,0.46,0.88,0.2,5.5,-1.1,31.81,,,,,,,,,,
14.37.11.657,187.5,46.9,0,10.0,,95157.4,10.51,-0.06,0.46,0.88,0.5,5.8,-0.9,31.81,,,,,,,,,,
14.37.11.669,154.6,38.6,0,10.0,,96137.4,10.4,-0.06,0.46,0.88,0.8,5.6,-1.4,31.81,,,,,,,,,,
14.37.11.681,104.7,26.2,0,10.0,,97640.2,10.24,-0.06,0.46,0.88,0.6,5.7,-1.4,31.81,,,,,,,,,,
14.37.11.690,67.2,16.8,0,10.0,,95973.0,10.42,-0.06,0.46,0.89,0.7,5.8,-1.2,31.81,,,,,,,,,,
14.37.11.702,33.1,8.3,0,10.0,,95755.0,10.44,-0.06,0.46,0.87,0.4,5.9,-1.4,31.81,,,,,,,,,,
14.37.11.710,-2.4,0.6,0,10.0,,96718.0,10.34,-0.06,0.47,0.88,0.4,5.8,-1.2,31.81,,,,,,,,,,
14.37.11.722,22.7,5.7,0,10.0,,96319.8,10.38,-0.06,0.46,0.88,0.2,5.7,-1.4,31.81,,,,,,,,,,
14.37.11.731,38.2,9.6,0,10.0,,97084.9,10.3,-0.06,0.46,0.88,0.3,5.4,-1.5,31.81,,,,,,,,,,
14.37.11.743,47.7,11.9,0,10.0,,98257.0,10.18,-0.05,0.46,0.88,0.6,5.4,-1.4,31.81,,,,,,,,,,
14.37.11.751,52.9,13.2,0,10.0,,96145.4,10.4,-0.05,0.46,0.88,0.9,5.7,-1.3,31.81,,,,,,,,,,
14.37.11.763,52.2,13.0,0,10.0,,95681.0,10.45,-0.06,0.47,0.88,0.5,5.9,-1.3,31.81,,,,,,,,,,
14.37.11.772,51.3,12.8,0,10.0,,98471.3,10.16,-0.06,0.47,0.88,0.3,5.8,-1.4,31.81,,,,,,,,,,
14.37.11.784,50.7,12.7,0,10.0,,97207.3,10.29,-0.06,0.46,0.89,0.1,5.7,-1.2,31.81,,,,,,,,,,
14.37.11.792,58.6,14.6,0,10.0,,97598.0,10.25,-0.06,0.46,0.88,0.2,5.7,-1.5,31.81,,,,,,,,,,
14.37.11.804,49.5,12.4,0,10.0,,96589.4,10.35,-0.06,0.46,0.87,0.4,6.0,-1.4,31.81,,,,,,,,,,
14.37.11.813,42.2,10.6,0,10.0,,94847.3,10.54,-0.06,0.47,0.88,0.9,5.3,-1.3,31.81,,,,,,,,,,
14.37.11.825,22.3,5.6,0,10.0,,95745.0,10.44,-0.05,0.46,0.88,0.8,6.0,-1.3,31.81,,,,,,,,,,
14.37.11.833,29.4,7.4,0,10.0,,95853.8,10.43,-0.06,0.47,0.88,0.3,5.9,-1.3,31.81,,,,,,,,,,
14.37.11.845,6.0,1.5,0,10.0,,97513.3,10.26,-0.06,0.47,0.88,0.2,5.7,-0.9,31.81,,,,,,,,,,
14.37.11.858,0.9,0.2,0,10.0,,96116.3,10.4,-0.06,0.46,0.88,-0.2,5.6,-1.2,31.81,,,,,,,,,,
14.37.11.866,-3.7,0.9,0,10.0,,96445.7,10.37,-0.06,0.46,0.88,-0.5,6.0,-1.1,31.81,,,,,,,,,,
14.37.11.878,-17.7,4.4,0,10.0,,95395.4,10.48,-0.06,0.46,0.88,-0.5,5.6,-1.1,31.81,,,,,,,,,,
14.37.11.886,-12.4,3.1,0,10.0,,97059.4,10.3,-0.06,0.46,0.89,-0.3,6.1,-1.2,31.81,,,,,,,,,,
14.37.11.899,-21.2,5.3,0,10.0,,97319.3,10.28,-0.06,0.46,0.88,-0.1,5.6,-1.0,31.81,,,,,,,,,,
14.37.11.907,-18.3,4.6,0,10.0,,96332.3,10.38,-0.06,0.46,0.88,0.0,5.9,-1.1,31.81,,,,,,,,,,
14.37.11.919,-22.8,5.7,0,10.0,,96322.7,10.38,-0.06,0.46,0.88,0.2,5.7,-1.1,31.81,,,,,,,,,,
14.37.11.927,-28.4,7.1,0,10.0,,96620.1,10.35,-0.06,0.46,0.88,0.0,5.8,-1.0,31.81,,,,,,,,,,
14.37.11.939,-39.7,9.9,0,10.0,,96348.5,10.38,-0.05,0.46,0.88,0.7,5.9,-0.9,31.81,,,,,,,,,,
14.37.11.952,-40.2,10.0,0,10.0,,96994.6,10.31,-0.06,0.46,0.88,0.9,6.0,-1.3,31.81,,,,,,,,,,
14.37.11.960,-39.3,9.8,0,10.0,,96574.1,10.35,-0.06,0.46,0.88,0.6,6.1,-1.3,31.81,,,,,,,,,,
14.37.11.972,-50.4,12.6,0,10.0,,96475.3,10.37,-0.06,0.47,0.88,0.5,5.5,-1.5,31.81,,,,,,,,,,
14.37.11.985,-49.7,12.4,0,10.0,,96130.9,10.4,-0.06,0.47,0.88,0.0,5.8,-1.3,31.81,,,,,,,,,,
14.37.11.993,-62.9,15.7,0,10.0,,96446.9,10.37,-0.06,0.46,0.88,0.0,5.6,-1.1,31.81,,,,,,,,,,
14.37.12.005,-67.4,16.8,0,10.0,,96066.2,10.41,-0.06,0.45,0.88,0.6,5.8,-1.2,31.81,,,,,,,,,,
14.37.12.017,-82.1,20.5,0,10.0,,96529.4,10.36,-0.06,0.46,0.88,1.4,5.4,-1.4,31.81,,,,,,,,,,
14.37.12.059,-85.6,21.4,0,10.0,,95906.3,10.43,-0.06,0.46,0.88,1.4,5.4,-1.2,31.81,,,,,,,,,,
14.37.12.067,-81.6,20.4,0,10.0,,95902.8,10.43,-0.06,0.46,0.89,0.0,5.9,-1.2,31.81,,,,,,,,,,
14.37.12.079,-87.2,21.8,0,10.0,,96508.6,10.36,-0.06,0.47,0.88,0.0,6.3,-1.2,31.81,,,,,,,,,,
14.37.12.087,-103.5,25.9,0,10.0,,96890.8,10.32,-0.06,0.46,0.89,0.0,5.9,-1.2,31.81,,,,,,,,,,
14.37.12.099,-104.3,26.1,0,10.0,,94398.9,10.59,-0.06,0.46,0.87,-0.1,6.1,-1.2,31.81,,,,,,,,,,
14.37.12.108,-107.9,27.0,0,10.0,,95927.0,10.42,-0.06,0.46,0.89,0.5,6.2,-1.1,31.81,,,,,,,,,,
14.37.12.120,-109.5,27.4,0,10.0,,95929.3,10.42,-0.06,0.46,0.88,0.2,6.0,-1.1,31.81,,,,,,,,,,
14.37.12.128,-116.9,29.2,0,10.0,,96504.4,10.36,-0.06,0.46,0.88,0.1,5.8,-1.3,31.81,,,,,,,,,,
14.37.12.140,-114.4,28.6,0,10.0,,96646.8,10.35,-0.06,0.46,0.87,-0.4,5.7,-1.1,31.81,,,,,,,,,,
14.37.12.148,-108.9,27.2,0,10.0,,97849.0,10.22,-0.06,0.46,0.88,-0.1,5.7,-1.1,31.81,,,,,,,,,,
14.37.12.161,-135.5,33.9,0,10.0,,95708.4,10.45,-0.06,0.46,0.88,-0.1,5.5,-0.9,31.81,,,,,,,,,,
14.37.12.169,14.2,3.6,1,11.0,84.6,97682.3,10.24,-0.06,0.46,0.87,0.2,5.8,-1.0,31.81,,,,,,,,,,
14.37.12.182,76.9,19.2,0,11.0,,94599.5,10.57,-0.06,0.46,0.88,0.2,5.6,-1.1,31.81,,,,,,,,,,
14.37.12.194,119.5,29.9,0,11.0,,94985.5,10.53,-0.06,0.46,0.88,0.1,5.4,-0.9,31.81,,,,,,,,,,
14.37.12.207,161.5,40.4,0,11.0,,95251.2,10.5,-0.06,0.46,0.88,-0.3,5.5,-1.2,31.81,,,,,,,,,,
14.37.12.214,196.9,49.2,0,11.0,,97316.0,10.28,-0.06,0.46,0.88,0.1,5.6,-0.9,31.81,,,,,,,,,,
14.37.12.226,223.9,56.0,0,11.0,,96602.4,10.35,-0.05,0.46,0.88,0.1,5.7,-1.0,31.81,,,,,,,,,,
14.37.12.235,255.0,63.8,0,11.0,,97262.3,10.28,-0.05,0.46,0.88,0.5,5.6,-0.7,31.81,,,,,,,,,,
14.37.12.247,263.0,65.8,0,11.0,,97575.5,10.25,-0.05,0.46,0.88,0.3,6.3,-0.8,31.81,,,,,,,,,,
14.37.12.255,296.0,74.0,0,11.0,,96161.6,10.4,-0.05,0.46,0.88,0.5,5.5,-0.9,31.81,,,,,,,,,,
14.37.12.267,335.4,83.8,0,11.0,,96328.6,10.38,-0.06,0.47,0.88,-0.5,5.8,-1.1,31.81,,,,,,,,,,
14.37.12.275,317.0,79.2,0,11.0,,96246.2,10.39,-0.06,0.46,0.88,-0.1,5.6,-1.0,31.81,,,,,,,,,,
14.37.12.288,327.0,81.8,0,11.0,,96557.6,10.36,-0.06,0.46,0.88,0.0,6.1,-1.0,31.81,,,,,,,,,,
14.37.12.296,327.5,81.9,0,11.0,,97135.0,10.29,-0.06,0.46,0.88,0.3,5.5,-1.0,31.81,,,,,,,,,,
14.37.12.308,291.0,72.8,0,11.0,,96155.9,10.4,-0.06,0.46,0.88,0.8,5.8,-1.1,31.81,,,,,,,,,,
14.37.12.316,285.4,71.4,0,11.0,,96972.3,10.31,-0.05,0.46,0.88,0.8,5.8,-1.0,31.81,,,,,,,,,,
14.37.12.329,266.6,66.6,0,11.0,,96537.8,10.36,-0.06,0.46,0.88,1.0,5.9,-1.1,31.81,,,,,,,,,,
14.37.12.337,253.8,63.4,0,11.0,,97441.7,10.26,-0.06,0.46,0.88,1.5,5.9,-0.9,31.81,,,,,,,,,,
14.37.12.349,226.2,56.6,0,11.0,,95416.3,10.48,-0.06,0.47,0.88,1.1,6.1,-1.2,31.81,,,,,,,,,,
14.37.12.357,205.5,51.4,0,11.0,,96763.8,10.33,-0.06,0.47,0.88,0.3,6.0,-1.2,31.81,,,,,,,,,,
14.37.12.370,161.7,40.4,0,11.0,,94724.2,10.56,-0.06,0.46,0.88,-0.6,6.3,-1.5,31.81,,,,,,,,,,
14.37.12.378,142.5,35.6,0,11.0,,95551.9,10.47,-0.06,0.46,0.88,-0.8,5.6,-1.4,31.81,,,,,,,,,,
14.37.12.390,80.9,20.2,0,11.0,,95763.7,10.44,-0.06,0.46,0.88,-0.3,5.5,-1.3,31.81,,,,,,,,,,
14.37.12.398,59.3,14.8,0,11.0,,96219.6,10.39,-0.05,0.46,0.88,0.0,5.6,-1.3,31.81,,,,,,,,,,
14.37.12.411,2.9,0.7,0,11.0,,97369.4,10.27,-0.05,0.46,0.88,0.5,5.5,-1.3,31.81,,,,,,,,,,
14.37.12.419,13.3,3.3,0,11.0,,96069.8,10.41,-0.05,0.46,0.88,0.8,5.8,-1.4,31.81,,,,,,,,,,
14.37.12.431,20.1,5.0,0,11.0,,95267.7,10.5,-0.05,0.46,0.88,1.1,5.6,-1.0,31.81,,,,,,,,,,
14.37.12.439,27.6,6.9,0,11.0,,97443.2,10.26,-0.06,0.46,0.88,0.8,6.0,-1.4,31.81,,,,,,,,,,
14.37.12.452,59.9,15.0,0,11.0,,95345.6,10.49,-0.05,0.46,0.88,0.8,6.0,-1.5,31.81,,,,,,,,,,
14.37.12.460,44.7,11.2,0,11.0,,97043.1,10.3,-0.06,0.46,0.88,0.7,5.7,-1.3,31.81,,,,,,,,,,
14.37.12.472,58.7,14.7,0,11.0,,94804.3,10.55,-0.06,0.46,0.89,0.5,5.7,-1.3,31.81,,,,,,,,,,
14.37.12.481,59.9,15.0,0,11.0,,95609.4,10.46,-0.06,0.46,0.88,0.5,5.9,-1.4,31.81,,,,,,,,,,
14.37.12.493,48.6,12.2,0,11.0,,95919.9,10.43,-0.06,0.46,0.88,0.6,5.3,-1.3,31.81,,,,,,,,,,
14.37.12.501,53.2,13.3,0,11.0,,95578.5,10.46,-0.05,0.46,0.88,1.1,5.5,-1.2,31.81,,,,,,,,,,
14.37.12.513,36.5,9.1,0,11.0,,96938.8,10.32,-0.05,0.45,0.88,2.1,6.3,-0.9,31.81,,,,,,,,,,
14.37.12.521,43.1,10.8,0,11.0,,94787.8,10.55,-0.05,0.45,0.88,3.3,5.7,-1.0,31.81,,,,,,,,,,
14.37.12.534,23.1,5.8,0,11.0,,96246.0,10.39,-0.05,0.46,0.88,4.6,6.1,-0.8,31.81,,,,,,,,,,
14.37.12.546,9.2,2.3,0,11.0,,96042.7,10.41,-0.05,0.45,0.87,5.3,6.2,-1.2,31.81,,,,,,,,,,
14.37.12.554,11.1,2.8,0,11.0,,96341.1,10.38,-0.05,0.46,0.88,6.3,7.1,-0.9,31.81,,,,,,,,,,
14.37.12.566,-11.0,2.8,0,11.0,,96023.9,10.41,-0.05,0.47,0.88,6.2,7.4,-0.9,31.81,,,,,,,,,,
14.37.12.575,-2.0,0.5,0,11.0,,96315.1,10.38,-0.07,0.51,0.89,6.7,6.5,-0.4,31.81,,,,,,,,,,
14.37.12.587,-22.6,5.6,0,11.0,,95535.2,10.47,-0.06,0.47,0.88,-0.1,10.2,-0.6,31.81,,,,,,,,,,
14.37.12.595,-15.0,3.8,0,11.0,,96042.1,10.41,-0.06,0.45,0.86,1.9,4.8,-0.8,31.81,,,,,,,,,,
14.37.12.607,-27.2,6.8,0,11.0,,96309.5,10.38,-0.07,0.49,0.89,0.3,6.6,-1.2,31.81,,,,,,,,,,
14.37.12.616,-26.0,6.5,0,11.0,,96631.7,10.35,-0.07,0.48,0.87,-1.8,8.1,-0.8,31.81,,,,,,,,,,
14.37.12.628,-43.6,10.9,0,11.0,,97756.8,10.23,-0.06,0.44,0.88,-0.1,3.9,-1.4,31.81,,,,,,,,,,
14.37.12.636,-32.0,8.0,0,11.0,,96435.2,10.37,-0.06,0.46,0.88,-0.5,6.5,-2.0,31.81,,,,,,,,,,
14.37.12.649,-43.6,10.9,0,11.0,,97674.9,10.24,-0.06,0.47,0.87,-0.1,5.6,-1.5,31.81,,,,,,,,,,
14.37.12.656,-38.4,9.6,0,11.0,,95977.0,10.42,-0.06,0.48,0.88,-1.6,6.6,-1.6,31.81,,,,,,,,,,
14.37.12.669,-50.7,12.7,0,11.0,,95786.9,10.44,-0.06,0.47,0.88,-1.5,5.4,-1.1,31.81,,,,,,,,,,
14.37.12.677,-49.8,12.4,0,11.0,,95547.6,10.47,-0.06,0.46,0.88,-1.1,6.1,-1.3,31.81,,,,,,,,,,
14.37.12.689,-50.9,12.7,0,11.0,,95763.5,10.44,-0.06,0.46,0.88,-0.2,5.8,-1.3,31.81,,,,,,,,,,
14.37.12.697,-54.0,13.5,0,11.0,,95311.8,10.49,-0.07,0.47,0.88,0.0,5.8,-1.4,31.81,,,,,,,,,,
14.37.12.710,-67.9,17.0,0,11.0,,94189.4,10.62,-0.06,0.47,0.88,-0.2,5.6,-1.2,31.81,,,,,,,,,,
14.37.12.718,-67.9,17.0,0,11.0,,95914.9,10.43,-0.06,0.46,0.88,-0.7,5.3,-1.4,31.81,,,,,,,,,,
14.37.12.730,-64.7,16.2,0,11.0,,97080.1,10.3,-0.05,0.47,0.88,-1.0,5.4,-1.6,31.81,,,,,,,,,,
14.37.12.743,-76.5,19.1,0,11.0,,97494.5,10.26,-0.06,0.47,0.88,-1.4,5.8,-1.7,31.81,,,,,,,,,,
14.37.12.751,-64.1,16.0,0,11.0,,96678.2,10.34,-0.06,0.47,0.88,-1.5,5.9,-1.7,31.81,,,,,,,,,,
14.37.12.763,-86.9,21.7,0,11.0,,95346.9,10.49,-0.05,0.47,0.88,-1.2,5.8,-2.0,31.81,,,,,,,,,,
14.37.12.771,-90.3,22.6,0,11.0,,95408.7,10.48,-0.06,0.46,0.88,-1.2,5.7,-1.7,31.81,,,,,,,,,,
14.37.12.783,-94.8,23.7,0,11.0,,96169.0,10.4,-0.06,0.46,0.88,-0.8,5.1,-2.0,31.81,,,,,,,,,,
14.37.12.792,-107.6,26.9,0,11.0,,96310.1,10.38,-0.06,0.46,0.88,-0.9,5.6,-1.9,31.81,,,,,,,,,,
14.37.12.804,-91.7,22.9,0,11.0,,96567.1,10.36,-0.06,0.46,0.88,-0.9,5.1,-1.5,31.81,,,,,,,,,,
14.37.12.812,-106.4,26.6,0,11.0,,95193.5,10.5,-0.06,0.46,0.88,-0.5,5.5,-1.6,31.81,,,,,,,,,,
14.37.12.824,-107.5,26.9,0,11.0,,95809.7,10.44,-0.06,0.46,0.89,-0.3,5.6,-1.8,31.81,,,,,,,,,,
14.37.12.861,-133.0,33.2,0,11.0,,95905.4,10.43,-0.06,0.46,0.88,0.0,5.1,-1.7,31.75,,,,,,,,,,
14.37.12.870,13.4,3.4,1,12.0,86.3,96436.1,10.37,-0.05,0.46,0.88,0.4,6.2,-1.2,31.75,,,,,,,,,,
14.37.12.882,57.1,14.3,0,12.0,,96681.2,10.34,-0.05,0.47,0.89,0.5,4.9,-1.1,31.75,,,,,,,,,,
14.37.12.894,94.9,23.7,0,12.0,,96882.9,10.32,-0.05,0.46,0.89,0.4,6.8,-1.0,31.75,,,,,,,,,,
14.37.12.902,137.5,34.4,0,12.0,,96961.1,10.31,-0.05,0.45,0.88,1.1,6.0,-0.9,31.75,,,,,,,,,,
14.37.12.915,176.9,44.2,0,12.0,,96203.8,10.39,-0.05,0.46,0.88,1.3,6.0,-0.9,31.75,,,,,,,,,,
14.37.12.925,201.7,50.4,0,12.0,,95819.0,10.44,-0.06,0.46,0.89,1.6,6.9,-0.7,31.75,,,,,,,,,,
14.37.12.935,262.4,65.6,0,12.0,,97046.8,10.3,-0.06,0.47,0.88,1.8,6.3,-1.0,31.75,,,,,,,,,,
14.37.12.943,271.0,67.8,0,12.0,,96389.6,10.37,-0.05,0.46,0.88,1.9,6.2,-1.3,31.75,,,,,,,,,,
14.37.12.956,275.3,68.8,0,12.0,,95639.6,10.46,-0.06,0.48,0.89,1.0,5.8,-0.7,31.75,,,,,,,,,,
14.37.12.964,284.1,71.0,0,12.0,,97566.7,10.25,-0.06,0.45,0.87,0.7,5.6,-0.7,31.75,,,,,,,,,,
14.37.12.976,317.2,79.3,0,12.0,,96621.8,10.35,-0.06,0.46,0.87,1.5,5.8,-1.1,31.75,,,,,,,,,,
14.37.12.984,,,0,12.0,,,,,,,,,,,,,,,,,,,,
14.37.13.001,,,0,12.0,,,,,,,,,,,,31.78,,,,,,,,
14.37.13.013,272.5,68.1,0,12.0,,96058.4,10.41,-0.06,0.46,0.88,0.9,5.4,-0.7,31.75,,,,,,,,,,
14.37.13.025,317.1,79.3,0,12.0,,96220.3,10.39,-0.06,0.46,0.88,1.7,5.3,-0.9,31.75,,,,,,,,,,
14.37.13.033,278.4,69.6,0,12.0,,95722.2,10.45,-0.06,0.46,0.88,1.6,5.7,-0.9,31.75,,,,,,,,,,
14.37.13.046,234.0,58.5,0,12.0,,97256.1,10.28,-0.06,0.48,0.88,1.3,6.0,-0.5,31.75,,,,,,,,,,
14.37.13.054,234.0,58.5,0,12.0,,96115.1,10.4,-0.06,0.48,0.88,0.1,5.9,-0.8,31.75,,,,,,,,,,
14.37.13.066,185.5,46.4,0,12.0,,96332.3,10.38,-0.06,0.46,0.88,-0.4,5.3,-1.1,31.75,,,,,,,,,,
14.37.13.074,153.0,38.2,0,12.0,,96814.9,10.33,-0.06,0.46,0.88,-0.1,5.9,-1.3,31.75,,,,,,,,,,
14.37.13.087,110.7,27.7,0,12.0,,95557.4,10.46,-0.06,0.46,0.89,0.7,5.3,-1.5,31.75,,,,,,,,,,
14.37.13.095,83.0,20.8,0,12.0,,95805.9,10.44,-0.06,0.46,0.88,1.0,5.8,-1.7,31.75,,,,,,,,,,
14.37.13.107,12.0,3.0,0,12.0,,96117.4,10.4,-0.06,0.46,0.87,1.1,5.4,-1.2,31.75,,,,,,,,,,
14.37.13.115,-5.3,1.3,0,12.0,,94780.8,10.55,-0.05,0.46,0.88,1.2,6.1,-1.3,31.75,,,,,,,,,,
14.37.13.128,25.6,6.4,0,12.0,,98300.1,10.17,-0.06,0.46,0.88,1.0,6.0,-1.4,31.75,,,,,,,,,,
14.37.13.136,31.8,8.0,0,12.0,,95857.5,10.43,-0.05,0.47,0.88,1.3,6.0,-1.2,31.75,,,,,,,,,,
14.37.13.148,42.2,10.6,0,12.0,,95726.2,10.45,-0.05,0.46,0.88,1.4,5.8,-1.0,31.75,,,,,,,,,,
14.37.13.156,36.0,9.0,0,12.0,,96336.3,10.38,-0.06,0.47,0.88,1.3,6.3,-1.1,31.75,,,,,,,,,,
14.37.13.169,54.0,13.5,0,12.0,,96684.7,10.34,-0.06,0.46,0.88,0.5,6.4,-0.9,31.75,,,,,,,,,,
14.37.13.177,63.9,16.0,0,12.0,,96087.6,10.41,-0.06,0.46,0.88,0.2,6.1,-0.8,31.75,,,,,,,,,,
14.37.13.189,56.9,14.2,0,12.0,,96385.5,10.38,-0.06,0.46,0.87,0.6,6.6,-0.7,31.75,,,,,,,,,,
14.37.13.197,55.2,13.8,0,12.0,,96323.3,10.38,-0.05,0.46,0.88,1.6,6.6,-0.9,31.75,,,,,,,,,,
14.37.13.210,50.4,12.6,0,12.0,,96380.5,10.38,-0.06,0.47,0.88,1.5,6.4,-1.3,31.75,,,,,,,,,,
14.37.13.218,53.5,13.4,0,12.0,,96631.9,10.35,-0.06,0.47,0.88,1.2,6.1,-1.6,31.75,,,,,,,,,,
14.37.13.230,25.2,6.3,0,12.0,,98266.8,10.18,-0.06,0.47,0.88,0.5,5.7,-1.3,31.75,,,,,,,,,,
14.37.13.242,7.8,2.0,0,12.0,,97652.1,10.24,-0.06,0.47,0.87,0.2,5.5,-1.3,31.75,,,,,,,,,,
14.37.13.250,0.6,0.2,0,12.0,,96722.2,10.34,-0.06,0.47,0.88,-0.9,5.3,-1.3,31.75,,,,,,,,,,
14.37.13.263,-6.8,1.7,0,12.0,,96565.1,10.36,-0.06,0.46,0.88,-0.6,5.4,-1.1,31.75,,,,,,,,,,
14.37.13.271,-0.8,0.2,0,12.0,,95657.7,10.45,-0.05,0.45,0.89,-0.1,5.5,-1.3,31.75,,,,,,,,,,
14.37.13.283,-8.0,2.0,0,12.0,,94911.4,10.54,-0.05,0.45,0.89,0.9,5.6,-1.3,31.75,,,,,,,,,,
14.37.13.291,-8.9,2.2,0,12.0,,96714.5,10.34,-0.06,0.46,0.88,1.1,6.1,-1.6,31.75,,,,,,,,,,
14.37.13.304,-17.8,4.4,0,12.0,,96827.2,10.33,-0.06,0.46,0.87,2.0,6.2,-1.8,31.75,,,,,,,,,,
14.37.13.312,-22.9,5.7,0,12.0,,96343.3,10.38,-0.06,0.47,0.87,1.1,5.9,-1.9,31.75,,,,,,,,,,
14.37.13.324,-25.8,6.4,0,12.0,,94020.3,10.64,-0.06,0.47,0.88,0.0,6.0,-1.7,31.75,,,,,,,,,,
14.37.13.332,-28.9,7.2,0,12.0,,95759.8,10.44,-0.06,0.47,0.88,-2.0,6.1,-2.0,31.75,,,,,,,,,,
14.37.13.345,-37.0,9.2,0,12.0,,96377.8,10.38,-0.06,0.47,0.88,-2.3,5.0,-1.8,31.75,,,,,,,,,,
14.37.13.353,-39.6,9.9,0,12.0,,95043.4,10.52,-0.05,0.47,0.87,-2.0,6.2,-1.8,31.75,,,,,,,,,,
14.37.13.365,-50.0,12.5,0,12.0,,96992.8,10.31,-0.05,0.43,0.88,-0.4,5.6,-2.0,31.75,,,,,,,,,,
14.37.13.373,-47.0,11.8,0,12.0,,96270.2,10.39,-0.05,0.45,0.89,2.4,5.8,-1.0,31.75,,,,,,,,,,
14.37.13.386,-60.5,15.1,0,12.0,,95375.3,10.48,-0.05,0.46,0.87,3.1,6.0,-1.1,31.75,,,,,,,,,,
14.37.13.394,-58.1,14.5,0,12.0,,95041.5,10.52,-0.05,0.48,0.89,2.4,5.7,-0.6,31.75,,,,,,,,,,
14.37.13.406,-60.3,15.1,0,12.0,,96249.2,10.39,-0.06,0.47,0.86,2.8,7.1,-0.6,31.75,,,,,,,,,,
14.37.13.414,-64.4,16.1,0,12.0,,96656.9,10.35,-0.06,0.44,0.9,5.3,3.7,-1.2,31.75,,,,,,,,,,
14.37.13.427,-69.1,17.3,0,12.0,,95057.7,10.52,-0.06,0.44,0.89,6.9,7.5,-0.8,31.75,,,,,,,,,,
14.37.13.435,-74.0,18.5,0,12.0,,95929.3,10.42,-0.07,0.47,0.87,7.8,4.8,-0.7,31.75,,,,,,,,,,
14.37.13.447,-89.9,22.5,0,12.0,,96596.7,10.35,-0.06,0.51,0.87,3.5,6.9,-0.7,31.75,,,,,,,,,,
14.37.13.455,-75.2,18.8,0,12.0,,95266.5,10.5,-0.07,0.51,0.88,0.1,6.3,-0.4,31.75,,,,,,,,,,
14.37.13.468,-77.4,19.4,0,12.0,,96983.2,10.31,-0.06,0.47,0.87,-1.8,5.8,-0.9,31.75,,,,,,,,,,
14.37.13.476,-71.4,17.8,0,12.0,,96225.1,10.39,-0.06,0.46,0.88,-0.4,5.7,-1.0,31.75,,,,,,,,,,
14.37.13.489,-90.0,22.5,0,12.0,,96096.7,10.41,-0.06,0.46,0.87,-0.5,6.3,-1.7,31.75,,,,,,,,,,
14.37.13.500,-95.9,24.0,0,12.0,,96978.1,10.31,-0.07,0.48,0.87,-0.5,6.5,-1.6,31.75,,,,,,,,,,
14.37.13.509,-103.0,25.8,0,12.0,,97162.1,10.29,-0.07,0.49,0.88,-1.4,6.6,-1.4,31.75,,,,,,,,,,
14.37.13.521,-103.3,25.8,0,12.0,,95284.6,10.49,-0.07,0.47,0.87,-2.9,5.9,-1.6,31.75,,,,,,,,,,
14.37.13.530,-113.4,28.4,0,12.0,,97134.7,10.29,-0.06,0.47,0.87,-3.6,5.7,-1.8,31.75,,,,,,,,,,
14.37.13.542,-125.7,31.4,0,12.0,,97413.1,10.27,-0.06,0.47,0.88,-3.9,4.7,-2.1,31.75,,,,,,,,,,
14.37.13.554,-132.5,33.1,0,12.0,,95635.8,10.46,-0.06,0.45,0.88,-3.1,4.8,-2.2,31.75,,,,,,,,,,
14.37.13.562,-118.1,29.5,0,12.0,,96725.7,10.34,-0.06,0.44,0.87,-1.7,4.2,-2.7,31.75,,,,,,,,,,
14.37.13.574,20.2,5.0,1,13.0,84.2,96036.9,10.41,-0.05,0.45,0.93,4.6,0.8,-1.0,31.75,,,,,,,,,,
14.37.13.582,54.2,13.6,0,13.0,,96176.3,10.4,-0.05,0.47,0.84,0.8,10.7,-1.6,31.75,,,,,,,,,,
14.37.13.595,100.1,25.0,0,13.0,,96414.2,10.37,-0.06,0.48,0.89,-0.6,3.0,0.0,31.75,,,,,,,,,,
14.37.13.604,143.1,35.8,0,13.0,,94788.6,10.55,-0.06,0.47,0.87,-3.1,10.4,0.3,31.75,,,,,,,,,,
14.37.13.615,167.3,41.8,0,13.0,,94726.7,10.56,-0.05,0.43,0.88,0.7,4.5,-0.6,31.75,,,,,,,,,,
14.37.13.623,204.2,51.0,0,13.0,,94826.5,10.55,-0.05,0.44,0.89,3.2,7.9,-1.0,31.75,,,,,,,,,,
14.37.13.660,301.2,75.3,0,13.0,,97226.1,10.29,-0.06,0.46,0.86,5.1,5.9,-0.4,31.81,,,,,,,,,,
14.37.13.672,309.8,77.4,0,13.0,,96499.3,10.36,-0.06,0.44,0.87,-2.8,3.9,-1.5,31.81,,,,,,,,,,
14.37.13.681,317.4,79.4,0,13.0,,95911.9,10.43,-0.05,0.43,0.88,0.7,4.4,-2.1,31.81,,,,,,,,,,
14.37.13.693,318.3,79.6,0,13.0,,97364.1,10.27,-0.05,0.46,0.88,2.0,5.5,-2.0,31.81,,,,,,,,,,
14.37.13.701,319.7,79.9,0,13.0,,96687.5,10.34,-0.06,0.48,0.88,2.5,6.0,-2.3,31.81,,,,,,,,,,
14.37.13.713,306.5,76.6,0,13.0,,96934.0,10.32,-0.07,0.49,0.88,-0.3,6.2,-2.0,31.81,,,,,,,,,,
14.37.13.722,286.3,71.6,0,13.0,,97442.5,10.26,-0.06,0.48,0.87,-3.0,5.0,-2.0,31.81,,,,,,,,,,
14.37.13.734,274.5,68.6,0,13.0,,93983.6,10.64,-0.06,0.47,0.88,-3.6,4.8,-2.0,31.81,,,,,,,,,,
14.37.13.746,245.1,61.3,0,13.0,,96035.5,10.41,-0.06,0.45,0.88,-3.1,4.6,-1.9,31.81,,,,,,,,,,
14.37.13.754,213.8,53.4,0,13.0,,97094.1,10.3,-0.05,0.45,0.88,-1.8,4.9,-1.6,31.81,,,,,,,,,,
14.37.13.767,203.1,50.8,0,13.0,,96955.1,10.31,-0.05,0.41,0.88,0.9,5.6,-2.1,31.81,,,,,,,,,,
14.37.13.775,168.4,42.1,0,13.0,,95462.3,10.48,-0.05,0.45,0.89,3.7,5.0,-0.6,31.81,,,,,,,,,,
14.37.13.787,108.7,27.2,0,13.0,,95865.0,10.43,-0.06,0.47,0.86,2.1,7.4,-1.5,31.81,,,,,,,,,,
14.37.13.795,89.3,22.3,0,13.0,,96338.7,10.38,-0.06,0.5,0.9,0.2,5.9,-1.1,31.81,,,,,,,,,,
14.37.13.808,29.5,7.4,0,13.0,,96531.0,10.36,-0.06,0.47,0.88,-1.0,7.0,-0.4,31.81,,,,,,,,,,
14.37.13.816,-8.6,2.2,0,13.0,,96584.3,10.35,-0.06,0.45,0.88,-1.1,5.0,-1.4,31.81,,,,,,,,,,
14.37.13.828,14.9,3.7,0,13.0,,96147.7,10.4,-0.06,0.46,0.89,-0.2,6.0,-1.0,31.81,,,,,,,,,,
14.37.13.836,27.7,6.9,0,13.0,,95847.0,10.43,-0.06,0.46,0.88,0.5,5.9,-0.9,31.81,,,,,,,,,,
14.37.13.849,35.5,8.9,0,13.0,,95978.7,10.42,-0.06,0.47,0.88,-0.1,6.7,-0.9,31.81,,,,,,,,,,
14.37.13.857,52.3,13.1,0,13.0,,98047.7,10.2,-0.06,0.48,0.87,-1.0,5.5,-1.2,31.81,,,,,,,,,,
14.37.13.869,53.7,13.4,0,13.0,,95488.9,10.47,-0.06,0.47,0.88,-1.9,5.9,-1.5,31.81,,,,,,,,,,
14.37.13.877,60.5,15.1,0,13.0,,95871.4,10.43,-0.06,0.46,0.88,-1.2,5.6,-1.2,31.81,,,,,,,,,,
14.37.13.890,53.0,13.2,0,13.0,,97056.4,10.3,-0.06,0.45,0.89,-0.6,5.5,-1.6,31.81,,,,,,,,,,
14.37.13.898,60.6,15.2,0,13.0,,96107.7,10.4,-0.05,0.46,0.87,0.3,5.5,-1.3,31.81,,,,,,,,,,
14.37.13.910,41.0,10.2,0,13.0,,95928.3,10.42,-0.06,0.46,0.88,0.6,5.7,-1.4,31.81,,,,,,,,,,
14.37.13.918,42.8,10.7,0,13.0,,95748.1,10.44,-0.06,0.47,0.88,0.2,6.1,-1.3,31.81,,,,,,,,,,
14.37.13.931,32.9,8.2,0,13.0,,97007.0,10.31,-0.06,0.46,0.88,0.7,5.1,-1.3,31.81,,,,,,,,,,
14.37.13.943,17.6,4.4,0,13.0,,96591.3,10.35,-0.05,0.46,0.88,1.7,5.7,-1.6,31.81,,,,,,,,,,
14.37.13.951,1.3,0.3,0,13.0,,97160.4,10.29,-0.05,0.47,0.87,1.6,5.9,-1.6,31.81,,,,,,,,,,
14.37.13.963,-1.8,0.4,0,13.0,,95950.9,10.42,-0.06,0.47,0.89,1.2,5.4,-1.4,31.81,,,,,,,,,,
14.37.13.972,-5.6,1.4,0,13.0,,97783.4,10.23,-0.06,0.47,0.88,0.6,6.2,-1.3,31.81,,,,,,,,,,
14.37.13.984,-3.4,0.8,0,13.0,,95883.5,10.43,-0.06,0.47,0.88,0.5,4.9,-1.3,31.81,,,,,,,,,,
14.37.13.992,-12.5,3.1,0,13.0,,96078.0,10.41,-0.06,0.46,0.88,0.0,5.6,-1.4,31.81,,,,,,,,,,
14.37.14.004,-24.5,6.1,0,13.0,,97661.8,10.24,-0.06,0.46,0.88,-0.1,5.3,-1.1,31.81,,,,,,,,,,
14.37.14.012,-21.6,5.4,0,13.0,,96326.3,10.38,-0.06,0.47,0.87,-0.3,5.9,-1.4,31.81,,,,,,,,,,
14.37.14.025,-29.1,7.3,0,13.0,,96212.5,10.39,-0.06,0.47,0.87,-0.5,5.9,-1.1,31.81,,,,,,,,,,
14.37.14.033,-29.3,7.3,0,13.0,,94984.2,10.53,-0.06,0.46,0.88,-0.1,6.2,-1.2,31.81,,,,,,,,,,
14.37.14.045,-36.0,9.0,0,13.0,,96128.0,10.4,-0.05,0.46,0.88,0.4,5.7,-1.3,31.81,,,,,,,,,,
14.37.14.053,-33.5,8.4,0,13.0,,97324.1,10.27,-0.06,0.46,0.88,0.7,5.8,-1.4,31.81,,,,,,,,,,
14.37.14.066,-50.3,12.6,0,13.0,,95506.7,10.47,-0.05,0.46,0.89,0.7,6.0,-1.3,31.81,,,,,,,,,,
14.37.14.074,-49.4,12.4,0,13.0,,94468.9,10.59,-0.06,0.47,0.88,0.6,5.7,-1.2,31.81,,,,,,,,,,
14.37.14.086,-50.1,12.5,0,13.0,,96259.6,10.39,-0.06,0.46,0.88,0.4,5.7,-1.3,31.81,,,,,,,,,,
14.37.14.094,-61.9,15.5,0,13.0,,94685.2,10.56,-0.06,0.46,0.88,0.3,5.5,-1.3,31.81,,,,,,,,,,
14.37.14.107,-55.9,14.0,0,13.0,,96820.1,10.33,-0.06,0.46,0.88,0.5,5.2,-1.5,31.81,,,,,,,,,,
14.37.14.115,-50.4,12.6,0,13.0,,96854.2,10.32,-0.06,0.46,0.89,0.7,5.2,-1.4,31.81,,,,,,,,,,
14.37.14.127,-80.4,20.1,0,13.0,,97955.1,10.21,-0.06,0.46,0.88,0.7,5.2,-1.6,31.81,,,,,,,,,,
14.37.14.135,-72.3,18.1,0,13.0,,96809.2,10.33,-0.06,0.46,0.89,0.4,5.2,-1.5,31.81,,,,,,,,,,
14.37.14.148,-77.5,19.4,0,13.0,,96725.4,10.34,-0.06,0.47,0.88,0.3,5.7,-1.5,31.81,,,,,,,,,,
14.37.14.156,-84.2,21.0,0,13.0,,95643.2,10.46,-0.06,0.46,0.88,0.4,6.1,-1.4,31.81,,,,,,,,,,
14.37.14.168,-79.4,19.8,0,13.0,,94836.1,10.54,-0.05,0.46,0.88,0.4,6.2,-1.5,31.81,,,,,,,,,,
14.37.14.176,-91.3,22.8,0,13.0,,95843.1,10.43,-0.06,0.46,0.88,0.4,6.0,-1.7,31.81,,,,,,,,,,
14.37.14.189,-93.7,23.4,0,13.0,,96670.9,10.34,-0.06,0.46,0.88,0.8,6.0,-1.5,31.81,,,,,,,,,,
14.37.14.197,-102.5,25.6,0,13.0,,97123.0,10.3,-0.06,0.46,0.88,0.5,6.1,-1.5,31.81,,,,,,,,,,
14.37.14.209,-103.1,25.8,0,13.0,,96658.5,10.35,-0.06,0.46,0.88,-0.2,5.7,-1.5,31.81,,,,,,,,,,
14.37.14.217,-111.4,27.8,0,13.0,,96446.9,10.37,-0.06,0.46,0.88,-0.4,5.3,-1.3,31.81,,,,,,,,,,
14.37.14.230,-107.9,27.0,0,13.0,,97366.9,10.27,-0.05,0.46,0.88,-0.4,5.9,-1.3,31.81,,,,,,,,,,
14.37.14.238,-115.0,28.8,0,13.0,,96134.0,10.4,-0.06,0.46,0.87,-0.2,5.3,-1.3,31.81,,,,,,,,,,
14.37.14.250,-121.2,30.3,0,13.0,,97049.1,10.3,-0.06,0.46,0.88,-0.4,5.8,-1.1,31.81,,,,,,,,,,
14.37.14.262,-114.9,28.7,0,13.0,,95652.4,10.45,-0.06,0.46,0.88,0.2,5.1,-1.4,31.81,,,,,,,,,,
14.37.14.275,6.2,1.6,1,14.0,88.6,96974.6,10.31,-0.06,0.46,0.88,0.2,5.7,-1.4,31.81,,,,,,,,,,
14.37.14.283,38.1,9.5,0,14.0,,95926.7,10.42,-0.06,0.46,0.88,0.1,5.8,-1.2,31.81,,,,,,,,,,
14.37.14.295,80.2,20.0,0,14.0,,96095.4,10.41,-0.06,0.46,0.88,0.1,5.8,-1.2,31.81,,,,,,,,,,
14.37.14.303,105.9,26.5,0,14.0,,96622.3,10.35,-0.06,0.46,0.88,0.3,5.9,-1.2,31.81,,,,,,,,,,
14.37.14.316,153.4,38.4,0,14.0,,97110.3,10.3,-0.06,0.47,0.88,0.0,5.9,-1.3,31.81,,,,,,,,,,
14.37.14.324,189.2,47.3,0,14.0,,96756.7,10.34,-0.06,0.46,0.88,-0.1,5.9,-1.4,31.81,,,,,,,,,,
14.37.14.336,237.7,59.4,0,14.0,,96707.3,10.34,-0.06,0.46,0.88,-0.5,5.6,-1.5,31.81,,,,,,,,,,
14.37.14.348,263.2,65.8,0,14.0,,96247.9,10.39,-0.06,0.46,0.88,-0.1,5.3,-1.2,31.81,,,,,,,,,,
14.37.14.361,280.2,70.0,0,14.0,,96558.1,10.36,-0.06,0.46,0.89,-0.2,5.4,-1.0,31.81,,,,,,,,,,
14.37.14.369,292.8,73.2,0,14.0,,95259.6,10.5,-0.06,0.46,0.88,-0.2,5.3,-1.2,31.81,,,,,,,,,,
14.37.14.381,313.8,78.4,0,14.0,,96746.8,10.34,-0.06,0.46,0.88,0.5,5.6,-1.2,31.81,,,,,,,,,,
14.37.14.393,301.5,75.4,0,14.0,,96342.7,10.38,-0.05,0.46,0.88,0.7,6.0,-1.3,31.81,,,,,,,,,,
14.37.14.402,329.2,82.3,0,14.0,,95162.0,10.51,-0.05,0.47,0.88,0.8,6.2,-1.3,31.81,,,,,,,,,,
14.37.14.414,318.5,79.6,0,14.0,,95211.6,10.5,-0.06,0.46,0.88,0.4,5.8,-1.4,31.81,,,,,,,,,,
14.37.14.426,275.9,69.0,0,14.0,,97816.1,10.22,-0.06,0.47,0.87,0.1,6.0,-1.4,31.81,,,,,,,,,,
14.37.14.467,201.0,50.2,0,14.0,,96847.8,10.33,-0.06,0.46,0.89,-0.2,5.7,-1.3,31.81,86.3,,,,,,,,,
14.37.14.475,172.1,43.0,0,14.0,,96638.1,10.35,-0.05,0.46,0.88,0.2,6.0,-1.5,31.81,,,,,,,,,,
14.37.14.488,107.6,26.9,0,14.0,,95492.3,10.47,-0.06,0.46,0.89,0.6,5.8,-1.2,31.81,,,,,,,,,,
14.37.14.500,70.7,17.7,0,14.0,,97595.1,10.25,-0.06,0.46,0.88,0.3,5.9,-1.4,31.81,,,,,,,,,,
14.37.14.512,29.1,7.3,0,14.0,,95473.9,10.47,-0.05,0.46,0.88,0.2,5.7,-1.5,31.81,,,,,,,,,,
14.37.14.521,12.2,3.0,0,14.0,,96288.6,10.39,-0.06,0.46,0.88,0.2,5.7,-1.3,31.81,,,,,,,,,,
14.37.14.533,19.7,4.9,0,14.0,,96351.3,10.38,-0.05,0.46,0.88,0.6,5.4,-1.1,31.81,,,,,,,,,,
14.37.14.545,35.7,8.9,0,14.0,,94041.8,10.63,-0.05,0.46,0.88,1.2,5.7,-1.4,31.81,,,,,,,,,,
14.37.14.553,38.9,9.7,0,14.0,,95984.7,10.42,-0.06,0.47,0.89,0.7,5.9,-1.3,31.81,,,,,,,,,,
14.37.14.565,43.6,10.9,0,14.0,,96861.6,10.32,-0.06,0.46,0.88,0.1,5.6,-1.4,31.81,,,,,,,,,,
14.37.14.578,63.2,15.8,0,14.0,,96746.1,10.34,-0.06,0.46,0.88,0.1,5.7,-1.2,31.81,,,,,,,,,,
14.37.14.586,71.7,17.9,0,14.0,,95936.9,10.42,-0.06,0.46,0.88,0.5,5.7,-1.4,31.81,,,,,,,,,,
14.37.14.599,57.2,14.3,0,14.0,,95951.2,10.42,-0.06,0.46,0.88,1.1,5.8,-1.3,31.81,,,,,,,,,,
14.37.14.611,59.1,14.8,0,14.0,,96085.0,10.41,-0.06,0.46,0.88,0.6,5.8,-1.0,31.81,,,,,,,,,,
14.37.14.619,48.7,12.2,0,14.0,,96263.8,10.39,-0.06,0.47,0.88,1.2,6.1,-1.3,31.81,,,,,,,,,,
14.37.14.631,34.1,8.5,0,14.0,,95863.8,10.43,-0.06,0.47,0.88,0.9,5.9,-1.6,31.81,,,,,,,,,,
14.37.14.643,20.0,5.0,0,14.0,,96543.9,10.36,-0.06,0.47,0.89,0.3,5.6,-1.3,31.81,,,,,,,,,,
14.37.14.656,-3.8,1.0,0,14.0,,96668.2,10.34,-0.06,0.46,0.88,-0.4,5.3,-1.3,31.81,,,,,,,,,,
14.37.14.664,-3.3,0.8,0,14.0,,96937.6,10.32,-0.06,0.46,0.88,-0.6,5.8,-1.2,31.81,,,,,,,,,,
14.37.14.676,-4.7,1.2,0,14.0,,96831.7,10.33,-0.06,0.45,0.88,0.0,5.4,-1.2,31.81,,,,,,,,,,
14.37.14.688,-9.7,2.4,0,14.0,,97469.0,10.26,-0.06,0.46,0.88,0.8,5.8,-1.3,31.81,,,,,,,,,,
14.37.14.701,-15.0,3.8,0,14.0,,95789.5,10.44,-0.06,0.46,0.88,1.5,5.8,-1.2,31.81,,,,,,,,,,
14.37.14.709,-13.3,3.3,0,14.0,,96410.9,10.37,-0.06,0.46,0.89,0.9,5.9,-1.5,31.81,,,,,,,,,,
14.37.14.721,-27.6,6.9,0,14.0,,95657.9,10.45,-0.06,0.46,0.88,0.6,5.8,-1.4,31.81,,,,,,,,,,
14.37.14.733,-39.7,9.9,0,14.0,,95961.4,10.42,-0.06,0.47,0.88,0.1,5.8,-1.3,31.81,,,,,,,,,,
14.37.14.742,-28.4,7.1,0,14.0,,96109.3,10.4,-0.06,0.46,0.88,0.6,5.3,-0.9,31.81,,,,,,,,,,
14.37.14.754,-43.5,10.9,0,14.0,,95787.5,10.44,-0.05,0.46,0.88,0.9,5.3,-1.0,31.81,,,,,,,,,,
14.37.14.766,-51.3,12.8,0,14.0,,97087.5,10.3,-0.06,0.46,0.88,1.4,5.5,-1.2,31.81,,,,,,,,,,
14.37.14.779,-51.2,12.8,0,14.0,,96315.8,10.38,-0.06,0.46,0.88,1.0,5.9,-1.5,31.81,,,,,,,,,,
14.37.14.787,-59.3,14.8,0,14.0,,96258.8,10.39,-0.06,0.47,0.89,0.3,5.8,-0.9,31.81,,,,,,,,,,
14.37.14.799,-45.9,11.5,0,14.0,,96735.4,10.34,-0.06,0.47,0.89,-0.6,5.7,-1.0,31.81,,,,,,,,,,
14.37.14.811,-72.7,18.2,0,14.0,,96689.4,10.34,-0.06,0.46,0.88,-1.2,6.4,-1.2,31.81,,,,,,,,,,
14.37.14.819,-60.1,15.0,0,14.0,,96154.8,10.4,-0.05,0.46,0.88,-0.5,6.4,-1.1,31.81,,,,,,,,,,
14.37.14.832,-75.2,18.8,0,14.0,,96222.2,10.39,-0.05,0.46,0.88,-0.1,6.5,-1.2,31.81,,,,,,,,,,
14.37.14.844,-83.5,20.9,0,14.0,,98159.7,10.19,-0.05,0.46,0.88,0.5,6.2,-1.2,31.81,,,,,,,,,,
14.37.14.852,-87.7,21.9,0,14.0,,95838.0,10.43,-0.06,0.47,0.88,0.2,5.8,-1.0,31.81,,,,,,,,,,
14.37.14.865,-85.4,21.4,0,14.0,,96011.2,10.42,-0.06,0.46,0.88,-0.6,5.8,-1.0,31.81,,,,,,,,,,
14.37.14.877,-82.6,20.6,0,14.0,,95462.7,10.48,-0.06,0.46,0.88,-1.3,5.9,-0.8,31.81,,,,,,,,,,
14.37.14.889,-92.0,23.0,0,14.0,,97096.2,10.3,-0.05,0.45,0.88,-0.1,6.2,-0.9,31.81,,,,,,,,,,
14.37.14.897,-84.9,21.2,0,14.0,,95181.4,10.51,-0.05,0.45,0.88,0.8,7.0,-1.1,31.81,,,,,,,,,,
14.37.14.910,-103.5,25.9,0,14.0,,96502.0,10.36,-0.05,0.46,0.88,1.5,8.1,-1.1,31.81,,,,,,,,,,
14.37.14.922,-114.8,28.7,0,14.0,,95291.6,10.49,-0.05,0.47,0.88,1.5,7.7,-1.4,31.81,,,,,,,,,,
14.37.14.930,-108.2,27.0,0,14.0,,97741.6,10.23,-0.06,0.47,0.88,0.6,6.7,-1.2,31.81,,,,,,,,,,
14.37.14.942,-124.2,31.0,0,14.0,,94659.8,10.56,-0.06,0.47,0.88,0.4,5.9,-1.4,31.81,,,,,,,,,,
14.37.14.955,-127.4,31.8,0,14.0,,95557.7,10.46,-0.07,0.46,0.88,0.1,5.8,-1.0,31.81,,,,,,,,,,
14.37.14.967,-127.1,31.8,0,14.0,,96047.7,10.41,-0.07,0.45,0.88,-0.2,4.7,-1.0,31.81,,,,,,,,,,
14.37.14.975,-2.0,0.5,1,15.0,83.2,97252.2,10.28,-0.06,0.45,0.89,0.4,5.2,-0.9,31.81,,,,,,,,,,
14.37.14.987,53.7,13.4,0,15.0,,94768.6,10.55,-0.06,0.46,0.88,0.7,6.1,-1.1,31.81,,,,,,,,,,
14.37.15.000,98.1,24.5,0,15.0,,96168.3,10.4,-0.05,0.47,0.88,0.1,7.2,-1.1,31.81,,,,,,,,,,
14.37.15.008,130.9,32.7,0,15.0,,95536.6,10.47,-0.06,0.47,0.88,-0.2,7.3,-1.2,31.81,,,,,,,,,,
14.37.15.020,167.0,41.8,0,15.0,,96506.7,10.36,-0.06,0.46,0.88,-0.4,6.8,-1.6,31.81,,,,,,,,,,
14.37.15.033,231.8,58.0,0,15.0,,96261.6,10.39,-0.06,0.46,0.88,-0.4,6.3,-1.4,31.81,,,,,,,,,,
14.37.15.041,242.8,60.7,0,15.0,,96142.0,10.4,-0.06,0.46,0.87,-0.1,5.7,-1.1,31.81,,,,,,,,,,
14.37.15.053,272.2,68.0,0,15.0,,96056.6,10.41,-0.06,0.46,0.88,0.4,5.1,-0.9,31.81,,,,,,,,,,
14.37.15.065,275.4,68.8,0,15.0,,96013.3,10.42,-0.06,0.45,0.88,1.2,5.2,-1.3,31.81,,,,,,,,,,
14.37.15.078,305.5,76.4,0,15.0,,95289.3,10.49,-0.06,0.45,0.88,2.2,5.9,-1.2,31.81,,,,,,,,,,
14.37.15.086,337.5,84.4,0,15.0,,94329.4,10.6,-0.06,0.46,0.88,3.1,5.8,-1.4,31.81,,,,,,,,,,
14.37.15.098,337.3,84.3,0,15.0,,95885.5,10.43,-0.06,0.47,0.88,2.2,6.2,-1.2,31.81,,,,,,,,,,
14.37.15.110,270.7,67.7,0,15.0,,96442.1,10.37,-0.05,0.47,0.88,1.4,6.4,-0.8,31.81,,,,,,,,,,
14.37.15.119,326.0,81.5,0,15.0,,96736.0,10.34,-0.06,0.46,0.88,0.7,6.5,-0.4,31.81,,,,,,,,,,
14.37.15.131,319.1,79.8,0,15.0,,95699.1,10.45,-0.07,0.49,0.86,-0.6,7.4,-0.3,31.81,,,,,,,,,,
14.37.15.143,273.7,68.4,0,15.0,,96986.4,10.31,-0.06,0.44,0.9,0.9,4.2,-1.0,31.81,,,,,,,,,,
14.37.15.155,248.1,62.0,0,15.0,,94909.8,10.54,-0.05,0.45,0.88,2.5,8.1,-0.6,31.81,,,,,,,,,,
14.37.15.164,221.0,55.2,0,15.0,,96551.9,10.36,-0.06,0.48,0.88,1.0,6.6,-0.4,31.81,,,,,,,,,,
14.37.15.176,151.7,37.9,0,15.0,,97080.5,10.3,-0.07,0.48,0.88,-1.2,6.8,-0.5,31.81,,,,,,,,,,
14.37.15.188,129.5,32.4,0,15.0,,96124.0,10.4,-0.06,0.45,0.88,-1.6,7.4,-0.5,31.81,,,,,,,,,,
14.37.15.196,92.0,23.0,0,15.0,,96079.5,10.41,-0.06,0.45,0.87,-0.1,6.0,-0.5,31.81,,,,,,,,,,
14.37.15.209,35.5,8.9,0,15.0,,96362.8,10.38,-0.06,0.47,0.88,-0.7,7.0,-0.6,31.81,,,,,,,,,,
14.37.15.221,-4.3,1.1,0,15.0,,95716.3,10.45,-0.06,0.48,0.89,-1.3,6.2,-0.6,31.81,,,,,,,,,,
14.37.15.233,22.2,5.6,0,15.0,,97503.5,10.26,-0.06,0.47,0.88,-2.1,5.9,-1.2,31.81,,,,,,,,,,
14.37.15.270,51.1,12.8,0,15.0,,95716.8,10.45,-0.06,0.47,0.88,-1.3,4.7,-2.5,31.81,,,,,,,,,,
14.37.15.282,58.5,14.6,0,15.0,,95767.3,10.44,-0.06,0.46,0.88,-1.4,4.0,-2.3,31.81,,,,,,,,,,
14.37.15.295,54.3,13.6,0,15.0,,96955.2,10.31,-0.06,0.46,0.88,-1.3,4.0,-2.4,31.81,,,,,,,,,,
14.37.15.303,46.3,11.6,0,15.0,,96351.7,10.38,-0.06,0.45,0.89,-0.2,3.7,-2.5,31.81,,,,,,,,,,
14.37.15.315,53.6,13.4,0,15.0,,96358.8,10.38,-0.05,0.45,0.89,0.3,4.6,-2.1,31.81,,,,,,,,,,
14.37.15.327,41.7,10.4,0,15.0,,95613.4,10.46,-0.05,0.45,0.88,1.2,4.3,-1.9,31.81,,,,,,,,,,
14.37.15.340,26.9,6.7,0,15.0,,95387.7,10.48,-0.05,0.45,0.88,1.8,5.1,-1.8,31.81,,,,,,,,,,
14.37.15.348,19.9,5.0,0,15.0,,96166.6,10.4,-0.05,0.46,0.88,1.7,5.9,-1.4,31.81,,,,,,,,,,
14.37.15.360,3.1,0.8,0,15.0,,95199.8,10.5,-0.06,0.46,0.89,1.2,5.8,-1.2,31.81,,,,,,,,,,
14.37.15.373,-0.7,0.2,0,15.0,,96732.0,10.34,-0.05,0.45,0.88,1.8,5.7,-0.9,31.81,,,,,,,,,,
14.37.15.381,-12.3,3.1,0,15.0,,95810.9,10.44,-0.05,0.45,0.87,1.9,7.5,-1.2,31.81,,,,,,,,,,
14.37.15.394,-14.0,3.5,0,15.0,,95588.3,10.46,-0.05,0.46,0.89,2.5,4.8,-0.8,31.81,,,,,,,,,,
14.37.15.405,-21.8,5.4,0,15.0,,97380.9,10.27,-0.06,0.47,0.88,1.7,6.4,-0.6,31.81,,,,,,,,,,
14.37.15.418,-21.9,5.5,0,15.0,,96786.0,10.33,-0.06,0.47,0.88,1.5,5.6,-1.3,31.81,,,,,,,,,,
14.37.15.426,-28.7,7.2,0,15.0,,95368.5,10.49,-0.06,0.47,0.88,0.6,5.3,-1.5,31.81,,,,,,,,,,
14.37.15.438,-32.5,8.1,0,15.0,,95315.6,10.49,-0.06,0.46,0.88,0.5,5.3,-1.6,31.81,,,,,,,,,,
14.37.15.450,-28.2,7.0,0,15.0,,95332.4,10.49,-0.06,0.46,0.88,0.4,5.3,-1.7,31.81,,,,,,,,,,
14.37.15.459,-49.0,12.2,0,15.0,,96878.3,10.32,-0.07,0.47,0.88,0.5,5.5,-1.3,31.81,,,,,,,,,,
14.37.15.471,-43.2,10.8,0,15.0,,95732.2,10.45,-0.06,0.47,0.87,0.4,5.5,-1.3,31.81,,,,,,,,,,
14.37.15.483,-40.6,10.2,0,15.0,,96863.0,10.32,-0.06,0.46,0.88,-0.5,5.6,-1.5,31.81,,,,,,,,,,
14.37.15.491,-57.9,14.5,0,15.0,,95474.7,10.47,-0.06,0.46,0.88,0.0,5.3,-1.3,31.81,,,,,,,,,,
14.37.15.504,-54.3,13.6,0,15.0,,96656.4,10.35,-0.06,0.46,0.88,0.9,5.1,-1.6,31.81,,,,,,,,,,
14.37.15.516,-53.0,13.2,0,15.0,,97932.9,10.21,-0.05,0.46,0.88,1.5,5.1,-1.5,31.81,,,,,,,,,,
14.37.15.528,-71.2,17.8,0,15.0,,96147.4,10.4,-0.06,0.45,0.88,1.5,5.8,-1.5,31.81,,,,,,,,,,
14.37.15.536,-80.2,20.0,0,15.0,,95652.0,10.45,-0.06,0.46,0.88,1.5,6.2,-1.2,31.81,,,,,,,,,,
14.37.15.549,-82.5,20.6,0,15.0,,95734.7,10.45,-0.06,0.47,0.87,0.7,6.2,-1.4,31.81,,,,,,,,,,
14.37.15.561,-88.8,22.2,0,15.0,,96833.2,10.33,-0.06,0.46,0.88,0.1,6.3,-1.0,31.81,,,,,,,,,,
14.37.15.569,-83.3,20.8,0,15.0,,95442.7,10.48,-0.06,0.46,0.88,0.0,6.0,-1.0,31.81,,,,,,,,,,
14.37.15.581,-88.7,22.2,0,15.0,,96435.0,10.37,-0.06,0.46,0.88,-0.1,6.0,-1.2,31.81,,,,,,,,,,
14.37.15.594,-106.4,26.6,0,15.0,,97954.0,10.21,-0.05,0.46,0.88,-0.1,5.8,-1.1,31.81,,,,,,,,,,
14.37.15.606,-109.2,27.3,0,15.0,,97553.4,10.25,-0.06,0.46,0.88,-0.5,5.9,-0.9,31.81,,,,,,,,,,
14.37.15.614,-112.0,28.0,0,15.0,,97053.4,10.3,-0.06,0.46,0.88,-0.7,5.8,-1.1,31.81,,,,,,,,,,
14.37.15.627,-129.4,32.4,0,15.0,,96442.0,10.37,-0.06,0.45,0.88,-0.1,5.6,-0.9,31.81,,,,,,,,,,
14.37.15.639,-122.3,30.6,0,15.0,,95758.4,10.44,-0.05,0.46,0.88,0.4,6.0,-0.9,31.81,,,,,,,,,,
14.37.15.647,-120.9,30.2,0,15.0,,96174.3,10.4,-0.05,0.46,0.88,0.4,6.1,-1.3,31.81,,,,,,,,,,
14.37.15.659,-122.0,30.5,0,15.0,,94466.8,10.59,-0.06,0.46,0.88,0.4,6.2,-1.3,31.81,,,,,,,,,,
14.37.15.672,-133.8,33.4,0,15.0,,95594.0,10.46,-0.06,0.46,0.88,0.0,5.8,-1.1,31.81,,,,,,,,,,
14.37.15.680,17.9,4.5,1,16.0,87.3,97562.2,10.25,-0.06,0.46,0.89,0.4,5.9,-1.3,31.81,,,,,,,,,,
14.37.15.692,62.6,15.6,0,16.0,,98337.0,10.17,-0.06,0.46,0.88,0.5,6.0,-1.2,31.81,,,,,,,,,,
14.37.15.704,124.9,31.2,0,16.0,,96091.9,10.41,-0.06,0.46,0.87,0.4,5.8,-1.5,31.81,,,,,,,,,,
14.37.15.717,177.0,44.2,0,16.0,,93650.8,10.68,-0.06,0.46,0.89,0.2,5.8,-1.5,31.81,,,,,,,,,,
14.37.15.725,201.8,50.4,0,16.0,,96089.2,10.41,-0.05,0.46,0.89,0.2,5.5,-1.4,31.81,,,,,,,,,,
14.37.15.737,232.5,58.1,0,16.0,,97443.2,10.26,-0.06,0.46,0.88,0.3,6.0,-1.2,31.81,,,,,,,,,,
14.37.15.749,235.6,58.9,0,16.0,,96994.9,10.31,-0.06,0.47,0.88,0.2,5.9,-1.5,31.81,,,,,,,,,,
14.37.15.759,264.7,66.2,0,16.0,,97426.3,10.26,-0.06,0.46,0.89,0.5,5.9,-1.2,31.81,,,,,,,,,,
14.37.15.770,279.0,69.8,0,16.0,,96178.8,10.4,-0.06,0.46,0.88,0.5,5.7,-1.4,31.81,,,,,,,,,,
14.37.15.782,313.4,78.4,0,16.0,,96292.6,10.39,-0.06,0.46,0.89,0.6,5.8,-1.0,31.81,,,,,,,,,,
14.37.15.795,352.9,88.2,0,16.0,,95570.5,10.46,-0.05,0.46,0.88,1.0,5.6,-1.3,31.81,,,,,,,,,,
14.37.15.803,303.8,76.0,0,16.0,,96709.1,10.34,-0.06,0.46,0.88,0.8,5.6,-1.5,31.81,,,,,,,,,,
14.37.15.815,322.7,80.7,0,16.0,,96032.1,10.41,-0.06,0.46,0.88,1.1,5.9,-1.4,31.81,,,,,,,,,,
14.37.15.827,300.0,75.0,0,16.0,,96430.6,10.37,-0.06,0.46,0.88,0.8,5.5,-1.2,31.81,,,,,,,,,,
14.37.15.835,277.2,69.3,0,16.0,,96548.2,10.36,-0.06,0.46,0.87,0.2,5.2,-1.1,31.81,,,,,,,,,,
14.37.15.848,251.9,63.0,0,16.0,,95988.1,10.42,-0.06,0.46,0.88,0.5,5.8,-1.3,31.81,,,,,,,,,,
14.37.15.860,234.6,58.6,0,16.0,,97497.0,10.26,-0.06,0.46,0.88,0.1,5.7,-1.0,31.81,,,,,,,,,,
14.37.15.868,207.9,52.0,0,16.0,,96769.3,10.33,-0.06,0.46,0.88,0.3,5.6,-1.1,31.81,,,,,,,,,,
14.37.15.881,156.3,39.1,0,16.0,,96072.4,10.41,-0.06,0.46,0.88,0.6,5.2,-1.1,31.81,,,,,,,,,,
14.37.15.893,126.7,31.7,0,16.0,,95589.9,10.46,-0.06,0.46,0.88,0.8,5.4,-1.4,31.81,,,,,,,,,,
14.37.15.905,68.2,17.0,0,16.0,,95366.6,10.49,-0.05,0.46,0.88,1.1,5.5,-0.8,31.81,,,,,,,,,,
14.37.15.913,38.1,9.5,0,16.0,,95592.1,10.46,-0.06,0.46,0.88,0.9,5.6,-1.0,31.81,,,,,,,,,,
14.37.15.926,3.6,0.9,0,16.0,,95894.1,10.43,-0.06,0.46,0.88,0.6,5.6,-1.1,31.81,,,,,,,,,,
14.37.15.938,22.1,5.5,0,16.0,,95629.8,10.46,-0.05,0.47,0.88,0.3,6.1,-1.3,31.81,,,,,,,,,,
14.37.15.946,39.4,9.8,0,16.0,,95182.1,10.51,-0.06,0.46,0.88,0.0,5.9,-1.1,31.81,,,,,,,,,,
14.37.15.959,47.2,11.8,0,16.0,,97227.6,10.29,-0.06,0.46,0.88,-0.2,5.9,-1.3,31.81,,,,,,,,,,
14.37.15.971,46.8,11.7,0,16.0,,95971.2,10.42,-0.05,0.46,0.88,-0.3,6.0,-1.4,31.81,,,,,,,,,,
14.37.15.983,58.0,14.5,0,16.0,,96857.1,10.32,-0.06,0.46,0.88,0.3,5.7,-1.2,31.81,,,,,,,,,,
14.37.15.991,72.3,18.1,0,16.0,,95950.1,10.42,-0.06,0.46,0.88,0.3,5.8,-1.2,31.81,,,,,,,,,,
14.37.16.003,57.1,14.3,0,16.0,,94955.3,10.53,-0.06,0.46,0.88,0.1,5.7,-1.1,31.81,,,,,,,,,,
14.37.16.016,46.6,11.6,0,16.0,,94871.3,10.54,-0.06,0.46,0.88,0.6,5.1,-1.2,31.81,,,,,,,,,,
14.37.16.025,41.5,10.4,0,16.0,,95377.7,10.48,-0.06,0.46,0.87,0.8,5.5,-1.2,31.81,,,,,,,,,,
14.37.16.036,29.6,7.4,0,16.0,,96755.9,10.34,-0.06,0.47,0.88,0.5,6.3,-1.2,31.81,,,,,,,,,,
14.37.16.077,-2.2,0.6,0,16.0,,96251.7,10.39,-0.06,0.46,0.88,-0.7,5.7,-1.6,31.75,,,,,,,,,,
14.37.16.089,-19.8,5.0,0,16.0,,96975.9,10.31,-0.06,0.46,0.89,-0.8,5.5,-1.4,31.75,,,,,,,,,,
14.37.16.098,-18.0,4.5,0,16.0,,96159.7,10.4,-0.06,0.46,0.88,-0.4,5.4,-1.6,31.75,,,,,,,,,,
14.37.16.110,-20.8,5.2,0,16.0,,95828.1,10.44,-0.06,0.46,0.88,-0.2,5.9,-1.4,31.75,,,,,,,,,,
14.37.16.122,-24.1,6.0,0,16.0,,96894.3,10.32,-0.06,0.46,0.89,0.2,5.8,-1.5,31.75,,,,,,,,,,
14.37.16.135,-31.0,7.8,0,16.0,,96771.9,10.33,-0.05,0.46,0.88,1.1,5.6,-1.4,31.75,,,,,,,,,,
14.37.16.143,-30.1,7.5,0,16.0,,96464.5,10.37,-0.06,0.47,0.88,0.7,5.2,-1.4,31.75,,,,,,,,,,
14.37.16.155,-43.4,10.8,0,16.0,,96862.0,10.32,-0.06,0.46,0.88,0.5,5.2,-1.6,31.75,,,,,,,,,,
14.37.16.167,-50.0,12.5,0,16.0,,95346.8,10.49,-0.06,0.46,0.88,0.5,5.8,-1.3,31.75,,,,,,,,,,
14.37.16.175,-46.4,11.6,0,16.0,,96050.1,10.41,-0.06,0.47,0.88,0.0,5.8,-1.3,31.75,,,,,,,,,,
14.37.16.188,-45.8,11.4,0,16.0,,97037.9,10.31,-0.06,0.47,0.89,-0.5,5.8,-1.4,31.75,,,,,,,,,,
14.37.16.200,-48.8,12.2,0,16.0,,96238.8,10.39,-0.06,0.46,0.88,-0.5,6.2,-1.4,31.75,,,,,,,,,,
14.37.16.212,-55.5,13.9,0,16.0,,97136.4,10.29,-0.05,0.46,0.88,-0.6,5.8,-1.4,31.75,,,,,,,,,,
14.37.16.221,-64.9,16.2,0,16.0,,96906.9,10.32,-0.06,0.46,0.88,-0.5,6.3,-1.5,31.75,,,,,,,,,,
14.37.16.233,-67.8,17.0,0,16.0,,97221.4,10.29,-0.06,0.46,0.87,-0.3,6.2,-1.0,31.75,,,,,,,,,,
14.37.16.245,-75.8,19.0,0,16.0,,97561.4,10.25,-0.06,0.46,0.88,-0.5,6.2,-1.1,31.75,,,,,,,,,,
14.37.16.257,-82.8,20.7,0,16.0,,95678.5,10.45,-0.06,0.46,0.88,-0.4,5.9,-1.5,31.75,,,,,,,,,,
14.37.16.266,-83.3,20.8,0,16.0,,98363.3,10.17,-0.06,0.46,0.88,-0.7,6.0,-1.3,31.75,,,,,,,,,,
14.37.16.278,-84.8,21.2,0,16.0,,96307.6,10.38,-0.05,0.46,0.88,-0.4,5.9,-1.4,31.75,,,,,,,,,,
14.37.16.290,-88.0,22.0,0,16.0,,96518.6,10.36,-0.05,0.46,0.88,0.0,5.5,-1.5,31.75,,,,,,,,,,
14.37.16.298,-97.9,24.5,0,16.0,,97315.0,10.28,-0.06,0.46,0.88,0.3,5.6,-1.2,31.75,,,,,,,,,,
14.37.16.311,-99.3,24.8,0,16.0,,96460.0,10.37,-0.06,0.46,0.89,0.3,5.7,-1.8,31.75,,,,,,,,,,
14.37.16.323,-115.9,29.0,0,16.0,,96627.5,10.35,-0.05,0.45,0.88,0.4,5.5,-1.4,31.75,,,,,,,,,,
14.37.16.331,-109.8,27.4,0,16.0,,97316.2,10.28,-0.05,0.46,0.88,0.8,5.8,-1.2,31.75,,,,,,,,,,
14.37.16.344,-114.9,28.7,0,16.0,,94869.1,10.54,-0.06,0.46,0.88,0.9,5.9,-1.2,31.75,,,,,,,,,,
14.37.16.356,-119.1,29.8,0,16.0,,97034.0,10.31,-0.06,0.45,0.89,0.9,5.8,-1.4,31.75,,,,,,,,,,
14.37.16.368,-123.7,30.9,0,16.0,,96174.4,10.4,-0.06,0.46,0.89,1.4,5.3,-1.4,31.75,,,,,,,,,,
14.37.16.377,-133.9,33.5,0,16.0,,96540.7,10.36,-0.06,0.46,0.88,1.0,5.9,-1.2,31.75,,,,,,,,,,
14.37.16.389,42.7,10.7,1,17.0,85.9,97041.4,10.3,-0.06,0.46,0.89,0.9,5.4,-1.3,31.75,,,,,,,,,,
14.37.16.401,102.0,25.5,0,17.0,,95080.0,10.52,-0.06,0.46,0.89,1.0,5.7,-1.3,31.75,,,,,,,,,,
14.37.16.409,119.7,29.9,0,17.0,,94601.0,10.57,-0.06,0.47,0.89,0.8,5.7,-1.2,31.75,,,,,,,,,,
14.37.16.421,167.6,41.9,0,17.0,,97781.4,10.23,-0.06,0.46,0.88,-0.2,5.9,-1.0,31.75,,,,,,,,,,
14.37.16.434,246.6,61.6,0,17.0,,96809.8,10.33,-0.06,0.46,0.88,-0.4,6.0,-1.3,31.75,,,,,,,,,,
14.37.16.442,236.4,59.1,0,17.0,,94849.2,10.54,-0.06,0.46,0.88,-0.8,6.0,-1.3,31.75,,,,,,,,,,
14.37.16.454,252.3,63.1,0,17.0,,98174.7,10.19,-0.06,0.46,0.88,-0.4,5.5,-1.2,31.75,,,,,,,,,,
14.37.16.466,314.3,78.6,0,17.0,,96217.6,10.39,-0.05,0.46,0.88,-0.1,5.8,-1.2,31.75,,,,,,,,,,
14.37.16.479,322.4,80.6,0,17.0,,96427.6,10.37,-0.05,0.46,0.89,0.2,5.5,-1.5,31.75,,,,,,,,,,
14.37.16.487,301.0,75.2,0,17.0,,97004.4,10.31,-0.06,0.46,0.88,0.3,5.9,-1.3,31.75,,,,,,,,,,
14.37.16.499,332.7,83.2,0,17.0,,96518.1,10.36,-0.06,0.46,0.88,0.5,5.8,-1.5,31.75,,,,,,,,,,
14.37.16.511,350.4,87.6,0,17.0,,94652.3,10.56,-0.06,0.46,0.88,-0.2,6.2,-1.4,31.75,,,,,,,,,,
14.37.16.520,303.0,75.8,0,17.0,,94416.0,10.59,-0.06,0.46,0.88,-0.6,6.0,-1.5,31.75,,,,,,,,,,
14.37.16.532,293.9,73.5,0,17.0,,98557.4,10.15,-0.06,0.46,0.88,-0.3,5.7,-1.2,31.75,,,,,,,,,,
14.37.16.544,264.2,66.0,0,17.0,,97117.7,10.3,-0.06,0.46,0.89,-0.4,5.7,-1.3,31.75,,,,,,,,,,
14.37.16.557,232.3,58.1,0,17.0,,96546.8,10.36,-0.06,0.45,0.88,0.5,5.7,-1.2,31.75,,,,,,,,,,
14.37.16.565,197.0,49.2,0,17.0,,95578.8,10.46,-0.05,0.45,0.88,1.0,5.8,-1.3,31.75,,,,,,,,,,
14.37.16.577,176.8,44.2,0,17.0,,96322.9,10.38,-0.06,0.46,0.89,1.0,5.9,-1.3,31.75,,,,,,,,,,
14.37.16.589,132.9,33.2,0,17.0,,95205.2,10.5,-0.06,0.46,0.89,0.7,5.8,-1.3,31.75,,,,,,,,,,
14.37.16.597,105.2,26.3,0,17.0,,96932.7,10.32,-0.06,0.47,0.88,0.8,5.7,-1.2,31.75,,,,,,,,,,
14.37.16.610,59.5,14.9,0,17.0,,95463.4,10.48,-0.06,0.47,0.87,-0.2,6.1,-1.1,31.75,,,,,,,,,,
14.37.16.622,1.0,0.2,0,17.0,,95751.4,10.44,-0.06,0.45,0.88,-0.4,5.8,-1.0,31.75,,,,,,,,,,
14.37.16.634,19.9,5.0,0,17.0,,97591.3,10.25,-0.06,0.45,0.88,0.3,5.7,-1.3,31.75,,,,,,,,,,
14.37.16.643,21.4,5.4,0,17.0,,95916.6,10.43,-0.05,0.46,0.88,0.8,5.8,-1.4,31.75,,,,,,,,,,
14.37.16.655,32.6,8.2,0,17.0,,96469.4,10.37,-0.06,0.46,0.88,0.8,5.6,-1.2,31.75,,,,,,,,,,
14.37.16.667,50.7,12.7,0,17.0,,95707.2,10.45,-0.06,0.46,0.89,0.7,5.7,-1.1,31.75,,,,,,,,,,
14.37.16.675,44.6,11.2,0,17.0,,96049.5,10.41,-0.06,0.46,0.88,0.5,5.4,-1.2,31.75,,,,,,,,,,
14.37.16.688,50.0,12.5,0,17.0,,95478.0,10.47,-0.05,0.46,0.88,0.6,5.8,-1.4,31.75,,,,,,,,,,
14.37.16.700,56.9,14.2,0,17.0,,98277.8,10.18,-0.06,0.46,0.88,0.6,5.6,-1.2,31.75,,,,,,,,,,
14.37.16.712,50.2,12.6,0,17.0,,95383.4,10.48,-0.06,0.45,0.88,0.6,6.0,-1.3,31.75,,,,,,,,,,
14.37.16.720,43.7,10.9,0,17.0,,96648.4,10.35,-0.06,0.46,0.88,1.0,5.7,-1.2,31.75,,,,,,,,,,
14.37.16.733,25.3,6.3,0,17.0,,96826.8,10.33,-0.05,0.46,0.88,0.4,5.7,-1.2,31.75,,,,,,,,,,
14.37.16.745,26.3,6.6,0,17.0,,96575.6,10.35,-0.06,0.46,0.88,0.7,5.6,-1.4,31.75,,,,,,,,,,
14.37.16.757,-2.9,0.7,0,17.0,,96158.2,10.4,-0.06,0.46,0.88,0.0,6.0,-1.5,31.75,,,,,,,,,,
14.37.16.765,-2.5,0.6,0,17.0,,96327.3,10.38,-0.06,0.46,0.87,-0.2,6.3,-1.3,31.75,,,,,,,,,,
14.37.16.778,-4.3,1.1,0,17.0,,96831.5,10.33,-0.06,0.46,0.88,-0.3,6.2,-1.5,31.75,,,,,,,,,,
14.37.16.790,-18.9,4.7,0,17.0,,95043.8,10.52,-0.06,0.46,0.88,-0.4,6.2,-1.2,31.75,,,,,,,,,,
14.37.16.798,-16.2,4.0,0,17.0,,95056.1,10.52,-0.06,0.46,0.88,-0.3,6.7,-1.0,31.75,,,,,,,,,,
14.37.16.810,-17.9,4.5,0,17.0,,95754.7,10.44,-0.05,0.46,0.88,-0.3,6.0,-0.9,31.75,,,,,,,,,,
14.37.16.823,-25.0,6.2,0,17.0,,95949.0,10.42,-0.05,0.45,0.88,0.8,5.6,-1.2,31.75,,,,,,,,,,
14.37.16.835,-29.6,7.4,0,17.0,,95787.9,10.44,-0.05,0.46,0.88,1.0,5.7,-1.2,31.75,,,,,,,,,,
14.37.16.872,-49.7,12.4,0,17.0,,96238.3,10.39,-0.05,0.46,0.88,1.3,5.5,-1.4,31.81,,,,,,,,,,
14.37.16.884,-55.9,14.0,0,17.0,,96011.1,10.42,-0.06,0.46,0.88,0.7,6.4,-1.5,31.81,,,,,,,,,,
14.37.16.892,-35.5,8.9,0,17.0,,95989.2,10.42,-0.06,0.46,0.88,0.2,6.3,-1.3,31.81,,,,,,,,,,
14.37.16.905,-62.6,15.6,0,17.0,,95695.7,10.45,-0.06,0.46,0.88,0.0,6.2,-1.1,31.81,,,,,,,,,,
14.37.16.917,-63.5,15.9,0,17.0,,96405.4,10.37,-0.06,0.46,0.88,-0.3,5.6,-1.3,31.81,,,,,,,,,,
14.37.16.929,-70.2,17.6,0,17.0,,96322.5,10.38,-0.06,0.45,0.89,0.0,5.5,-1.3,31.81,,,,,,,,,,
14.37.16.938,-72.8,18.2,0,17.0,,96969.4,10.31,-0.06,0.46,0.89,0.9,5.6,-1.4,31.81,,,,,,,,,,
14.37.16.950,-78.8,19.7,0,17.0,,95649.5,10.45,-0.06,0.46,0.89,0.9,5.7,-1.4,31.81,,,,,,,,,,
14.37.16.958,-81.1,20.3,0,17.0,,96085.6,10.41,-0.06,0.46,0.88,1.0,5.6,-1.3,31.81,,,,,,,,,,
14.37.16.970,-85.3,21.3,0,17.0,,94862.0,10.54,-0.06,0.46,0.88,0.8,5.3,-1.5,31.81,,,,,,,,,,
14.37.16.979,-86.5,21.6,0,17.0,,97268.1,10.28,-0.06,0.46,0.88,0.2,5.2,-1.4,31.81,,,,,,,,,,
14.37.16.991,-88.8,22.2,0,17.0,,96883.6,10.32,-0.06,0.46,0.87,-0.2,5.7,-1.4,31.81,,,,,,,,,,
14.37.16.999,-84.6,21.2,0,17.0,,97563.5,10.25,-0.06,0.46,0.87,-0.8,5.4,-1.3,31.81,,,,,,,,,,
14.37.17.011,-105.8,26.4,0,17.0,,96886.8,10.32,-0.06,0.45,0.88,-0.4,5.8,-1.3,31.81,,,,,,,,,,
14.37.17.019,-104.8,26.2,0,17.0,,96517.1,10.36,-0.05,0.45,0.89,-0.3,5.7,-1.6,31.81,,,,,,,,,,
14.37.17.032,-115.3,28.8,0,17.0,,96523.8,10.36,-0.05,0.45,0.89,-0.4,6.4,-1.4,31.81,,,,,,,,,,
14.37.17.040,-116.6,29.2,0,17.0,,96998.9,10.31,-0.06,0.46,0.88,-0.3,6.4,-1.3,31.81,,,,,,,,,,
14.37.17.052,-112.3,28.1,0,17.0,,95819.6,10.44,-0.06,0.46,0.87,-0.1,6.2,-1.4,31.81,,,,,,,,,,
14.37.17.061,-106.9,26.7,0,17.0,,96687.2,10.34,-0.06,0.46,0.88,-0.9,6.2,-1.5,31.81,,,,,,,,,,
14.37.17.073,-119.1,29.8,0,17.0,,97133.6,10.3,-0.06,0.46,0.88,-0.6,5.6,-1.2,31.81,,,,,,,,,,
14.37.17.081,5.5,1.4,1,18.0,86.3,95970.7,10.42,-0.06,0.45,0.88,-0.1,5.8,-1.7,31.81,,,,,,,,,,
14.37.17.093,64.7,16.2,0,18.0,,95989.2,10.42,-0.06,0.46,0.88,-0.3,5.5,-1.4,31.81,,,,,,,,,,
14.37.17.101,83.4,20.8,0,18.0,,94415.0,10.59,-0.05,0.45,0.89,0.3,5.6,-1.7,31.81,,,,,,,,,,
14.37.17.114,145.0,36.2,0,18.0,,96681.4,10.34,-0.05,0.45,0.88,0.9,5.7,-1.4,31.81,,,,,,,,,,
14.37.17.122,171.2,42.8,0,18.0,,97579.8,10.25,-0.06,0.45,0.89,1.3,5.9,-1.4,31.81,,,,,,,,,,
14.37.17.134,203.7,50.9,0,18.0,,96421.9,10.37,-0.06,0.46,0.88,1.1,5.7,-1.3,31.81,,,,,,,,,,
14.37.17.142,246.0,61.5,0,18.0,,96214.6,10.39,-0.06,0.46,0.88,0.3,6.3,-1.4,31.81,,,,,,,,,,
14.37.17.155,265.6,66.4,0,18.0,,95390.9,10.48,-0.06,0.46,0.89,-0.3,6.1,-1.0,31.81,,,,,,,,,,
14.37.17.163,284.8,71.2,0,18.0,,97266.2,10.28,-0.06,0.46,0.88,-0.8,6.1,-0.9,31.81,,,,,,,,,,
14.37.17.175,277.8,69.4,0,18.0,,97172.8,10.29,-0.06,0.45,0.88,-0.7,6.6,-0.7,31.81,,,,,,,,,,
14.37.17.183,300.2,75.0,0,18.0,,97385.1,10.27,-0.06,0.45,0.88,-0.5,6.2,-0.9,31.81,,,,,,,,,,
14.37.17.196,309.0,77.2,0,18.0,,97210.1,10.29,-0.06,0.45,0.88,0.0,6.0,-1.1,31.81,,,,,,,,,,
14.37.17.208,319.4,79.8,0,18.0,,96977.7,10.31,-0.05,0.45,0.88,0.9,5.4,-1.3,31.81,,,,,,,,,,
14.37.17.220,299.0,74.8,0,18.0,,95382.5,10.48,-0.06,0.46,0.88,0.9,5.2,-1.4,31.81,,,,,,,,,,
14.37.17.228,290.2,72.6,0,18.0,,95127.6,10.51,-0.06,0.46,0.89,1.1,5.3,-1.6,31.81,,,,,,,,,,
14.37.17.241,274.7,68.7,0,18.0,,96420.6,10.37,-0.05,0.46,0.88,0.9,5.4,-1.1,31.81,,,,,,,,,,
14.37.17.249,259.2,64.8,0,18.0,,96450.6,10.37,-0.05,0.46,0.88,1.2,4.8,-1.1,31.81,,,,,,,,,,
14.37.17.261,239.1,59.8,0,18.0,,94492.1,10.58,-0.06,0.46,0.88,1.5,5.5,-1.4,31.81,,,,,,,,,,
14.37.17.269,197.8,49.4,0,18.0,,96904.3,10.32,-0.06,0.46,0.88,1.5,5.6,-1.3,31.81,,,,,,,,,,
14.37.17.282,160.9,40.2,0,18.0,,97692.8,10.24,-0.06,0.46,0.88,1.2,6.1,-1.2,31.81,,,,,,,,,,
14.37.17.290,135.9,34.0,0,18.0,,97270.6,10.28,-0.07,0.45,0.88,1.0,6.1,-1.2,31.81,,,,,,,,,,
14.37.17.302,88.9,22.2,0,18.0,,96788.1,10.33,-0.07,0.46,0.88,0.5,6.3,-1.5,31.81,,,,,,,,,,
14.37.17.310,50.1,12.5,0,18.0,,95715.7,10.45,-0.06,0.46,0.88,-0.4,6.5,-1.2,31.81,,,,,,,,,,
14.37.17.323,8.5,2.1,0,18.0,,95447.8,10.48,-0.06,0.46,0.88,-1.0,6.0,-1.7,31.81,,,,,,,,,,
14.37.17.331,8.7,2.2,0,18.0,,96244.8,10.39,-0.06,0.46,0.88,-1.2,5.7,-1.3,31.81,,,,,,,,,,
14.37.17.343,16.0,4.0,0,18.0,,97463.0,10.26,-0.06,0.46,0.88,-0.5,5.3,-1.2,31.81,,,,,,,,,,
14.37.17.355,38.2,9.6,0,18.0,,97180.6,10.29,-0.06,0.46,0.88,-0.7,5.4,-1.3,31.81,,,,,,,,,,
14.37.17.364,54.8,13.7,0,18.0,,94800.1,10.55,-0.05,0.46,0.89,-0.1,4.9,-1.3,31.81,,,,,,,,,,
14.37.17.376,50.1,12.5,0,18.0,,95654.7,10.45,-0.05,0.46,0.88,1.0,5.3,-1.3,31.81,,,,,,,,,,
14.37.17.384,49.5,12.4,0,18.0,,94228.7,10.61,-0.06,0.46,0.88,1.6,5.7,-1.3,31.81,,,,,,,,,,
14.37.17.396,57.1,14.3,0,18.0,,95305.4,10.49,-0.06,0.45,0.88,1.4,5.7,-1.3,31.81,,,,,,,,,,
14.37.17.405,68.5,17.1,0,18.0,,96014.8,10.42,-0.06,0.46,0.89,1.1,6.0,-1.2,31.81,,,,,,,,,,
14.37.17.417,53.8,13.4,0,18.0,,95477.3,10.47,-0.06,0.46,0.89,1.0,5.7,-1.1,31.81,,,,,,,,,,
14.37.17.425,43.6,10.9,0,18.0,,96664.9,10.35,-0.06,0.46,0.89,0.8,5.4,-1.3,31.81,,,,,,,,,,
14.37.17.437,22.1,5.5,0,18.0,,96655.0,10.35,-0.06,0.45,0.88,1.3,5.2,-1.2,31.81,,,,,,,,,,
14.37.17.446,20.6,5.2,0,18.0,,96576.1,10.35,-0.06,0.45,0.88,1.5,5.4,-1.2,31.81,,,,,,,,,,
14.37.17.458,7.4,1.8,0,18.0,,97576.2,10.25,-0.05,0.46,0.89,1.6,5.3,-1.1,31.81,,,,,,,,,,
14.37.17.466,4.2,1.0,0,18.0,,96637.8,10.35,-0.05,0.46,0.88,1.8,5.7,-1.2,31.81,,,,,,,,,,
14.37.17.479,-9.3,2.3,0,18.0,,96218.2,10.39,-0.06,0.46,0.88,1.4,5.9,-1.2,31.81,,,,,,,,,,
14.37.17.486,-4.8,1.2,0,18.0,,96194.5,10.4,-0.06,0.46,0.88,1.1,5.8,-1.1,31.81,,,,,,,,,,
14.37.17.499,-14.8,3.7,0,18.0,,96820.9,10.33,-0.06,0.46,0.88,1.0,5.7,-1.2,31.81,,,,,,,,,,
14.37.17.507,-12.2,3.0,0,18.0,,96674.2,10.34,-0.06,0.46,0.88,0.4,5.7,-1.2,31.81,,,,,,,,,,
14.37.17.519,-16.7,4.2,0,18.0,,97221.4,10.29,-0.06,0.46,0.88,0.4,5.9,-0.9,31.81,,,,,,,,,,
14.37.17.527,-30.1,7.5,0,18.0,,94695.3,10.56,-0.06,0.45,0.89,0.6,6.0,-1.2,31.81,,,,,,,,,,
14.37.17.540,-22.1,5.5,0,18.0,,97478.3,10.26,-0.05,0.46,0.89,1.3,6.0,-0.9,31.81,,,,,,,,,,
14.37.17.548,-39.8,10.0,0,18.0,,95164.2,10.51,-0.05,0.46,0.88,2.2,6.3,-1.3,31.81,,,,,,,,,,
14.37.17.560,-36.9,9.2,0,18.0,,96653.7,10.35,-0.05,0.46,0.88,1.7,6.3,-1.0,31.81,,,,,,,,,,
14.37.17.568,-45.1,11.3,0,18.0,,96961.4,10.31,-0.06,0.46,0.88,1.1,6.6,-1.2,31.81,,,,,,,,,,
14.37.17.581,-56.6,14.2,0,18.0,,96731.1,10.34,-0.06,0.46,0.88,0.7,6.3,-1.0,31.81,,,,,,,,,,
14.37.17.589,-46.8,11.7,0,18.0,,96478.5,10.37,-0.06,0.46,0.88,0.4,5.7,-1.0,31.81,,,,,,,,,,
14.37.17.601,-60.9,15.2,0,18.0,,96594.3,10.35,-0.06,0.46,0.88,0.2,5.8,-1.1,31.81,,,,,,,,,,
14.37.17.610,-53.1,13.3,0,18.0,,95657.9,10.45,-0.06,0.46,0.88,-0.7,5.8,-1.2,31.81,,,,,,,,,,
14.37.17.623,-56.8,14.2,0,18.0,,96464.7,10.37,-0.06,0.46,0.88,-0.3,5.7,-1.1,31.81,,,,,,,,,,
14.37.17.630,-55.6,13.9,0,18.0,,96782.7,10.33,-0.06,0.46,0.88,0.2,5.8,-1.0,31.81,,,,,,,,,,
14.37.17.642,-81.4,20.4,0,18.0,,96896.1,10.32,-0.06,0.46,0.88,0.0,5.6,-1.2,31.81,,,,,,,,,,
14.37.17.680,-86.7,21.7,0,18.0,,96495.6,10.36,-0.05,0.46,0.88,-0.1,5.3,-1.1,31.81,,,,,,,,,,
14.37.17.687,-85.2,21.3,0,18.0,,97117.9,10.3,-0.06,0.46,0.89,0.4,5.4,-1.3,31.81,,,,,,,,,,
14.37.17.704,-97.3,24.3,0,18.0,,97203.0,10.29,-0.06,0.46,0.88,0.5,5.8,-0.9,31.81,,,,,,,,,,
14.37.17.712,-102.7,25.7,0,18.0,,96824.6,10.33,-0.05,0.46,0.88,0.8,5.7,-1.3,31.81,,,,,,,,,,
14.37.17.724,-101.7,25.4,0,18.0,,96643.9,10.35,-0.06,0.46,0.88,0.6,5.9,-1.1,31.81,,,,,,,,,,
14.37.17.732,-116.0,29.0,0,18.0,,95246.3,10.5,-0.06,0.46,0.88,0.7,5.8,-1.2,31.81,,,,,,,,,,
14.37.17.745,-115.2,28.8,0,18.0,,95343.1,10.49,-0.06,0.46,0.88,0.7,5.8,-1.2,31.81,,,,,,,,,,
14.37.17.753,-118.9,29.7,0,18.0,,97475.7,10.26,-0.05,0.46,0.88,0.8,5.7,-1.3,31.81,,,,,,,,,,
14.37.17.765,-126.3,31.6,0,18.0,,96388.9,10.37,-0.06,0.46,0.88,0.5,5.4,-1.5,31.81,,,,,,,,,,
14.37.17.773,-118.4,29.6,0,18.0,,97068.3,10.3,-0.05,0.46,0.88,0.5,5.3,-1.5,31.81,,,,,,,,,,
14.37.17.786,20.5,5.1,1,19.0,83.5,97670.8,10.24,-0.05,0.45,0.88,0.6,5.7,-1.2,31.81,,,,,,,,,,
14.37.17.794,71.1,17.8,0,19.0,,96208.9,10.39,-0.06,0.46,0.88,0.8,5.9,-1.3,31.81,,,,,,,,,,
14.37.17.806,100.4,25.1,0,19.0,,97362.0,10.27,-0.05,0.46,0.88,0.7,6.2,-1.4,31.81,,,,,,,,,,
14.37.17.814,155.8,39.0,0,19.0,,96075.4,10.41,-0.06,0.46,0.88,0.6,6.1,-1.2,31.81,,,,,,,,,,
14.37.17.827,176.3,44.1,0,19.0,,95235.7,10.5,-0.05,0.46,0.89,0.1,5.9,-1.2,31.81,,,,,,,,,,
14.37.17.835,213.0,53.2,0,19.0,,96793.5,10.33,-0.06,0.46,0.88,0.1,6.0,-1.0,31.81,,,,,,,,,,
14.37.17.847,264.9,66.2,0,19.0,,97356.7,10.27,-0.06,0.46,0.88,0.2,5.7,-1.3,31.81,,,,,,,,,,
14.37.17.855,271.4,67.8,0,19.0,,97482.8,10.26,-0.06,0.46,0.89,0.0,5.4,-1.1,31.81,,,,,,,,,,
14.37.17.867,304.2,76.0,0,19.0,,96453.1,10.37,-0.06,0.46,0.88,-0.1,5.3,-1.2,31.81,,,,,,,,,,
14.37.17.876,281.9,70.5,0,19.0,,95975.6,10.42,-0.06,0.46,0.88,0.2,4.9,-1.3,31.81,,,,,,,,,,
14.37.17.888,326.8,81.7,0,19.0,,95542.2,10.47,-0.06,0.46,0.88,-0.3,5.0,-1.5,31.81,,,,,,,,,,
14.37.17.896,318.1,79.5,0,19.0,,95573.6,10.46,-0.06,0.46,0.88,0.0,5.0,-1.3,31.81,,,,,,,,,,
14.37.17.908,296.2,74.0,0,19.0,,96569.9,10.36,-0.05,0.46,0.88,0.3,5.2,-1.2,31.81,,,,,,,,,,
14.37.17.917,313.0,78.2,0,19.0,,98726.2,10.13,-0.05,0.46,0.88,0.3,5.1,-1.4,31.81,,,,,,,,,,
14.37.17.929,273.5,68.4,0,19.0,,96733.1,10.34,-0.05,0.46,0.89,0.4,5.6,-1.5,31.81,,,,,,,,,,
14.37.17.937,292.9,73.2,0,19.0,,96609.7,10.35,-0.05,0.46,0.88,0.6,5.7,-1.7,31.81,,,,,,,,,,
14.37.17.949,266.1,66.5,0,19.0,,96784.0,10.33,-0.05,0.46,0.88,0.6,5.5,-1.4,31.81,,,,,,,,,,
14.37.17.958,242.6,60.6,0,19.0,,96157.4,10.4,-0.05,0.46,0.89,0.2,5.9,-1.2,31.81,,,,,,,,,,
14.37.17.970,208.2,52.0,0,19.0,,96985.2,10.31,-0.06,0.46,0.88,0.0,5.7,-1.2,31.81,,,,,,,,,,
14.37.17.982,153.2,38.3,0,19.0,,96092.7,10.41,-0.05,0.45,0.88,0.3,5.5,-1.1,31.81,,,,,,,,,,
14.37.17.990,150.1,37.5,0,19.0,,97569.8,10.25,-0.05,0.46,0.88,1.0,5.9,-1.2,31.81,,,,,,,,,,
14.37.18.003,104.0,26.0,0,19.0,,95855.3,10.43,-0.06,0.46,0.89,0.9,5.9,-1.4,31.81,,,,,,,,,,
14.37.18.011,53.6,13.4,0,19.0,,95947.8,10.42,-0.06,0.46,0.89,0.8,6.3,-1.2,31.81,,,,,,,,,,
14.37.18.023,6.9,1.7,0,19.0,,96552.7,10.36,-0.06,0.46,0.88,0.9,5.9,-1.1,31.81,,,,,,,,,,
14.37.18.031,2.1,0.5,0,19.0,,96211.6,10.39,-0.05,0.46,0.88,0.9,5.9,-1.3,31.81,,,,,,,,,,
14.37.18.044,24.5,6.1,0,19.0,,97052.6,10.3,-0.05,0.46,0.88,0.8,5.6,-0.9,31.81,,,,,,,,,,
14.37.18.052,27.7,6.9,0,19.0,,96896.5,10.32,-0.06,0.45,0.88,1.0,5.7,-1.1,31.81,,,,,,,,,,
14.37.18.064,61.4,15.4,0,19.0,,96411.7,10.37,-0.05,0.46,0.88,1.3,5.6,-1.1,31.81,,,,,,,,,,
14.37.18.072,49.4,12.4,0,19.0,,96434.7,10.37,-0.05,0.46,0.89,1.1,6.0,-1.5,31.81,,,,,,,,,,
14.37.18.085,49.9,12.5,0,19.0,,96239.0,10.39,-0.05,0.46,0.88,1.2,6.0,-1.2,31.81,,,,,,,,,,
14.37.18.093,62.3,15.6,0,19.0,,96379.6,10.38,-0.06,0.46,0.88,1.0,5.9,-1.2,31.81,,,,,,,,,,
14.37.18.105,50.6,12.6,0,19.0,,94803.6,10.55,-0.06,0.47,0.88,0.8,5.8,-1.5,31.81,,,,,,,,,,
14.37.18.113,47.9,12.0,0,19.0,,94857.5,10.54,-0.06,0.46,0.88,0.6,5.9,-1.5,31.81,,,,,,,,,,
14.37.18.126,41.5,10.4,0,19.0,,94652.5,10.56,-0.06,0.46,0.89,0.4,5.5,-1.4,31.81,,,,,,,,,,
14.37.18.134,33.3,8.3,0,19.0,,96619.8,10.35,-0.06,0.46,0.88,0.6,6.0,-1.1,31.81,,,,,,,,,,
14.37.18.146,22.6,5.6,0,19.0,,97000.8,10.31,-0.06,0.46,0.89,0.5,5.9,-1.1,31.81,,,,,,,,,,
14.37.18.154,10.4,2.6,0,19.0,,95575.5,10.46,-0.05,0.45,0.88,0.6,6.0,-1.3,31.81,,,,,,,,,,
14.37.18.167,-1.0,0.2,0,19.0,,96592.7,10.35,-0.05,0.46,0.88,0.8,6.0,-1.1,31.81,,,,,,,,,,
14.37.18.175,1.1,0.3,0,19.0,,97554.5,10.25,-0.06,0.46,0.88,0.7,6.2,-1.1,31.81,,,,,,,,,,
14.37.18.187,-10.1,2.5,0,19.0,,96872.9,10.32,-0.06,0.46,0.88,1.0,6.4,-1.0,31.81,,,,,,,,,,
14.37.18.195,-11.3,2.8,0,19.0,,95785.5,10.44,-0.06,0.46,0.88,1.3,5.7,-1.0,31.81,,,,,,,,,,
14.37.18.208,-0.9,0.2,0,19.0,,94949.6,10.53,-0.06,0.46,0.88,0.7,6.0,-1.4,31.81,,,,,,,,,,
14.37.18.216,-23.0,5.8,0,19.0,,96402.8,10.37,-0.06,0.46,0.88,0.2,5.9,-1.2,31.81,,,,,,,,,,
14.37.18.228,-23.2,5.8,0,19.0,,96596.4,10.35,-0.06,0.46,0.88,-0.4,6.0,-1.1,31.81,,,,,,,,,,
14.37.18.236,-31.8,8.0,0,19.0,,96199.1,10.4,-0.06,0.46,0.89,0.0,5.8,-1.0,31.81,,,,,,,,,,
14.37.18.248,-34.9,8.7,0,19.0,,95529.8,10.47,-0.05,0.46,0.88,0.4,5.9,-1.1,31.81,,,,,,,,,,
14.37.18.257,-37.6,9.4,0,19.0,,97225.0,10.29,-0.05,0.46,0.88,0.7,6.1,-1.3,31.81,,,,,,,,,,
14.37.18.269,-42.1,10.5,0,19.0,,97275.0,10.28,-0.05,0.46,0.89,0.9,6.4,-1.4,31.81,,,,,,,,,,
14.37.18.277,-54.1,13.5,0,19.0,,96758.6,10.33,-0.06,0.46,0.88,0.9,6.1,-1.0,31.81,,,,,,,,,,
14.37.18.289,-44.8,11.2,0,19.0,,94991.2,10.53,-0.06,0.46,0.88,0.9,6.6,-1.2,31.81,,,,,,,,,,
14.37.18.298,-53.8,13.4,0,19.0,,95687.3,10.45,-0.06,0.46,0.88,0.6,6.2,-0.9,31.81,,,,,,,,,,
14.37.18.310,-61.9,15.5,0,19.0,,97013.1,10.31,-0.06,0.46,0.88,0.4,6.3,-1.1,31.81,,,,,,,,,,
14.37.18.318,-52.4,13.1,0,19.0,,96349.2,10.38,-0.06,0.46,0.88,0.0,6.3,-1.1,31.81,,,,,,,,,,
14.37.18.330,-56.8,14.2,0,19.0,,95387.7,10.48,-0.06,0.46,0.89,-0.4,6.1,-1.0,31.81,,,,,,,,,,
14.37.18.339,-53.1,13.3,0,19.0,,96206.3,10.39,-0.06,0.46,0.88,-0.5,6.3,-1.2,31.81,,,,,,,,,,
14.37.18.351,-70.9,17.7,0,19.0,,97030.5,10.31,-0.06,0.46,0.87,-0.3,6.1,-1.3,31.81,,,,,,,,,,
14.37.18.359,-73.9,18.5,0,19.0,,95691.5,10.45,-0.06,0.46,0.88,-0.3,5.7,-1.2,31.81,,,,,,,,,,
14.37.18.371,-87.8,22.0,0,19.0,,97760.7,10.23,-0.05,0.46,0.88,-0.4,6.0,-1.3,31.81,,,,,,,,,,
14.37.18.384,-88.7,22.2,0,19.0,,96106.6,10.41,-0.06,0.46,0.88,0.0,5.8,-1.4,31.81,,,,,,,,,,
14.37.18.396,-106.9,26.7,0,19.0,,96105.7,10.41,-0.05,0.46,0.89,0.5,5.9,-1.1,31.81,,,,,,,,,,
14.37.18.404,-90.1,22.5,0,19.0,,96610.0,10.35,-0.05,0.45,0.89,0.9,5.7,-1.5,31.81,,,,,,,,,,
14.37.18.416,-105.4,26.4,0,19.0,,96625.9,10.35,-0.05,0.46,0.89,1.2,6.1,-1.4,31.81,,,,,,,,,,
14.37.18.425,-105.4,26.4,0,19.0,,95917.4,10.43,-0.06,0.47,0.88,0.8,5.8,-1.5,31.81,,,,,,,,,,
14.37.18.437,-106.8,26.7,0,19.0,,95162.1,10.51,-0.06,0.46,0.87,0.0,5.9,-1.5,31.81,,,,,,,,,,
14.37.18.449,-112.0,28.0,0,19.0,,96346.1,10.38,-0.06,0.46,0.88,0.1,5.1,-1.0,31.81,,,,,,,,,,
14.37.18.490,45.1,11.3,1,20.0,85.5,96809.7,10.33,-0.06,0.46,0.88,0.6,6.1,-1.4,31.81,,,,,,,,,,
14.37.18.499,68.0,17.0,0,20.0,,96330.1,10.38,-0.06,0.46,0.88,0.2,6.2,-1.4,31.81,,,,,,,,,,
14.37.18.511,121.5,30.4,0,20.0,,95213.1,10.5,-0.06,0.47,0.88,-0.1,6.0,-1.1,31.81,,,,,,,,,,
14.37.18.523,183.2,45.8,0,20.0,,95729.5,10.45,-0.06,0.46,0.88,-0.5,5.9,-0.9,31.81,,,,,,,,,,
14.37.18.535,211.1,52.8,0,20.0,,97256.3,10.28,-0.06,0.46,0.89,-0.3,6.0,-1.2,31.81,,,,,,,,,,
14.37.18.543,228.4,57.1,0,20.0,,96047.7,10.41,-0.06,0.46,0.89,-0.4,5.9,-0.8,31.81,,,,,,,,,,
14.37.18.556,285.6,71.4,0,20.0,,95541.5,10.47,-0.05,0.46,0.88,0.1,6.1,-0.8,31.81,,,,,,,,,,
14.37.18.568,277.4,69.4,0,20.0,,96102.5,10.41,-0.05,0.46,0.89,0.8,5.9,-1.4,31.81,,,,,,,,,,
14.37.18.576,310.8,77.7,0,20.0,,95450.0,10.48,-0.05,0.46,0.88,0.6,6.0,-1.5,31.81,,,,,,,,,,
14.37.18.588,346.4,86.6,0,20.0,,96240.2,10.39,-0.05,0.46,0.88,0.7,5.6,-1.5,31.81,,,,,,,,,,
14.37.18.601,322.7,80.7,0,20.0,,96303.2,10.38,-0.06,0.46,0.88,0.8,5.4,-1.4,31.81,,,,,,,,,,
14.37.18.609,296.4,74.1,0,20.0,,97109.5,10.3,-0.06,0.46,0.89,0.6,5.4,-1.5,31.81,,,,,,,,,,
14.37.18.621,317.9,79.5,0,20.0,,96097.4,10.41,-0.06,0.46,0.87,0.6,5.4,-1.7,31.81,,,,,,,,,,
14.37.18.634,291.7,72.9,0,20.0,,95895.9,10.43,-0.06,0.46,0.87,0.5,5.1,-1.6,31.81,,,,,,,,,,
14.37.18.646,285.9,71.5,0,20.0,,94515.3,10.58,-0.06,0.46,0.88,-0.1,5.5,-1.4,31.81,,,,,,,,,,
14.37.18.654,257.0,64.2,0,20.0,,97847.6,10.22,-0.06,0.46,0.89,-0.3,5.8,-1.4,31.81,,,,,,,,,,
14.37.18.666,228.4,57.1,0,20.0,,96932.6,10.32,-0.05,0.46,0.89,-0.7,5.5,-1.5,31.81,,,,,,,,,,
14.37.18.679,160.6,40.2,0,20.0,,97131.7,10.3,-0.05,0.46,0.88,-0.5,5.4,-1.2,31.81,,,,,,,,,,
14.37.18.687,153.5,38.4,0,20.0,,96553.8,10.36,-0.05,0.46,0.88,0.4,5.3,-1.8,31.81,,,,,,,,,,
14.37.18.699,112.3,28.1,0,20.0,,96198.1,10.4,-0.05,0.46,0.88,1.1,5.3,-1.8,31.81,,,,,,,,,,
14.37.18.711,55.8,14.0,0,20.0,,96042.5,10.41,-0.05,0.46,0.88,0.4,5.4,-1.9,31.81,,,,,,,,,,
14.37.18.724,6.4,1.6,0,20.0,,95091.5,10.52,-0.06,0.46,0.88,0.4,4.9,-1.5,31.81,,,,,,,,,,
14.37.18.732,7.1,1.8,0,20.0,,94072.4,10.63,-0.06,0.46,0.88,0.1,5.3,-1.8,31.81,,,,,,,,,,
14.37.18.744,23.7,5.9,0,20.0,,96285.0,10.39,-0.06,0.46,0.88,-0.4,4.7,-1.8,31.81,,,,,,,,,,
14.37.18.756,32.1,8.0,0,20.0,,96631.4,10.35,-0.06,0.46,0.88,-0.2,4.5,-1.2,31.81,,,,,,,,,,
14.37.18.765,43.3,10.8,0,20.0,,95925.2,10.42,-0.06,0.45,0.88,0.0,4.9,-1.4,31.81,,,,,,,,,,
14.37.18.777,57.2,14.3,0,20.0,,96634.4,10.35,-0.06,0.45,0.88,0.2,4.8,-1.2,31.81,,,,,,,,,,
14.37.18.789,60.9,15.2,0,20.0,,95758.6,10.44,-0.06,0.45,0.88,1.2,4.9,-1.2,31.81,,,,,,,,,,
14.37.18.798,53.5,13.4,0,20.0,,96904.5,10.32,-0.06,0.46,0.88,1.2,5.0,-1.2,31.81,,,,,,,,,,
14.37.18.810,58.3,14.6,0,20.0,,96214.3,10.39,-0.05,0.47,0.88,0.7,5.3,-1.2,31.81,,,,,,,,,,
14.37.18.822,39.1,9.8,0,20.0,,96882.3,10.32,-0.05,0.46,0.88,0.0,4.9,-1.1,31.81,,,,,,,,,,
14.37.18.830,32.7,8.2,0,20.0,,96543.1,10.36,-0.05,0.46,0.89,0.1,5.1,-1.0,31.81,,,,,,,,,,
14.37.18.843,26.3,6.6,0,20.0,,94554.6,10.58,-0.05,0.46,0.88,0.1,5.0,-1.3,31.81,,,,,,,,,,
14.37.18.855,8.1,2.0,0,20.0,,95698.1,10.45,-0.05,0.46,0.88,0.8,5.1,-1.3,31.81,,,,,,,,,,
14.37.18.863,-0.7,0.2,0,20.0,,96342.5,10.38,-0.05,0.46,0.89,1.3,5.2,-1.2,31.81,,,,,,,,,,
14.37.18.875,-8.0,2.0,0,20.0,,95720.4,10.45,-0.06,0.46,0.88,1.1,5.9,-1.2,31.81,,,,,,,,,,
14.37.18.888,1.2,0.3,0,20.0,,96570.3,10.36,-0.06,0.46,0.88,1.3,5.8,-1.0,31.81,,,,,,,,,,
14.37.18.896,-15.1,3.8,0,20.0,,95940.0,10.42,-0.06,0.46,0.88,0.8,6.7,-1.2,31.81,,,,,,,,,,
14.37.18.908,-22.0,5.5,0,20.0,,96654.4,10.35,-0.06,0.47,0.89,0.0,6.5,-0.8,31.81,,,,,,,,,,
14.37.18.920,-23.7,5.9,0,20.0,,95713.5,10.45,-0.06,0.46,0.88,-0.7,7.0,-0.8,31.81,,,,,,,,,,
14.37.18.929,-24.5,6.1,0,20.0,,94683.4,10.56,-0.06,0.46,0.88,-1.1,6.5,-1.0,31.81,,,,,,,,,,
14.37.18.941,-40.1,10.0,0,20.0,,95977.6,10.42,-0.06,0.45,0.89,-0.7,6.6,-1.0,31.81,,,,,,,,,,
14.37.18.953,-40.5,10.1,0,20.0,,95861.7,10.43,-0.06,0.46,0.88,-0.6,6.3,-0.7,31.81,,,,,,,,,,
14.37.18.961,-40.1,10.0,0,20.0,,97770.9,10.23,-0.05,0.46,0.89,-0.1,5.8,-1.0,31.81,,,,,,,,,,
14.37.18.974,-36.8,9.2,0,20.0,,96360.1,10.38,-0.05,0.45,0.88,0.1,6.4,-1.0,31.81,,,,,,,,,,
14.37.18.986,-60.0,15.0,0,20.0,,96148.0,10.4,-0.05,0.46,0.88,0.3,5.9,-1.0,31.81,,,,,,,,,,
14.37.18.994,-53.2,13.3,0,20.0,,95651.7,10.45,-0.06,0.46,0.88,0.5,5.8,-1.0,31.81,,,,,,,,,,
