timestamp,ppg,threshold,beat,beat_count,inst_bpm,gsr_resistance_ohm,gsr_conductance_us,accel_x,accel_y,accel_z,gyro_x,gyro_y,gyro_z,temp_c,window_bpm,window_temp_c,status_message,SpO2,bmi,age,height,weight,env_temp_c,env_humidity_pct
14.06.58.275,0.0,0.0,0,,,86938.8,11.5,0.18,0.57,0.79,0.4,5.4,-1.2,34.0,83.4,,,,25.0,21.0,162.56,66.0,37.0,52.0
14.06.58.283,57.6,14.4,0,,,86631.5,11.54,0.19,0.58,0.79,1.4,5.8,-1.6,34.0,,,,,,,,,,
14.06.58.295,87.5,21.9,0,,,82141.3,12.17,0.18,0.58,0.78,1.2,6.2,-1.3,34.0,,,,,,,,,,
14.06.58.308,158.2,39.6,0,,,86993.3,11.5,0.18,0.58,0.78,0.5,5.7,-0.9,34.0,,,,,,,,,,
14.06.58.316,226.7,56.7,0,,,83169.6,12.02,0.18,0.58,0.78,0.5,5.6,-1.4,34.0,,,,,,,,,,
14.06.58.328,254.4,63.6,0,,,84029.2,11.9,0.18,0.58,0.79,0.5,5.6,-1.5,34.0,,,,,,,,,,
14.06.58.340,317.9,79.5,0,,,82372.8,12.14,0.18,0.58,0.79,1.4,6.4,-1.2,34.0,,,,,,,,,,
14.06.58.348,342.4,85.6,0,,,86778.0,11.52,0.18,0.58,0.78,1.3,5.5,-0.9,34.0,,,,,,,,,,
14.06.58.361,391.9,98.0,0,,,83259.6,12.01,0.18,0.58,0.78,0.9,6.3,-1.2,34.0,,,,,,,,,,
14.06.58.373,389.8,97.4,0,,,83061.6,12.04,0.18,0.58,0.78,0.4,6.5,-1.3,34.0,,,,,,,,,,
14.06.58.381,398.3,99.6,0,,,85988.7,11.63,0.19,0.58,0.79,-0.5,4.9,-1.5,34.0,,,,,,,,,,
14.06.58.393,389.5,97.4,0,,,86908.2,11.51,0.18,0.57,0.79,0.1,5.2,-1.2,34.0,,,,,,,,,,
14.06.58.406,375.4,93.8,0,,,84100.1,11.89,0.18,0.57,0.79,1.5,7.1,-1.6,34.0,,,,,,,,,,
14.06.58.414,426.3,106.6,0,,,81492.4,12.27,0.18,0.57,0.79,1.1,5.0,-1.5,34.0,,,,,,,,,,
14.06.58.455,298.0,74.5,0,,,86473.1,11.56,0.19,0.58,0.79,0.5,6.3,-1.2,34.0,,,,,,,,,,
14.06.58.468,278.1,69.5,0,,,82373.2,12.14,0.19,0.57,0.79,0.8,5.6,-1.7,34.0,,,,,,,,,,
14.06.58.476,208.5,52.1,0,,,83341.9,12.0,0.18,0.57,0.78,0.5,5.9,-1.4,34.0,,,,,,,,,,
14.06.58.488,172.5,43.1,0,,,83668.4,11.95,0.18,0.58,0.79,1.4,6.1,-1.6,34.0,,,,,,,,,,
14.06.58.500,128.4,32.1,0,,,83235.5,12.01,0.18,0.58,0.79,0.9,5.9,-1.0,34.0,,,,,,,,,,
14.06.58.508,46.0,11.5,0,,,83547.1,11.97,0.18,0.58,0.79,0.5,6.1,-1.4,34.0,,,,,,,,,,
14.06.58.520,49.7,12.4,0,,,85005.6,11.76,0.18,0.57,0.78,0.9,6.4,-1.0,34.0,,,,,,,,,,
14.06.58.533,56.2,14.0,0,,,82946.9,12.06,0.18,0.58,0.78,1.2,5.9,-1.1,34.0,,,,,,,,,,
14.06.58.541,-15.7,3.9,0,,,82859.0,12.07,0.19,0.58,0.79,0.8,5.2,-1.4,34.0,,,,,,,,,,
14.06.58.553,35.3,8.8,0,,,84528.8,11.83,0.19,0.57,0.78,0.9,6.2,-1.1,34.0,,,,,,,,,,
14.06.58.566,54.3,13.6,0,,,85985.9,11.63,0.19,0.57,0.78,0.9,6.0,-1.1,34.0,,,,,,,,,,
14.06.58.574,77.0,19.2,0,,,83563.9,11.97,0.19,0.58,0.78,0.9,5.6,-1.1,34.0,,,,,,,,,,
14.06.58.586,55.4,13.8,0,,,83493.0,11.98,0.19,0.58,0.78,0.3,5.6,-1.2,34.0,,,,,,,,,,
14.06.58.594,46.5,11.6,0,,,85890.3,11.64,0.19,0.58,0.79,0.8,6.0,-1.0,34.0,,,,,,,,,,
14.06.58.607,59.6,14.9,0,,,84044.1,11.9,0.18,0.57,0.79,-0.5,6.2,-1.4,34.0,,,,,,,,,,
14.06.58.619,57.2,14.3,0,,,82143.8,12.17,0.18,0.57,0.79,-0.3,4.5,-1.5,34.0,,,,,,,,,,
14.06.58.627,43.8,11.0,0,,,80281.5,12.46,0.18,0.57,0.79,1.0,6.3,-1.5,34.0,,,,,,,,,,
14.06.58.639,18.3,4.6,0,,,82150.1,12.17,0.19,0.58,0.78,2.1,7.3,-1.4,34.0,,,,,,,,,,
14.06.58.652,6.9,1.7,0,,,82295.1,12.15,0.19,0.59,0.78,0.9,5.3,-1.2,34.0,,,,,,,,,,
14.06.58.660,-4.6,1.2,0,,,82361.3,12.14,0.19,0.59,0.78,0.8,5.8,-0.9,34.0,,,,,,,,,,
14.06.58.672,-29.4,7.4,0,,,83599.4,11.96,0.19,0.58,0.79,-0.3,6.8,-0.9,34.0,,,,,,,,,,
14.06.58.684,-23.2,5.8,0,,,78905.7,12.67,0.19,0.58,0.78,-0.1,7.7,-0.6,34.0,,,,,,,,,,
14.06.58.693,-7.8,2.0,0,,,84551.3,11.83,0.18,0.56,0.79,-1.6,5.0,-1.5,34.0,,,,,,,,,,
14.06.58.705,-18.1,4.5,0,,,82943.6,12.06,0.18,0.57,0.79,-0.2,6.1,-1.5,34.0,,,,,,,,,,
14.06.58.717,-21.6,5.4,0,,,85282.7,11.73,0.18,0.57,0.79,0.7,5.4,-1.4,34.0,,,,,,,,,,
14.06.58.725,-23.3,5.8,0,,,86154.3,11.61,0.18,0.58,0.8,2.5,6.9,-1.5,34.0,,,,,,,,,,
14.06.58.738,-36.8,9.2,0,,,81727.2,12.24,0.18,0.58,0.78,0.8,5.3,-0.9,34.0,,,,,,,,,,
14.06.58.746,-52.5,13.1,0,,,82468.3,12.13,0.18,0.59,0.78,-0.1,4.9,-0.9,34.0,,,,,,,,,,
14.06.58.758,-50.6,12.6,0,,,84156.8,11.88,0.19,0.58,0.79,0.7,6.5,-0.7,34.0,,,,,,,,,,
14.06.58.770,-65.0,16.2,0,,,83630.5,11.96,0.19,0.58,0.78,-0.7,5.9,-0.9,34.0,,,,,,,,,,
14.06.58.779,-66.7,16.7,0,,,81413.0,12.28,0.18,0.57,0.79,0.0,5.7,-1.2,34.0,,,,,,,,,,
14.06.58.791,-128.2,32.0,0,,,83122.5,12.03,0.18,0.58,0.79,1.3,6.0,-1.4,34.0,,,,,,,,,,
14.06.58.803,-85.1,21.3,0,,,84351.4,11.86,0.18,0.58,0.77,1.2,4.6,-1.2,34.0,,,,,,,,,,
14.06.58.811,-62.6,15.6,0,,,81199.1,12.32,0.19,0.59,0.76,1.6,6.3,-1.8,34.0,,,,,,,,,,
14.06.58.824,-62.7,15.7,0,,,80878.9,12.36,0.15,0.6,0.74,3.1,9.2,0.4,34.0,,,,,,,,,,
14.06.58.832,-89.6,22.4,0,,,80770.1,12.38,0.22,0.66,0.81,-7.9,2.0,-5.4,34.0,,,,,,,,,,
14.06.58.844,-83.6,20.9,0,,,79632.4,12.56,0.13,0.39,0.83,-12.4,4.1,1.5,34.0,,,,,,,,,,
14.06.58.856,-110.2,27.6,0,,,82426.2,12.13,0.06,0.46,0.79,-9.3,8.9,-4.8,34.0,,,,,,,,,,
14.06.58.865,-75.3,18.8,0,,,84208.3,11.88,0.21,0.6,0.88,13.7,-4.2,-9.8,34.0,,,,,,,,,,
14.06.58.877,-129.4,32.4,0,,,83518.5,11.97,0.21,0.5,0.69,14.0,12.5,2.6,34.0,,,,,,,,,,
14.06.58.889,-121.9,30.5,0,,,78990.9,12.66,0.25,0.79,0.69,32.3,19.6,-1.6,34.0,,,,,,,,,,
14.06.58.897,-82.8,20.7,0,,,79493.6,12.58,0.23,0.78,0.78,7.5,2.8,4.9,34.0,,,,,,,,,,
14.06.58.910,-121.0,30.2,0,,,80783.2,12.38,0.2,0.73,0.7,-12.6,-6.2,3.5,34.0,,,,,,,,,,
14.06.58.922,-120.2,30.0,0,,,82777.9,12.08,0.18,0.52,0.86,-16.0,2.8,1.9,34.0,,,,,,,,,,
14.06.58.930,-131.3,32.8,0,,,81393.9,12.29,0.16,0.48,0.86,-19.1,14.1,-4.1,34.0,,,,,,,,,,
14.06.58.942,-175.1,43.8,0,,,79394.0,12.6,0.11,0.41,0.86,-9.7,5.8,-4.6,34.0,,,,,,,,,,
14.06.58.951,-122.9,30.7,0,,,81038.6,12.34,0.14,0.44,0.8,-2.2,-0.4,-7.8,34.0,,,,,,,,,,
14.06.58.963,-148.5,37.1,0,,,82117.4,12.18,0.18,0.52,0.8,12.0,-1.7,-4.1,34.0,,,,,,,,,,
14.06.58.975,-140.5,35.1,0,,,83039.7,12.04,0.2,0.63,0.77,15.9,4.2,-0.3,34.0,,,,,,,,,,
14.06.58.983,-144.7,36.2,0,,,78361.2,12.76,0.21,0.67,0.74,15.3,11.3,1.5,34.0,,,,,,,,,,
14.06.58.996,48.9,12.2,1,1.0,85.5,85487.8,11.7,0.22,0.68,0.73,7.0,11.1,2.2,34.0,,,,,,,,,,
14.06.59.008,133.0,33.2,0,1.0,,81233.2,12.31,0.2,0.65,0.76,-0.9,8.8,3.2,34.0,,,,,,,,,,
14.06.59.016,147.7,36.9,0,1.0,,86181.7,11.6,0.19,0.6,0.79,-4.7,9.3,1.7,34.0,,,,,,,,,,
14.06.59.028,273.2,68.3,0,1.0,,85550.3,11.69,0.18,0.55,0.8,-7.4,5.5,-0.7,34.0,,,,,,,,,,
14.06.59.037,272.5,68.1,0,1.0,,80989.8,12.35,0.17,0.51,0.81,-5.8,1.6,-2.4,34.0,,,,,,,,,,
14.06.59.049,315.0,78.8,0,1.0,,85081.9,11.75,0.17,0.51,0.81,-0.4,4.6,-4.4,34.0,,,,,,,,,,
14.06.59.061,303.5,75.9,0,1.0,,84940.1,11.77,0.17,0.55,0.79,2.8,5.0,-5.0,34.0,,,,,,,,,,
14.06.59.069,376.7,94.2,0,1.0,,82120.7,12.18,0.18,0.59,0.78,2.3,0.8,-3.2,34.0,,,,,,,,,,
14.06.59.082,346.1,86.5,0,1.0,,83769.0,11.94,0.17,0.6,0.78,3.1,3.7,-1.2,34.0,,,,,,,,,,
14.06.59.090,406.7,101.7,0,1.0,,84337.3,11.86,0.18,0.59,0.77,4.6,9.7,0.2,34.0,,,,,,,,,,
14.06.59.102,367.6,91.9,0,1.0,,84406.8,11.85,0.18,0.6,0.76,0.6,8.4,0.6,34.0,,,,,,,,,,
14.06.59.114,405.6,101.4,0,1.0,,81507.7,12.27,0.19,0.58,0.79,-1.1,5.4,0.3,34.0,,,,,,,,,,
14.06.59.123,378.9,94.7,0,1.0,,85137.4,11.75,0.19,0.57,0.79,0.9,8.4,-0.4,34.0,,,,,,,,,,
14.06.59.135,396.7,99.2,0,1.0,,83562.7,11.97,0.19,0.56,0.78,0.0,8.9,-1.9,34.0,,,,,,,,,,
14.06.59.144,390.2,97.6,0,1.0,,83337.5,12.0,0.17,0.56,0.8,-0.1,4.6,-2.1,34.0,,,,,,,,,,
14.06.59.155,315.0,78.8,0,1.0,,75773.2,13.2,0.16,0.59,0.79,0.6,3.5,-2.0,34.0,,,,,,,,,,
14.06.59.168,292.7,73.2,0,1.0,,87249.0,11.46,0.18,0.57,0.78,0.3,4.1,-2.7,34.0,,,,,,,,,,
14.06.59.176,270.5,67.6,0,1.0,,80077.6,12.49,0.19,0.58,0.79,0.7,4.4,-1.9,34.0,,,,,,,,,,
14.06.59.188,207.2,51.8,0,1.0,,84919.0,11.78,0.19,0.59,0.78,1.2,6.6,-1.5,34.0,,,,,,,,,,
14.06.59.196,202.4,50.6,0,1.0,,84938.2,11.77,0.18,0.59,0.78,1.1,8.0,-1.3,34.0,,,,,,,,,,
14.06.59.209,134.3,33.6,0,1.0,,82780.3,12.08,0.18,0.57,0.78,0.8,6.4,-1.3,34.0,,,,,,,,,,
14.06.59.221,76.5,19.1,0,1.0,,83459.1,11.98,0.19,0.58,0.8,-1.1,3.0,-0.1,34.0,,,,,,,,,,
14.06.59.258,43.4,10.8,0,1.0,,81758.6,12.23,0.2,0.6,0.78,-1.0,2.8,-1.0,34.0,,,,,,,,,,
14.06.59.274,82.6,20.6,0,1.0,,83889.9,11.92,0.19,0.58,0.78,1.2,5.0,-0.8,34.0,,,,,,,,,,
14.06.59.283,67.1,16.8,0,1.0,,83305.9,12.0,0.19,0.58,0.77,0.7,7.9,-1.5,34.0,,,,,,,,,,
14.06.59.295,81.8,20.4,0,1.0,,79344.7,12.6,0.19,0.58,0.78,-0.1,4.9,-1.2,34.0,,,,,,,,,,
14.06.59.303,92.5,23.1,0,1.0,,82577.2,12.11,0.19,0.57,0.8,-1.4,5.4,-1.2,34.0,,,,,,,,,,
14.06.59.315,61.7,15.4,0,1.0,,81737.7,12.23,0.19,0.57,0.79,2.4,7.1,-1.1,34.0,,,,,,,,,,
14.06.59.323,39.4,9.8,0,1.0,,83578.0,11.96,0.19,0.57,0.78,2.8,6.9,-1.1,34.0,,,,,,,,,,
14.06.59.336,43.9,11.0,0,1.0,,86657.9,11.54,0.19,0.6,0.79,0.2,5.4,-0.6,34.0,,,,,,,,,,
14.06.59.348,54.1,13.5,0,1.0,,84707.2,11.81,0.18,0.58,0.79,-2.3,4.3,-0.8,34.0,,,,,,,,,,
14.06.59.356,50.0,12.5,0,1.0,,81610.3,12.25,0.17,0.57,0.79,-0.2,8.4,-1.0,34.0,,,,,,,,,,
14.06.59.368,3.8,1.0,0,1.0,,83225.6,12.02,0.17,0.56,0.78,1.2,7.4,-1.0,34.0,,,,,,,,,,
14.06.59.377,25.8,6.4,0,1.0,,79219.4,12.62,0.19,0.57,0.78,1.4,4.3,-0.8,34.0,,,,,,,,,,
14.06.59.389,-7.1,1.8,0,1.0,,84114.3,11.89,0.19,0.6,0.78,2.2,3.9,-0.2,34.0,,,,,,,,,,
14.06.59.401,-9.7,2.4,0,1.0,,82759.1,12.08,0.18,0.6,0.79,1.5,7.8,-1.0,34.0,,,,,,,,,,
14.06.59.409,-14.8,3.7,0,1.0,,79222.9,12.62,0.17,0.58,0.77,0.2,5.8,-0.9,34.0,,,,,,,,,,
14.06.59.422,-31.7,7.9,0,1.0,,89027.7,11.23,0.19,0.58,0.8,-1.3,3.0,-0.9,34.0,,,,,,,,,,
14.06.59.430,-13.9,3.5,0,1.0,,86742.4,11.53,0.19,0.56,0.8,-1.0,4.5,-1.0,34.0,,,,,,,,,,
14.06.59.442,-49.8,12.4,0,1.0,,80324.4,12.45,0.2,0.57,0.8,2.6,9.9,-1.5,34.0,,,,,,,,,,
14.06.59.455,-39.1,9.8,0,1.0,,82152.9,12.17,0.17,0.57,0.8,-0.6,5.1,-1.9,34.0,,,,,,,,,,
14.06.59.463,-41.3,10.3,0,1.0,,82533.4,12.12,0.18,0.57,0.79,0.5,3.0,-1.1,34.0,,,,,,,,,,
14.06.59.475,-73.1,18.3,0,1.0,,87836.1,11.38,0.18,0.58,0.8,1.2,4.0,-0.8,34.0,,,,,,,,,,
14.06.59.487,-61.1,15.3,0,1.0,,84160.2,11.88,0.18,0.59,0.79,4.0,8.6,0.0,34.0,,,,,,,,,,
14.06.59.496,-58.4,14.6,0,1.0,,80814.3,12.37,0.19,0.6,0.76,2.2,7.7,-0.6,34.0,,,,,,,,,,
14.06.59.508,-52.8,13.2,0,1.0,,82660.7,12.1,0.19,0.6,0.76,0.3,5.5,-0.2,34.0,,,,,,,,,,
14.06.59.516,-97.0,24.2,0,1.0,,83796.7,11.93,0.2,0.59,0.8,-3.4,2.6,0.2,34.0,,,,,,,,,,
14.06.59.528,-82.5,20.6,0,1.0,,80579.5,12.41,0.18,0.55,0.81,-4.5,6.9,-1.1,34.0,,,,,,,,,,
14.06.59.541,-99.6,24.9,0,1.0,,86325.1,11.58,0.17,0.53,0.81,0.7,6.7,-1.1,34.0,,,,,,,,,,
14.06.59.549,-84.1,21.0,0,1.0,,82744.2,12.09,0.17,0.53,0.79,-0.3,5.0,-1.6,34.0,,,,,,,,,,
14.06.59.561,-93.7,23.4,0,1.0,,83026.5,12.04,0.18,0.56,0.79,2.9,4.0,-1.7,34.0,,,,,,,,,,
14.06.59.569,-123.1,30.8,0,1.0,,84442.4,11.84,0.19,0.58,0.8,2.9,5.6,-1.0,34.0,,,,,,,,,,
14.06.59.581,-113.4,28.4,0,1.0,,79791.6,12.53,0.19,0.61,0.77,3.3,7.5,-0.6,34.0,,,,,,,,,,
14.06.59.594,-138.0,34.5,0,1.0,,79053.0,12.65,0.19,0.6,0.77,3.1,8.5,-0.4,34.0,,,,,,,,,,
14.06.59.602,-89.0,22.2,0,1.0,,83327.1,12.0,0.18,0.6,0.76,-0.3,6.2,-0.1,34.0,,,,,,,,,,
14.06.59.614,-131.9,33.0,0,1.0,,83058.5,12.04,0.19,0.6,0.78,-0.6,4.2,0.3,34.0,,,,,,,,,,
14.06.59.622,-79.3,19.8,0,1.0,,83399.5,11.99,0.19,0.58,0.78,-2.2,6.5,-1.2,34.0,,,,,,,,,,
14.06.59.635,-116.4,29.1,0,1.0,,82608.8,12.11,0.18,0.55,0.79,-2.3,5.5,-1.3,34.0,,,,,,,,,,
14.06.59.648,-147.6,36.9,0,1.0,,84141.8,11.88,0.18,0.55,0.8,-2.7,2.6,-2.0,34.0,,,,,,,,,,
14.06.59.655,-108.0,27.0,0,1.0,,80687.2,12.39,0.18,0.56,0.81,1.0,6.3,-2.1,34.0,,,,,,,,,,
14.06.59.668,-123.7,30.9,0,1.0,,83710.4,11.95,0.17,0.56,0.78,3.1,8.1,-2.3,34.0,,,,,,,,,,
14.06.59.680,-163.8,41.0,0,1.0,,81538.5,12.26,0.19,0.58,0.77,1.0,2.9,-1.0,34.0,,,,,,,,,,
14.06.59.688,-170.4,42.6,0,1.0,,81618.9,12.25,0.19,0.6,0.78,2.0,4.5,-0.5,34.0,,,,,,,,,,
14.06.59.700,31.9,8.0,1,2.0,82.1,81818.2,12.22,0.19,0.6,0.78,3.0,11.1,-0.5,34.0,,,,,,,,,,
14.06.59.708,55.9,14.0,0,2.0,,82196.3,12.17,0.2,0.59,0.78,0.7,8.1,-0.2,34.0,,,,,,,,,,
14.06.59.721,146.0,36.5,0,2.0,,79493.0,12.58,0.19,0.58,0.79,-2.4,2.7,-0.1,34.0,,,,,,,,,,
14.06.59.733,176.8,44.2,0,2.0,,82135.9,12.17,0.19,0.56,0.8,-1.0,6.1,-1.3,34.0,,,,,,,,,,
14.06.59.741,228.3,57.1,0,2.0,,84067.2,11.9,0.19,0.56,0.79,0.9,7.1,-1.9,34.0,,,,,,,,,,
14.06.59.754,262.6,65.6,0,2.0,,81871.5,12.21,0.18,0.56,0.78,0.2,4.6,-1.6,34.0,,,,,,,,,,
14.06.59.762,304.0,76.0,0,2.0,,80813.6,12.37,0.18,0.57,0.78,0.9,3.9,-1.8,34.0,,,,,,,,,,
14.06.59.774,334.6,83.6,0,2.0,,82583.6,12.11,0.18,0.59,0.78,2.7,6.8,-1.4,34.0,,,,,,,,,,
14.06.59.786,391.3,97.8,0,2.0,,80294.6,12.45,0.19,0.59,0.78,0.4,5.7,-1.3,34.0,,,,,,,,,,
14.06.59.795,402.2,100.6,0,2.0,,82733.3,12.09,0.19,0.59,0.78,0.2,5.3,-0.5,34.0,,,,,,,,,,
14.06.59.807,408.4,102.1,0,2.0,,85477.2,11.7,0.19,0.58,0.79,0.1,6.8,-0.6,34.0,,,,,,,,,,
14.06.59.815,430.9,107.7,0,2.0,,84926.4,11.77,0.19,0.57,0.8,0.3,6.7,-0.7,34.0,,,,,,,,,,
14.06.59.827,403.4,100.8,0,2.0,,86702.8,11.53,0.19,0.57,0.79,0.3,5.6,-1.5,34.0,,,,,,,,,,
14.06.59.840,400.9,100.2,0,2.0,,82050.2,12.19,0.18,0.57,0.79,0.9,4.8,-1.1,34.0,,,,,,,,,,
14.06.59.848,412.3,103.1,0,2.0,,83177.8,12.02,0.18,0.57,0.79,1.6,6.5,-1.4,34.0,,,,,,,,,,
14.06.59.860,349.9,87.5,0,2.0,,83363.6,12.0,0.19,0.58,0.79,1.7,5.8,-1.4,34.0,,,,,,,,,,
14.06.59.873,311.2,77.8,0,2.0,,81245.4,12.31,0.19,0.59,0.78,0.6,4.6,-1.7,34.0,,,,,,,,,,
14.06.59.881,297.0,74.2,0,2.0,,80221.6,12.47,0.19,0.58,0.78,0.8,5.5,-1.2,34.0,,,,,,,,,,
14.06.59.893,269.1,67.3,0,2.0,,81255.7,12.31,0.19,0.59,0.79,0.3,6.4,-0.6,34.0,,,,,,,,,,
14.06.59.901,181.1,45.3,0,2.0,,88351.0,11.32,0.18,0.57,0.78,0.3,6.3,-0.6,34.0,,,,,,,,,,
14.06.59.913,140.0,35.0,0,2.0,,86149.8,11.61,0.18,0.57,0.79,1.0,5.5,-0.9,34.0,,,,,,,,,,
14.06.59.926,115.1,28.8,0,2.0,,80689.7,12.39,0.18,0.56,0.78,0.0,6.1,-1.5,34.0,,,,,,,,,,
14.06.59.934,63.4,15.8,0,2.0,,83303.1,12.0,0.18,0.58,0.8,1.2,4.8,-1.0,34.0,,,,,,,,,,
14.06.59.946,8.3,2.1,0,2.0,,82570.3,12.11,0.19,0.58,0.79,0.5,6.2,-1.6,34.0,,,,,,,,,,
14.06.59.954,38.1,9.5,0,2.0,,81678.6,12.24,0.19,0.58,0.79,2.0,6.3,-1.3,34.0,,,,,,,,,,
14.06.59.967,46.2,11.6,0,2.0,,82902.8,12.06,0.19,0.58,0.78,0.0,6.6,-1.7,34.0,,,,,,,,,,
14.06.59.979,60.5,15.1,0,2.0,,83293.6,12.01,0.18,0.59,0.78,0.9,5.6,-0.9,34.0,,,,,,,,,,
14.06.59.987,19.1,4.8,0,2.0,,88166.4,11.34,0.18,0.6,0.8,0.0,4.3,-0.1,34.0,,,,,,,,,,
14.06.59.999,37.7,9.4,0,2.0,,84453.6,11.84,0.19,0.57,0.76,1.8,6.5,-1.3,34.0,,,,,,,,,,
14.07.00.008,63.8,16.0,0,2.0,,84366.9,11.85,0.17,0.53,0.74,0.8,8.4,-1.7,34.0,,,,,,,,,,
14.07.00.020,77.4,19.4,0,2.0,,83920.0,11.92,0.19,0.61,0.83,-2.8,-0.2,-0.2,34.0,,,,,,,,,,
14.07.00.061,59.3,14.8,0,2.0,,86149.8,11.61,0.19,0.61,0.8,-1.6,0.7,-1.5,34.0,,,,,,,,,,
14.07.00.069,23.9,6.0,0,2.0,,81741.3,12.23,0.19,0.61,0.8,-0.8,2.5,-0.7,34.0,,,,,,,,,,
14.07.00.081,62.4,15.6,0,2.0,,81988.1,12.2,0.19,0.58,0.78,3.8,11.2,-0.6,34.0,,,,,,,,,,
14.07.00.094,28.3,7.1,0,2.0,,82702.7,12.09,0.18,0.57,0.76,1.4,9.5,-1.5,34.0,,,,,,,,,,
14.07.00.102,6.9,1.7,0,2.0,,85555.4,11.69,0.19,0.58,0.79,-3.9,1.3,-0.9,34.0,,,,,,,,,,
14.07.00.114,-1.5,0.4,0,2.0,,82494.7,12.12,0.19,0.58,0.82,-0.5,2.6,-0.7,34.0,,,,,,,,,,
14.07.00.122,-41.2,10.3,0,2.0,,80055.2,12.49,0.18,0.56,0.79,3.9,11.2,-1.9,34.0,,,,,,,,,,
14.07.00.135,-22.3,5.6,0,2.0,,83974.8,11.91,0.18,0.55,0.76,1.9,6.7,-1.8,34.0,,,,,,,,,,
14.07.00.147,-16.4,4.1,0,2.0,,84997.9,11.76,0.19,0.59,0.79,-1.6,0.2,-1.0,34.0,,,,,,,,,,
14.07.00.155,-13.2,3.3,0,2.0,,80239.3,12.46,0.19,0.59,0.81,0.8,5.8,-1.3,34.0,,,,,,,,,,
14.07.00.167,-67.6,16.9,0,2.0,,84245.8,11.87,0.19,0.58,0.79,3.5,10.9,-0.9,34.0,,,,,,,,,,
14.07.00.180,-44.5,11.1,0,2.0,,84515.9,11.83,0.18,0.58,0.77,0.4,6.8,-1.6,34.0,,,,,,,,,,
14.07.00.188,-36.0,9.0,0,2.0,,83157.5,12.03,0.18,0.59,0.78,-1.6,1.2,-1.2,34.0,,,,,,,,,,
14.07.00.200,-70.5,17.6,0,2.0,,84833.1,11.79,0.19,0.58,0.8,0.1,5.6,-0.7,34.0,,,,,,,,,,
14.07.00.208,-78.4,19.6,0,2.0,,85626.1,11.68,0.18,0.57,0.79,2.6,9.1,-1.4,34.0,,,,,,,,,,
14.07.00.221,-31.2,7.8,0,2.0,,83683.5,11.95,0.18,0.57,0.78,0.9,6.2,-1.4,34.0,,,,,,,,,,
14.07.00.233,-59.1,14.8,0,2.0,,85170.3,11.74,0.19,0.58,0.79,-0.5,3.0,-1.3,34.0,,,,,,,,,,
14.07.00.241,-106.8,26.7,0,2.0,,81685.9,12.24,0.19,0.58,0.79,1.4,5.9,-1.1,34.0,,,,,,,,,,
14.07.00.253,-78.3,19.6,0,2.0,,80457.5,12.43,0.18,0.58,0.77,2.5,8.6,-1.3,34.0,,,,,,,,,,
14.07.00.262,-109.4,27.4,0,2.0,,86373.7,11.58,0.18,0.58,0.76,0.4,5.3,-1.3,34.0,,,,,,,,,,
14.07.00.274,-114.5,28.6,0,2.0,,81853.2,12.22,0.18,0.59,0.77,-0.2,3.3,-1.1,34.0,,,,,,,,,,
14.07.00.286,-93.9,23.5,0,2.0,,82934.5,12.06,0.18,0.58,0.79,0.5,5.8,-1.1,34.0,,,,,,,,,,
14.07.00.294,-117.7,29.4,0,2.0,,81141.7,12.32,0.19,0.58,0.79,1.2,7.9,-1.5,34.0,,,,,,,,,,
14.07.00.307,-131.3,32.8,0,2.0,,80857.4,12.37,0.18,0.57,0.78,0.7,5.8,-1.5,34.0,,,,,,,,,,
14.07.00.315,-119.7,29.9,0,2.0,,83665.2,11.95,0.18,0.58,0.78,-0.1,4.3,-1.3,34.0,,,,,,,,,,
14.07.00.327,-131.4,32.8,0,2.0,,82851.2,12.07,0.18,0.57,0.79,1.2,6.0,-1.6,34.0,,,,,,,,,,
14.07.00.339,-133.4,33.4,0,2.0,,83105.0,12.03,0.18,0.57,0.78,1.8,6.7,-1.3,34.0,,,,,,,,,,
14.07.00.348,-147.4,36.8,0,2.0,,83182.8,12.02,0.19,0.58,0.79,1.5,4.7,-1.7,34.0,,,,,,,,,,
14.07.00.360,-122.5,30.6,0,2.0,,87398.8,11.44,0.19,0.58,0.8,0.5,5.4,-1.2,34.0,,,,,,,,,,
14.07.00.372,-154.2,38.6,0,2.0,,86094.1,11.62,0.19,0.58,0.79,1.1,6.9,-1.4,34.0,,,,,,,,,,
14.07.00.380,-136.4,34.1,0,2.0,,86330.2,11.58,0.19,0.58,0.78,-0.4,5.3,-1.0,34.0,,,,,,,,,,
14.07.00.393,-140.9,35.2,0,2.0,,78943.0,12.67,0.19,0.57,0.79,0.8,6.2,-1.0,34.0,,,,,,,,,,
14.07.00.401,-151.8,38.0,0,2.0,,84646.5,11.81,0.19,0.57,0.79,0.2,6.1,-1.2,34.0,,,,,,,,,,
14.07.00.413,40.1,10.0,1,3.0,81.1,79453.2,12.59,0.19,0.57,0.8,1.0,5.5,-1.1,34.0,,,,,,,,,,
14.07.00.425,87.3,21.8,0,3.0,,81585.5,12.26,0.19,0.58,0.79,1.1,6.3,-1.8,34.0,,,,,,,,,,
14.07.00.434,152.1,38.0,0,3.0,,86792.4,11.52,0.18,0.58,0.79,1.1,5.4,-1.1,34.0,,,,,,,,,,
14.07.00.446,186.3,46.6,0,3.0,,86312.3,11.59,0.19,0.58,0.79,0.7,5.7,-1.2,34.0,,,,,,,,,,
14.07.00.454,245.8,61.4,0,3.0,,85219.1,11.73,0.19,0.58,0.79,1.0,5.0,-1.0,34.0,,,,,,,,,,
14.07.00.466,271.1,67.8,0,3.0,,84667.2,11.81,0.19,0.58,0.79,0.5,5.6,-1.3,34.0,,,,,,,,,,
14.07.00.479,318.7,79.7,0,3.0,,83809.4,11.93,0.19,0.58,0.79,0.6,6.4,-1.2,34.0,,,,,,,,,,
14.07.00.487,344.2,86.0,0,3.0,,84116.1,11.89,0.19,0.58,0.78,0.2,6.1,-0.8,34.0,,,,,,,,,,
14.07.00.500,385.0,96.2,0,3.0,,85524.2,11.69,0.19,0.57,0.79,0.3,6.6,-1.4,34.0,,,,,,,,,,
14.07.00.507,387.6,96.9,0,3.0,,79894.4,12.52,0.19,0.58,0.79,1.3,6.2,-1.4,34.0,,,,,,,,,,
14.07.00.520,369.9,92.5,0,3.0,,83783.6,11.94,0.18,0.57,0.78,0.3,4.4,-1.3,34.0,,,,,,,,,,
14.07.00.532,408.5,102.1,0,3.0,,81467.9,12.27,0.19,0.58,0.78,1.0,5.7,-1.5,34.0,,,,,,,,,,
14.07.00.540,396.2,99.0,0,3.0,,82316.8,12.15,0.19,0.58,0.79,0.2,7.1,-1.5,34.0,,,,,,,,,,
14.07.00.552,419.7,104.9,0,3.0,,82694.0,12.09,0.19,0.58,0.79,0.2,5.5,-1.2,34.0,,,,,,,,,,
14.07.00.561,371.6,92.9,0,3.0,,83244.4,12.01,0.19,0.57,0.79,0.1,6.0,-1.3,34.0,,,,,,,,,,
14.07.00.573,300.3,75.1,0,3.0,,81850.5,12.22,0.19,0.57,0.8,1.6,7.0,-1.5,34.0,,,,,,,,,,
14.07.00.585,315.6,78.9,0,3.0,,78039.9,12.81,0.19,0.58,0.79,0.4,5.5,-1.3,34.0,,,,,,,,,,
14.07.00.593,283.4,70.8,0,3.0,,83325.3,12.0,0.19,0.57,0.78,0.8,6.0,-1.0,34.0,,,,,,,,,,
14.07.00.606,268.0,67.0,0,3.0,,82102.5,12.18,0.18,0.58,0.79,0.3,5.6,-1.4,34.0,,,,,,,,,,
14.07.00.618,211.9,53.0,0,3.0,,82430.5,12.13,0.19,0.57,0.79,0.2,4.8,-1.3,34.0,,,,,,,,,,
14.07.00.626,154.1,38.5,0,3.0,,84626.2,11.82,0.19,0.58,0.79,1.1,6.5,-1.0,34.0,,,,,,,,,,
14.07.00.639,105.7,26.4,0,3.0,,83592.8,11.96,0.18,0.57,0.78,0.2,5.9,-1.7,34.0,,,,,,,,,,
14.07.00.651,40.9,10.2,0,3.0,,83385.0,11.99,0.19,0.58,0.79,1.0,5.6,-1.3,34.0,,,,,,,,,,
14.07.00.659,2.8,0.7,0,3.0,,82780.6,12.08,0.19,0.57,0.79,0.0,5.4,-1.3,34.0,,,,,,,,,,
14.07.00.671,9.3,2.3,0,3.0,,83008.2,12.05,0.19,0.58,0.79,1.1,5.2,-1.5,34.0,,,,,,,,,,
14.07.00.684,48.1,12.0,0,3.0,,80819.4,12.37,0.19,0.58,0.79,1.1,6.2,-1.6,34.0,,,,,,,,,,
14.07.00.692,58.6,14.6,0,3.0,,83396.8,11.99,0.19,0.58,0.79,-0.2,4.7,-1.6,34.0,,,,,,,,,,
14.07.00.704,79.0,19.8,0,3.0,,81088.0,12.33,0.19,0.58,0.78,0.8,5.7,-1.4,34.0,,,,,,,,,,
14.07.00.716,66.4,16.6,0,3.0,,81832.2,12.22,0.19,0.58,0.79,0.5,6.7,-1.1,34.0,,,,,,,,,,
14.07.00.724,69.0,17.2,0,3.0,,80175.7,12.47,0.18,0.58,0.79,0.5,5.9,-1.1,34.0,,,,,,,,,,
14.07.00.737,90.2,22.6,0,3.0,,84239.9,11.87,0.18,0.57,0.79,0.7,5.2,-1.2,34.0,,,,,,,,,,
14.07.00.749,81.1,20.3,0,3.0,,87409.1,11.44,0.18,0.57,0.79,1.0,5.5,-1.3,34.0,,,,,,,,,,
14.07.00.757,54.9,13.7,0,3.0,,84266.2,11.87,0.19,0.58,0.78,0.8,5.6,-1.4,34.0,,,,,,,,,,
14.07.00.770,51.1,12.8,0,3.0,,77076.1,12.97,0.19,0.58,0.79,0.2,5.2,-1.2,34.0,,,,,,,,,,
14.07.00.782,23.8,6.0,0,3.0,,83772.1,11.94,0.19,0.58,0.77,0.7,6.7,-1.5,34.0,,,,,,,,,,
14.07.00.790,0.4,0.1,0,3.0,,82438.4,12.13,0.19,0.58,0.79,1.2,6.8,-1.5,34.0,,,,,,,,,,
14.07.00.802,-4.2,1.0,0,3.0,,83574.9,11.97,0.19,0.58,0.78,0.0,5.7,-1.1,34.0,,,,,,,,,,
14.07.00.815,17.3,4.3,0,3.0,,85887.4,11.64,0.18,0.58,0.79,0.0,5.6,-1.5,34.0,,,,,,,,,,
14.07.00.823,20.8,5.2,0,3.0,,83664.3,11.95,0.19,0.58,0.79,0.2,6.1,-1.2,34.0,,,,,,,,,,
14.07.00.864,-26.6,6.6,0,3.0,,85011.6,11.76,0.19,0.57,0.78,1.3,6.4,-1.5,34.0,,,,,,,,,,
14.07.00.876,-24.4,6.1,0,3.0,,84010.7,11.9,0.19,0.58,0.79,0.5,5.9,-1.5,34.0,,,,,,,,,,
14.07.00.884,-30.9,7.7,0,3.0,,80524.3,12.42,0.19,0.58,0.79,0.7,5.8,-1.4,34.0,,,,,,,,,,
14.07.00.897,-32.6,8.2,0,3.0,,85030.5,11.76,0.19,0.58,0.79,0.5,6.5,-1.5,34.0,,,,,,,,,,
14.07.00.909,-64.7,16.2,0,3.0,,84893.0,11.78,0.19,0.57,0.79,0.7,5.4,-1.2,34.0,,,,,,,,,,
14.07.00.921,-81.1,20.3,0,3.0,,83181.0,12.02,0.18,0.58,0.79,0.5,5.5,-1.4,34.0,,,,,,,,,,
14.07.00.929,-64.3,16.1,0,3.0,,85183.2,11.74,0.19,0.58,0.78,0.7,6.0,-1.1,34.0,,,,,,,,,,
14.07.00.942,-71.4,17.8,0,3.0,,84917.5,11.78,0.19,0.57,0.78,-0.2,5.4,-1.3,34.0,,,,,,,,,,
14.07.00.954,-77.2,19.3,0,3.0,,82862.4,12.07,0.19,0.57,0.79,0.3,5.4,-1.5,34.0,,,,,,,,,,
14.07.00.962,-107.2,26.8,0,3.0,,81415.9,12.28,0.19,0.57,0.79,0.8,6.3,-1.7,34.0,,,,,,,,,,
14.07.00.974,-52.4,13.1,0,3.0,,81811.4,12.22,0.19,0.57,0.79,0.9,6.0,-1.4,34.0,,,,,,,,,,
14.07.00.987,-93.0,23.2,0,3.0,,85894.8,11.64,0.19,0.58,0.79,0.7,6.1,-1.2,34.0,,,,,,,,,,
14.07.00.995,-126.9,31.7,0,3.0,,82306.2,12.15,0.19,0.58,0.79,0.7,6.2,-1.3,34.0,,,,,,,,,,
14.07.01.007,-90.8,22.7,0,3.0,,84485.3,11.84,0.19,0.58,0.79,0.6,6.1,-1.0,34.0,,,,,,,,,,
14.07.01.020,-82.3,20.6,0,3.0,,81855.5,12.22,0.19,0.57,0.78,0.6,5.7,-1.4,34.0,,,,,,,,,,
14.07.01.028,-139.6,34.9,0,3.0,,82581.1,12.11,0.19,0.57,0.79,0.8,5.6,-1.4,34.0,,,,,,,,,,
14.07.01.040,-81.0,20.2,0,3.0,,85015.2,11.76,0.19,0.58,0.79,0.9,5.8,-1.1,34.0,,,,,,,,,,
14.07.01.052,-124.4,31.1,0,3.0,,84730.1,11.8,0.19,0.58,0.78,0.5,5.6,-1.3,34.0,,,,,,,,,,
14.07.01.060,-152.9,38.2,0,3.0,,82759.6,12.08,0.18,0.57,0.78,0.2,5.3,-1.5,34.0,,,,,,,,,,
14.07.01.073,-143.5,35.9,0,3.0,,86234.5,11.6,0.19,0.58,0.79,1.4,5.6,-0.9,34.0,,,,,,,,,,
14.07.01.085,-144.8,36.2,0,3.0,,81553.7,12.26,0.19,0.58,0.78,0.7,6.5,-1.3,34.0,,,,,,,,,,
14.07.01.093,-128.4,32.1,0,3.0,,81360.0,12.29,0.18,0.58,0.78,0.1,5.8,-1.5,34.0,,,,,,,,,,
14.07.01.105,-175.0,43.8,0,3.0,,83068.9,12.04,0.18,0.58,0.79,1.0,5.2,-1.1,34.0,,,,,,,,,,
14.07.01.114,-157.7,39.4,0,3.0,,85011.8,11.76,0.19,0.58,0.79,0.8,6.6,-1.6,34.0,,,,,,,,,,
14.07.01.126,18.8,4.7,1,4.0,80.0,88031.7,11.36,0.19,0.58,0.79,0.5,7.6,-1.2,34.0,,,,,,,,,,
14.07.01.138,116.4,29.1,0,4.0,,79765.1,12.54,0.19,0.58,0.79,0.1,5.6,-1.1,34.0,,,,,,,,,,
14.07.01.146,168.3,42.1,0,4.0,,83324.2,12.0,0.18,0.57,0.79,0.1,6.4,-1.1,34.0,,,,,,,,,,
14.07.01.159,232.0,58.0,0,4.0,,86079.4,11.62,0.18,0.58,0.78,0.2,5.5,-1.3,34.0,,,,,,,,,,
14.07.01.171,301.4,75.4,0,4.0,,83632.0,11.96,0.18,0.58,0.79,0.6,7.1,-1.5,34.0,,,,,,,,,,
14.07.01.180,298.5,74.6,0,4.0,,81702.5,12.24,0.19,0.58,0.79,1.1,6.6,-1.2,34.0,,,,,,,,,,
14.07.01.192,338.4,84.6,0,4.0,,82783.5,12.08,0.19,0.58,0.78,0.0,5.2,-1.3,34.0,,,,,,,,,,
14.07.01.204,371.3,92.8,0,4.0,,82948.0,12.06,0.19,0.58,0.78,0.3,5.0,-1.2,34.0,,,,,,,,,,
14.07.01.212,389.8,97.4,0,4.0,,86428.9,11.57,0.19,0.58,0.78,-0.2,6.7,-1.2,34.0,,,,,,,,,,
14.07.01.224,406.2,101.6,0,4.0,,86437.3,11.57,0.19,0.57,0.79,0.4,5.7,-1.4,34.0,,,,,,,,,,
14.07.01.237,392.8,98.2,0,4.0,,81509.3,12.27,0.19,0.58,0.79,0.4,5.1,-1.5,34.0,,,,,,,,,,
14.07.01.245,375.3,93.8,0,4.0,,87341.2,11.45,0.19,0.57,0.78,1.4,5.2,-1.7,34.0,,,,,,,,,,
14.07.01.257,377.1,94.3,0,4.0,,82135.2,12.18,0.19,0.6,0.84,0.9,4.0,0.0,34.0,,,,,,,,,,
14.07.01.269,442.9,110.7,0,4.0,,83993.2,11.91,0.18,0.56,0.76,-1.4,7.8,-1.2,34.0,,,,,,,,,,
14.07.01.278,369.5,92.4,0,4.0,,84097.2,11.89,0.21,0.57,0.77,1.4,7.5,-1.4,34.0,,,,,,,,,,
14.07.01.290,325.3,81.3,0,4.0,,81780.8,12.23,0.2,0.58,0.81,-0.7,4.5,-1.2,34.0,,,,,,,,,,
14.07.01.302,296.3,74.1,0,4.0,,85190.9,11.74,0.18,0.56,0.77,0.2,8.1,-1.5,34.0,,,,,,,,,,
14.07.01.310,239.3,59.8,0,4.0,,80013.8,12.5,0.18,0.57,0.77,2.0,7.1,-1.7,34.0,,,,,,,,,,
14.07.01.323,197.2,49.3,0,4.0,,84222.3,11.87,0.19,0.6,0.79,-1.1,1.7,-1.2,34.0,,,,,,,,,,
14.07.01.335,175.4,43.8,0,4.0,,84966.6,11.77,0.18,0.58,0.79,-0.4,5.6,-1.0,34.0,,,,,,,,,,
14.07.01.343,112.8,28.2,0,4.0,,84682.9,11.81,0.18,0.57,0.78,2.4,9.7,-1.4,34.0,,,,,,,,,,
14.07.01.355,77.7,19.4,0,4.0,,86517.5,11.56,0.19,0.57,0.77,-0.6,5.2,-1.6,34.0,,,,,,,,,,
14.07.01.368,-7.4,1.8,0,4.0,,83114.6,12.03,0.18,0.58,0.8,-1.3,2.1,-1.0,34.0,,,,,,,,,,
14.07.01.380,44.8,11.2,0,4.0,,78591.5,12.72,0.18,0.58,0.79,2.6,7.7,-1.3,34.0,,,,,,,,,,
14.07.01.388,13.5,3.4,0,4.0,,86866.6,11.51,0.18,0.57,0.78,1.0,9.0,-1.0,34.0,,,,,,,,,,
14.07.01.400,53.3,13.3,0,4.0,,82633.1,12.1,0.19,0.57,0.78,-1.1,3.0,-1.7,34.0,,,,,,,,,,
14.07.01.413,67.5,16.9,0,4.0,,82256.5,12.16,0.19,0.57,0.8,0.9,5.6,-1.3,34.0,,,,,,,,,,
14.07.01.421,80.2,20.0,0,4.0,,81205.7,12.31,0.18,0.57,0.79,1.2,8.8,-1.4,34.0,,,,,,,,,,
14.07.01.433,75.0,18.8,0,4.0,,80197.5,12.47,0.19,0.58,0.77,0.4,5.8,-1.7,34.0,,,,,,,,,,
14.07.01.445,43.3,10.8,0,4.0,,79415.3,12.59,0.19,0.58,0.79,-0.4,2.8,-1.0,34.0,,,,,,,,,,
14.07.01.454,90.2,22.6,0,4.0,,83624.3,11.96,0.18,0.58,0.79,0.7,7.3,-1.5,34.0,,,,,,,,,,
14.07.01.466,37.4,9.4,0,4.0,,85662.1,11.67,0.19,0.57,0.78,0.9,7.0,-1.3,34.0,,,,,,,,,,
14.07.01.478,49.7,12.4,0,4.0,,82187.3,12.17,0.18,0.58,0.79,0.7,4.9,-1.1,34.0,,,,,,,,,,
14.07.01.487,48.1,12.0,0,4.0,,84078.3,11.89,0.18,0.57,0.79,-0.1,4.2,-1.4,34.0,,,,,,,,,,
14.07.01.499,18.7,4.7,0,4.0,,86952.6,11.5,0.19,0.57,0.79,0.7,7.1,-2.2,34.0,,,,,,,,,,
14.07.01.512,-32.9,8.2,0,4.0,,83501.8,11.98,0.19,0.57,0.8,0.3,6.8,-1.5,34.0,,,,,,,,,,
14.07.01.523,7.6,1.9,0,4.0,,81034.4,12.34,0.19,0.56,0.79,0.7,6.6,-2.1,34.0,,,,,,,,,,
14.07.01.532,-4.1,1.0,0,4.0,,83737.7,11.94,0.17,0.54,0.71,1.2,9.6,-3.9,34.0,,,,,,,,,,
14.07.01.544,-52.4,13.1,0,4.0,,81586.3,12.26,0.21,0.68,0.9,2.3,-2.8,0.1,34.0,,,,,,,,,,
14.07.01.556,-50.2,12.6,0,4.0,,84352.6,11.85,0.16,0.56,0.77,1.0,9.2,-0.6,34.0,,,,,,,,,,
14.07.01.564,-32.3,8.1,0,4.0,,81219.8,12.31,0.17,0.56,0.69,5.8,12.5,-1.8,34.0,,,,,,,,,,
14.07.01.577,-27.3,6.8,0,4.0,,79765.1,12.54,0.21,0.63,0.84,-4.7,-3.8,0.2,34.0,,,,,,,,,,
14.07.01.589,-50.4,12.6,0,4.0,,85492.7,11.7,0.2,0.59,0.82,-5.5,2.1,-1.1,34.0,,,,,,,,,,
14.07.01.597,-47.0,11.8,0,4.0,,83675.3,11.95,0.19,0.52,0.76,7.4,16.9,-1.9,34.0,,,,,,,,,,
14.07.01.609,-69.0,17.2,0,4.0,,84593.5,11.82,0.19,0.56,0.77,0.7,7.6,-2.9,34.0,,,,,,,,,,
14.07.01.622,-50.9,12.7,0,4.0,,81627.6,12.25,0.19,0.59,0.79,-4.2,-6.3,-1.4,34.0,,,,,,,,,,
14.07.01.630,-83.9,21.0,0,4.0,,79833.5,12.53,0.19,0.6,0.81,3.0,6.0,-0.7,34.0,,,,,,,,,,
14.07.01.671,-74.4,18.6,0,4.0,,85272.6,11.73,0.18,0.56,0.84,-3.0,4.2,-1.0,34.0,,,,,,,,,,
14.07.01.683,-95.6,23.9,0,4.0,,85501.1,11.7,0.19,0.53,0.79,4.4,13.3,-2.0,34.0,,,,,,,,,,
14.07.01.695,-70.0,17.5,0,4.0,,81250.3,12.31,0.18,0.55,0.76,2.1,5.3,-2.0,34.0,,,,,,,,,,
14.07.01.704,-121.2,30.3,0,4.0,,85751.3,11.66,0.2,0.59,0.79,0.1,0.0,-1.8,34.0,,,,,,,,,,
14.07.01.716,-72.4,18.1,0,4.0,,83527.9,11.97,0.2,0.6,0.8,3.4,7.5,-1.0,34.0,,,,,,,,,,
14.07.01.728,-125.1,31.3,0,4.0,,82839.6,12.07,0.19,0.59,0.77,2.5,9.8,-1.2,34.0,,,,,,,,,,
14.07.01.736,-125.1,31.3,0,4.0,,81347.6,12.29,0.18,0.58,0.77,-2.7,3.4,-0.8,34.0,,,,,,,,,,
14.07.01.749,-94.8,23.7,0,4.0,,84605.5,11.82,0.18,0.56,0.81,-3.1,4.1,-1.2,34.0,,,,,,,,,,
14.07.01.761,-104.3,26.1,0,4.0,,84412.6,11.85,0.18,0.55,0.8,0.6,8.2,-1.7,34.0,,,,,,,,,,
14.07.01.769,-129.2,32.3,0,4.0,,84280.5,11.87,0.18,0.56,0.78,2.6,7.0,-1.7,34.0,,,,,,,,,,
14.07.01.781,-130.1,32.5,0,4.0,,78269.4,12.78,0.19,0.58,0.78,1.8,4.7,-1.8,34.0,,,,,,,,,,
14.07.01.794,-188.2,47.0,0,4.0,,82220.7,12.16,0.19,0.6,0.79,2.2,5.5,-1.2,34.0,,,,,,,,,,
14.07.01.802,-171.1,42.8,0,4.0,,83510.7,11.97,0.19,0.6,0.78,1.2,7.2,-1.0,34.0,,,,,,,,,,
14.07.01.814,-162.1,40.5,0,4.0,,83468.7,11.98,0.19,0.58,0.78,-0.1,6.0,-0.8,34.0,,,,,,,,,,
14.07.01.826,-151.2,37.8,0,4.0,,79862.3,12.52,0.18,0.57,0.79,0.0,5.9,-1.3,34.0,,,,,,,,,,
14.07.01.839,24.9,6.2,1,5.0,82.7,84259.6,11.87,0.18,0.56,0.79,0.5,5.5,-1.1,34.0,,,,,,,,,,
14.07.01.847,50.8,12.7,0,5.0,,85489.2,11.7,0.18,0.57,0.79,-0.1,4.4,-1.1,34.0,,,,,,,,,,
14.07.01.859,118.9,29.7,0,5.0,,79214.4,12.62,0.19,0.56,0.79,1.6,5.3,-1.4,34.0,,,,,,,,,,
14.07.01.872,226.7,56.7,0,5.0,,83496.1,11.98,0.19,0.58,0.78,1.5,6.9,-1.4,34.0,,,,,,,,,,
14.07.01.880,244.8,61.2,0,5.0,,80932.9,12.36,0.19,0.59,0.78,1.1,5.9,-1.1,34.0,,,,,,,,,,
14.07.01.892,314.8,78.7,0,5.0,,83483.8,11.98,0.2,0.59,0.79,0.3,6.6,-0.7,34.0,,,,,,,,,,
14.07.01.904,336.4,84.1,0,5.0,,80746.4,12.38,0.19,0.58,0.79,0.3,7.3,-0.8,34.0,,,,,,,,,,
14.07.01.912,303.3,75.8,0,5.0,,83240.4,12.01,0.18,0.57,0.79,0.2,7.1,-0.8,34.0,,,,,,,,,,
14.07.01.925,368.2,92.0,0,5.0,,83154.7,12.03,0.18,0.57,0.79,-0.6,5.3,-1.0,34.0,,,,,,,,,,
14.07.01.937,413.1,103.3,0,5.0,,87132.5,11.48,0.18,0.57,0.79,-0.1,5.1,-1.0,34.0,,,,,,,,,,
14.07.01.949,386.0,96.5,0,5.0,,85689.5,11.67,0.18,0.56,0.79,1.5,6.3,-1.8,34.0,,,,,,,,,,
14.07.01.958,451.6,112.9,0,5.0,,86879.5,11.51,0.18,0.56,0.78,1.3,5.2,-1.3,34.0,,,,,,,,,,
14.07.01.970,378.6,94.6,0,5.0,,81332.1,12.3,0.19,0.58,0.78,1.1,4.6,-1.4,34.0,,,,,,,,,,
14.07.01.982,432.1,108.0,0,5.0,,78896.9,12.67,0.19,0.58,0.79,2.1,6.4,-1.4,34.0,,,,,,,,,,
14.07.01.990,363.8,91.0,0,5.0,,80127.7,12.48,0.19,0.58,0.79,1.4,6.1,-1.3,34.0,,,,,,,,,,
14.07.02.003,347.9,87.0,0,5.0,,81084.7,12.33,0.19,0.58,0.79,0.5,5.2,-1.1,34.0,,,,,,,,,,
14.07.02.015,302.9,75.7,0,5.0,,83358.8,12.0,0.19,0.57,0.79,0.3,6.1,-1.1,34.0,,,,,,,,,,
14.07.02.024,267.5,66.9,0,5.0,,86883.8,11.51,0.19,0.58,0.79,0.6,5.8,-1.3,34.0,,,,,,,,,,
14.07.02.036,234.3,58.6,0,5.0,,83036.7,12.04,0.18,0.57,0.79,0.6,5.6,-1.6,34.0,,,,,,,,,,
14.07.02.048,149.5,37.4,0,5.0,,84131.6,11.89,0.18,0.58,0.79,0.7,5.7,-1.5,34.0,,,,,,,,,,
14.07.02.056,106.9,26.7,0,5.0,,85150.0,11.74,0.18,0.58,0.78,0.6,5.7,-1.4,34.0,,,,,,,,,,
14.07.02.068,73.0,18.2,0,5.0,,82123.8,12.18,0.19,0.58,0.79,0.4,5.4,-1.3,34.0,,,,,,,,,,
14.07.02.080,-31.1,7.8,0,5.0,,83464.5,11.98,0.18,0.57,0.79,0.6,5.9,-1.5,34.0,,,,,,,,,,
14.07.02.089,28.9,7.2,0,5.0,,80743.1,12.38,0.18,0.58,0.79,0.3,6.1,-1.2,34.0,,,,,,,,,,
14.07.02.101,7.9,2.0,0,5.0,,78613.6,12.72,0.19,0.56,0.78,0.3,5.3,-1.1,34.0,,,,,,,,,,
14.07.02.113,41.8,10.4,0,5.0,,83736.2,11.94,0.19,0.58,0.8,0.2,4.8,-1.3,34.0,,,,,,,,,,
14.07.02.121,67.9,17.0,0,5.0,,83301.1,12.0,0.19,0.58,0.78,1.7,7.3,-1.7,34.0,,,,,,,,,,
14.07.02.134,101.2,25.3,0,5.0,,83574.8,11.97,0.19,0.58,0.77,0.7,7.2,-1.3,34.0,,,,,,,,,,
14.07.02.146,69.6,17.4,0,5.0,,85463.0,11.7,0.19,0.58,0.78,-0.5,4.2,-1.7,34.0,,,,,,,,,,
14.07.02.154,71.2,17.8,0,5.0,,86340.0,11.58,0.18,0.58,0.79,-0.2,5.3,-1.4,34.0,,,,,,,,,,
14.07.02.167,43.3,10.8,0,5.0,,83010.2,12.05,0.18,0.57,0.78,1.2,7.7,-1.3,34.0,,,,,,,,,,
14.07.02.179,49.7,12.4,0,5.0,,81100.4,12.33,0.18,0.57,0.79,-0.2,5.4,-1.4,34.0,,,,,,,,,,
14.07.02.187,37.4,9.4,0,5.0,,81468.7,12.27,0.18,0.57,0.8,-0.4,4.1,-1.2,34.0,,,,,,,,,,
14.07.02.199,-4.2,1.0,0,5.0,,79613.8,12.56,0.18,0.57,0.79,1.5,7.1,-0.9,34.0,,,,,,,,,,
14.07.02.212,24.4,6.1,0,5.0,,86842.6,11.52,0.18,0.57,0.79,1.6,7.0,-1.2,34.0,,,,,,,,,,
14.07.02.220,-12.0,3.0,0,5.0,,80735.5,12.39,0.18,0.57,0.78,0.1,5.0,-0.8,34.0,,,,,,,,,,
14.07.02.232,-8.9,2.2,0,5.0,,83488.4,11.98,0.18,0.58,0.79,1.2,5.8,-0.7,34.0,,,,,,,,,,
14.07.02.240,-37.1,9.3,0,5.0,,79524.8,12.57,0.19,0.58,0.78,2.0,7.9,-1.1,34.0,,,,,,,,,,
14.07.02.253,-4.2,1.0,0,5.0,,83633.4,11.96,0.19,0.58,0.78,1.0,5.5,-0.9,34.0,,,,,,,,,,
14.07.02.265,-74.0,18.5,0,5.0,,82508.4,12.12,0.19,0.58,0.79,0.1,3.7,-1.1,34.0,,,,,,,,,,
14.07.02.273,-33.6,8.4,0,5.0,,79627.4,12.56,0.19,0.58,0.78,0.6,6.1,-1.3,34.0,,,,,,,,,,
14.07.02.285,-55.9,14.0,0,5.0,,81005.4,12.34,0.18,0.57,0.78,0.6,5.8,-1.7,34.0,,,,,,,,,,
14.07.02.298,-35.8,9.0,0,5.0,,81182.2,12.32,0.18,0.58,0.79,-0.4,3.8,-2.0,34.0,,,,,,,,,,
14.07.02.306,-22.8,5.7,0,5.0,,83916.5,11.92,0.18,0.57,0.79,0.4,5.1,-1.6,34.0,,,,,,,,,,
14.07.02.318,-57.5,14.4,0,5.0,,84661.4,11.81,0.18,0.57,0.79,1.6,6.6,-1.6,34.0,,,,,,,,,,
14.07.02.326,-43.3,10.8,0,5.0,,83839.0,11.93,0.18,0.58,0.78,1.0,5.5,-1.6,34.0,,,,,,,,,,
14.07.02.339,-81.9,20.5,0,5.0,,83084.4,12.04,0.18,0.58,0.78,1.1,5.5,-1.2,34.0,,,,,,,,,,
14.07.02.351,-89.5,22.4,0,5.0,,83802.1,11.93,0.19,0.59,0.78,0.8,7.5,-1.2,34.0,,,,,,,,,,
14.07.02.360,-75.0,18.8,0,5.0,,81158.4,12.32,0.19,0.58,0.78,0.5,6.9,-1.0,34.0,,,,,,,,,,
14.07.02.372,-74.4,18.6,0,5.0,,83479.9,11.98,0.18,0.58,0.79,-0.5,5.3,-1.0,34.0,,,,,,,,,,
14.07.02.384,-60.1,15.0,0,5.0,,82757.6,12.08,0.19,0.57,0.79,0.1,5.1,-1.6,34.0,,,,,,,,,,
14.07.02.392,-111.6,27.9,0,5.0,,82677.5,12.1,0.19,0.56,0.78,-0.3,6.0,-1.4,34.0,,,,,,,,,,
14.07.02.404,-115.2,28.8,0,5.0,,83537.8,11.97,0.19,0.57,0.8,1.0,6.8,-1.6,34.0,,,,,,,,,,
14.07.02.416,-127.9,32.0,0,5.0,,80206.9,12.47,0.16,0.57,0.78,3.0,7.9,-1.3,34.0,,,,,,,,,,
14.07.02.425,-104.6,26.2,0,5.0,,79985.9,12.5,0.17,0.59,0.76,2.9,6.6,-1.0,34.0,,,,,,,,,,
14.07.02.437,-114.4,28.6,0,5.0,,84827.1,11.79,0.19,0.6,0.79,-1.2,0.4,-0.5,34.0,,,,,,,,,,
14.07.02.478,-132.7,33.2,0,5.0,,81904.7,12.21,0.19,0.57,0.79,-1.1,2.2,-1.7,34.0,,,,,,,,,,
14.07.02.486,-130.7,32.7,0,5.0,,84719.5,11.8,0.19,0.58,0.8,0.2,1.9,-1.2,34.0,,,,,,,,,,
14.07.02.498,-147.3,36.8,0,5.0,,82844.3,12.07,0.19,0.58,0.79,3.4,10.3,-1.5,34.0,,,,,,,,,,
14.07.02.511,-157.8,39.4,0,5.0,,82999.9,12.05,0.19,0.59,0.76,1.0,8.4,-1.6,34.0,,,,,,,,,,
14.07.02.519,-129.4,32.4,0,5.0,,85988.9,11.63,0.18,0.59,0.79,-2.4,2.4,-1.2,34.0,,,,,,,,,,
14.07.02.531,-181.2,45.3,0,5.0,,83237.6,12.01,0.19,0.57,0.8,0.1,5.6,-0.6,34.0,,,,,,,,,,
14.07.02.540,-138.7,34.7,0,5.0,,81849.0,12.22,0.18,0.57,0.78,2.3,8.3,-1.4,34.0,,,,,,,,,,
14.07.02.552,57.5,14.4,1,6.0,91.4,82102.5,12.18,0.18,0.57,0.79,0.1,3.2,-1.1,34.0,,,,,,,,,,
14.07.02.564,137.0,34.2,0,6.0,,84437.0,11.84,0.19,0.57,0.79,0.0,3.1,-0.9,34.0,,,,,,,,,,
14.07.02.572,129.0,32.2,0,6.0,,79985.9,12.5,0.19,0.58,0.79,2.3,8.7,-1.2,34.0,,,,,,,,,,
14.07.02.584,221.3,55.3,0,6.0,,81391.4,12.29,0.18,0.58,0.78,1.9,6.7,-1.1,34.0,,,,,,,,,,
14.07.02.597,268.6,67.2,0,6.0,,80046.7,12.49,0.19,0.58,0.78,0.6,3.0,-1.1,34.0,,,,,,,,,,
14.07.02.609,354.3,88.6,0,6.0,,81580.4,12.26,0.19,0.58,0.78,1.1,5.8,-1.1,34.0,,,,,,,,,,
14.07.02.617,346.1,86.5,0,6.0,,82654.5,12.1,0.18,0.58,0.78,2.7,8.2,-1.0,34.0,,,,,,,,,,
14.07.02.629,378.4,94.6,0,6.0,,82219.0,12.16,0.18,0.58,0.79,0.5,5.4,-1.1,34.0,,,,,,,,,,
14.07.02.642,337.7,84.4,0,6.0,,80175.1,12.47,0.19,0.58,0.78,-0.5,4.3,-1.3,34.0,,,,,,,,,,
14.07.02.654,449.9,112.5,0,6.0,,83230.0,12.01,0.18,0.58,0.79,-0.1,5.7,-1.1,34.0,,,,,,,,,,
14.07.02.662,428.5,107.1,0,6.0,,83823.5,11.93,0.18,0.58,0.8,0.3,6.0,-1.0,34.0,,,,,,,,,,
14.07.02.675,370.6,92.6,0,6.0,,83438.1,11.98,0.19,0.57,0.79,0.5,5.7,-1.1,34.0,,,,,,,,,,
14.07.02.687,388.8,97.2,0,6.0,,86119.9,11.61,0.18,0.57,0.79,1.3,6.0,-1.4,34.0,,,,,,,,,,
14.07.02.696,417.7,104.4,0,6.0,,84538.3,11.83,0.19,0.58,0.78,1.1,5.3,-1.1,34.0,,,,,,,,,,
14.07.02.708,345.3,86.3,0,6.0,,82306.5,12.15,0.19,0.58,0.78,1.2,6.2,-0.9,34.0,,,,,,,,,,
14.07.02.720,351.7,87.9,0,6.0,,90081.2,11.1,0.19,0.58,0.78,1.4,6.7,-1.0,34.0,,,,,,,,,,
14.07.02.732,320.6,80.2,0,6.0,,80112.9,12.48,0.19,0.58,0.78,0.4,6.2,-0.9,34.0,,,,,,,,,,
14.07.02.740,255.1,63.8,0,6.0,,81077.2,12.33,0.19,0.58,0.79,0.3,5.3,-0.7,34.0,,,,,,,,,,
14.07.02.757,156.4,39.1,0,6.0,,82280.5,12.15,0.19,0.58,0.79,0.2,6.2,-1.0,34.0,,,,,,,,,,
14.07.02.765,117.2,29.3,0,6.0,,79131.7,12.64,0.18,0.57,0.79,0.1,5.8,-1.2,34.0,,,,,,,,,,
14.07.02.777,98.0,24.5,0,6.0,,86406.3,11.57,0.18,0.57,0.79,0.2,5.0,-1.2,34.0,,,,,,,,,,
14.07.02.785,31.4,7.8,0,6.0,,80628.5,12.4,0.19,0.57,0.79,0.6,5.5,-1.2,34.0,,,,,,,,,,
14.07.02.797,8.0,2.0,0,6.0,,81187.8,12.32,0.19,0.57,0.79,1.6,6.1,-1.2,34.0,,,,,,,,,,
14.07.02.806,-0.4,0.1,0,6.0,,83041.8,12.04,0.2,0.58,0.78,1.1,6.2,-1.1,34.0,,,,,,,,,,
14.07.02.818,58.0,14.5,0,6.0,,83826.4,11.93,0.19,0.58,0.78,1.1,6.0,-0.8,34.0,,,,,,,,,,
14.07.02.826,23.0,5.8,0,6.0,,80514.3,12.42,0.19,0.58,0.79,0.8,6.4,-0.9,34.0,,,,,,,,,,
14.07.02.838,67.5,16.9,0,6.0,,80787.0,12.38,0.19,0.58,0.78,1.2,6.5,-1.0,34.0,,,,,,,,,,
14.07.02.847,73.0,18.2,0,6.0,,83303.1,12.0,0.19,0.58,0.78,0.1,5.9,-1.1,34.0,,,,,,,,,,
14.07.02.859,91.6,22.9,0,6.0,,83144.7,12.03,0.19,0.58,0.78,-0.2,5.9,-1.2,34.0,,,,,,,,,,
14.07.02.867,68.9,17.2,0,6.0,,85930.2,11.64,0.19,0.58,0.78,0.1,5.6,-1.4,34.0,,,,,,,,,,
14.07.02.879,51.9,13.0,0,6.0,,83733.8,11.94,0.19,0.58,0.79,0.1,5.7,-1.3,34.0,,,,,,,,,,
14.07.02.888,76.0,19.0,0,6.0,,83785.6,11.94,0.19,0.57,0.78,0.5,5.7,-1.2,34.0,,,,,,,,,,
14.07.02.900,39.2,9.8,0,6.0,,83919.7,11.92,0.19,0.57,0.79,0.7,5.8,-1.6,34.0,,,,,,,,,,
14.07.02.908,40.1,10.0,0,6.0,,83295.4,12.01,0.19,0.58,0.79,1.1,6.0,-1.1,34.0,,,,,,,,,,
14.07.02.920,17.0,4.2,0,6.0,,80588.8,12.41,0.19,0.58,0.79,0.9,6.2,-1.3,34.0,,,,,,,,,,
14.07.02.929,-12.2,3.0,0,6.0,,83284.9,12.01,0.19,0.57,0.78,1.0,6.4,-1.0,34.0,,,,,,,,,,
14.07.02.941,8.5,2.1,0,6.0,,82256.2,12.16,0.19,0.58,0.78,0.5,6.2,-1.2,34.0,,,,,,,,,,
14.07.02.949,-12.2,3.0,0,6.0,,80105.2,12.48,0.19,0.58,0.79,0.0,5.8,-1.2,34.0,,,,,,,,,,
14.07.02.961,-21.9,5.5,0,6.0,,83286.5,12.01,0.19,0.58,0.8,0.3,5.7,-1.1,34.0,,,,,,,,,,
14.07.02.970,-12.8,3.2,0,6.0,,80793.8,12.38,0.18,0.57,0.79,0.6,6.5,-1.4,34.0,,,,,,,,,,
14.07.02.982,-6.9,1.7,0,6.0,,85010.0,11.76,0.18,0.57,0.78,0.8,6.0,-1.3,34.0,,,,,,,,,,
14.07.02.990,-11.5,2.9,0,6.0,,82050.5,12.19,0.19,0.58,0.79,0.1,5.1,-1.5,34.0,,,,,,,,,,
14.07.03.002,-23.9,6.0,0,6.0,,85331.9,11.72,0.18,0.58,0.79,0.4,5.4,-1.2,34.0,,,,,,,,,,
14.07.03.011,-25.5,6.4,0,6.0,,81601.5,12.25,0.19,0.57,0.79,0.8,6.3,-1.5,34.0,,,,,,,,,,
14.07.03.023,-68.2,17.0,0,6.0,,83735.0,11.94,0.19,0.58,0.78,0.1,6.3,-1.4,34.0,,,,,,,,,,
14.07.03.035,-36.9,9.2,0,6.0,,82795.2,12.08,0.19,0.58,0.79,0.0,5.5,-1.3,34.0,,,,,,,,,,
14.07.03.043,-66.6,16.6,0,6.0,,81340.6,12.29,0.19,0.57,0.78,0.5,6.9,-1.3,34.0,,,,,,,,,,
14.07.03.056,-52.3,13.1,0,6.0,,82600.9,12.11,0.19,0.57,0.79,1.1,6.2,-1.4,34.0,,,,,,,,,,
14.07.03.068,-105.0,26.2,0,6.0,,83161.9,12.02,0.19,0.58,0.79,-0.1,5.6,-0.9,34.0,,,,,,,,,,
14.07.03.076,-111.6,27.9,0,6.0,,83558.2,11.97,0.19,0.58,0.79,0.7,6.4,-1.4,34.0,,,,,,,,,,
14.07.03.088,-45.5,11.4,0,6.0,,80002.9,12.5,0.19,0.57,0.78,0.9,7.7,-1.5,34.0,,,,,,,,,,
14.07.03.097,-92.6,23.2,0,6.0,,84163.1,11.88,0.19,0.58,0.79,0.2,5.5,-1.0,34.0,,,,,,,,,,
14.07.03.109,-50.4,12.6,0,6.0,,83035.2,12.04,0.19,0.58,0.79,-0.3,4.8,-1.4,34.0,,,,,,,,,,
14.07.03.117,-40.8,10.2,0,6.0,,83531.1,11.97,0.19,0.57,0.79,0.1,6.4,-0.9,34.0,,,,,,,,,,
14.07.03.129,-98.1,24.5,0,6.0,,81313.4,12.3,0.19,0.57,0.78,1.4,7.1,-1.6,34.0,,,,,,,,,,
14.07.03.137,-91.5,22.9,0,6.0,,80132.1,12.48,0.19,0.58,0.79,0.3,5.6,-1.3,34.0,,,,,,,,,,
14.07.03.150,-88.1,22.0,0,6.0,,81173.1,12.32,0.19,0.58,0.79,0.3,4.2,-1.1,34.0,,,,,,,,,,
14.07.03.158,-133.3,33.3,0,6.0,,84841.0,11.79,0.19,0.57,0.78,1.4,7.0,-1.4,34.0,,,,,,,,,,
14.07.03.170,-132.1,33.0,0,6.0,,78001.3,12.82,0.19,0.57,0.78,1.5,6.8,-1.4,34.0,,,,,,,,,,
14.07.03.179,-136.5,34.1,0,6.0,,82256.6,12.16,0.19,0.58,0.78,-0.3,4.5,-1.5,34.0,,,,,,,,,,
14.07.03.191,-109.6,27.4,0,6.0,,85627.7,11.68,0.18,0.58,0.8,0.7,5.4,-1.2,34.0,,,,,,,,,,
14.07.03.203,-149.7,37.4,0,6.0,,82416.5,12.13,0.18,0.57,0.78,1.1,8.1,-1.9,34.0,,,,,,,,,,
14.07.03.211,-146.7,36.7,0,6.0,,82942.2,12.06,0.18,0.58,0.79,0.5,5.4,-1.4,34.0,,,,,,,,,,
14.07.03.224,-114.3,28.6,0,6.0,,80342.7,12.45,0.18,0.59,0.8,-0.5,3.5,-1.5,34.0,,,,,,,,,,
14.07.03.232,-155.5,38.9,0,6.0,,84082.3,11.89,0.18,0.56,0.78,0.9,7.6,-1.6,34.0,,,,,,,,,,
14.07.03.244,-171.6,42.9,0,6.0,,83908.0,11.92,0.18,0.57,0.78,1.2,7.3,-1.4,34.0,,,,,,,,,,
14.07.03.281,123.0,30.8,1,7.0,83.3,81874.7,12.21,0.19,0.58,0.8,-0.3,3.9,-1.4,34.0,83.3,,,,,,,,,
14.07.03.289,216.7,54.2,0,7.0,,82093.5,12.18,0.19,0.58,0.77,0.8,6.1,-1.4,34.0,,,,,,,,,,
14.07.03.301,249.6,62.4,0,7.0,,81456.9,12.28,0.19,0.58,0.78,0.8,5.1,-1.0,34.0,,,,,,,,,,
14.07.03.310,257.5,64.4,0,7.0,,85951.3,11.63,0.19,0.59,0.8,0.9,5.3,-1.4,34.0,,,,,,,,,,
14.07.03.322,315.9,79.0,0,7.0,,86402.0,11.57,0.19,0.58,0.79,0.6,6.1,-1.2,34.0,,,,,,,,,,
14.07.03.330,338.9,84.7,0,7.0,,84420.2,11.85,0.19,0.57,0.78,0.4,5.7,-1.1,34.0,,,,,,,,,,
14.07.03.342,347.8,87.0,0,7.0,,84641.2,11.81,0.18,0.57,0.78,0.5,6.4,-1.1,34.0,,,,,,,,,,
14.07.03.351,388.5,97.1,0,7.0,,82721.7,12.09,0.18,0.57,0.79,0.5,5.5,-1.4,34.0,,,,,,,,,,
14.07.03.363,416.9,104.2,0,7.0,,83247.2,12.01,0.18,0.57,0.79,0.4,5.1,-1.2,34.0,,,,,,,,,,
14.07.03.371,431.5,107.9,0,7.0,,85774.2,11.66,0.19,0.57,0.79,1.0,6.0,-1.4,34.0,,,,,,,,,,
14.07.03.383,434.7,108.7,0,7.0,,79204.7,12.63,0.19,0.58,0.78,1.4,7.2,-1.0,34.0,,,,,,,,,,
14.07.03.391,422.4,105.6,0,7.0,,81653.6,12.25,0.19,0.58,0.79,0.6,6.5,-1.3,34.0,,,,,,,,,,
14.07.03.404,405.9,101.5,0,7.0,,81918.5,12.21,0.19,0.58,0.78,0.3,5.8,-0.9,34.0,,,,,,,,,,
14.07.03.412,396.5,99.1,0,7.0,,82278.8,12.15,0.19,0.58,0.79,0.1,6.0,-0.7,34.0,,,,,,,,,,
14.07.03.424,328.8,82.2,0,7.0,,84799.0,11.79,0.19,0.57,0.79,0.6,6.8,-1.1,34.0,,,,,,,,,,
14.07.03.432,276.6,69.2,0,7.0,,83897.2,11.92,0.19,0.57,0.79,0.6,6.0,-1.2,34.0,,,,,,,,,,
14.07.03.445,290.3,72.6,0,7.0,,83971.7,11.91,0.19,0.57,0.79,0.7,5.3,-1.5,34.0,,,,,,,,,,
14.07.03.453,212.4,53.1,0,7.0,,84626.9,11.82,0.19,0.57,0.79,0.7,5.7,-1.3,34.0,,,,,,,,,,
14.07.03.465,203.6,50.9,0,7.0,,84081.9,11.89,0.18,0.58,0.78,0.9,6.2,-1.4,34.0,,,,,,,,,,
14.07.03.473,143.1,35.8,0,7.0,,81011.5,12.34,0.18,0.57,0.79,0.9,5.7,-1.2,34.0,,,,,,,,,,
14.07.03.486,66.0,16.5,0,7.0,,84017.9,11.9,0.19,0.58,0.79,0.7,5.6,-1.7,34.0,,,,,,,,,,
14.07.03.494,41.7,10.4,0,7.0,,79623.1,12.56,0.19,0.58,0.79,0.9,6.1,-1.2,34.0,,,,,,,,,,
14.07.03.506,-33.1,8.3,0,7.0,,83696.6,11.95,0.19,0.58,0.78,0.8,6.3,-1.2,34.0,,,,,,,,,,
14.07.03.514,34.1,8.5,0,7.0,,83358.1,12.0,0.19,0.58,0.78,0.2,5.4,-1.0,34.0,,,,,,,,,,
14.07.03.527,40.8,10.2,0,7.0,,81921.3,12.21,0.19,0.58,0.79,0.6,5.3,-1.1,34.0,,,,,,,,,,
14.07.03.535,63.5,15.9,0,7.0,,83236.9,12.01,0.19,0.57,0.78,0.5,6.3,-1.6,34.0,,,,,,,,,,
14.07.03.548,52.8,13.2,0,7.0,,79280.7,12.61,0.18,0.58,0.79,0.3,6.3,-1.5,34.0,,,,,,,,,,
14.07.03.556,41.1,10.3,0,7.0,,85569.9,11.69,0.19,0.58,0.79,0.4,5.3,-1.8,34.0,,,,,,,,,,
14.07.03.568,98.8,24.7,0,7.0,,83297.4,12.01,0.19,0.57,0.79,0.6,6.5,-1.6,34.0,,,,,,,,,,
14.07.03.580,73.9,18.5,0,7.0,,85420.6,11.71,0.19,0.58,0.78,0.8,6.7,-1.5,34.0,,,,,,,,,,
14.07.03.588,54.6,13.6,0,7.0,,78392.9,12.76,0.19,0.59,0.79,0.0,5.7,-1.3,34.0,,,,,,,,,,
14.07.03.600,40.5,10.1,0,7.0,,80739.9,12.39,0.19,0.58,0.79,0.2,6.3,-1.2,34.0,,,,,,,,,,
14.07.03.613,57.5,14.4,0,7.0,,83464.7,11.98,0.19,0.57,0.79,0.5,6.6,-1.3,34.0,,,,,,,,,,
14.07.03.621,76.8,19.2,0,7.0,,83292.4,12.01,0.18,0.56,0.79,0.0,5.1,-1.6,34.0,,,,,,,,,,
14.07.03.633,22.7,5.7,0,7.0,,78745.7,12.7,0.18,0.57,0.79,0.7,5.5,-1.7,34.0,,,,,,,,,,
14.07.03.645,-25.4,6.4,0,7.0,,82302.3,12.15,0.19,0.58,0.78,1.0,6.1,-1.6,34.0,,,,,,,,,,
14.07.03.654,27.6,6.9,0,7.0,,81290.3,12.3,0.18,0.58,0.78,0.7,4.9,-1.7,34.0,,,,,,,,,,
14.07.03.666,-0.1,0.0,0,7.0,,85057.4,11.76,0.19,0.58,0.79,0.3,4.9,-1.2,34.0,,,,,,,,,,
14.07.03.678,-35.7,8.9,0,7.0,,85684.8,11.67,0.19,0.58,0.79,0.8,6.4,-1.3,34.0,,,,,,,,,,
14.07.03.691,-3.9,1.0,0,7.0,,86854.7,11.51,0.18,0.58,0.78,0.4,6.4,-1.4,34.0,,,,,,,,,,
14.07.03.699,-39.0,9.8,0,7.0,,82541.2,12.12,0.19,0.58,0.78,-0.6,5.0,-1.1,34.0,,,,,,,,,,
14.07.03.711,-30.2,7.6,0,7.0,,82772.3,12.08,0.19,0.57,0.78,0.7,6.1,-1.6,34.0,,,,,,,,,,
14.07.03.724,-25.3,6.3,0,7.0,,80330.6,12.45,0.19,0.58,0.79,0.1,4.9,-1.3,34.0,,,,,,,,,,
14.07.03.732,,,0,7.0,,,,,,,,,,,,,,,,,,,,
14.07.03.748,,,0,7.0,,,,,,,,,,,,34.0,,,,,,,,
14.07.03.760,-72.6,18.2,0,7.0,,80791.9,12.38,0.18,0.59,0.78,0.7,4.1,-1.3,34.0,,,,,,,,,,
14.07.03.768,-41.7,10.4,0,7.0,,84728.8,11.8,0.19,0.59,0.8,0.5,4.3,-1.4,34.0,,,,,,,,,,
14.07.03.781,-78.9,19.7,0,7.0,,87663.2,11.41,0.18,0.58,0.78,1.6,6.8,-1.4,34.0,,,,,,,,,,
14.07.03.789,-87.7,21.9,0,7.0,,80539.2,12.42,0.19,0.58,0.78,0.5,6.3,-1.2,34.0,,,,,,,,,,
14.07.03.801,-71.4,17.8,0,7.0,,80791.8,12.38,0.19,0.57,0.79,-0.4,4.6,-1.6,34.0,,,,,,,,,,
14.07.03.809,-93.0,23.2,0,7.0,,83403.4,11.99,0.19,0.57,0.79,-0.1,4.7,-1.6,34.0,,,,,,,,,,
14.07.03.822,-91.1,22.8,0,7.0,,82896.1,12.06,0.19,0.57,0.79,1.3,7.0,-1.5,34.0,,,,,,,,,,
14.07.03.830,-79.0,19.8,0,7.0,,83535.5,11.97,0.19,0.57,0.78,1.2,6.6,-1.4,34.0,,,,,,,,,,
14.07.03.842,-111.5,27.9,0,7.0,,86967.1,11.5,0.18,0.58,0.79,0.5,6.1,-1.3,34.0,,,,,,,,,,
14.07.03.850,-148.4,37.1,0,7.0,,83423.7,11.99,0.19,0.59,0.79,0.6,6.4,-1.5,34.0,,,,,,,,,,
14.07.03.863,-86.4,21.6,0,7.0,,82299.4,12.15,0.19,0.58,0.79,0.8,7.4,-1.2,34.0,,,,,,,,,,
14.07.03.871,-99.4,24.8,0,7.0,,83271.4,12.01,0.18,0.58,0.79,0.5,6.1,-1.2,34.0,,,,,,,,,,
14.07.03.883,-107.5,26.9,0,7.0,,83150.6,12.03,0.18,0.57,0.79,0.0,5.7,-1.4,34.0,,,,,,,,,,
14.07.03.896,-114.0,28.5,0,7.0,,83063.8,12.04,0.19,0.57,0.79,1.0,6.1,-1.1,34.0,,,,,,,,,,
14.07.03.904,-131.3,32.8,0,7.0,,81917.1,12.21,0.2,0.57,0.78,0.8,5.5,-1.5,34.0,,,,,,,,,,
14.07.03.916,-152.2,38.0,0,7.0,,82116.2,12.18,0.19,0.58,0.79,0.5,5.0,-1.3,34.0,,,,,,,,,,
14.07.03.928,-132.1,33.0,0,7.0,,82181.5,12.17,0.19,0.58,0.79,0.7,6.2,-1.5,34.0,,,,,,,,,,
14.07.03.936,-132.6,33.2,0,7.0,,82126.2,12.18,0.18,0.58,0.78,1.1,6.5,-1.2,34.0,,,,,,,,,,
14.07.03.949,-138.3,34.6,0,7.0,,84731.4,11.8,0.18,0.58,0.78,0.2,5.6,-0.9,34.0,,,,,,,,,,
14.07.03.961,-191.9,48.0,0,7.0,,81350.2,12.29,0.19,0.58,0.79,0.3,5.4,-0.7,34.0,,,,,,,,,,
14.07.03.969,50.8,12.7,1,8.0,88.5,81570.9,12.26,0.19,0.57,0.79,0.7,6.3,-1.0,34.0,,,,,,,,,,
14.07.03.981,80.3,20.1,0,8.0,,84925.0,11.78,0.19,0.57,0.79,1.1,5.8,-0.9,34.0,,,,,,,,,,
14.07.03.994,136.0,34.0,0,8.0,,82709.3,12.09,0.19,0.57,0.79,1.5,5.0,-1.1,34.0,,,,,,,,,,
14.07.04.002,189.1,47.3,0,8.0,,81548.2,12.26,0.19,0.57,0.79,1.5,4.5,-1.4,34.0,,,,,,,,,,
14.07.04.014,263.8,66.0,0,8.0,,84380.0,11.85,0.19,0.58,0.79,1.9,5.3,-1.3,34.0,,,,,,,,,,
14.07.04.027,272.8,68.2,0,8.0,,90076.8,11.1,0.19,0.58,0.78,1.7,6.0,-1.4,34.0,,,,,,,,,,
14.07.04.035,311.9,78.0,0,8.0,,84444.9,11.84,0.19,0.58,0.78,1.0,5.3,-1.1,34.0,,,,,,,,,,
14.07.04.047,341.8,85.4,0,8.0,,82568.4,12.11,0.18,0.57,0.79,0.8,6.0,-1.2,34.0,,,,,,,,,,
14.07.04.088,376.3,94.1,0,8.0,,84954.4,11.77,0.19,0.58,0.79,0.6,6.7,-1.3,34.0,,,,,,,,,,
14.07.04.100,380.5,95.1,0,8.0,,86524.0,11.56,0.19,0.58,0.79,0.6,6.0,-1.3,34.0,,,,,,,,,,
14.07.04.108,358.9,89.7,0,8.0,,80028.6,12.5,0.19,0.58,0.78,0.1,6.0,-1.0,34.0,,,,,,,,,,
14.07.04.121,344.4,86.1,0,8.0,,84423.8,11.85,0.18,0.58,0.78,0.6,5.7,-1.4,34.0,,,,,,,,,,
14.07.04.133,358.5,89.6,0,8.0,,83986.1,11.91,0.18,0.58,0.78,0.7,6.0,-1.5,34.0,,,,,,,,,,
14.07.04.141,294.7,73.7,0,8.0,,85124.0,11.75,0.18,0.58,0.78,0.3,6.4,-1.8,34.0,,,,,,,,,,
14.07.04.153,284.2,71.0,0,8.0,,79982.4,12.5,0.18,0.58,0.77,0.2,5.9,-2.0,34.0,,,,,,,,,,
14.07.04.166,241.6,60.4,0,8.0,,81669.8,12.24,0.19,0.58,0.79,-0.9,5.3,-1.9,34.0,,,,,,,,,,
14.07.04.174,196.9,49.2,0,8.0,,83092.0,12.03,0.19,0.57,0.79,-0.8,5.4,-1.9,34.0,,,,,,,,,,
14.07.04.186,146.4,36.6,0,8.0,,84309.4,11.86,0.19,0.58,0.79,-0.5,6.0,-1.6,34.0,,,,,,,,,,
14.07.04.199,66.9,16.7,0,8.0,,81044.6,12.34,0.2,0.57,0.78,-0.2,6.8,-1.8,34.0,,,,,,,,,,
14.07.04.207,20.7,5.2,0,8.0,,84510.0,11.83,0.19,0.57,0.79,0.2,6.0,-1.6,34.0,,,,,,,,,,
14.07.04.219,-16.2,4.0,0,8.0,,82575.3,12.11,0.2,0.58,0.78,0.3,6.5,-1.4,34.0,,,,,,,,,,
14.07.04.228,28.9,7.2,0,8.0,,80838.1,12.37,0.19,0.58,0.78,0.4,8.1,-1.4,34.0,,,,,,,,,,
14.07.04.240,25.2,6.3,0,8.0,,86570.2,11.55,0.19,0.58,0.78,-0.2,8.1,-1.0,34.0,,,,,,,,,,
14.07.04.252,38.3,9.6,0,8.0,,83697.5,11.95,0.19,0.57,0.78,-0.8,7.1,-1.2,34.0,,,,,,,,,,
14.07.04.260,71.2,17.8,0,8.0,,84402.3,11.85,0.19,0.57,0.78,-0.8,6.3,-1.2,34.0,,,,,,,,,,
14.07.04.272,48.2,12.0,0,8.0,,86034.8,11.62,0.18,0.57,0.79,0.1,6.2,-1.3,34.0,,,,,,,,,,
14.07.04.285,83.0,20.8,0,8.0,,83171.2,12.02,0.19,0.57,0.79,0.8,6.5,-1.4,34.0,,,,,,,,,,
14.07.04.293,94.3,23.6,0,8.0,,83013.7,12.05,0.18,0.57,0.78,0.8,5.9,-1.5,34.0,,,,,,,,,,
14.07.04.305,60.1,15.0,0,8.0,,84394.3,11.85,0.18,0.58,0.79,1.2,4.3,-1.8,34.0,,,,,,,,,,
14.07.04.317,102.4,25.6,0,8.0,,83088.5,12.04,0.18,0.58,0.79,0.8,5.1,-1.9,34.0,,,,,,,,,,
14.07.04.325,69.2,17.3,0,8.0,,83238.1,12.01,0.18,0.58,0.78,1.3,5.7,-1.4,34.0,,,,,,,,,,
14.07.04.338,51.5,12.9,0,8.0,,84903.0,11.78,0.18,0.58,0.79,1.0,6.1,-1.6,34.0,,,,,,,,,,
14.07.04.350,21.7,5.4,0,8.0,,83611.7,11.96,0.19,0.58,0.78,0.6,5.2,-1.0,34.0,,,,,,,,,,
14.07.04.358,-5.9,1.5,0,8.0,,82000.9,12.19,0.19,0.58,0.79,0.7,5.5,-0.9,34.0,,,,,,,,,,
14.07.04.371,-0.1,0.0,0,8.0,,80639.0,12.4,0.19,0.58,0.78,0.9,6.6,-1.2,34.0,,,,,,,,,,
14.07.04.383,-11.1,2.8,0,8.0,,80267.0,12.46,0.18,0.57,0.78,0.4,6.1,-1.2,34.0,,,,,,,,,,
14.07.04.391,12.2,3.0,0,8.0,,82992.2,12.05,0.19,0.57,0.79,-0.1,5.2,-1.3,34.0,,,,,,,,,,
14.07.04.403,-41.5,10.4,0,8.0,,82242.8,12.16,0.19,0.57,0.79,0.7,5.7,-1.4,34.0,,,,,,,,,,
14.07.04.416,-23.7,5.9,0,8.0,,79283.5,12.61,0.19,0.57,0.79,1.1,6.5,-1.4,34.0,,,,,,,,,,
14.07.04.424,-20.3,5.1,0,8.0,,82840.0,12.07,0.18,0.57,0.78,1.2,5.6,-1.5,34.0,,,,,,,,,,
14.07.04.436,-44.6,11.2,0,8.0,,86000.0,11.63,0.19,0.57,0.78,0.7,5.0,-1.4,34.0,,,,,,,,,,
14.07.04.449,-20.1,5.0,0,8.0,,82274.1,12.15,0.19,0.58,0.79,1.3,6.3,-1.4,34.0,,,,,,,,,,
14.07.04.457,-56.8,14.2,0,8.0,,82797.5,12.08,0.19,0.59,0.79,1.3,6.1,-1.5,34.0,,,,,,,,,,
14.07.04.469,-52.6,13.2,0,8.0,,82496.9,12.12,0.18,0.58,0.78,0.2,5.4,-1.3,34.0,,,,,,,,,,
14.07.04.477,-64.0,16.0,0,8.0,,87135.9,11.48,0.18,0.57,0.78,0.2,6.0,-1.0,34.0,,,,,,,,,,
14.07.04.489,-134.2,33.6,0,8.0,,83463.7,11.98,0.18,0.57,0.8,0.5,6.3,-1.5,34.0,,,,,,,,,,
14.07.04.502,-76.7,19.2,0,8.0,,81964.8,12.2,0.19,0.57,0.79,0.6,5.7,-1.2,34.0,,,,,,,,,,
14.07.04.510,-77.6,19.4,0,8.0,,83728.3,11.94,0.19,0.57,0.79,1.0,5.8,-1.2,34.0,,,,,,,,,,
14.07.04.522,-90.0,22.5,0,8.0,,82586.0,12.11,0.18,0.58,0.79,1.0,6.5,-1.2,34.0,,,,,,,,,,
14.07.04.534,-82.9,20.7,0,8.0,,78527.6,12.73,0.19,0.58,0.78,0.5,6.2,-1.0,34.0,,,,,,,,,,
14.07.04.543,-96.8,24.2,0,8.0,,82098.8,12.18,0.18,0.58,0.78,0.3,5.8,-1.0,34.0,,,,,,,,,,
14.07.04.555,-80.4,20.1,0,8.0,,82528.8,12.12,0.18,0.57,0.78,0.9,6.5,-1.4,34.0,,,,,,,,,,
14.07.04.567,-134.3,33.6,0,8.0,,80410.0,12.44,0.18,0.57,0.79,0.7,6.3,-1.0,34.0,,,,,,,,,,
14.07.04.576,-108.6,27.2,0,8.0,,82388.9,12.14,0.18,0.57,0.78,0.1,5.3,-1.1,34.0,,,,,,,,,,
14.07.04.588,-129.0,32.2,0,8.0,,81432.3,12.28,0.18,0.58,0.79,1.1,5.5,-1.1,34.0,,,,,,,,,,
14.07.04.600,-104.1,26.0,0,8.0,,80835.9,12.37,0.19,0.58,0.79,0.9,6.2,-1.3,34.0,,,,,,,,,,
14.07.04.608,-120.5,30.1,0,8.0,,82619.6,12.1,0.19,0.58,0.79,0.3,5.5,-1.3,34.0,,,,,,,,,,
14.07.04.620,-164.2,41.0,0,8.0,,83608.5,11.96,0.19,0.57,0.79,0.2,6.1,-1.5,34.0,,,,,,,,,,
14.07.04.629,-124.9,31.2,0,8.0,,85275.7,11.73,0.19,0.57,0.79,1.0,6.2,-1.5,34.0,,,,,,,,,,
14.07.04.641,-143.3,35.8,0,8.0,,82317.2,12.15,0.19,0.57,0.79,0.6,6.4,-1.2,34.0,,,,,,,,,,
14.07.04.653,-136.2,34.0,0,8.0,,85308.1,11.72,0.19,0.57,0.79,1.2,5.8,-1.2,34.0,,,,,,,,,,
14.07.04.661,-183.4,45.8,0,8.0,,81973.7,12.2,0.19,0.58,0.79,0.9,5.9,-1.5,34.0,,,,,,,,,,
14.07.04.674,-173.6,43.4,0,8.0,,76552.7,13.06,0.19,0.58,0.79,1.4,5.9,-1.3,34.0,,,,,,,,,,
14.07.04.686,41.3,10.3,1,9.0,87.7,85972.1,11.63,0.19,0.58,0.78,0.6,5.5,-1.2,34.0,,,,,,,,,,
14.07.04.694,77.4,19.4,0,9.0,,85639.2,11.68,0.19,0.58,0.78,0.4,5.7,-1.3,34.0,,,,,,,,,,
14.07.04.706,157.8,39.4,0,9.0,,80207.6,12.47,0.19,0.57,0.78,0.1,5.6,-1.3,34.0,,,,,,,,,,
14.07.04.719,194.0,48.5,0,9.0,,84701.7,11.81,0.18,0.57,0.78,0.4,5.7,-1.2,34.0,,,,,,,,,,
14.07.04.727,254.8,63.7,0,9.0,,84061.6,11.9,0.18,0.57,0.78,1.0,5.8,-1.5,34.0,,,,,,,,,,
14.07.04.740,282.0,70.5,0,9.0,,82344.8,12.14,0.19,0.58,0.79,1.0,5.7,-1.3,34.0,,,,,,,,,,
14.07.04.752,365.5,91.4,0,9.0,,84930.2,11.77,0.19,0.58,0.79,0.7,5.6,-1.3,34.0,,,,,,,,,,
14.07.04.760,354.6,88.6,0,9.0,,82497.4,12.12,0.18,0.57,0.78,0.3,5.6,-1.4,34.0,,,,,,,,,,
14.07.04.772,361.6,90.4,0,9.0,,84189.8,11.88,0.18,0.57,0.79,0.6,5.9,-1.2,34.0,,,,,,,,,,
14.07.04.780,347.6,86.9,0,9.0,,83270.9,12.01,0.19,0.58,0.78,0.5,5.9,-1.4,34.0,,,,,,,,,,
14.07.04.792,385.0,96.2,0,9.0,,84643.8,11.81,0.18,0.58,0.79,0.9,5.5,-1.2,34.0,,,,,,,,,,
14.07.04.805,461.9,115.5,0,9.0,,81301.0,12.3,0.19,0.57,0.79,0.2,6.1,-1.2,34.0,,,,,,,,,,
14.07.04.813,448.5,112.1,0,9.0,,85224.7,11.73,0.19,0.58,0.78,0.8,5.7,-1.1,34.0,,,,,,,,,,
14.07.04.825,486.4,121.6,0,9.0,,84407.5,11.85,0.19,0.58,0.79,0.1,5.6,-1.2,34.0,,,,,,,,,,
14.07.04.838,346.2,86.6,0,9.0,,85743.9,11.66,0.18,0.57,0.78,0.4,5.5,-1.3,34.0,,,,,,,,,,
14.07.04.846,330.5,82.6,0,9.0,,82661.0,12.1,0.18,0.57,0.78,0.6,6.3,-1.4,34.0,,,,,,,,,,
14.07.04.887,183.4,45.8,0,9.0,,85583.5,11.68,0.19,0.57,0.79,1.0,6.3,-1.5,34.0,,,,,,,,,,
14.07.04.899,123.1,30.8,0,9.0,,82538.8,12.12,0.19,0.57,0.79,0.3,6.0,-1.3,34.0,,,,,,,,,,
14.07.04.907,67.3,16.8,0,9.0,,81854.0,12.22,0.19,0.58,0.79,0.2,5.9,-1.1,34.0,,,,,,,,,,
14.07.04.916,45.1,11.3,0,9.0,,81074.5,12.33,0.19,0.57,0.79,0.1,5.6,-1.3,34.0,,,,,,,,,,
14.07.04.928,-16.6,4.2,0,9.0,,83837.3,11.93,0.19,0.57,0.79,0.8,5.9,-1.4,34.0,,,,,,,,,,
14.07.04.936,11.4,2.8,0,9.0,,84419.7,11.85,0.19,0.58,0.79,0.5,6.1,-1.5,34.0,,,,,,,,,,
14.07.04.948,29.5,7.4,0,9.0,,77052.1,12.98,0.18,0.58,0.79,0.5,5.6,-1.5,34.0,,,,,,,,,,
14.07.04.960,92.4,23.1,0,9.0,,86724.5,11.53,0.18,0.58,0.78,0.8,6.0,-1.6,34.0,,,,,,,,,,
14.07.04.969,74.7,18.7,0,9.0,,83693.9,11.95,0.19,0.57,0.79,0.7,6.0,-1.2,34.0,,,,,,,,,,
14.07.04.981,51.1,12.8,0,9.0,,84533.9,11.83,0.19,0.57,0.79,0.1,5.4,-1.1,34.0,,,,,,,,,,
14.07.04.993,56.0,14.0,0,9.0,,80997.1,12.35,0.18,0.57,0.78,0.5,6.1,-1.1,34.0,,,,,,,,,,
14.07.05.001,34.2,8.6,0,9.0,,83243.8,12.01,0.19,0.58,0.8,0.5,6.3,-1.0,34.0,,,,,,,,,,
14.07.05.014,86.7,21.7,0,9.0,,83874.6,11.92,0.18,0.57,0.79,0.6,5.6,-1.2,34.0,,,,,,,,,,
14.07.05.026,55.3,13.8,0,9.0,,80922.4,12.36,0.19,0.57,0.79,0.4,5.6,-1.2,34.0,,,,,,,,,,
14.07.05.034,59.9,15.0,0,9.0,,88148.5,11.34,0.18,0.57,0.79,0.7,5.5,-1.3,34.0,,,,,,,,,,
14.07.05.047,33.1,8.3,0,9.0,,81348.5,12.29,0.18,0.58,0.79,1.0,5.7,-1.1,34.0,,,,,,,,,,
14.07.05.055,19.4,4.8,0,9.0,,83158.5,12.03,0.18,0.58,0.79,0.7,5.5,-1.5,34.0,,,,,,,,,,
14.07.05.067,14.7,3.7,0,9.0,,84836.3,11.79,0.18,0.58,0.79,0.8,5.3,-1.3,34.0,,,,,,,,,,
14.07.05.080,-3.1,0.8,0,9.0,,82549.3,12.11,0.19,0.58,0.78,0.6,5.4,-1.2,34.0,,,,,,,,,,
14.07.05.088,-14.0,3.5,0,9.0,,80902.2,12.36,0.19,0.58,0.79,0.6,6.0,-1.2,34.0,,,,,,,,,,
14.07.05.100,-28.8,7.2,0,9.0,,82141.7,12.17,0.18,0.57,0.78,0.4,6.0,-1.2,34.0,,,,,,,,,,
14.07.05.112,-2.6,0.6,0,9.0,,81792.3,12.23,0.19,0.57,0.79,0.7,5.8,-1.4,34.0,,,,,,,,,,
14.07.05.120,-19.3,4.8,0,9.0,,81817.0,12.22,0.19,0.58,0.79,0.7,6.1,-1.4,34.0,,,,,,,,,,
14.07.05.133,-88.4,22.1,0,9.0,,83116.4,12.03,0.19,0.58,0.79,0.9,6.5,-1.2,34.0,,,,,,,,,,
14.07.05.145,-18.5,4.6,0,9.0,,84300.4,11.86,0.18,0.57,0.78,0.6,5.8,-1.0,34.0,,,,,,,,,,
14.07.05.153,-41.4,10.4,0,9.0,,83951.6,11.91,0.18,0.58,0.79,0.5,5.8,-1.2,34.0,,,,,,,,,,
14.07.05.165,-94.8,23.7,0,9.0,,81313.5,12.3,0.18,0.58,0.79,0.4,5.8,-1.3,34.0,,,,,,,,,,
14.07.05.178,-42.8,10.7,0,9.0,,83695.2,11.95,0.19,0.58,0.78,0.4,5.9,-1.5,34.0,,,,,,,,,,
14.07.05.186,-45.1,11.3,0,9.0,,81300.1,12.3,0.19,0.57,0.79,0.2,5.6,-1.2,34.0,,,,,,,,,,
14.07.05.198,-89.2,22.3,0,9.0,,85599.3,11.68,0.19,0.57,0.78,0.8,5.5,-1.4,34.0,,,,,,,,,,
14.07.05.206,-55.6,13.9,0,9.0,,84364.5,11.85,0.19,0.58,0.78,1.1,5.5,-1.5,34.0,,,,,,,,,,
14.07.05.219,-64.7,16.2,0,9.0,,84196.2,11.88,0.19,0.58,0.79,1.2,5.5,-1.2,34.0,,,,,,,,,,
14.07.05.231,-57.7,14.4,0,9.0,,80936.3,12.36,0.19,0.58,0.79,1.4,5.8,-1.2,34.0,,,,,,,,,,
14.07.05.239,-95.2,23.8,0,9.0,,85004.4,11.76,0.19,0.58,0.79,1.0,5.7,-1.1,34.0,,,,,,,,,,
14.07.05.251,-75.8,19.0,0,9.0,,85205.6,11.74,0.18,0.58,0.79,1.0,6.0,-1.0,34.0,,,,,,,,,,
14.07.05.264,-93.5,23.4,0,9.0,,81874.2,12.21,0.19,0.58,0.78,0.4,5.8,-1.2,34.0,,,,,,,,,,
14.07.05.276,-77.6,19.4,0,9.0,,81514.6,12.27,0.18,0.58,0.79,0.8,6.2,-1.2,34.0,,,,,,,,,,
14.07.05.284,-109.8,27.4,0,9.0,,83216.6,12.02,0.19,0.58,0.79,0.3,5.9,-1.4,34.0,,,,,,,,,,
14.07.05.296,-103.3,25.8,0,9.0,,82087.9,12.18,0.19,0.57,0.79,0.5,5.8,-1.3,34.0,,,,,,,,,,
14.07.05.309,-106.9,26.7,0,9.0,,83452.3,11.98,0.19,0.57,0.79,0.7,6.1,-1.2,34.0,,,,,,,,,,
14.07.05.317,-146.4,36.6,0,9.0,,82110.6,12.18,0.18,0.57,0.79,0.5,5.9,-1.2,34.0,,,,,,,,,,
14.07.05.329,-107.6,26.9,0,9.0,,83118.9,12.03,0.19,0.57,0.79,0.8,6.1,-1.2,34.0,,,,,,,,,,
14.07.05.341,-129.2,32.3,0,9.0,,80088.8,12.49,0.18,0.57,0.78,1.0,6.2,-1.2,34.0,,,,,,,,,,
14.07.05.350,-150.3,37.6,0,9.0,,82703.1,12.09,0.19,0.57,0.79,1.1,6.2,-1.5,34.0,,,,,,,,,,
14.07.05.362,-147.4,36.8,0,9.0,,81885.8,12.21,0.19,0.57,0.79,1.3,5.9,-1.2,34.0,,,,,,,,,,
14.07.05.374,-133.3,33.3,0,9.0,,82411.9,12.13,0.19,0.58,0.78,1.3,6.1,-1.2,34.0,,,,,,,,,,
14.07.05.383,-181.5,45.4,0,9.0,,84011.9,11.9,0.19,0.58,0.79,1.1,6.5,-1.2,34.0,,,,,,,,,,
14.07.05.395,26.4,6.6,1,10.0,82.2,81525.3,12.27,0.19,0.58,0.78,0.6,6.4,-1.2,34.0,,,,,,,,,,
14.07.05.407,78.6,19.6,0,10.0,,87990.4,11.36,0.18,0.58,0.78,0.3,6.0,-1.1,34.0,,,,,,,,,,
14.07.05.415,149.2,37.3,0,10.0,,86802.6,11.52,0.18,0.58,0.79,0.1,6.2,-0.8,34.0,,,,,,,,,,
14.07.05.428,189.0,47.2,0,10.0,,86523.4,11.56,0.19,0.57,0.79,0.4,6.3,-1.1,34.0,,,,,,,,,,
14.07.05.440,254.2,63.6,0,10.0,,79881.1,12.52,0.19,0.57,0.78,0.9,5.5,-1.1,34.0,,,,,,,,,,
14.07.05.452,339.2,84.8,0,10.0,,83613.9,11.96,0.19,0.57,0.78,0.8,5.6,-1.3,34.0,,,,,,,,,,
14.07.05.460,334.9,83.7,0,10.0,,79308.1,12.61,0.19,0.58,0.79,0.9,5.6,-1.5,34.0,,,,,,,,,,
14.07.05.473,401.1,100.3,0,10.0,,80002.5,12.5,0.19,0.58,0.79,0.9,5.6,-1.3,34.0,,,,,,,,,,
14.07.05.485,417.3,104.3,0,10.0,,79763.8,12.54,0.19,0.58,0.79,0.9,5.9,-1.2,34.0,,,,,,,,,,
14.07.05.493,398.0,99.5,0,10.0,,84390.7,11.85,0.19,0.58,0.78,0.6,6.1,-1.6,34.0,,,,,,,,,,
14.07.05.505,388.5,97.1,0,10.0,,81121.0,12.33,0.18,0.57,0.79,0.3,5.5,-1.2,34.0,,,,,,,,,,
14.07.05.518,392.0,98.0,0,10.0,,80470.7,12.43,0.19,0.57,0.79,0.6,5.2,-1.6,34.0,,,,,,,,,,
14.07.05.526,386.9,96.7,0,10.0,,81615.1,12.25,0.18,0.57,0.79,1.2,5.9,-1.7,34.0,,,,,,,,,,
14.07.05.538,393.3,98.3,0,10.0,,84107.9,11.89,0.18,0.58,0.79,0.8,5.9,-1.4,34.0,,,,,,,,,,
14.07.05.550,365.4,91.4,0,10.0,,82351.9,12.14,0.19,0.58,0.78,0.4,5.0,-1.3,34.0,,,,,,,,,,
14.07.05.559,343.9,86.0,0,10.0,,85675.9,11.67,0.19,0.58,0.78,0.5,5.8,-1.3,34.0,,,,,,,,,,
14.07.05.571,253.4,63.4,0,10.0,,84564.3,11.83,0.19,0.57,0.79,0.5,6.5,-1.5,34.0,,,,,,,,,,
14.07.05.583,260.7,65.2,0,10.0,,84021.8,11.9,0.19,0.58,0.78,0.6,5.9,-1.7,34.0,,,,,,,,,,
14.07.05.592,223.9,56.0,0,10.0,,86808.2,11.52,0.19,0.58,0.79,0.3,5.9,-1.5,34.0,,,,,,,,,,
14.07.05.604,149.6,37.4,0,10.0,,84524.8,11.83,0.19,0.58,0.78,0.4,6.6,-1.5,34.0,,,,,,,,,,
14.07.05.616,100.1,25.0,0,10.0,,80506.9,12.42,0.19,0.58,0.78,-0.2,5.7,-1.3,34.0,,,,,,,,,,
14.07.05.624,28.4,7.1,0,10.0,,82636.3,12.1,0.19,0.57,0.79,-0.4,5.8,-1.5,34.0,,,,,,,,,,
14.07.05.637,-16.4,4.1,0,10.0,,85683.6,11.67,0.19,0.57,0.79,0.4,6.4,-1.6,34.0,,,,,,,,,,
14.07.05.649,17.1,4.3,0,10.0,,86715.7,11.53,0.18,0.58,0.79,0.3,6.0,-1.7,34.0,,,,,,,,,,
14.07.05.685,107.4,26.8,0,10.0,,80909.7,12.36,0.19,0.57,0.78,0.6,5.9,-1.9,34.0,,,,,,,,,,
14.07.05.698,111.3,27.8,0,10.0,,83238.9,12.01,0.19,0.57,0.79,0.6,6.2,-1.5,34.0,,,,,,,,,,
14.07.05.706,92.5,23.1,0,10.0,,88356.5,11.32,0.18,0.58,0.79,0.3,5.9,-1.7,34.0,,,,,,,,,,
14.07.05.718,64.0,16.0,0,10.0,,78305.8,12.77,0.19,0.58,0.79,0.2,5.9,-1.4,34.0,,,,,,,,,,
14.07.05.727,64.0,16.0,0,10.0,,80604.2,12.41,0.19,0.58,0.79,0.1,5.5,-1.5,34.0,,,,,,,,,,
14.07.05.739,53.0,13.2,0,10.0,,78726.7,12.7,0.19,0.58,0.79,-0.3,5.8,-1.0,34.0,,,,,,,,,,
14.07.05.747,68.3,17.1,0,10.0,,84967.0,11.77,0.19,0.58,0.79,-0.3,6.3,-1.4,34.0,,,,,,,,,,
14.07.05.759,19.4,4.8,0,10.0,,80036.0,12.49,0.19,0.58,0.78,-0.6,6.2,-1.1,34.0,,,,,,,,,,
14.07.05.772,41.1,10.3,0,10.0,,82731.5,12.09,0.19,0.58,0.79,-0.8,6.5,-1.0,34.0,,,,,,,,,,
14.07.05.780,-4.5,1.1,0,10.0,,86864.5,11.51,0.19,0.57,0.79,-0.8,7.0,-0.9,34.0,,,,,,,,,,
14.07.05.792,14.9,3.7,0,10.0,,82280.2,12.15,0.19,0.57,0.79,-0.6,7.3,-1.1,34.0,,,,,,,,,,
14.07.05.800,-10.5,2.6,0,10.0,,81681.0,12.24,0.18,0.57,0.78,0.1,7.4,-1.1,34.0,,,,,,,,,,
14.07.05.813,36.3,9.1,0,10.0,,84329.7,11.86,0.18,0.57,0.79,-0.1,6.9,-1.3,34.0,,,,,,,,,,
14.07.05.821,-20.5,5.1,0,10.0,,83235.1,12.01,0.19,0.57,0.78,0.1,6.0,-1.3,34.0,,,,,,,,,,
14.07.05.833,-51.5,12.9,0,10.0,,85339.3,11.72,0.18,0.57,0.79,0.0,5.7,-1.4,34.0,,,,,,,,,,
14.07.05.841,-12.2,3.0,0,10.0,,88563.2,11.29,0.18,0.57,0.79,0.9,5.8,-1.4,34.0,,,,,,,,,,
14.07.05.854,-10.3,2.6,0,10.0,,82756.6,12.08,0.18,0.57,0.79,0.4,5.7,-1.5,34.0,,,,,,,,,,
14.07.05.862,-35.7,8.9,0,10.0,,81480.0,12.27,0.19,0.58,0.78,0.7,5.5,-1.2,34.0,,,,,,,,,,
14.07.05.874,-52.0,13.0,0,10.0,,89153.6,11.22,0.18,0.57,0.78,0.6,5.4,-1.2,34.0,,,,,,,,,,
14.07.05.882,-45.6,11.4,0,10.0,,85678.0,11.67,0.19,0.58,0.78,0.3,5.6,-1.4,34.0,,,,,,,,,,
14.07.05.895,-77.3,19.3,0,10.0,,86752.7,11.53,0.19,0.57,0.79,0.2,5.6,-1.6,34.0,,,,,,,,,,
14.07.05.903,-45.9,11.5,0,10.0,,83979.5,11.91,0.19,0.57,0.79,0.5,6.0,-1.4,34.0,,,,,,,,,,
14.07.05.915,-74.6,18.6,0,10.0,,79189.1,12.63,0.18,0.57,0.78,0.8,6.1,-1.5,34.0,,,,,,,,,,
14.07.05.923,-71.0,17.8,0,10.0,,81658.3,12.25,0.18,0.57,0.79,1.0,5.3,-1.6,34.0,,,,,,,,,,
14.07.05.936,-64.6,16.2,0,10.0,,81957.9,12.2,0.18,0.58,0.79,1.2,4.8,-1.3,34.0,,,,,,,,,,
14.07.05.944,-81.3,20.3,0,10.0,,86522.0,11.56,0.18,0.58,0.79,1.3,5.2,-1.5,34.0,,,,,,,,,,
14.07.05.956,-113.7,28.4,0,10.0,,82680.5,12.09,0.19,0.58,0.79,1.1,6.2,-1.1,34.0,,,,,,,,,,
14.07.05.964,-59.5,14.9,0,10.0,,83586.9,11.96,0.19,0.58,0.79,0.4,6.3,-1.2,34.0,,,,,,,,,,
14.07.05.976,-98.8,24.7,0,10.0,,80699.0,12.39,0.19,0.58,0.78,0.2,6.2,-1.2,34.0,,,,,,,,,,
14.07.05.985,-114.0,28.5,0,10.0,,85275.2,11.73,0.19,0.58,0.79,0.4,6.0,-1.1,34.0,,,,,,,,,,
14.07.05.997,-128.4,32.1,0,10.0,,85990.3,11.63,0.19,0.57,0.79,0.6,6.1,-1.0,34.0,,,,,,,,,,
14.07.06.009,-101.0,25.2,0,10.0,,83276.6,12.01,0.18,0.57,0.79,0.8,6.3,-1.3,34.0,,,,,,,,,,
14.07.06.017,-127.9,32.0,0,10.0,,83250.6,12.01,0.19,0.57,0.78,1.0,5.2,-1.5,34.0,,,,,,,,,,
14.07.06.030,-144.6,36.2,0,10.0,,84068.7,11.9,0.18,0.57,0.78,1.0,5.3,-1.4,34.0,,,,,,,,,,
14.07.06.038,-134.7,33.7,0,10.0,,83322.3,12.0,0.18,0.58,0.79,1.0,5.3,-1.4,34.0,,,,,,,,,,
14.07.06.050,-163.8,41.0,0,10.0,,85099.7,11.75,0.18,0.58,0.79,0.9,6.1,-1.2,34.0,,,,,,,,,,
14.07.06.063,-154.8,38.7,0,10.0,,83943.6,11.91,0.18,0.57,0.79,0.6,5.7,-1.2,34.0,,,,,,,,,,
14.07.06.071,-153.4,38.4,0,10.0,,83672.2,11.95,0.18,0.57,0.79,0.4,5.5,-1.1,34.0,,,,,,,,,,
14.07.06.084,-157.0,39.2,0,10.0,,82725.7,12.09,0.19,0.57,0.79,0.8,5.9,-1.1,34.0,,,,,,,,,,
14.07.06.091,-145.8,36.4,0,10.0,,83595.1,11.96,0.18,0.57,0.79,1.3,6.6,-1.3,34.0,,,,,,,,,,
14.07.06.103,17.1,4.3,1,11.0,86.8,82548.5,12.11,0.19,0.57,0.78,1.0,6.2,-0.9,34.0,,,,,,,,,,
14.07.06.112,72.2,18.0,0,11.0,,83822.6,11.93,0.19,0.58,0.79,1.0,5.7,-1.2,34.0,,,,,,,,,,
14.07.06.124,104.3,26.1,0,11.0,,82110.3,12.18,0.19,0.58,0.79,1.0,6.3,-1.1,34.0,,,,,,,,,,
14.07.06.132,155.7,38.9,0,11.0,,82101.1,12.18,0.18,0.58,0.78,0.6,6.5,-0.8,34.0,,,,,,,,,,
14.07.06.140,201.1,50.3,0,11.0,,83767.5,11.94,0.19,0.58,0.79,0.4,6.4,-0.9,34.0,,,,,,,,,,
14.07.06.153,252.8,63.2,0,11.0,,84818.8,11.79,0.19,0.57,0.79,-0.7,5.5,-1.3,34.0,,,,,,,,,,
14.07.06.161,292.3,73.1,0,11.0,,77966.6,12.83,0.19,0.56,0.79,-0.5,5.5,-1.2,34.0,,,,,,,,,,
14.07.06.173,347.2,86.8,0,11.0,,82169.2,12.17,0.18,0.56,0.79,1.7,6.3,-1.5,34.0,,,,,,,,,,
14.07.06.185,364.8,91.2,0,11.0,,82175.9,12.17,0.19,0.58,0.78,2.5,5.5,-1.2,34.0,,,,,,,,,,
14.07.06.194,377.2,94.3,0,11.0,,83757.9,11.94,0.18,0.58,0.78,2.0,4.3,-1.1,34.0,,,,,,,,,,
14.07.06.206,381.2,95.3,0,11.0,,84150.0,11.88,0.18,0.58,0.78,0.7,4.5,-1.1,34.0,,,,,,,,,,
14.07.06.218,418.3,104.6,0,11.0,,87456.4,11.43,0.18,0.58,0.79,1.1,6.3,-1.0,34.0,,,,,,,,,,
14.07.06.226,434.7,108.7,0,11.0,,81570.0,12.26,0.19,0.58,0.78,0.0,6.6,-1.6,34.0,,,,,,,,,,
14.07.06.239,416.5,104.1,0,11.0,,86998.8,11.49,0.19,0.57,0.79,-0.9,4.8,-1.1,34.0,,,,,,,,,,
14.07.06.251,387.1,96.8,0,11.0,,78521.4,12.74,0.19,0.57,0.79,-0.1,6.6,-1.1,34.0,,,,,,,,,,
14.07.06.259,345.5,86.4,0,11.0,,79583.4,12.57,0.18,0.56,0.78,1.7,7.7,-1.5,34.0,,,,,,,,,,
14.07.06.271,339.3,84.8,0,11.0,,80314.6,12.45,0.19,0.57,0.79,0.6,4.6,-1.7,34.0,,,,,,,,,,
14.07.06.284,260.3,65.1,0,11.0,,85993.0,11.63,0.18,0.58,0.79,0.6,3.1,-1.7,34.0,,,,,,,,,,
14.07.06.292,293.9,73.5,0,11.0,,84031.3,11.9,0.18,0.58,0.79,1.3,5.7,-1.6,34.0,,,,,,,,,,
14.07.06.304,196.9,49.2,0,11.0,,85846.2,11.65,0.18,0.58,0.79,0.8,6.2,-1.4,34.0,,,,,,,,,,
14.07.06.316,177.3,44.3,0,11.0,,86708.0,11.53,0.19,0.58,0.8,-1.3,3.4,-1.6,34.0,,,,,,,,,,
14.07.06.325,151.6,37.9,0,11.0,,82820.2,12.07,0.19,0.57,0.8,-0.9,5.0,-1.4,34.0,,,,,,,,,,
14.07.06.337,60.3,15.1,0,11.0,,83279.7,12.01,0.2,0.57,0.79,0.7,8.1,-1.5,34.0,,,,,,,,,,
14.07.06.349,-10.9,2.7,0,11.0,,83053.7,12.04,0.19,0.57,0.78,0.0,6.0,-1.5,34.0,,,,,,,,,,
14.07.06.357,10.8,2.7,0,11.0,,83910.5,11.92,0.19,0.58,0.78,-0.9,4.1,-1.2,34.0,,,,,,,,,,
14.07.06.370,30.0,7.5,0,11.0,,85498.7,11.7,0.18,0.58,0.79,0.1,6.3,-1.4,34.0,,,,,,,,,,
14.07.06.382,75.6,18.9,0,11.0,,82806.4,12.08,0.18,0.57,0.78,0.5,6.7,-1.2,34.0,,,,,,,,,,
14.07.06.390,51.0,12.8,0,11.0,,85052.0,11.76,0.18,0.57,0.79,-0.3,4.0,-1.7,34.0,,,,,,,,,,
14.07.06.403,43.0,10.8,0,11.0,,83857.5,11.92,0.18,0.56,0.79,0.6,4.3,-1.4,34.0,,,,,,,,,,
14.07.06.415,82.5,20.6,0,11.0,,86343.5,11.58,0.18,0.58,0.79,1.5,6.9,-2.1,34.0,,,,,,,,,,
14.07.06.423,65.2,16.3,0,11.0,,80774.2,12.38,0.18,0.58,0.78,0.9,5.8,-1.5,34.0,,,,,,,,,,
14.07.06.435,65.8,16.4,0,11.0,,84480.2,11.84,0.19,0.58,0.79,-0.8,6.5,-1.3,34.0,,,,,,,,,,
14.07.06.448,69.2,17.3,0,11.0,,78871.7,12.68,0.2,0.57,0.78,-1.4,8.0,-1.8,34.0,,,,,,,,,,
14.07.06.456,25.8,6.4,0,11.0,,81148.3,12.32,0.19,0.58,0.79,-0.4,7.8,-1.5,34.0,,,,,,,,,,
14.07.06.497,-12.2,3.0,0,11.0,,81731.6,12.24,0.19,0.58,0.8,-0.8,3.8,-1.0,34.0,,,,,,,,,,
14.07.06.509,-11.8,3.0,0,11.0,,82985.7,12.05,0.19,0.56,0.79,0.6,8.2,-1.2,34.0,,,,,,,,,,
14.07.06.517,-17.2,4.3,0,11.0,,86148.2,11.61,0.18,0.56,0.79,0.7,7.8,-1.8,34.0,,,,,,,,,,
14.07.06.529,-27.8,7.0,0,11.0,,82574.5,12.11,0.18,0.56,0.79,0.0,2.7,-1.7,34.0,,,,,,,,,,
14.07.06.542,-29.1,7.3,0,11.0,,80369.3,12.44,0.19,0.57,0.79,1.5,3.4,-1.5,34.0,,,,,,,,,,
14.07.06.550,-34.9,8.7,0,11.0,,86352.2,11.58,0.19,0.58,0.78,3.0,7.9,-1.6,34.0,,,,,,,,,,
14.07.06.562,-37.6,9.4,0,11.0,,80584.2,12.41,0.19,0.59,0.77,1.2,7.3,-1.2,34.0,,,,,,,,,,
14.07.06.575,-26.7,6.7,0,11.0,,85252.7,11.73,0.19,0.59,0.78,-0.8,4.8,-1.0,34.0,,,,,,,,,,
14.07.06.587,-27.1,6.8,0,11.0,,79096.5,12.64,0.19,0.58,0.79,0.2,6.4,-0.8,34.0,,,,,,,,,,
14.07.06.595,-63.1,15.8,0,11.0,,81310.9,12.3,0.19,0.56,0.79,0.7,6.8,-1.3,34.0,,,,,,,,,,
14.07.06.607,-71.1,17.8,0,11.0,,82165.3,12.17,0.18,0.55,0.79,0.2,4.4,-1.2,34.0,,,,,,,,,,
14.07.06.620,-49.4,12.4,0,11.0,,81226.6,12.31,0.18,0.57,0.8,1.3,5.5,-1.5,34.0,,,,,,,,,,
14.07.06.628,-88.1,22.0,0,11.0,,84968.0,11.77,0.19,0.57,0.79,2.5,6.8,-1.4,34.0,,,,,,,,,,
14.07.06.640,-78.5,19.6,0,11.0,,79053.0,12.65,0.19,0.58,0.78,1.8,4.8,-1.4,34.0,,,,,,,,,,
14.07.06.652,-73.4,18.4,0,11.0,,83063.6,12.04,0.19,0.58,0.78,0.8,4.8,-1.4,34.0,,,,,,,,,,
14.07.06.665,-121.4,30.4,0,11.0,,82504.9,12.12,0.19,0.58,0.78,1.6,7.4,-1.2,34.0,,,,,,,,,,
14.07.06.673,-101.5,25.4,0,11.0,,83325.9,12.0,0.18,0.58,0.78,0.7,6.4,-1.1,34.0,,,,,,,,,,
14.07.06.685,-144.1,36.0,0,11.0,,82454.1,12.13,0.18,0.58,0.79,0.2,4.6,-1.0,34.0,,,,,,,,,,
14.07.06.697,-119.4,29.8,0,11.0,,83255.4,12.01,0.18,0.57,0.79,0.8,6.0,-1.3,34.0,,,,,,,,,,
14.07.06.710,-128.0,32.0,0,11.0,,81111.0,12.33,0.18,0.57,0.79,1.1,6.5,-1.3,34.0,,,,,,,,,,
14.07.06.718,-151.6,37.9,0,11.0,,82505.1,12.12,0.18,0.57,0.79,0.5,5.2,-1.4,34.0,,,,,,,,,,
14.07.06.730,-159.0,39.8,0,11.0,,83241.1,12.01,0.18,0.57,0.79,0.7,5.9,-1.4,34.0,,,,,,,,,,
14.07.06.742,-85.6,21.4,0,11.0,,84127.5,11.89,0.18,0.57,0.79,1.8,6.4,-1.4,34.0,,,,,,,,,,
14.07.06.751,-122.4,30.6,0,11.0,,87221.8,11.47,0.19,0.59,0.79,1.3,5.6,-1.3,34.0,,,,,,,,,,
14.07.06.763,-157.3,39.3,0,11.0,,83587.8,11.96,0.19,0.58,0.78,0.9,5.7,-1.2,34.0,,,,,,,,,,
14.07.06.775,-154.1,38.5,0,11.0,,86997.5,11.49,0.19,0.58,0.79,0.3,5.8,-1.0,34.0,,,,,,,,,,
14.07.06.788,-154.7,38.7,0,11.0,,82328.8,12.15,0.19,0.58,0.79,0.2,6.2,-1.2,34.0,,,,,,,,,,
14.07.06.796,-154.5,38.6,0,11.0,,81806.3,12.22,0.19,0.57,0.79,0.4,5.6,-1.3,34.0,,,,,,,,,,
14.07.06.808,-147.1,36.8,0,11.0,,81148.6,12.32,0.19,0.57,0.79,0.5,4.9,-1.6,34.0,,,,,,,,,,
14.07.06.820,46.7,11.7,1,12.0,89.0,81742.8,12.23,0.19,0.57,0.79,0.9,5.3,-1.3,34.0,,,,,,,,,,
14.07.06.829,126.8,31.7,0,12.0,,80500.9,12.42,0.18,0.58,0.78,1.4,5.8,-1.3,34.0,,,,,,,,,,
14.07.06.841,175.5,43.9,0,12.0,,77415.0,12.92,0.18,0.58,0.79,0.9,5.6,-1.5,34.0,,,,,,,,,,
14.07.06.853,204.9,51.2,0,12.0,,82160.3,12.17,0.19,0.58,0.78,0.5,6.0,-0.9,34.0,,,,,,,,,,
14.07.06.865,288.2,72.0,0,12.0,,85365.0,11.71,0.19,0.58,0.79,0.5,6.2,-0.8,34.0,,,,,,,,,,
14.07.06.874,256.7,64.2,0,12.0,,86505.1,11.56,0.19,0.58,0.78,0.5,6.8,-0.7,34.0,,,,,,,,,,
14.07.06.886,340.6,85.2,0,12.0,,84260.8,11.87,0.19,0.58,0.79,0.8,6.6,-1.0,34.0,,,,,,,,,,
14.07.06.898,359.7,89.9,0,12.0,,80600.2,12.41,0.19,0.57,0.8,0.5,6.0,-1.0,34.0,,,,,,,,,,
14.07.06.906,351.8,88.0,0,12.0,,80770.3,12.38,0.19,0.57,0.79,0.9,6.2,-1.3,34.0,,,,,,,,,,
14.07.06.919,376.9,94.2,0,12.0,,82861.6,12.07,0.19,0.57,0.78,1.0,6.1,-1.4,34.0,,,,,,,,,,
14.07.06.931,389.4,97.4,0,12.0,,83250.1,12.01,0.19,0.57,0.79,1.1,5.3,-1.6,34.0,,,,,,,,,,
14.07.06.939,420.4,105.1,0,12.0,,83957.1,11.91,0.19,0.57,0.79,1.2,5.4,-1.8,34.0,,,,,,,,,,
14.07.06.952,399.5,99.9,0,12.0,,80180.3,12.47,0.19,0.58,0.79,1.4,6.2,-1.7,34.0,,,,,,,,,,
14.07.06.964,346.9,86.7,0,12.0,,81875.1,12.21,0.19,0.58,0.79,1.0,6.0,-1.3,34.0,,,,,,,,,,
14.07.06.976,372.0,93.0,0,12.0,,82139.5,12.17,0.19,0.58,0.78,0.8,6.3,-1.3,34.0,,,,,,,,,,
14.07.06.984,383.4,95.8,0,12.0,,83599.4,11.96,0.18,0.57,0.79,0.7,6.6,-0.8,34.0,,,,,,,,,,
14.07.06.996,332.7,83.2,0,12.0,,84273.8,11.87,0.19,0.57,0.79,0.4,6.0,-1.2,34.0,,,,,,,,,,
14.07.07.005,214.6,53.6,0,12.0,,84828.7,11.79,0.18,0.58,0.8,0.9,5.0,-1.1,34.0,,,,,,,,,,
14.07.07.017,193.2,48.3,0,12.0,,85044.1,11.76,0.19,0.58,0.8,1.3,5.6,-1.1,34.0,,,,,,,,,,
14.07.07.029,138.2,34.6,0,12.0,,82962.2,12.05,0.18,0.56,0.76,0.5,7.4,-1.2,34.0,,,,,,,,,,
14.07.07.042,122.7,30.7,0,12.0,,81904.5,12.21,0.19,0.59,0.79,1.1,4.4,-1.3,34.0,,,,,,,,,,
14.07.07.050,42.4,10.6,0,12.0,,85281.2,11.73,0.19,0.58,0.81,-0.3,5.9,-1.1,34.0,,,,,,,,,,
14.07.07.062,1.1,0.3,0,12.0,,83474.4,11.98,0.19,0.57,0.78,1.2,7.2,-1.4,34.0,,,,,,,,,,
14.07.07.074,30.0,7.5,0,12.0,,81412.3,12.28,0.18,0.57,0.78,0.2,5.9,-1.4,34.0,,,,,,,,,,
14.07.07.083,37.5,9.4,0,12.0,,86712.1,11.53,0.18,0.57,0.79,0.1,4.6,-1.3,34.0,,,,,,,,,,
14.07.07.095,39.2,9.8,0,12.0,,84114.1,11.89,0.18,0.58,0.79,2.0,6.2,-1.4,34.0,,,,,,,,,,
14.07.07.108,48.2,12.0,0,12.0,,80733.4,12.39,0.18,0.57,0.78,1.3,6.4,-1.5,34.0,,,,,,,,,,
14.07.07.115,74.4,18.6,0,12.0,,85474.4,11.7,0.18,0.58,0.78,0.7,5.1,-1.5,34.0,,,,,,,,,,
14.07.07.128,63.5,15.9,0,12.0,,82566.2,12.11,0.19,0.59,0.8,0.9,6.3,-1.2,34.0,,,,,,,,,,
14.07.07.140,74.0,18.5,0,12.0,,83011.7,12.05,0.18,0.57,0.78,1.0,8.2,-1.6,34.0,,,,,,,,,,
14.07.07.148,66.8,16.7,0,12.0,,81642.3,12.25,0.19,0.59,0.79,0.8,5.1,-1.6,34.0,,,,,,,,,,
14.07.07.160,35.9,9.0,0,12.0,,85861.1,11.65,0.18,0.56,0.77,-0.8,6.3,-1.8,34.0,,,,,,,,,,
14.07.07.173,58.5,14.6,0,12.0,,82723.6,12.09,0.19,0.59,0.81,0.9,5.7,-0.8,34.0,,,,,,,,,,
14.07.07.181,13.8,3.4,0,12.0,,83321.4,12.0,0.19,0.58,0.81,-0.3,6.9,-1.2,34.0,,,,,,,,,,
14.07.07.193,48.6,12.2,0,12.0,,84648.8,11.81,0.18,0.54,0.77,-0.3,6.9,-1.6,34.0,,,,,,,,,,
14.07.07.205,4.3,1.1,0,12.0,,81191.1,12.32,0.19,0.56,0.8,-1.0,4.0,-1.7,34.0,,,,,,,,,,
14.07.07.218,7.1,1.8,0,12.0,,81874.9,12.21,0.19,0.57,0.81,0.5,6.1,-1.4,34.0,,,,,,,,,,
14.07.07.226,-11.9,3.0,0,12.0,,82732.0,12.09,0.18,0.57,0.78,3.2,9.1,-1.6,34.0,,,,,,,,,,
14.07.07.238,-34.7,8.7,0,12.0,,79056.8,12.65,0.19,0.58,0.77,3.0,6.8,-1.1,34.0,,,,,,,,,,
14.07.07.251,-44.0,11.0,0,12.0,,88735.2,11.27,0.19,0.59,0.77,0.8,5.9,-1.0,34.0,,,,,,,,,,
14.07.07.259,-43.6,10.9,0,12.0,,82018.4,12.19,0.19,0.6,0.79,0.9,5.8,-0.3,34.0,,,,,,,,,,
14.07.07.300,-62.8,15.7,0,12.0,,81658.2,12.25,0.18,0.57,0.79,-0.3,5.7,-1.7,34.0,,,,,,,,,,
14.07.07.312,-47.7,11.9,0,12.0,,83336.4,12.0,0.18,0.57,0.78,2.3,6.4,-2.1,34.0,,,,,,,,,,
14.07.07.320,-73.7,18.4,0,12.0,,84294.9,11.86,0.18,0.57,0.78,1.7,5.9,-2.3,34.0,,,,,,,,,,
14.07.07.332,-112.3,28.1,0,12.0,,82653.3,12.1,0.18,0.58,0.78,1.5,5.6,-1.9,34.0,,,,,,,,,,
14.07.07.345,-105.9,26.5,0,12.0,,83472.8,11.98,0.19,0.6,0.79,2.9,6.8,-1.5,34.0,,,,,,,,,,
14.07.07.353,-62.1,15.5,0,12.0,,83302.2,12.0,0.19,0.61,0.79,1.7,7.1,-0.7,34.0,,,,,,,,,,
14.07.07.365,-83.6,20.9,0,12.0,,83459.8,11.98,0.19,0.59,0.78,0.6,6.3,-1.0,34.0,,,,,,,,,,
14.07.07.377,-99.3,24.8,0,12.0,,84151.7,11.88,0.19,0.56,0.78,-1.6,5.7,-1.4,34.0,,,,,,,,,,
14.07.07.386,-101.8,25.4,0,12.0,,88648.0,11.28,0.19,0.56,0.82,-2.5,4.4,-1.4,34.0,,,,,,,,,,
14.07.07.398,-113.3,28.3,0,12.0,,86958.0,11.5,0.18,0.56,0.82,-0.4,7.0,-2.0,34.0,,,,,,,,,,
14.07.07.410,-116.8,29.2,0,12.0,,84401.2,11.85,0.17,0.55,0.78,2.8,8.2,-2.3,34.0,,,,,,,,,,
14.07.07.418,-128.7,32.2,0,12.0,,83969.6,11.91,0.17,0.57,0.78,1.3,4.6,-2.1,34.0,,,,,,,,,,
14.07.07.431,-145.7,36.4,0,12.0,,81474.7,12.27,0.18,0.6,0.8,0.9,3.0,-1.0,34.0,,,,,,,,,,
14.07.07.443,-115.1,28.8,0,12.0,,79422.9,12.59,0.18,0.59,0.78,2.0,8.0,-1.2,34.0,,,,,,,,,,
14.07.07.451,-108.0,27.0,0,12.0,,84381.7,11.85,0.19,0.58,0.77,1.4,8.5,-1.0,34.0,,,,,,,,,,
14.07.07.464,-164.5,41.1,0,12.0,,84692.0,11.81,0.19,0.58,0.79,-1.2,3.7,-0.8,34.0,,,,,,,,,,
14.07.07.476,-145.0,36.2,0,12.0,,83361.6,12.0,0.18,0.57,0.79,-0.9,5.0,-1.5,34.0,,,,,,,,,,
14.07.07.488,-122.3,30.6,0,12.0,,76973.8,12.99,0.18,0.57,0.8,1.8,6.9,-1.2,34.0,,,,,,,,,,
14.07.07.496,-140.3,35.1,0,12.0,,81757.8,12.23,0.19,0.58,0.78,0.7,5.6,-1.7,34.0,,,,,,,,,,
14.07.07.509,-134.9,33.7,0,12.0,,83457.8,11.98,0.18,0.57,0.79,-0.5,4.5,-1.5,34.0,,,,,,,,,,
14.07.07.521,-157.2,39.3,0,12.0,,79788.6,12.53,0.19,0.58,0.79,0.6,6.6,-1.4,34.0,,,,,,,,,,
14.07.07.529,15.4,3.8,1,13.0,81.8,85149.9,11.74,0.18,0.57,0.79,0.4,8.2,-1.1,34.0,,,,,,,,,,
14.07.07.541,103.7,25.9,0,13.0,,83163.0,12.02,0.18,0.58,0.79,-0.1,5.2,-0.9,34.0,,,,,,,,,,
14.07.07.554,146.6,36.6,0,13.0,,80702.5,12.39,0.18,0.57,0.79,0.5,6.0,-0.6,34.0,,,,,,,,,,
14.07.07.566,229.0,57.2,0,13.0,,79784.9,12.53,0.18,0.58,0.79,1.5,7.6,-1.1,34.0,,,,,,,,,,
14.07.07.574,241.7,60.4,0,13.0,,83106.5,12.03,0.18,0.57,0.78,0.9,5.8,-1.3,34.0,,,,,,,,,,
14.07.07.586,240.6,60.2,0,13.0,,84228.1,11.87,0.18,0.58,0.79,0.3,4.2,-1.1,34.0,,,,,,,,,,
14.07.07.599,345.9,86.5,0,13.0,,79830.7,12.53,0.19,0.58,0.79,1.3,6.3,-1.5,34.0,,,,,,,,,,
14.07.07.607,365.9,91.5,0,13.0,,82228.1,12.16,0.18,0.58,0.78,0.8,6.8,-1.5,34.0,,,,,,,,,,
14.07.07.619,394.9,98.7,0,13.0,,84063.9,11.9,0.19,0.59,0.79,-0.4,4.3,-1.1,34.0,,,,,,,,,,
14.07.07.632,387.1,96.8,0,13.0,,80406.2,12.44,0.19,0.58,0.79,-0.1,5.8,-1.2,34.0,,,,,,,,,,
14.07.07.644,387.4,96.8,0,13.0,,85127.6,11.75,0.18,0.57,0.78,0.5,7.0,-1.5,34.0,,,,,,,,,,
14.07.07.652,369.2,92.3,0,13.0,,83043.2,12.04,0.18,0.57,0.79,0.1,4.7,-1.1,34.0,,,,,,,,,,
14.07.07.665,377.1,94.3,0,13.0,,82690.5,12.09,0.18,0.57,0.79,0.6,5.0,-1.5,34.0,,,,,,,,,,
14.07.07.677,379.4,94.8,0,13.0,,85114.8,11.75,0.18,0.58,0.79,2.4,6.9,-1.4,34.0,,,,,,,,,,
14.07.07.689,381.3,95.3,0,13.0,,85621.1,11.68,0.19,0.59,0.78,1.2,5.8,-1.4,34.0,,,,,,,,,,
14.07.07.702,291.8,73.0,0,13.0,,80458.7,12.43,0.19,0.58,0.78,-0.1,5.4,-1.3,34.0,,,,,,,,,,
14.07.07.710,314.7,78.7,0,13.0,,85546.7,11.69,0.19,0.57,0.79,-0.1,6.6,-1.0,34.0,,,,,,,,,,
14.07.07.722,210.4,52.6,0,13.0,,86312.7,11.59,0.18,0.57,0.79,0.4,6.5,-1.4,34.0,,,,,,,,,,
14.07.07.730,218.0,54.5,0,13.0,,81425.5,12.28,0.18,0.57,0.78,0.5,5.4,-1.5,34.0,,,,,,,,,,
14.07.07.742,149.0,37.2,0,13.0,,84423.1,11.85,0.18,0.57,0.79,1.7,5.4,-1.9,34.0,,,,,,,,,,
14.07.07.750,100.7,25.2,0,13.0,,82529.2,12.12,0.18,0.58,0.79,1.4,6.1,-1.5,34.0,,,,,,,,,,
14.07.07.763,74.4,18.6,0,13.0,,82912.9,12.06,0.19,0.58,0.78,0.9,5.9,-1.3,34.0,,,,,,,,,,
14.07.07.771,16.5,4.1,0,13.0,,83567.9,11.97,0.19,0.58,0.79,-0.2,4.6,-1.3,34.0,,,,,,,,,,
14.07.07.783,-7.6,1.9,0,13.0,,79097.6,12.64,0.18,0.58,0.8,0.3,4.9,-1.3,34.0,,,,,,,,,,
14.07.07.792,45.8,11.4,0,13.0,,78927.8,12.67,0.18,0.56,0.78,1.1,7.1,-1.7,34.0,,,,,,,,,,
14.07.07.804,39.7,9.9,0,13.0,,79202.8,12.63,0.18,0.57,0.79,0.4,5.9,-1.5,34.0,,,,,,,,,,
14.07.07.816,67.6,16.9,0,13.0,,85802.6,11.65,0.19,0.58,0.8,0.2,4.8,-1.4,34.0,,,,,,,,,,
14.07.07.824,69.2,17.3,0,13.0,,83804.5,11.93,0.19,0.58,0.79,1.0,7.1,-1.3,34.0,,,,,,,,,,
14.07.07.836,53.2,13.3,0,13.0,,82189.5,12.17,0.18,0.57,0.78,1.7,7.4,-1.3,34.0,,,,,,,,,,
14.07.07.845,79.9,20.0,0,13.0,,86183.4,11.6,0.18,0.58,0.78,0.5,5.6,-1.1,34.0,,,,,,,,,,
14.07.07.857,56.5,14.1,0,13.0,,84323.1,11.86,0.18,0.59,0.79,0.2,4.9,-0.9,34.0,,,,,,,,,,
14.07.07.865,66.5,16.6,0,13.0,,85001.4,11.76,0.19,0.58,0.8,0.3,6.4,-1.1,34.0,,,,,,,,,,
14.07.07.877,33.4,8.4,0,13.0,,86400.2,11.57,0.19,0.57,0.79,0.3,6.2,-1.0,34.0,,,,,,,,,,
14.07.07.886,34.5,8.6,0,13.0,,76888.6,13.01,0.18,0.57,0.78,-0.2,4.7,-1.3,34.0,,,,,,,,,,
14.07.07.898,24.3,6.1,0,13.0,,82531.7,12.12,0.19,0.57,0.79,0.7,5.8,-1.4,34.0,,,,,,,,,,
14.07.07.906,12.2,3.0,0,13.0,,85443.3,11.7,0.19,0.58,0.79,1.2,6.5,-1.4,34.0,,,,,,,,,,
14.07.07.918,5.7,1.4,0,13.0,,85061.6,11.76,0.18,0.58,0.78,1.0,5.7,-1.1,34.0,,,,,,,,,,
14.07.07.927,-17.5,4.4,0,13.0,,80956.7,12.35,0.18,0.58,0.78,0.7,5.1,-1.2,34.0,,,,,,,,,,
14.07.07.939,-30.1,7.5,0,13.0,,82064.6,12.19,0.18,0.58,0.79,0.4,6.0,-0.9,34.0,,,,,,,,,,
14.07.07.947,12.3,3.1,0,13.0,,83367.5,12.0,0.18,0.57,0.79,0.5,5.9,-1.2,34.0,,,,,,,,,,
14.07.07.960,-17.9,4.5,0,13.0,,83896.8,11.92,0.18,0.57,0.78,0.5,6.1,-1.6,34.0,,,,,,,,,,
14.07.07.967,-16.4,4.1,0,13.0,,84043.7,11.9,0.18,0.58,0.79,0.9,5.9,-1.2,34.0,,,,,,,,,,
14.07.07.980,-44.7,11.2,0,13.0,,82843.6,12.07,0.19,0.57,0.79,0.6,6.3,-1.1,34.0,,,,,,,,,,
14.07.07.992,-37.2,9.3,0,13.0,,82017.1,12.19,0.18,0.57,0.79,1.3,6.4,-0.9,34.0,,,,,,,,,,
14.07.08.004,-28.9,7.2,0,13.0,,82379.7,12.14,0.18,0.59,0.79,1.0,5.9,-1.1,34.0,,,,,,,,,,
14.07.08.013,-47.7,11.9,0,13.0,,88069.6,11.35,0.19,0.58,0.78,0.7,6.0,-1.0,34.0,,,,,,,,,,
14.07.08.025,-61.5,15.4,0,13.0,,81033.6,12.34,0.18,0.57,0.78,0.5,5.7,-1.3,34.0,,,,,,,,,,
14.07.08.037,-73.5,18.4,0,13.0,,82085.5,12.18,0.19,0.57,0.79,0.7,5.5,-1.5,34.0,,,,,,,,,,
14.07.08.045,-56.9,14.2,0,13.0,,85344.8,11.72,0.19,0.58,0.8,0.0,5.4,-1.2,34.0,,,,,,,,,,
14.07.08.058,-116.5,29.1,0,13.0,,82736.2,12.09,0.19,0.57,0.79,0.8,5.7,-1.6,34.0,,,,,,,,,,
14.07.08.099,-82.8,20.7,0,13.0,,82243.9,12.16,0.18,0.57,0.78,1.0,6.9,-1.4,34.06,,,,,,,,,,
14.07.08.107,-136.5,34.1,0,13.0,,81748.5,12.23,0.18,0.58,0.78,0.0,6.1,-1.0,34.06,,,,,,,,,,
14.07.08.119,-117.9,29.5,0,13.0,,85210.9,11.74,0.18,0.57,0.79,0.5,5.9,-1.0,34.06,,,,,,,,,,
14.07.08.127,-89.2,22.3,0,13.0,,84068.1,11.9,0.18,0.56,0.78,0.5,5.7,-1.6,34.06,,,,,,,,,,
14.07.08.140,-129.1,32.3,0,13.0,,85633.5,11.68,0.19,0.58,0.79,1.0,4.7,-1.4,34.06,,,,,,,,,,
14.07.08.148,-90.5,22.6,0,13.0,,82307.9,12.15,0.19,0.58,0.79,1.4,5.7,-1.5,34.06,,,,,,,,,,
14.07.08.160,-127.4,31.8,0,13.0,,87347.6,11.45,0.18,0.57,0.78,1.3,7.1,-1.4,34.06,,,,,,,,,,
14.07.08.168,-140.4,35.1,0,13.0,,82123.4,12.18,0.18,0.59,0.79,1.0,5.8,-1.2,34.06,,,,,,,,,,
14.07.08.181,-168.0,42.0,0,13.0,,82658.5,12.1,0.19,0.57,0.8,-0.2,5.0,-1.2,34.06,,,,,,,,,,
14.07.08.189,-124.2,31.0,0,13.0,,87014.4,11.49,0.18,0.57,0.79,1.0,5.4,-1.5,34.06,,,,,,,,,,
14.07.08.201,-96.0,24.0,0,13.0,,83342.3,12.0,0.18,0.57,0.79,1.2,5.7,-1.5,34.06,,,,,,,,,,
14.07.08.209,-155.1,38.8,0,13.0,,83029.8,12.04,0.18,0.57,0.78,1.2,5.5,-1.8,34.06,,,,,,,,,,
14.07.08.221,-148.5,37.1,0,13.0,,79652.3,12.55,0.19,0.58,0.79,1.0,4.4,-1.6,34.06,,,,,,,,,,
14.07.08.230,-147.4,36.8,0,13.0,,82798.0,12.08,0.19,0.58,0.79,1.2,5.8,-1.5,34.06,,,,,,,,,,
14.07.08.242,23.0,5.8,1,14.0,79.6,86087.7,11.62,0.19,0.58,0.78,0.8,6.8,-1.4,34.06,,,,,,,,,,
14.07.08.250,71.8,18.0,0,14.0,,81090.3,12.33,0.19,0.59,0.8,0.1,5.4,-1.2,34.06,,,,,,,,,,
14.07.08.262,152.1,38.0,0,14.0,,78236.7,12.78,0.18,0.58,0.79,-0.2,5.3,-1.1,34.06,,,,,,,,,,
14.07.08.271,196.2,49.0,0,14.0,,83161.5,12.02,0.18,0.57,0.78,0.7,7.2,-0.9,34.06,,,,,,,,,,
14.07.08.283,244.7,61.2,0,14.0,,78832.3,12.69,0.18,0.57,0.79,0.6,5.4,-0.9,34.06,85.7,,,,,,,,,
14.07.08.291,284.4,71.1,0,14.0,,84703.7,11.81,0.19,0.58,0.79,0.0,4.2,-1.0,34.06,,,,,,,,,,
14.07.08.303,262.9,65.7,0,14.0,,84797.9,11.79,0.18,0.57,0.8,1.1,5.6,-1.3,34.06,,,,,,,,,,
14.07.08.312,344.2,86.0,0,14.0,,87825.9,11.39,0.19,0.57,0.77,1.7,7.3,-1.3,34.06,,,,,,,,,,
14.07.08.324,372.5,93.1,0,14.0,,84674.8,11.81,0.18,0.58,0.79,0.8,5.1,-1.0,34.06,,,,,,,,,,
14.07.08.332,359.9,90.0,0,14.0,,84444.9,11.84,0.18,0.58,0.79,0.1,4.6,-1.1,34.06,,,,,,,,,,
14.07.08.340,384.9,96.2,0,14.0,,81469.3,12.27,0.18,0.57,0.78,1.1,6.3,-1.1,34.06,,,,,,,,,,
14.07.08.353,399.5,99.9,0,14.0,,79250.2,12.62,0.18,0.58,0.79,0.9,6.8,-1.1,34.06,,,,,,,,,,
14.07.08.361,471.0,117.8,0,14.0,,82019.6,12.19,0.18,0.58,0.79,-0.1,5.8,-1.1,34.06,,,,,,,,,,
14.07.08.373,423.5,105.9,0,14.0,,84296.7,11.86,0.19,0.58,0.78,0.5,5.4,-1.2,34.06,,,,,,,,,,
14.07.08.381,426.9,106.7,0,14.0,,85540.1,11.69,0.18,0.57,0.79,0.6,6.3,-0.9,34.06,,,,,,,,,,
14.07.08.394,394.3,98.6,0,14.0,,84263.3,11.87,0.18,0.57,0.79,1.0,6.0,-0.9,34.06,,,,,,,,,,
14.07.08.402,354.7,88.7,0,14.0,,83681.7,11.95,0.18,0.57,0.78,0.3,5.2,-0.9,34.06,,,,,,,,,,
14.07.08.414,316.6,79.2,0,14.0,,86212.2,11.6,0.19,0.58,0.78,1.0,5.2,-1.2,34.06,,,,,,,,,,
14.07.08.422,300.0,75.0,0,14.0,,82822.1,12.07,0.19,0.58,0.79,1.0,5.2,-1.1,34.06,,,,,,,,,,
14.07.08.435,210.5,52.6,0,14.0,,85339.0,11.72,0.19,0.58,0.79,1.4,5.6,-0.8,34.06,,,,,,,,,,
14.07.08.443,210.2,52.6,0,14.0,,81498.5,12.27,0.18,0.57,0.78,0.6,5.5,-1.1,34.06,,,,,,,,,,
14.07.08.455,160.3,40.1,0,14.0,,85135.0,11.75,0.18,0.58,0.79,0.2,5.5,-1.0,34.06,,,,,,,,,,
14.07.08.467,85.3,21.3,0,14.0,,82253.6,12.16,0.19,0.58,0.79,0.1,5.3,-0.9,34.06,,,,,,,,,,
14.07.08.475,41.7,10.4,0,14.0,,82718.1,12.09,0.18,0.57,0.78,0.8,6.4,-0.9,34.06,,,,,,,,,,
14.07.08.488,10.9,2.7,0,14.0,,84167.2,11.88,0.19,0.58,0.8,0.4,5.4,-0.5,34.06,,,,,,,,,,
14.07.08.500,12.8,3.2,0,14.0,,85509.8,11.69,0.19,0.58,0.79,0.9,5.6,-0.6,34.06,,,,,,,,,,
14.07.08.508,45.4,11.4,0,14.0,,84537.9,11.83,0.19,0.56,0.78,1.8,6.1,-1.0,34.06,,,,,,,,,,
14.07.08.520,66.7,16.7,0,14.0,,84402.4,11.85,0.19,0.58,0.78,1.1,5.3,-1.4,34.06,,,,,,,,,,
14.07.08.533,55.3,13.8,0,14.0,,83139.4,12.03,0.2,0.59,0.79,1.0,5.2,-0.9,34.06,,,,,,,,,,
14.07.08.541,46.3,11.6,0,14.0,,83992.9,11.91,0.19,0.58,0.78,1.5,6.6,-1.3,34.06,,,,,,,,,,
14.07.08.553,86.5,21.6,0,14.0,,80422.5,12.43,0.19,0.57,0.78,1.1,7.0,-1.1,34.06,,,,,,,,,,
14.07.08.566,66.3,16.6,0,14.0,,84512.8,11.83,0.19,0.58,0.79,-0.1,5.2,-0.9,34.06,,,,,,,,,,
14.07.08.574,76.5,19.1,0,14.0,,83401.9,11.99,0.19,0.57,0.8,0.6,5.9,-1.2,34.06,,,,,,,,,,
14.07.08.586,58.5,14.6,0,14.0,,80155.3,12.48,0.18,0.57,0.78,1.0,6.1,-1.1,34.06,,,,,,,,,,
14.07.08.598,19.5,4.9,0,14.0,,80292.2,12.45,0.18,0.57,0.78,1.1,5.8,-1.1,34.06,,,,,,,,,,
14.07.08.607,41.3,10.3,0,14.0,,87454.9,11.43,0.18,0.57,0.79,1.0,5.1,-1.4,34.06,,,,,,,,,,
14.07.08.619,33.1,8.3,0,14.0,,84793.4,11.79,0.18,0.58,0.79,0.7,5.4,-1.3,34.06,,,,,,,,,,
14.07.08.632,-7.7,1.9,0,14.0,,84217.1,11.87,0.19,0.58,0.79,1.2,6.0,-1.4,34.06,,,,,,,,,,
14.07.08.639,40.3,10.1,0,14.0,,81066.7,12.34,0.18,0.58,0.78,0.7,5.8,-1.4,34.06,,,,,,,,,,
14.07.08.652,-6.0,1.5,0,14.0,,86849.6,11.51,0.18,0.58,0.78,0.1,5.2,-1.2,34.06,,,,,,,,,,
14.07.08.664,-45.0,11.2,0,14.0,,81016.8,12.34,0.19,0.58,0.79,0.6,5.5,-1.5,34.06,,,,,,,,,,
14.07.08.672,-16.1,4.0,0,14.0,,83257.6,12.01,0.18,0.57,0.78,0.5,5.7,-1.8,34.06,,,,,,,,,,
14.07.08.684,-36.4,9.1,0,14.0,,83430.5,11.99,0.19,0.58,0.79,0.9,5.4,-1.5,34.06,,,,,,,,,,
14.07.08.693,-46.5,11.6,0,14.0,,77079.9,12.97,0.19,0.58,0.79,1.1,5.9,-1.5,34.06,,,,,,,,,,
14.07.08.705,-74.6,18.6,0,14.0,,82423.0,12.13,0.19,0.57,0.77,0.7,5.8,-1.5,34.06,,,,,,,,,,
14.07.08.717,-44.2,11.0,0,14.0,,84835.0,11.79,0.19,0.57,0.79,0.1,4.3,-1.2,34.06,,,,,,,,,,
14.07.08.725,-56.5,14.1,0,14.0,,84517.9,11.83,0.19,0.57,0.8,1.0,5.8,-1.5,34.06,,,,,,,,,,
14.07.08.738,-69.8,17.4,0,14.0,,82292.9,12.15,0.19,0.57,0.79,1.8,7.5,-1.6,34.06,,,,,,,,,,
14.07.08.750,-54.2,13.6,0,14.0,,82332.8,12.15,0.19,0.58,0.78,1.1,6.1,-0.9,34.06,,,,,,,,,,
14.07.08.758,-69.5,17.4,0,14.0,,82701.1,12.09,0.19,0.59,0.78,0.6,5.0,-1.0,34.06,,,,,,,,,,
14.07.08.770,-65.7,16.4,0,14.0,,83193.2,12.02,0.18,0.58,0.78,0.6,6.4,-0.8,34.06,,,,,,,,,,
14.07.08.779,-60.6,15.2,0,14.0,,82093.6,12.18,0.18,0.58,0.79,0.5,6.4,-1.0,34.06,,,,,,,,,,
14.07.08.791,-99.0,24.8,0,14.0,,83964.4,11.91,0.18,0.57,0.79,0.5,6.0,-1.0,34.06,,,,,,,,,,
14.07.08.803,-50.9,12.7,0,14.0,,84306.7,11.86,0.18,0.57,0.79,0.6,5.8,-0.9,34.06,,,,,,,,,,
14.07.08.811,-81.0,20.2,0,14.0,,85047.9,11.76,0.18,0.57,0.79,1.1,5.5,-1.0,34.06,,,,,,,,,,
14.07.08.824,-98.8,24.7,0,14.0,,84757.0,11.8,0.19,0.57,0.79,1.3,5.2,-1.6,34.06,,,,,,,,,,
14.07.08.836,-116.7,29.2,0,14.0,,86510.1,11.56,0.19,0.57,0.79,1.7,5.3,-1.7,34.06,,,,,,,,,,
14.07.08.844,-128.5,32.1,0,14.0,,81892.1,12.21,0.18,0.58,0.79,1.7,5.4,-1.5,34.06,,,,,,,,,,
14.07.08.856,-121.0,30.2,0,14.0,,83601.2,11.96,0.18,0.58,0.78,1.5,6.2,-1.5,34.06,,,,,,,,,,
14.07.08.865,-115.7,28.9,0,14.0,,81530.8,12.27,0.18,0.58,0.78,1.0,5.3,-1.2,34.06,,,,,,,,,,
14.07.08.906,-170.4,42.6,0,14.0,,82366.2,12.14,0.19,0.57,0.79,0.4,6.0,-1.1,34.06,,,,,,,,,,
14.07.08.918,-174.2,43.6,0,14.0,,82773.3,12.08,0.19,0.57,0.79,1.0,6.4,-1.5,34.06,,,,,,,,,,
14.07.08.926,-187.2,46.8,0,14.0,,81888.9,12.21,0.2,0.58,0.79,0.1,5.0,-1.2,34.06,,,,,,,,,,
14.07.08.938,-166.0,41.5,0,14.0,,85464.3,11.7,0.19,0.58,0.79,0.3,5.8,-1.3,34.06,,,,,,,,,,
14.07.08.951,31.9,8.0,1,15.0,84.4,83342.5,12.0,0.19,0.58,0.79,1.0,7.0,-1.2,34.06,,,,,,,,,,
14.07.08.959,51.4,12.8,0,15.0,,83186.3,12.02,0.18,0.58,0.79,0.8,7.2,-1.1,34.06,,,,,,,,,,
14.07.08.971,112.3,28.1,0,15.0,,84497.3,11.83,0.19,0.58,0.78,0.0,5.1,-1.0,34.06,,,,,,,,,,
14.07.08.984,193.1,48.3,0,15.0,,84371.4,11.85,0.18,0.58,0.79,0.2,5.5,-0.9,34.06,,,,,,,,,,
14.07.08.992,227.0,56.8,0,15.0,,82901.3,12.06,0.19,0.57,0.77,1.1,6.6,-1.5,34.06,,,,,,,,,,
14.07.09.004,243.8,61.0,0,15.0,,83087.2,12.04,0.19,0.57,0.79,0.6,5.7,-1.4,34.06,,,,,,,,,,
14.07.09.016,315.3,78.8,0,15.0,,88416.0,11.31,0.19,0.59,0.8,0.3,4.1,-1.2,34.06,,,,,,,,,,
14.07.09.024,360.5,90.1,0,15.0,,82031.5,12.19,0.19,0.58,0.79,0.7,6.2,-1.4,34.06,,,,,,,,,,
14.07.09.037,339.3,84.8,0,15.0,,82508.3,12.12,0.19,0.57,0.78,0.9,6.1,-1.1,34.06,,,,,,,,,,
14.07.09.049,390.0,97.5,0,15.0,,81000.4,12.35,0.19,0.58,0.79,-0.6,4.8,-0.9,34.06,,,,,,,,,,
14.07.09.057,409.2,102.3,0,15.0,,85492.8,11.7,0.19,0.58,0.79,0.1,5.7,-0.7,34.06,,,,,,,,,,
14.07.09.069,427.2,106.8,0,15.0,,80227.5,12.46,0.18,0.57,0.78,0.8,6.3,-1.1,34.06,,,,,,,,,,
14.07.09.082,428.8,107.2,0,15.0,,83859.9,11.92,0.18,0.57,0.79,0.9,5.1,-0.6,34.06,,,,,,,,,,
14.07.09.094,392.4,98.1,0,15.0,,80531.6,12.42,0.18,0.58,0.79,0.5,5.3,-0.9,34.06,,,,,,,,,,
14.07.09.102,394.8,98.7,0,15.0,,87269.4,11.46,0.19,0.58,0.79,1.1,6.5,-0.8,34.06,,,,,,,,,,
14.07.09.115,353.2,88.3,0,15.0,,78795.1,12.69,0.19,0.58,0.79,0.6,6.7,-1.0,34.06,,,,,,,,,,
14.07.09.127,346.5,86.6,0,15.0,,81264.6,12.31,0.19,0.58,0.78,0.3,5.7,-1.0,34.06,,,,,,,,,,
14.07.09.140,245.3,61.3,0,15.0,,82612.6,12.1,0.2,0.58,0.78,0.0,6.1,-0.8,34.06,,,,,,,,,,
14.07.09.147,273.5,68.4,0,15.0,,85925.4,11.64,0.19,0.59,0.81,-0.2,5.9,-0.5,34.06,,,,,,,,,,
14.07.09.160,210.6,52.6,0,15.0,,79095.8,12.64,0.19,0.55,0.76,0.2,7.5,-2.2,34.06,,,,,,,,,,
14.07.09.172,136.6,34.2,0,15.0,,82945.5,12.06,0.19,0.58,0.8,0.6,4.9,-1.3,34.06,,,,,,,,,,
14.07.09.180,60.3,15.1,0,15.0,,81208.7,12.31,0.19,0.59,0.8,1.0,5.2,-1.1,34.06,,,,,,,,,,
14.07.09.192,66.7,16.7,0,15.0,,83877.0,11.92,0.18,0.58,0.78,2.5,7.4,-1.0,34.06,,,,,,,,,,
14.07.09.205,-8.0,2.0,0,15.0,,83203.4,12.02,0.19,0.58,0.77,0.7,4.3,-1.5,34.06,,,,,,,,,,
14.07.09.217,43.2,10.8,0,15.0,,82874.9,12.07,0.18,0.58,0.8,-0.9,3.5,-1.3,34.06,,,,,,,,,,
14.07.09.225,12.7,3.2,0,15.0,,82640.4,12.1,0.18,0.58,0.8,0.6,6.3,-1.2,34.06,,,,,,,,,,
14.07.09.237,69.5,17.4,0,15.0,,82521.9,12.12,0.18,0.57,0.79,1.9,6.9,-1.6,34.06,,,,,,,,,,
14.07.09.250,74.6,18.6,0,15.0,,80531.2,12.42,0.18,0.57,0.77,0.6,3.2,-1.7,34.06,,,,,,,,,,
14.07.09.262,73.2,18.3,0,15.0,,77891.9,12.84,0.18,0.59,0.79,0.6,4.5,-1.6,34.06,,,,,,,,,,
14.07.09.270,108.8,27.2,0,15.0,,82171.7,12.17,0.19,0.6,0.79,1.9,7.8,-1.5,34.06,,,,,,,,,,
14.07.09.282,76.0,19.0,0,15.0,,83702.8,11.95,0.19,0.59,0.78,0.7,6.7,-1.0,34.06,,,,,,,,,,
14.07.09.295,89.1,22.3,0,15.0,,84511.3,11.83,0.18,0.58,0.78,-0.5,4.4,-0.9,34.06,,,,,,,,,,
14.07.09.303,35.5,8.9,0,15.0,,81660.3,12.25,0.19,0.57,0.79,-0.2,5.7,-1.4,34.06,,,,,,,,,,
14.07.09.315,33.9,8.5,0,15.0,,85200.9,11.74,0.18,0.57,0.79,1.0,7.1,-1.2,34.06,,,,,,,,,,
14.07.09.328,11.7,2.9,0,15.0,,79490.7,12.58,0.19,0.57,0.78,0.4,6.0,-1.2,34.06,,,,,,,,,,
14.07.09.340,18.8,4.7,0,15.0,,84006.7,11.9,0.18,0.57,0.78,0.7,5.4,-1.4,34.06,,,,,,,,,,
14.07.09.348,12.8,3.2,0,15.0,,85460.9,11.7,0.19,0.58,0.79,0.4,5.5,-1.0,34.06,,,,,,,,,,
14.07.09.360,-38.0,9.5,0,15.0,,82830.9,12.07,0.19,0.57,0.79,0.4,6.2,-1.4,34.06,,,,,,,,,,
14.07.09.373,9.1,2.3,0,15.0,,82709.0,12.09,0.18,0.57,0.79,0.8,5.4,-1.5,34.06,,,,,,,,,,
14.07.09.381,-56.0,14.0,0,15.0,,83488.4,11.98,0.18,0.57,0.78,0.5,5.1,-1.8,34.06,,,,,,,,,,
14.07.09.393,-40.6,10.2,0,15.0,,81711.1,12.24,0.19,0.58,0.79,1.0,6.0,-1.3,34.06,,,,,,,,,,
14.07.09.405,-63.5,15.9,0,15.0,,86626.3,11.54,0.19,0.58,0.79,0.5,6.6,-1.1,34.06,,,,,,,,,,
14.07.09.414,-65.9,16.5,0,15.0,,81714.0,12.24,0.19,0.58,0.78,0.7,6.3,-1.3,34.06,,,,,,,,,,
14.07.09.426,-65.9,16.5,0,15.0,,81853.2,12.22,0.19,0.57,0.79,-0.3,5.7,-1.4,34.06,,,,,,,,,,
14.07.09.438,-51.4,12.8,0,15.0,,85120.5,11.75,0.19,0.58,0.79,0.3,6.1,-1.6,34.06,,,,,,,,,,
14.07.09.450,-44.1,11.0,0,15.0,,83461.2,11.98,0.18,0.58,0.79,0.5,6.0,-1.7,34.06,,,,,,,,,,
14.07.09.459,-57.7,14.4,0,15.0,,83481.1,11.98,0.19,0.58,0.78,0.2,5.5,-1.6,34.06,,,,,,,,,,
14.07.09.471,-56.8,14.2,0,15.0,,81431.7,12.28,0.19,0.57,0.78,-0.5,5.4,-1.5,34.06,,,,,,,,,,
14.07.09.483,-102.4,25.6,0,15.0,,80811.5,12.37,0.19,0.57,0.79,0.0,6.2,-1.6,34.06,,,,,,,,,,
14.07.09.491,-56.0,14.0,0,15.0,,82953.8,12.05,0.19,0.57,0.79,0.8,6.5,-1.3,34.06,,,,,,,,,,
14.07.09.504,-104.1,26.0,0,15.0,,80295.7,12.45,0.18,0.58,0.78,1.1,5.9,-1.1,34.06,,,,,,,,,,
14.07.09.516,-74.4,18.6,0,15.0,,84509.8,11.83,0.19,0.58,0.79,0.6,5.8,-1.2,34.06,,,,,,,,,,
14.07.09.528,-90.6,22.6,0,15.0,,81977.0,12.2,0.19,0.58,0.78,0.3,6.2,-1.1,34.06,,,,,,,,,,
14.07.09.537,-124.3,31.1,0,15.0,,81365.4,12.29,0.19,0.58,0.79,0.4,6.7,-1.2,34.06,,,,,,,,,,
14.07.09.549,-118.1,29.5,0,15.0,,86295.4,11.59,0.19,0.58,0.79,0.1,6.3,-1.5,34.06,,,,,,,,,,
14.07.09.557,-137.2,34.3,0,15.0,,84660.0,11.81,0.19,0.57,0.79,0.1,5.7,-1.6,34.06,,,,,,,,,,
14.07.09.569,-112.1,28.0,0,15.0,,80762.2,12.38,0.19,0.58,0.79,0.6,5.6,-1.2,34.06,,,,,,,,,,
14.07.09.577,-128.2,32.0,0,15.0,,80616.9,12.4,0.19,0.58,0.79,1.0,6.2,-1.4,34.06,,,,,,,,,,
14.07.09.590,-134.1,33.5,0,15.0,,80663.8,12.4,0.19,0.58,0.79,0.9,6.1,-1.3,34.06,,,,,,,,,,
14.07.09.598,-78.6,19.6,0,15.0,,84915.2,11.78,0.19,0.58,0.79,0.6,5.8,-1.1,34.06,,,,,,,,,,
14.07.09.610,-141.8,35.4,0,15.0,,81764.0,12.23,0.19,0.58,0.79,0.7,5.9,-0.9,34.06,,,,,,,,,,
14.07.09.618,-114.0,28.5,0,15.0,,84874.2,11.78,0.19,0.58,0.78,0.8,6.2,-0.8,34.06,,,,,,,,,,
14.07.09.631,-151.8,38.0,0,15.0,,81056.6,12.34,0.19,0.58,0.79,1.0,6.0,-1.3,34.06,,,,,,,,,,
14.07.09.639,-169.0,42.2,0,15.0,,84306.7,11.86,0.19,0.58,0.79,1.0,5.3,-1.2,34.06,,,,,,,,,,
14.07.09.647,-165.0,41.2,0,15.0,,87817.5,11.39,0.18,0.59,0.79,1.1,5.7,-1.5,34.06,,,,,,,,,,
14.07.09.660,-201.4,50.4,0,15.0,,82908.0,12.06,0.19,0.58,0.77,1.4,6.3,-1.2,34.06,,,,,,,,,,
14.07.09.668,9.7,2.4,1,16.0,87.5,81545.9,12.26,0.19,0.58,0.77,0.7,5.8,-1.6,34.06,,,,,,,,,,
14.07.09.704,198.6,49.6,0,16.0,,81774.1,12.23,0.19,0.58,0.79,0.1,4.9,-1.6,34.06,,,,,,,,,,
14.07.09.717,247.3,61.8,0,16.0,,84795.3,11.79,0.19,0.57,0.79,0.2,5.0,-1.5,34.06,,,,,,,,,,
14.07.09.725,268.0,67.0,0,16.0,,80971.8,12.35,0.19,0.57,0.8,1.0,5.3,-1.2,34.06,,,,,,,,,,
14.07.09.737,342.7,85.7,0,16.0,,83701.0,11.95,0.19,0.58,0.79,1.7,6.5,-1.6,34.06,,,,,,,,,,
14.07.09.745,397.1,99.3,0,16.0,,87878.8,11.38,0.19,0.58,0.79,1.0,6.4,-1.3,34.06,,,,,,,,,,
14.07.09.758,362.0,90.5,0,16.0,,86777.7,11.52,0.19,0.58,0.79,0.8,5.6,-1.6,34.06,,,,,,,,,,
14.07.09.766,382.3,95.6,0,16.0,,85402.8,11.71,0.19,0.58,0.78,0.1,5.9,-1.4,34.06,,,,,,,,,,
14.07.09.778,376.6,94.2,0,16.0,,83722.0,11.94,0.19,0.58,0.78,0.7,6.3,-1.2,34.06,,,,,,,,,,
14.07.09.787,390.3,97.6,0,16.0,,81842.7,12.22,0.19,0.58,0.79,0.4,5.8,-1.3,34.06,,,,,,,,,,
14.07.09.799,391.5,97.9,0,16.0,,82986.6,12.05,0.18,0.57,0.79,-0.1,5.5,-1.3,34.06,,,,,,,,,,
14.07.09.811,419.5,104.9,0,16.0,,78291.5,12.77,0.19,0.58,0.79,0.5,6.1,-1.6,34.06,,,,,,,,,,
14.07.09.823,360.9,90.2,0,16.0,,81391.9,12.29,0.18,0.57,0.78,-0.6,5.7,-1.2,34.06,,,,,,,,,,
14.07.09.831,334.0,83.5,0,16.0,,86804.7,11.52,0.19,0.58,0.79,1.1,6.9,-1.6,34.06,,,,,,,,,,
14.07.09.844,282.1,70.5,0,16.0,,88935.8,11.24,0.18,0.57,0.78,0.6,5.8,-1.1,34.06,,,,,,,,,,
14.07.09.856,281.0,70.2,0,16.0,,82762.3,12.08,0.19,0.59,0.79,-0.1,5.5,-1.5,34.06,,,,,,,,,,
14.07.09.864,197.0,49.2,0,16.0,,76049.6,13.15,0.19,0.57,0.78,1.4,7.1,-0.8,34.06,,,,,,,,,,
14.07.09.876,153.4,38.4,0,16.0,,82755.7,12.08,0.18,0.57,0.78,0.6,6.9,-1.3,34.06,,,,,,,,,,
14.07.09.889,83.1,20.8,0,16.0,,86479.6,11.56,0.19,0.58,0.79,0.3,4.8,-1.3,34.06,,,,,,,,,,
14.07.09.897,73.3,18.3,0,16.0,,85247.2,11.73,0.19,0.57,0.79,0.0,5.2,-1.3,34.06,,,,,,,,,,
14.07.09.909,0.1,0.0,0,16.0,,86434.1,11.57,0.19,0.57,0.79,1.5,6.6,-1.6,34.06,,,,,,,,,,
14.07.09.922,11.0,2.8,0,16.0,,83003.8,12.05,0.19,0.58,0.78,0.6,6.3,-1.7,34.06,,,,,,,,,,
14.07.09.930,26.5,6.6,0,16.0,,83317.2,12.0,0.19,0.58,0.79,0.3,5.5,-1.5,34.06,,,,,,,,,,
14.07.09.942,47.7,11.9,0,16.0,,81331.8,12.3,0.19,0.57,0.78,0.4,5.9,-1.2,34.06,,,,,,,,,,
14.07.09.954,71.0,17.8,0,16.0,,84463.4,11.84,0.19,0.58,0.78,1.2,6.8,-1.3,34.06,,,,,,,,,,
14.07.09.967,59.7,14.9,0,16.0,,82602.0,12.11,0.19,0.58,0.79,0.6,6.0,-1.3,34.06,,,,,,,,,,
14.07.09.975,68.4,17.1,0,16.0,,83698.3,11.95,0.19,0.58,0.79,0.7,5.6,-1.5,34.06,,,,,,,,,,
14.07.09.988,31.8,8.0,0,16.0,,84022.2,11.9,0.18,0.58,0.79,0.4,5.5,-1.3,34.06,,,,,,,,,,
14.07.09.999,66.2,16.6,0,16.0,,82482.4,12.12,0.19,0.57,0.79,-0.1,5.2,-1.5,34.06,,,,,,,,,,
14.07.10.008,43.6,10.9,0,16.0,,86632.1,11.54,0.18,0.57,0.79,0.7,4.8,-1.4,34.06,,,,,,,,,,
14.07.10.020,75.6,18.9,0,16.0,,84631.5,11.82,0.18,0.58,0.78,1.3,6.2,-1.8,34.06,,,,,,,,,,
14.07.10.032,24.7,6.2,0,16.0,,82715.3,12.09,0.19,0.59,0.78,1.5,5.8,-1.4,34.06,,,,,,,,,,
14.07.10.040,-2.4,0.6,0,16.0,,81388.9,12.29,0.19,0.58,0.79,-0.4,4.1,-1.0,34.06,,,,,,,,,,
14.07.10.053,36.6,9.2,0,16.0,,80775.3,12.38,0.19,0.58,0.79,0.1,6.0,-1.1,34.06,,,,,,,,,,
14.07.10.065,3.3,0.8,0,16.0,,81395.8,12.29,0.19,0.58,0.79,0.4,7.3,-1.6,34.06,,,,,,,,,,
14.07.10.077,5.7,1.4,0,16.0,,82226.9,12.16,0.19,0.57,0.79,0.1,6.6,-1.5,34.06,,,,,,,,,,
14.07.10.086,-1.1,0.3,0,16.0,,81500.4,12.27,0.19,0.58,0.8,0.2,5.6,-1.6,34.06,,,,,,,,,,
14.07.10.098,-30.2,7.6,0,16.0,,80269.5,12.46,0.19,0.58,0.79,0.9,6.8,-1.4,34.06,,,,,,,,,,
14.07.10.110,-42.6,10.6,0,16.0,,85895.2,11.64,0.18,0.58,0.78,0.8,6.1,-1.6,34.06,,,,,,,,,,
14.07.10.118,-28.1,7.0,0,16.0,,82440.6,12.13,0.18,0.58,0.78,0.7,5.8,-1.3,34.06,,,,,,,,,,
14.07.10.130,-20.0,5.0,0,16.0,,84877.4,11.78,0.18,0.6,0.78,1.7,6.9,-0.9,34.06,,,,,,,,,,
14.07.10.143,-40.6,10.2,0,16.0,,82383.4,12.14,0.19,0.59,0.79,0.4,6.0,-1.1,34.06,,,,,,,,,,
14.07.10.151,-46.2,11.6,0,16.0,,79648.2,12.56,0.18,0.58,0.79,-1.9,3.8,-1.0,34.06,,,,,,,,,,
14.07.10.163,-59.1,14.8,0,16.0,,79417.5,12.59,0.19,0.56,0.79,-0.7,5.8,-1.5,34.06,,,,,,,,,,
14.07.10.176,-33.3,8.3,0,16.0,,80810.5,12.37,0.19,0.56,0.79,0.7,7.8,-1.5,34.06,,,,,,,,,,
14.07.10.188,-83.1,20.8,0,16.0,,84601.0,11.82,0.19,0.56,0.79,0.8,5.2,-1.5,34.06,,,,,,,,,,
14.07.10.196,-47.8,12.0,0,16.0,,83215.6,12.02,0.19,0.58,0.79,1.2,4.6,-1.3,34.06,,,,,,,,,,
14.07.10.208,-74.9,18.7,0,16.0,,85207.8,11.74,0.19,0.58,0.78,1.9,7.1,-1.5,34.06,,,,,,,,,,
14.07.10.221,-62.4,15.6,0,16.0,,82963.6,12.05,0.19,0.59,0.78,1.6,7.6,-1.2,34.06,,,,,,,,,,
14.07.10.229,-83.8,21.0,0,16.0,,82052.2,12.19,0.19,0.59,0.79,0.0,5.5,-0.9,34.06,,,,,,,,,,
14.07.10.241,-80.4,20.1,0,16.0,,84984.6,11.77,0.18,0.58,0.79,-0.8,4.6,-0.9,34.06,,,,,,,,,,
14.07.10.253,-63.3,15.8,0,16.0,,84648.4,11.81,0.19,0.56,0.79,0.1,6.1,-1.3,34.06,,,,,,,,,,
14.07.10.262,-120.3,30.1,0,16.0,,83803.3,11.93,0.19,0.56,0.79,0.0,5.9,-1.4,34.06,,,,,,,,,,
14.07.10.274,-112.4,28.1,0,16.0,,84896.9,11.78,0.19,0.56,0.8,0.5,5.5,-1.6,34.06,,,,,,,,,,
14.07.10.286,-107.4,26.8,0,16.0,,80730.8,12.39,0.19,0.57,0.79,1.3,6.0,-1.6,34.06,,,,,,,,,,
14.07.10.294,-143.9,36.0,0,16.0,,82665.0,12.1,0.19,0.58,0.78,1.5,5.8,-1.5,34.06,,,,,,,,,,
14.07.10.307,-126.7,31.7,0,16.0,,85382.0,11.71,0.19,0.58,0.78,0.9,5.6,-1.1,34.06,,,,,,,,,,
14.07.10.319,-131.1,32.8,0,16.0,,83184.9,12.02,0.18,0.59,0.79,0.6,6.0,-0.9,34.06,,,,,,,,,,
14.07.10.327,-131.7,32.9,0,16.0,,85653.9,11.67,0.19,0.58,0.79,0.3,6.5,-0.9,34.06,,,,,,,,,,
14.07.10.339,-147.1,36.8,0,16.0,,85022.9,11.76,0.19,0.57,0.78,0.1,5.7,-1.0,34.06,,,,,,,,,,
14.07.10.352,-159.2,39.8,0,16.0,,85888.4,11.64,0.19,0.57,0.79,0.2,5.5,-1.2,34.06,,,,,,,,,,
14.07.10.364,-164.8,41.2,0,16.0,,86823.8,11.52,0.19,0.57,0.79,0.6,5.7,-1.4,34.06,,,,,,,,,,
14.07.10.372,-141.5,35.4,0,16.0,,81646.3,12.25,0.19,0.57,0.79,1.1,6.0,-1.5,34.06,,,,,,,,,,
14.07.10.384,69.7,17.4,1,17.0,81.8,89029.9,11.23,0.19,0.58,0.78,1.0,5.7,-1.5,34.06,,,,,,,,,,
14.07.10.397,146.4,36.6,0,17.0,,83377.0,11.99,0.19,0.58,0.78,1.2,6.0,-1.4,34.06,,,,,,,,,,
14.07.10.405,122.6,30.6,0,17.0,,83957.9,11.91,0.19,0.58,0.79,-0.3,5.5,-1.2,34.06,,,,,,,,,,
14.07.10.417,235.9,59.0,0,17.0,,86148.4,11.61,0.18,0.58,0.79,0.9,6.8,-0.8,34.06,,,,,,,,,,
14.07.10.430,234.4,58.6,0,17.0,,83797.6,11.93,0.19,0.57,0.79,0.3,6.8,-1.2,34.06,,,,,,,,,,
14.07.10.438,302.7,75.7,0,17.0,,84258.5,11.87,0.19,0.57,0.79,0.5,5.5,-0.8,34.06,,,,,,,,,,
14.07.10.450,346.5,86.6,0,17.0,,86152.9,11.61,0.19,0.57,0.79,0.9,5.4,-1.4,34.06,,,,,,,,,,
14.07.10.462,335.6,83.9,0,17.0,,79423.8,12.59,0.19,0.58,0.79,1.6,5.9,-1.4,34.06,,,,,,,,,,
14.07.10.471,356.6,89.2,0,17.0,,85377.6,11.71,0.19,0.58,0.78,0.5,5.6,-1.4,34.06,,,,,,,,,,
14.07.10.511,400.1,100.0,0,17.0,,83014.5,12.05,0.19,0.58,0.79,-0.2,5.6,-1.3,34.06,,,,,,,,,,
14.07.10.524,376.2,94.0,0,17.0,,84022.4,11.9,0.19,0.57,0.78,0.9,5.7,-0.9,34.06,,,,,,,,,,
14.07.10.536,356.3,89.1,0,17.0,,85399.8,11.71,0.19,0.57,0.78,0.9,6.8,-1.7,34.06,,,,,,,,,,
14.07.10.544,344.5,86.1,0,17.0,,80006.1,12.5,0.19,0.58,0.79,1.0,5.5,-1.3,34.06,,,,,,,,,,
14.07.10.553,342.7,85.7,0,17.0,,78689.3,12.71,0.19,0.58,0.79,0.1,5.5,-1.4,34.06,,,,,,,,,,
14.07.10.565,272.3,68.1,0,17.0,,87435.9,11.44,0.18,0.57,0.78,1.0,6.6,-1.5,34.06,,,,,,,,,,
14.07.10.577,226.6,56.6,0,17.0,,84764.6,11.8,0.19,0.58,0.78,0.8,6.0,-1.3,34.06,,,,,,,,,,
14.07.10.585,186.9,46.7,0,17.0,,79373.2,12.6,0.19,0.58,0.78,0.3,5.4,-1.2,34.06,,,,,,,,,,
14.07.10.598,110.9,27.7,0,17.0,,88518.7,11.3,0.19,0.58,0.78,0.6,6.1,-1.3,34.06,,,,,,,,,,
14.07.10.610,74.7,18.7,0,17.0,,83137.1,12.03,0.19,0.58,0.79,0.7,6.4,-1.4,34.06,,,,,,,,,,
14.07.10.618,0.8,0.2,0,17.0,,83715.0,11.95,0.19,0.58,0.79,0.2,5.6,-1.1,34.06,,,,,,,,,,
14.07.10.630,3.9,1.0,0,17.0,,85301.7,11.72,0.19,0.58,0.78,0.6,5.9,-1.4,34.06,,,,,,,,,,
14.07.10.643,27.4,6.8,0,17.0,,83964.9,11.91,0.19,0.57,0.78,1.1,6.5,-1.3,34.06,,,,,,,,,,
14.07.10.651,44.6,11.2,0,17.0,,78834.2,12.68,0.18,0.58,0.78,0.8,6.0,-1.2,34.06,,,,,,,,,,
14.07.10.663,76.7,19.2,0,17.0,,78184.9,12.79,0.19,0.58,0.78,0.5,5.6,-1.0,34.06,,,,,,,,,,
14.07.10.675,58.1,14.5,0,17.0,,89574.2,11.16,0.19,0.58,0.78,0.3,6.2,-1.3,34.06,,,,,,,,,,
14.07.10.684,94.0,23.5,0,17.0,,85615.5,11.68,0.19,0.58,0.79,0.4,6.6,-1.3,34.06,,,,,,,,,,
14.07.10.696,74.8,18.7,0,17.0,,84045.9,11.9,0.19,0.57,0.79,0.1,5.8,-1.3,34.06,,,,,,,,,,
14.07.10.708,74.5,18.6,0,17.0,,81384.2,12.29,0.19,0.58,0.78,0.3,6.0,-1.2,34.06,,,,,,,,,,
14.07.10.716,68.8,17.2,0,17.0,,83431.0,11.99,0.19,0.58,0.79,0.4,6.1,-1.4,34.06,,,,,,,,,,
14.07.10.729,49.4,12.4,0,17.0,,80357.7,12.44,0.19,0.58,0.79,0.4,5.9,-0.9,34.06,,,,,,,,,,
14.07.10.741,45.6,11.4,0,17.0,,85108.7,11.75,0.2,0.57,0.78,0.8,6.8,-0.9,34.06,,,,,,,,,,
14.07.10.749,63.3,15.8,0,17.0,,81068.6,12.34,0.19,0.58,0.78,0.8,6.7,-1.5,34.06,,,,,,,,,,
14.07.10.761,-10.8,2.7,0,17.0,,81861.0,12.22,0.19,0.59,0.79,-0.2,5.1,-1.3,34.06,,,,,,,,,,
14.07.10.774,14.9,3.7,0,17.0,,86921.4,11.5,0.19,0.58,0.79,0.3,5.7,-1.3,34.06,,,,,,,,,,
14.07.10.782,-1.7,0.4,0,17.0,,82316.3,12.15,0.18,0.57,0.78,1.1,7.1,-1.5,34.06,,,,,,,,,,
14.07.10.794,-5.4,1.4,0,17.0,,83836.7,11.93,0.18,0.57,0.78,-0.3,5.0,-1.5,34.06,,,,,,,,,,
14.07.10.807,-23.0,5.8,0,17.0,,81741.3,12.23,0.18,0.58,0.79,0.0,4.4,-1.3,34.06,,,,,,,,,,
14.07.10.815,-65.4,16.4,0,17.0,,82682.8,12.09,0.19,0.57,0.79,1.5,7.2,-1.4,34.06,,,,,,,,,,
14.07.10.827,-38.0,9.5,0,17.0,,81111.9,12.33,0.19,0.57,0.77,1.3,7.1,-1.2,34.06,,,,,,,,,,
14.07.10.839,-33.3,8.3,0,17.0,,88811.7,11.26,0.19,0.58,0.78,-0.1,5.2,-1.2,34.06,,,,,,,,,,
14.07.10.847,-47.7,11.9,0,17.0,,80852.6,12.37,0.19,0.59,0.8,0.1,6.0,-0.9,34.06,,,,,,,,,,
14.07.10.860,-71.7,17.9,0,17.0,,84331.6,11.86,0.19,0.57,0.79,0.8,8.4,-1.2,34.06,,,,,,,,,,
14.07.10.868,-61.3,15.3,0,17.0,,84822.7,11.79,0.19,0.57,0.78,0.2,6.6,-1.3,34.06,,,,,,,,,,
14.07.10.880,-51.6,12.9,0,17.0,,84132.2,11.89,0.19,0.58,0.79,-0.9,4.3,-0.9,34.06,,,,,,,,,,
14.07.10.893,-37.4,9.4,0,17.0,,82984.8,12.05,0.19,0.57,0.79,0.7,6.6,-1.1,34.06,,,,,,,,,,
14.07.10.901,-77.1,19.3,0,17.0,,83450.4,11.98,0.18,0.57,0.78,1.3,7.4,-1.6,34.06,,,,,,,,,,
14.07.10.913,-97.2,24.3,0,17.0,,84837.3,11.79,0.18,0.58,0.78,0.5,5.0,-1.7,34.06,,,,,,,,,,
14.07.10.925,-126.8,31.7,0,17.0,,79921.5,12.51,0.18,0.58,0.79,0.1,4.9,-1.7,34.06,,,,,,,,,,
14.07.10.933,-113.9,28.5,0,17.0,,79955.6,12.51,0.19,0.58,0.79,0.9,6.7,-1.2,34.06,,,,,,,,,,
14.07.10.946,-81.0,20.2,0,17.0,,81877.4,12.21,0.18,0.58,0.78,0.8,7.0,-1.2,34.06,,,,,,,,,,
14.07.10.958,-139.3,34.8,0,17.0,,82412.0,12.13,0.19,0.58,0.79,-0.3,5.4,-1.0,34.06,,,,,,,,,,
14.07.10.966,-118.1,29.5,0,17.0,,81969.5,12.2,0.19,0.58,0.79,0.1,5.8,-1.0,34.06,,,,,,,,,,
14.07.10.978,-66.5,16.6,0,17.0,,83209.3,12.02,0.19,0.58,0.78,0.9,7.7,-0.9,34.06,,,,,,,,,,
14.07.10.991,-85.7,21.4,0,17.0,,82585.0,12.11,0.19,0.58,0.78,0.1,6.3,-1.4,34.06,,,,,,,,,,
14.07.10.999,-117.4,29.4,0,17.0,,82525.1,12.12,0.19,0.58,0.78,-0.6,5.2,-1.2,34.06,,,,,,,,,,
14.07.11.012,-98.4,24.6,0,17.0,,81718.3,12.24,0.18,0.57,0.79,0.5,6.6,-1.1,34.06,,,,,,,,,,
14.07.11.024,-105.5,26.4,0,17.0,,83670.6,11.95,0.19,0.58,0.79,1.2,7.8,-1.3,34.06,,,,,,,,,,
14.07.11.032,-114.9,28.7,0,17.0,,83442.8,11.98,0.18,0.58,0.78,0.2,5.6,-1.3,34.06,,,,,,,,,,
14.07.11.044,-119.9,30.0,0,17.0,,85222.4,11.73,0.19,0.57,0.79,0.5,5.2,-1.3,34.06,,,,,,,,,,
14.07.11.056,-148.1,37.0,0,17.0,,81593.1,12.26,0.19,0.58,0.79,1.0,6.7,-1.2,34.06,,,,,,,,,,
14.07.11.065,-135.7,33.9,0,17.0,,82792.7,12.08,0.18,0.57,0.8,0.0,5.7,-1.6,34.06,,,,,,,,,,
14.07.11.077,-149.2,37.3,0,17.0,,79428.2,12.59,0.19,0.57,0.79,0.6,5.3,-1.1,34.06,,,,,,,,,,
14.07.11.085,-150.5,37.6,0,17.0,,86045.2,11.62,0.19,0.58,0.78,1.3,6.8,-1.2,34.06,,,,,,,,,,
14.07.11.097,49.4,12.4,1,18.0,82.8,84988.4,11.77,0.19,0.59,0.79,1.6,7.2,-1.1,34.06,,,,,,,,,,
14.07.11.110,127.5,31.9,0,18.0,,86858.6,11.51,0.19,0.58,0.78,-0.2,6.1,-1.3,34.06,,,,,,,,,,
14.07.11.118,119.8,30.0,0,18.0,,84998.0,11.76,0.19,0.58,0.79,-0.2,5.7,-1.1,34.06,,,,,,,,,,
14.07.11.130,191.8,48.0,0,18.0,,83981.7,11.91,0.18,0.57,0.79,-0.2,6.5,-1.2,34.06,,,,,,,,,,
14.07.11.142,247.9,62.0,0,18.0,,84000.7,11.9,0.18,0.57,0.79,0.2,6.2,-1.2,34.06,,,,,,,,,,
14.07.11.151,251.0,62.8,0,18.0,,85307.4,11.72,0.18,0.57,0.79,0.4,5.7,-1.2,34.06,,,,,,,,,,
14.07.11.163,379.6,94.9,0,18.0,,82064.9,12.19,0.18,0.57,0.79,0.9,5.9,-1.4,34.06,,,,,,,,,,
14.07.11.175,393.9,98.5,0,18.0,,84451.1,11.84,0.19,0.58,0.79,1.0,6.2,-1.2,34.06,,,,,,,,,,
14.07.11.183,375.1,93.8,0,18.0,,85679.1,11.67,0.18,0.58,0.79,1.0,6.5,-1.4,34.06,,,,,,,,,,
14.07.11.196,416.4,104.1,0,18.0,,82481.5,12.12,0.18,0.58,0.79,-0.3,6.4,-1.4,34.06,,,,,,,,,,
14.07.11.208,375.7,93.9,0,18.0,,82532.9,12.12,0.19,0.57,0.78,0.0,5.9,-1.3,34.06,,,,,,,,,,
14.07.11.216,413.1,103.3,0,18.0,,78204.0,12.79,0.19,0.57,0.79,-0.5,6.2,-1.2,34.06,,,,,,,,,,
14.07.11.228,421.2,105.3,0,18.0,,84437.3,11.84,0.19,0.57,0.78,-0.1,6.4,-1.3,34.06,,,,,,,,,,
14.07.11.241,381.2,95.3,0,18.0,,86908.2,11.51,0.18,0.57,0.78,-0.1,6.4,-1.3,34.06,,,,,,,,,,
14.07.11.249,381.0,95.2,0,18.0,,83724.3,11.94,0.18,0.57,0.78,0.5,6.5,-1.5,34.06,,,,,,,,,,
14.07.11.261,339.8,85.0,0,18.0,,83154.8,12.03,0.18,0.58,0.79,0.4,6.1,-1.5,34.06,,,,,,,,,,
14.07.11.273,308.2,77.0,0,18.0,,80889.9,12.36,0.18,0.57,0.79,0.5,6.1,-1.3,34.06,,,,,,,,,,
14.07.11.310,102.3,25.6,0,18.0,,86047.6,11.62,0.19,0.57,0.79,0.4,6.0,-1.4,34.13,,,,,,,,,,
14.07.11.323,81.2,20.3,0,18.0,,85791.4,11.66,0.18,0.57,0.79,0.6,5.7,-1.3,34.13,,,,,,,,,,
14.07.11.335,6.2,1.6,0,18.0,,86375.6,11.58,0.18,0.57,0.79,0.9,5.6,-1.6,34.13,,,,,,,,,,
14.07.11.343,9.4,2.4,0,18.0,,85894.7,11.64,0.18,0.57,0.78,1.1,5.7,-1.4,34.13,,,,,,,,,,
14.07.11.355,8.4,2.1,0,18.0,,85256.0,11.73,0.18,0.57,0.79,1.5,6.1,-1.4,34.13,,,,,,,,,,
14.07.11.368,66.5,16.6,0,18.0,,80869.7,12.37,0.19,0.57,0.78,1.1,5.7,-1.5,34.13,,,,,,,,,,
14.07.11.376,39.1,9.8,0,18.0,,80169.0,12.47,0.19,0.58,0.78,0.8,5.5,-1.1,34.13,,,,,,,,,,
14.07.11.388,64.1,16.0,0,18.0,,83725.4,11.94,0.19,0.58,0.79,0.1,6.0,-1.2,34.13,,,,,,,,,,
14.07.11.396,75.9,19.0,0,18.0,,83808.2,11.93,0.19,0.57,0.79,0.6,6.9,-1.2,34.13,,,,,,,,,,
14.07.11.409,90.1,22.5,0,18.0,,78422.6,12.75,0.18,0.57,0.78,0.5,6.1,-1.4,34.13,,,,,,,,,,
14.07.11.421,97.8,24.4,0,18.0,,85056.8,11.76,0.18,0.58,0.79,1.0,5.3,-1.4,34.13,,,,,,,,,,
14.07.11.429,68.6,17.2,0,18.0,,87225.4,11.46,0.18,0.58,0.78,0.0,4.2,-1.6,34.13,,,,,,,,,,
14.07.11.441,30.9,7.7,0,18.0,,86064.8,11.62,0.18,0.58,0.79,1.8,5.9,-1.1,34.13,,,,,,,,,,
14.07.11.454,38.0,9.5,0,18.0,,84738.3,11.8,0.18,0.58,0.78,0.4,6.6,-1.2,34.13,,,,,,,,,,
14.07.11.462,27.0,6.8,0,18.0,,81789.6,12.23,0.18,0.57,0.79,0.4,4.2,-0.9,34.13,,,,,,,,,,
14.07.11.474,-1.3,0.3,0,18.0,,81053.4,12.34,0.19,0.57,0.79,0.0,4.6,-1.1,34.13,,,,,,,,,,
14.07.11.486,-13.5,3.4,0,18.0,,83245.3,12.01,0.18,0.57,0.78,1.4,5.6,-1.4,34.13,,,,,,,,,,
14.07.11.495,-14.8,3.7,0,18.0,,86595.9,11.55,0.18,0.58,0.79,1.2,5.9,-1.6,34.13,,,,,,,,,,
14.07.11.507,-33.5,8.4,0,18.0,,85819.7,11.65,0.18,0.58,0.79,0.9,5.0,-1.4,34.13,,,,,,,,,,
14.07.11.519,-32.3,8.1,0,18.0,,79273.8,12.61,0.18,0.59,0.79,0.3,6.0,-1.6,34.13,,,,,,,,,,
14.07.11.527,-27.6,6.9,0,18.0,,81624.3,12.25,0.18,0.58,0.79,0.3,6.8,-1.4,34.13,,,,,,,,,,
14.07.11.540,-24.3,6.1,0,18.0,,77703.3,12.87,0.18,0.57,0.78,-0.1,6.6,-1.2,34.13,,,,,,,,,,
14.07.11.552,-55.3,13.8,0,18.0,,80664.6,12.4,0.18,0.57,0.79,-0.4,5.2,-1.2,34.13,,,,,,,,,,
14.07.11.560,-68.2,17.0,0,18.0,,82615.9,12.1,0.18,0.56,0.79,0.5,6.4,-1.4,34.13,,,,,,,,,,
14.07.11.573,-66.4,16.6,0,18.0,,81138.0,12.32,0.19,0.57,0.79,1.1,7.2,-1.5,34.13,,,,,,,,,,
14.07.11.585,-49.7,12.4,0,18.0,,84404.4,11.85,0.19,0.57,0.79,0.3,5.3,-1.9,34.13,,,,,,,,,,
14.07.11.593,-39.9,10.0,0,18.0,,84377.6,11.85,0.19,0.57,0.8,0.8,5.6,-1.7,34.13,,,,,,,,,,
14.07.11.605,-91.7,22.9,0,18.0,,84161.0,11.88,0.2,0.58,0.79,1.1,5.7,-1.7,34.13,,,,,,,,,,
14.07.11.613,-63.8,16.0,0,18.0,,86911.7,11.51,0.19,0.57,0.78,1.2,5.9,-1.9,34.13,,,,,,,,,,
14.07.11.626,-31.3,7.8,0,18.0,,84331.5,11.86,0.19,0.57,0.79,1.0,4.8,-1.9,34.13,,,,,,,,,,
14.07.11.638,-71.6,17.9,0,18.0,,83178.1,12.02,0.19,0.57,0.79,0.6,5.0,-1.7,34.13,,,,,,,,,,
14.07.11.646,-80.5,20.1,0,18.0,,83113.2,12.03,0.19,0.57,0.79,1.1,5.6,-1.8,34.13,,,,,,,,,,
14.07.11.659,-78.4,19.6,0,18.0,,84836.3,11.79,0.18,0.58,0.79,0.8,4.8,-1.6,34.13,,,,,,,,,,
14.07.11.671,-94.1,23.5,0,18.0,,84433.1,11.84,0.18,0.57,0.79,0.7,5.0,-1.6,34.13,,,,,,,,,,
14.07.11.679,-103.3,25.8,0,18.0,,85938.4,11.64,0.18,0.58,0.79,0.9,5.9,-1.6,34.13,,,,,,,,,,
14.07.11.692,-110.4,27.6,0,18.0,,78991.9,12.66,0.19,0.58,0.79,0.6,6.4,-2.0,34.13,,,,,,,,,,
14.07.11.704,-108.4,27.1,0,18.0,,86645.7,11.54,0.18,0.58,0.79,1.0,5.0,-1.8,34.13,,,,,,,,,,
14.07.11.712,-133.5,33.4,0,18.0,,80282.4,12.46,0.18,0.57,0.78,0.8,5.6,-1.9,34.13,,,,,,,,,,
14.07.11.724,-141.1,35.3,0,18.0,,84378.9,11.85,0.18,0.58,0.78,2.6,6.6,-2.2,34.13,,,,,,,,,,
14.07.11.736,-118.4,29.6,0,18.0,,85225.3,11.73,0.19,0.57,0.79,0.4,5.4,-1.8,34.13,,,,,,,,,,
14.07.11.745,-134.6,33.6,0,18.0,,84592.6,11.82,0.18,0.57,0.78,0.1,4.9,-2.0,34.13,,,,,,,,,,
14.07.11.757,-161.5,40.4,0,18.0,,83898.2,11.92,0.19,0.58,0.79,0.5,5.9,-2.1,34.13,,,,,,,,,,
14.07.11.769,-159.9,40.0,0,18.0,,84217.1,11.87,0.18,0.57,0.79,1.0,7.5,-2.2,34.13,,,,,,,,,,
14.07.11.781,-154.9,38.7,0,18.0,,81642.3,12.25,0.19,0.58,0.78,1.6,5.8,-2.1,34.13,,,,,,,,,,
14.07.11.790,-177.1,44.3,0,18.0,,83861.5,11.92,0.19,0.59,0.79,2.4,4.4,-2.4,34.13,,,,,,,,,,
14.07.11.802,5.5,1.4,1,19.0,84.9,84736.3,11.8,0.19,0.58,0.79,1.0,6.5,-1.8,34.13,,,,,,,,,,
14.07.11.814,44.7,11.2,0,19.0,,85048.7,11.76,0.2,0.58,0.8,3.0,5.6,-2.1,34.13,,,,,,,,,,
14.07.11.823,111.2,27.8,0,19.0,,83948.3,11.91,0.18,0.58,0.76,0.4,8.7,-2.5,34.13,,,,,,,,,,
14.07.11.835,177.5,44.4,0,19.0,,85660.1,11.67,0.18,0.58,0.79,0.5,5.8,-1.8,34.13,,,,,,,,,,
14.07.11.847,266.5,66.6,0,19.0,,85894.7,11.64,0.18,0.57,0.78,-1.1,4.3,-1.8,34.13,,,,,,,,,,
14.07.11.855,263.5,65.9,0,19.0,,84854.3,11.78,0.18,0.56,0.79,0.1,7.3,-1.5,34.13,,,,,,,,,,
14.07.11.868,303.2,75.8,0,19.0,,84357.8,11.85,0.17,0.57,0.78,1.4,8.6,-1.7,34.13,,,,,,,,,,
14.07.11.880,361.6,90.4,0,19.0,,80515.0,12.42,0.19,0.57,0.81,1.7,5.1,-2.2,34.13,,,,,,,,,,
14.07.11.888,372.8,93.2,0,19.0,,80781.6,12.38,0.18,0.57,0.77,-0.3,7.5,-2.5,34.13,,,,,,,,,,
14.07.11.900,324.1,81.0,0,19.0,,86646.4,11.54,0.18,0.58,0.79,0.3,4.4,-2.3,34.13,,,,,,,,,,
14.07.11.913,448.5,112.1,0,19.0,,83658.3,11.95,0.16,0.57,0.79,1.0,5.5,-3.1,34.13,,,,,,,,,,
14.07.11.921,413.9,103.5,0,19.0,,85526.9,11.69,0.18,0.59,0.78,-1.6,6.2,-2.1,34.13,,,,,,,,,,
14.07.11.933,371.5,92.9,0,19.0,,87184.3,11.47,0.18,0.57,0.77,-1.7,6.2,-2.6,34.13,,,,,,,,,,
14.07.11.945,383.1,95.8,0,19.0,,83164.4,12.02,0.19,0.57,0.8,-0.8,2.3,-2.4,34.13,,,,,,,,,,
14.07.11.958,388.8,97.2,0,19.0,,86335.9,11.58,0.18,0.57,0.8,-1.1,6.6,-2.4,34.13,,,,,,,,,,
14.07.11.966,390.6,97.6,0,19.0,,82798.2,12.08,0.18,0.56,0.78,-0.3,5.7,-2.3,34.13,,,,,,,,,,
14.07.11.978,326.8,81.7,0,19.0,,80489.6,12.42,0.18,0.57,0.79,0.2,4.3,-2.9,34.13,,,,,,,,,,
14.07.11.991,290.5,72.6,0,19.0,,84773.8,11.8,0.19,0.57,0.8,-0.1,4.6,-2.2,34.13,,,,,,,,,,
14.07.11.999,254.1,63.5,0,19.0,,86323.0,11.58,0.19,0.58,0.78,0.2,7.3,-2.0,34.13,,,,,,,,,,
14.07.12.011,218.7,54.7,0,19.0,,86670.2,11.54,0.19,0.58,0.78,0.6,6.6,-2.4,34.13,,,,,,,,,,
14.07.12.023,162.2,40.6,0,19.0,,83838.8,11.93,0.18,0.58,0.78,0.0,5.0,-2.4,34.13,,,,,,,,,,
14.07.12.032,71.4,17.8,0,19.0,,82526.1,12.12,0.18,0.57,0.79,1.5,6.3,-2.7,34.13,,,,,,,,,,
14.07.12.044,-6.1,1.5,0,19.0,,81334.8,12.29,0.18,0.57,0.78,-0.7,6.8,-2.0,34.13,,,,,,,,,,
14.07.12.056,-0.6,0.2,0,19.0,,81421.6,12.28,0.18,0.58,0.78,0.2,3.3,-2.0,34.13,,,,,,,,,,
14.07.12.064,26.8,6.7,0,19.0,,84161.8,11.88,0.18,0.57,0.8,0.0,7.9,-1.4,34.13,,,,,,,,,,
14.07.12.076,33.4,8.4,0,19.0,,90091.8,11.1,0.18,0.57,0.78,1.2,6.6,-0.8,34.13,,,,,,,,,,
14.07.12.118,61.8,15.4,0,19.0,,84611.7,11.82,0.19,0.55,0.78,1.9,7.5,-1.3,34.06,,,,,,,,,,
14.07.12.130,64.5,16.1,0,19.0,,84272.8,11.87,0.19,0.56,0.79,0.3,4.6,-1.1,34.06,,,,,,,,,,
14.07.12.138,39.2,9.8,0,19.0,,84752.4,11.8,0.18,0.57,0.81,2.8,6.4,-1.7,34.06,,,,,,,,,,
14.07.12.150,54.0,13.5,0,19.0,,83029.7,12.04,0.19,0.58,0.78,4.3,8.0,-1.2,34.06,,,,,,,,,,
14.07.12.162,78.1,19.5,0,19.0,,85306.7,11.72,0.18,0.59,0.78,2.5,6.3,-2.5,34.06,,,,,,,,,,
14.07.12.171,40.5,10.1,0,19.0,,82852.6,12.07,0.19,0.59,0.79,-0.7,4.8,-0.6,34.06,,,,,,,,,,
14.07.12.183,1.4,0.4,0,19.0,,86915.0,11.51,0.18,0.57,0.79,0.9,6.1,-1.3,34.06,,,,,,,,,,
14.07.12.195,7.8,2.0,0,19.0,,82200.7,12.17,0.17,0.57,0.79,1.6,10.5,-1.3,34.06,,,,,,,,,,
14.07.12.204,-7.4,1.8,0,19.0,,82455.4,12.13,0.18,0.57,0.79,-0.1,8.4,0.0,34.06,,,,,,,,,,
14.07.12.216,0.3,0.1,0,19.0,,84119.2,11.89,0.18,0.6,0.79,1.0,6.7,-0.9,34.06,,,,,,,,,,
14.07.12.228,6.2,1.6,0,19.0,,83181.5,12.02,0.18,0.58,0.8,-0.7,8.3,0.2,34.06,,,,,,,,,,
14.07.12.236,-23.3,5.8,0,19.0,,85494.9,11.7,0.19,0.53,0.79,1.1,8.1,-1.0,34.06,,,,,,,,,,
14.07.12.249,-5.9,1.5,0,19.0,,85066.0,11.76,0.19,0.56,0.79,3.5,5.0,-1.3,34.06,,,,,,,,,,
14.07.12.261,-27.4,6.8,0,19.0,,83733.2,11.94,0.2,0.58,0.79,2.6,9.8,-1.7,34.06,,,,,,,,,,
14.07.12.269,-46.9,11.7,0,19.0,,83796.6,11.93,0.18,0.61,0.79,5.3,7.7,-2.2,34.06,,,,,,,,,,
14.07.12.281,-53.9,13.5,0,19.0,,83259.0,12.01,0.2,0.62,0.8,3.5,7.9,-0.9,34.06,,,,,,,,,,
14.07.12.294,-53.2,13.3,0,19.0,,83646.0,11.96,0.19,0.6,0.79,4.6,6.4,-1.6,34.06,,,,,,,,,,
14.07.12.306,-58.8,14.7,0,19.0,,79312.5,12.61,0.16,0.6,0.78,-0.9,10.4,-0.3,34.06,,,,,,,,,,
14.07.12.314,-51.5,12.9,0,19.0,,79461.0,12.58,0.17,0.6,0.79,-1.2,9.1,0.7,34.06,,,,,,,,,,
14.07.12.327,-66.9,16.7,0,19.0,,78897.9,12.67,0.18,0.6,0.79,-2.5,10.6,1.9,34.06,,,,,,,,,,
14.07.12.339,-50.9,12.7,0,19.0,,84308.2,11.86,0.16,0.6,0.79,-0.6,12.4,0.6,34.06,,,,,,,,,,
14.07.12.347,-105.0,26.2,0,19.0,,85356.4,11.72,0.17,0.58,0.79,-0.7,11.6,1.1,34.06,,,,,,,,,,
14.07.12.359,-107.8,27.0,0,19.0,,81437.3,12.28,0.16,0.57,0.78,-2.7,10.5,1.5,34.06,,,,,,,,,,
14.07.12.372,-71.0,17.8,0,19.0,,84235.0,11.87,0.18,0.53,0.8,-1.6,8.8,0.8,34.06,,,,,,,,,,
14.07.12.380,-89.6,22.4,0,19.0,,86880.2,11.51,0.18,0.52,0.81,3.3,5.1,-1.0,34.06,,,,,,,,,,
14.07.12.392,-85.5,21.4,0,19.0,,85006.4,11.76,0.19,0.55,0.8,4.9,6.7,-1.6,34.06,,,,,,,,,,
14.07.12.404,-96.3,24.1,0,19.0,,82016.4,12.19,0.18,0.59,0.79,6.2,9.8,-3.1,34.06,,,,,,,,,,
14.07.12.413,-128.1,32.0,0,19.0,,79718.1,12.54,0.17,0.6,0.77,4.3,10.0,-2.7,34.06,,,,,,,,,,
14.07.12.425,-108.2,27.0,0,19.0,,83714.6,11.95,0.18,0.61,0.78,-2.0,6.8,-1.7,34.06,,,,,,,,,,
14.07.12.437,-116.6,29.2,0,19.0,,84247.5,11.87,0.18,0.6,0.8,-3.4,8.4,-1.5,34.06,,,,,,,,,,
14.07.12.449,-148.7,37.2,0,19.0,,83155.4,12.03,0.16,0.58,0.81,3.7,10.7,-3.4,34.06,,,,,,,,,,
14.07.12.457,-121.7,30.4,0,19.0,,81315.2,12.3,0.16,0.55,0.77,3.2,11.1,-3.9,34.06,,,,,,,,,,
14.07.12.470,-136.5,34.1,0,19.0,,85977.4,11.63,0.16,0.58,0.77,-2.3,5.4,-3.5,34.06,,,,,,,,,,
14.07.12.482,-146.3,36.6,0,19.0,,86115.2,11.61,0.17,0.58,0.82,-1.0,2.6,-3.0,34.06,,,,,,,,,,
14.07.12.490,-157.6,39.4,0,19.0,,84695.7,11.81,0.1,0.6,0.84,0.6,11.0,-1.4,34.06,,,,,,,,,,
14.07.12.502,-183.6,45.9,0,19.0,,79835.7,12.53,0.23,0.62,0.74,-7.4,9.6,0.6,34.06,,,,,,,,,,
14.07.12.515,18.1,4.5,1,20.0,86.7,81750.3,12.23,0.16,0.53,0.77,-1.1,10.9,0.3,34.06,,,,,,,,,,
14.07.12.523,57.9,14.5,0,20.0,,85396.6,11.71,0.18,0.56,0.8,2.1,8.0,-2.5,34.06,,,,,,,,,,
14.07.12.535,111.1,27.8,0,20.0,,83571.4,11.97,0.17,0.59,0.79,0.8,3.1,-1.7,34.06,,,,,,,,,,
14.07.12.548,171.4,42.8,0,20.0,,80927.8,12.36,0.17,0.6,0.79,-0.3,6.6,-2.5,34.06,,,,,,,,,,
14.07.12.560,227.2,56.8,0,20.0,,83179.3,12.02,0.16,0.59,0.78,-0.1,10.7,-2.4,34.06,,,,,,,,,,
14.07.12.568,291.3,72.8,0,20.0,,85446.2,11.7,0.15,0.59,0.8,-0.6,9.9,-2.3,34.06,,,,,,,,,,
14.07.12.580,323.9,81.0,0,20.0,,81764.3,12.23,0.19,0.58,0.82,-2.5,8.1,-2.4,34.06,,,,,,,,,,
14.07.12.593,330.6,82.6,0,20.0,,87454.9,11.43,0.16,0.57,0.8,-1.1,5.5,-1.9,34.06,,,,,,,,,,
14.07.12.601,371.0,92.8,0,20.0,,82906.6,12.06,0.17,0.57,0.78,0.0,8.6,-3.3,34.06,,,,,,,,,,
14.07.12.613,361.9,90.5,0,20.0,,82904.8,12.06,0.17,0.58,0.78,-0.7,6.6,-2.3,34.06,,,,,,,,,,
14.07.12.625,397.4,99.4,0,20.0,,84291.8,11.86,0.17,0.59,0.79,-1.4,8.0,-1.2,34.06,,,,,,,,,,
14.07.12.634,350.7,87.7,0,20.0,,84336.1,11.86,0.16,0.58,0.8,-0.8,10.6,-0.4,34.06,,,,,,,,,,
14.07.12.646,393.2,98.3,0,20.0,,82388.1,12.14,0.16,0.56,0.79,-0.1,8.9,0.4,34.06,,,,,,,,,,
14.07.12.658,378.2,94.6,0,20.0,,80311.4,12.45,0.18,0.52,0.81,-2.3,8.7,-2.1,34.06,,,,,,,,,,
14.07.12.666,373.9,93.5,0,20.0,,83567.7,11.97,0.18,0.52,0.8,0.6,1.9,-2.5,34.06,,,,,,,,,,
14.07.12.679,392.5,98.1,0,20.0,,84844.0,11.79,0.18,0.56,0.82,4.2,4.3,-3.2,34.06,,,,,,,,,,
14.07.12.691,289.8,72.4,0,20.0,,83525.5,11.97,0.16,0.6,0.8,9.5,9.5,-4.8,34.06,,,,,,,,,,
14.07.12.699,319.1,79.8,0,20.0,,80454.0,12.43,0.16,0.6,0.76,8.6,15.7,-2.9,34.06,,,,,,,,,,
14.07.12.712,274.6,68.6,0,20.0,,81874.6,12.21,0.15,0.65,0.77,6.6,11.7,-2.4,34.06,,,,,,,,,,
14.07.12.724,209.3,52.3,0,20.0,,86073.9,11.62,0.14,0.6,0.76,3.2,1.1,0.4,34.06,,,,,,,,,,
14.07.12.732,160.0,40.0,0,20.0,,82750.6,12.08,0.18,0.63,0.84,0.2,8.1,-0.6,34.06,,,,,,,,,,
14.07.12.744,107.3,26.8,0,20.0,,81358.9,12.29,0.17,0.6,0.77,-3.5,9.9,-0.1,34.06,,,,,,,,,,
14.07.12.756,26.8,6.7,0,20.0,,82902.1,12.06,0.16,0.59,0.78,-2.7,17.4,-0.3,34.06,,,,,,,,,,
14.07.12.769,-10.7,2.7,0,20.0,,81108.1,12.33,0.15,0.59,0.79,-3.7,15.7,2.1,34.06,,,,,,,,,,
14.07.12.777,-8.3,2.1,0,20.0,,83281.6,12.01,0.15,0.58,0.79,-6.7,19.1,3.6,34.06,,,,,,,,,,
14.07.12.789,41.3,10.3,0,20.0,,83455.4,11.98,0.14,0.55,0.79,0.1,23.0,2.3,34.06,,,,,,,,,,
14.07.12.802,44.2,11.0,0,20.0,,85672.9,11.67,0.15,0.54,0.8,-0.3,14.6,3.4,34.06,,,,,,,,,,
14.07.12.810,50.1,12.5,0,20.0,,82890.1,12.06,0.16,0.53,0.8,1.8,6.0,5.5,34.06,,,,,,,,,,
14.07.12.822,84.7,21.2,0,20.0,,82336.6,12.15,0.15,0.54,0.8,5.9,8.4,8.5,34.06,,,,,,,,,,
14.07.12.834,82.7,20.7,0,20.0,,78540.5,12.73,0.15,0.56,0.79,11.6,12.2,7.3,34.06,,,,,,,,,,
14.07.12.842,49.7,12.4,0,20.0,,87704.4,11.4,0.16,0.58,0.8,13.5,12.4,6.5,34.06,,,,,,,,,,
14.07.12.855,81.2,20.3,0,20.0,,85188.6,11.74,0.17,0.58,0.78,10.2,7.8,5.7,34.06,,,,,,,,,,
14.07.12.867,83.9,21.0,0,20.0,,85736.6,11.66,0.18,0.6,0.78,10.2,5.5,5.7,34.06,,,,,,,,,,
14.07.12.880,21.5,5.4,0,20.0,,84147.9,11.88,0.18,0.6,0.79,11.4,5.4,7.2,34.06,,,,,,,,,,
14.07.12.916,-7.4,1.8,0,20.0,,83170.4,12.02,0.18,0.6,0.78,13.0,8.7,8.1,34.13,,,,,,,,,,
14.07.12.929,-4.8,1.2,0,20.0,,82742.9,12.09,0.16,0.57,0.79,16.1,1.5,6.0,34.13,,,,,,,,,,
14.07.12.937,-59.8,15.0,0,20.0,,80128.3,12.48,0.18,0.59,0.79,19.7,9.9,6.0,34.13,,,,,,,,,,
14.07.12.949,-18.6,4.6,0,20.0,,77326.2,12.93,0.18,0.59,0.78,23.7,15.0,4.8,34.13,,,,,,,,,,
14.07.12.957,-27.3,6.8,0,20.0,,83411.1,11.99,0.17,0.59,0.78,22.0,8.7,7.0,34.13,,,,,,,,,,
14.07.12.970,-8.8,2.2,0,20.0,,84364.1,11.85,0.17,0.59,0.77,18.0,6.3,6.5,34.13,,,,,,,,,,
14.07.12.982,-32.8,8.2,0,20.0,,82422.6,12.13,0.16,0.61,0.78,15.7,11.1,5.9,34.13,,,,,,,,,,
14.07.12.990,-59.7,14.9,0,20.0,,84373.3,11.85,0.14,0.55,0.78,12.4,17.3,6.8,34.13,,,,,,,,,,
14.07.13.002,-69.3,17.3,0,20.0,,81965.3,12.2,0.16,0.66,0.75,14.6,21.2,6.7,34.13,,,,,,,,,,
14.07.13.011,-44.3,11.1,0,20.0,,85116.8,11.75,0.14,0.66,0.75,6.1,13.5,6.8,34.13,,,,,,,,,,
14.07.13.023,-75.0,18.8,0,20.0,,83219.3,12.02,0.16,0.67,0.76,2.0,10.8,4.9,34.13,,,,,,,,,,
14.07.13.031,-64.6,16.2,0,20.0,,85056.7,11.76,0.16,0.68,0.74,-5.3,15.6,6.3,34.13,,,,,,,,,,
14.07.13.043,-92.2,23.0,0,20.0,,84124.3,11.89,0.15,0.63,0.77,-3.9,18.4,4.5,34.13,,,,,,,,,,
14.07.13.051,-94.4,23.6,0,20.0,,78656.4,12.71,0.16,0.62,0.77,-1.6,18.8,3.7,34.13,,,,,,,,,,
14.07.13.068,-94.0,23.5,0,20.0,,81801.4,12.22,0.18,0.61,0.78,-6.3,16.5,2.3,34.13,,,,,,,,,,
14.07.13.076,-101.0,25.2,0,20.0,,83573.8,11.97,0.18,0.59,0.78,-5.7,16.2,0.4,34.13,,,,,,,,,,
14.07.13.088,-76.8,19.2,0,20.0,,81863.6,12.22,0.19,0.6,0.8,-2.2,16.2,1.4,34.13,,,,,,,,,,
14.07.13.097,-99.5,24.9,0,20.0,,84201.1,11.88,0.19,0.57,0.78,-6.4,15.5,1.3,34.13,,,,,,,,,,
14.07.13.109,-86.9,21.7,0,20.0,,82468.4,12.13,0.17,0.57,0.78,0.7,24.5,4.1,34.13,,,,,,,,,,
14.07.13.117,-74.1,18.5,0,20.0,,84433.2,11.84,0.14,0.58,0.79,5.1,26.8,3.4,34.13,,,,,,,,,,
14.07.13.129,-114.0,28.5,0,20.0,,81846.2,12.22,0.14,0.56,0.77,3.9,12.2,1.4,34.13,,,,,,,,,,
14.07.13.137,-121.0,30.2,0,20.0,,79013.8,12.66,0.15,0.58,0.78,3.0,0.5,1.4,34.13,,,,,,,,,,
14.07.13.150,-122.0,30.5,0,20.0,,82573.4,12.11,0.15,0.56,0.81,8.1,2.9,2.1,34.13,,,,,,,,,,
14.07.13.158,-121.3,30.3,0,20.0,,82255.0,12.16,0.14,0.58,0.79,8.3,7.1,0.4,34.13,,,,,,,,,,
14.07.13.170,-118.1,29.5,0,20.0,,87505.6,11.43,0.11,0.58,0.76,13.3,15.7,-0.4,34.13,,,,,,,,,,
14.07.13.178,-133.0,33.2,0,20.0,,83626.4,11.96,0.09,0.58,0.73,17.4,12.4,0.1,34.13,,,,,,,,,,
14.07.13.191,-144.1,36.0,0,20.0,,83043.7,12.04,0.08,0.59,0.72,18.0,-5.6,-0.2,34.13,,,,,,,,,,
14.07.13.199,-145.5,36.4,0,20.0,,81679.2,12.24,0.09,0.62,0.77,20.8,-7.3,-1.0,34.13,,,,,,,,,,
14.07.13.211,-127.8,32.0,0,20.0,,83155.4,12.03,0.1,0.64,0.78,26.4,4.1,0.4,34.13,,,,,,,,,,
14.07.13.220,-159.4,39.8,0,20.0,,86699.5,11.53,0.12,0.68,0.75,25.9,12.5,-0.2,34.13,,,,,,,,,,
14.07.13.232,36.3,9.1,1,21.0,85.3,85967.4,11.63,0.13,0.69,0.74,20.3,9.0,0.1,34.13,,,,,,,,,,
14.07.13.240,82.8,20.7,0,21.0,,85140.7,11.75,0.16,0.68,0.74,16.3,11.0,5.8,34.13,,,,,,,,,,
14.07.13.252,105.6,26.4,0,21.0,,80933.8,12.36,0.16,0.68,0.74,14.0,16.1,7.1,34.13,,,,,,,,,,
14.07.13.260,162.5,40.6,0,21.0,,85556.8,11.69,0.16,0.68,0.75,7.1,20.4,8.5,34.13,,,,,,,,,,
14.07.13.273,165.7,41.4,0,21.0,,81703.3,12.24,0.19,0.67,0.74,3.1,18.4,2.6,34.13,,,,,,,,,,
14.07.13.281,245.5,61.4,0,21.0,,83917.9,11.92,0.2,0.64,0.77,-5.5,22.8,6.1,34.13,,,,,,,,,,
14.07.13.293,284.2,71.0,0,21.0,,81120.2,12.33,0.16,0.64,0.76,-1.0,40.4,6.4,34.13,83.4,,,,,,,,,
14.07.13.301,322.8,80.7,0,21.0,,83825.9,11.93,0.13,0.64,0.75,2.9,43.6,-0.8,34.13,,,,,,,,,,
14.07.13.314,348.0,87.0,0,21.0,,85510.6,11.69,0.17,0.65,0.73,-9.3,31.2,-4.2,34.13,,,,,,,,,,
14.07.13.322,370.4,92.6,0,21.0,,82863.0,12.07,0.15,0.65,0.79,-4.6,31.1,-0.8,34.13,,,,,,,,,,
14.07.13.334,351.6,87.9,0,21.0,,84205.4,11.88,0.14,0.65,0.77,-7.8,27.5,-1.8,34.13,,,,,,,,,,
14.07.13.347,369.4,92.4,0,21.0,,79647.8,12.56,0.15,0.61,0.82,-3.3,29.9,-2.0,34.13,,,,,,,,,,
14.07.13.355,415.8,104.0,0,21.0,,83416.3,11.99,0.14,0.59,0.79,-8.1,34.9,-3.2,34.13,,,,,,,,,,
14.07.13.367,408.9,102.2,0,21.0,,82784.5,12.08,0.14,0.63,0.79,-15.1,29.3,-6.1,34.13,,,,,,,,,,
14.07.13.375,369.9,92.5,0,21.0,,85083.9,11.75,0.16,0.61,0.81,-11.3,23.6,-7.5,34.13,,,,,,,,,,
14.07.13.388,380.7,95.2,0,21.0,,80958.0,12.35,0.16,0.62,0.84,-12.1,31.9,-6.9,34.13,,,,,,,,,,
14.07.13.396,349.2,87.3,0,21.0,,82854.8,12.07,0.11,0.61,0.8,-11.5,43.8,-9.0,34.13,,,,,,,,,,
14.07.13.408,303.5,75.9,0,21.0,,83044.6,12.04,0.1,0.61,0.76,-13.9,33.9,-9.3,34.13,,,,,,,,,,
14.07.13.420,249.9,62.5,0,21.0,,80988.5,12.35,0.09,0.63,0.76,-12.1,16.0,-7.4,34.13,,,,,,,,,,
14.07.13.428,238.7,59.7,0,21.0,,83181.7,12.02,0.09,0.63,0.77,-10.4,13.7,-6.5,34.13,,,,,,,,,,
