timestamp,ppg,threshold,beat,beat_count,inst_bpm,gsr_resistance_ohm,gsr_conductance_us,accel_x,accel_y,accel_z,gyro_x,gyro_y,gyro_z,temp_c,window_bpm,window_temp_c,status_message,SpO2,bmi,age,height,weight,env_temp_c,env_humidity_pct
15.24.00.000,0.0,0.0,0,,,76923.1,13.0,-0.69,0.3,0.03,12.2,14.6,-2.7,35.83,86.8,,,,22.1,23.0,175.26,68.0,29.23,32.0
15.24.00.011,49.6,12.4,0,,,76923.1,13.0,-0.95,0.26,-0.18,-8.2,-1.4,4.4,36.07,,,,,,,,,,
15.24.00.020,100.4,25.1,0,,,76923.1,13.0,-0.99,-0.08,0.3,17.5,2.7,-21.7,36.18,,,,,,,,,,
15.24.00.029,185.8,46.4,0,,,76923.1,13.0,-1.04,0.47,-0.21,-5.9,-8.0,3.1,36.24,,,,,,,,,,
15.24.00.039,174.6,43.6,0,,,76923.1,13.0,-0.59,-0.37,0.11,3.9,-1.6,24.4,36.17,,,,,,,,,,
15.24.00.050,268.0,67.0,0,,,76923.1,13.0,-0.37,0.19,-0.01,-5.4,-7.0,-16.5,36.15,,,,,,,,,,
15.24.00.060,230.7,57.7,0,,,76923.1,13.0,-0.58,-0.29,-0.26,6.5,19.5,-11.6,36.13,,,,,,,,,,
15.24.00.069,377.9,94.5,0,,,76923.1,13.0,-0.67,-0.04,-0.13,0.1,6.7,-6.2,36.18,,,,,,,,,,
15.24.00.082,378.7,94.7,0,,,76923.1,13.0,-0.78,0.05,-0.02,-32.1,10.8,11.2,36.11,,,,,,,,,,
15.24.00.092,391.6,97.9,0,,,76923.1,13.0,-0.89,0.54,-0.05,20.3,19.1,10.6,35.77,,,,,,,,,,
15.24.00.103,401.3,100.3,0,,,76923.1,13.0,-0.72,0.42,-0.28,9.2,3.9,16.8,36.16,,,,,,,,,,
15.24.00.112,430.0,107.5,0,,,76923.1,13.0,-1.0,-0.16,-0.6,-9.6,-27.6,-5.0,36.01,,,,,,,,,,
15.24.00.122,421.2,105.3,0,,,76923.1,13.0,-0.61,0.31,0.1,27.6,-0.4,-13.8,36.05,,,,,,,,,,
15.24.00.132,401.5,100.4,0,,,76923.1,13.0,-0.94,-0.14,0.55,21.3,1.7,-24.9,36.18,,,,,,,,,,
15.24.00.141,361.0,90.2,0,,,76923.1,13.0,-0.8,-0.37,0.08,-22.2,-2.3,-5.5,36.26,,,,,,,,,,
15.24.00.151,370.2,92.6,0,,,76923.1,13.0,-0.47,-0.0,0.35,-7.4,4.0,4.2,36.11,,,,,,,,,,
15.24.00.159,372.7,93.2,0,,,76923.1,13.0,-0.78,0.03,0.04,-22.5,22.5,-1.9,35.87,,,,,,,,,,
15.24.00.167,355.3,88.8,0,,,76923.1,13.0,-0.45,-0.06,0.49,23.3,-0.3,5.7,36.13,,,,,,,,,,
15.24.00.175,315.8,79.0,0,,,76923.1,13.0,-0.56,0.01,0.05,29.6,-6.6,23.9,35.79,,,,,,,,,,
15.24.00.189,224.8,56.2,0,,,76923.1,13.0,-0.8,0.1,-0.12,-14.8,16.5,12.2,36.04,,,,,,,,,,
15.24.00.199,218.1,54.5,0,,,76923.1,13.0,-0.64,-0.19,0.2,33.8,16.8,-8.0,36.26,,,,,,,,,,
15.24.00.209,156.8,39.2,0,,,76923.1,13.0,-0.75,-0.06,-0.41,-18.4,25.8,15.5,36.22,,,,,,,,,,
15.24.00.220,102.1,25.5,0,,,76923.1,13.0,-0.71,-0.07,-0.04,-8.8,19.9,6.0,36.07,,,,,,,,,,
15.24.00.230,62.3,15.6,0,,,76923.1,13.0,-0.68,0.12,-0.18,-13.7,24.1,-13.1,35.87,,,,,,,,,,
15.24.00.239,13.0,3.2,0,,,76923.1,13.0,-0.77,-0.12,-0.47,-9.8,22.9,-0.2,35.98,,,,,,,,,,
15.24.00.251,39.0,9.8,0,,,76923.1,13.0,-0.63,-0.41,-0.16,0.3,-7.3,8.4,36.15,,,,,,,,,,
15.24.00.261,28.3,7.1,0,,,76923.1,13.0,-0.62,0.0,-0.3,0.1,-6.1,-11.2,36.29,,,,,,,,,,
15.24.00.269,47.1,11.8,0,,,76923.1,13.0,-0.8,-0.0,-0.26,-15.5,-1.1,12.4,36.12,,,,,,,,,,
15.24.00.278,54.3,13.6,0,,,76923.1,13.0,-0.53,-0.64,-0.65,-3.3,-15.6,-12.8,35.98,,,,,,,,,,
15.24.00.287,94.1,23.5,0,,,76923.1,13.0,-0.59,-0.34,-0.39,-5.3,-13.8,10.4,35.89,,,,,,,,,,
15.24.00.299,58.6,14.6,0,,,76923.1,13.0,-0.78,0.13,-0.5,-5.5,6.7,-7.1,36.17,,,,,,,,,,
15.24.00.307,87.9,22.0,0,,,76923.1,13.0,-0.59,-0.05,-0.89,3.5,25.1,-5.5,36.13,,,,,,,,,,
15.24.00.318,50.8,12.7,0,,,76923.1,13.0,-0.95,-0.56,-0.57,-9.2,21.2,0.9,36.06,,,,,,,,,,
15.24.00.326,104.5,26.1,0,,,76923.1,13.0,-0.96,0.0,-0.16,-21.5,16.7,-17.4,35.94,,,,,,,,,,
15.24.00.337,84.1,21.0,0,,,76923.1,13.0,-0.83,0.02,-0.52,10.2,33.0,30.5,35.92,,,,,,,,,,
15.24.00.346,39.3,9.8,0,,,76864.0,13.01,-0.69,-0.43,-0.65,-26.7,-14.9,2.9,36.12,,,,,,,,,,
15.24.00.356,46.3,11.6,0,,,76864.0,13.01,-0.69,-0.44,-0.3,7.0,3.4,-34.7,36.05,,,,,,,,,,
15.24.00.365,32.9,8.2,0,,,76864.0,13.01,-0.64,0.23,-0.44,6.7,14.0,-0.7,35.94,,,,,,,,,,
15.24.00.374,-4.0,1.0,0,,,76864.0,13.01,-0.53,-0.39,-0.52,8.1,4.4,-5.6,36.13,,,,,,,,,,
15.24.00.383,-18.5,4.6,0,,,76864.0,13.01,-0.76,-0.42,-0.03,2.2,17.1,0.8,36.26,,,,,,,,,,
15.24.00.392,41.5,10.4,0,,,76864.0,13.01,-0.93,-0.51,-0.15,20.4,10.1,-3.3,36.09,,,,,,,,,,
15.24.00.402,-33.5,8.4,0,,,76864.0,13.01,-0.76,-0.2,-0.32,-2.3,13.5,2.7,35.87,,,,,,,,,,
15.24.00.412,-20.1,5.0,0,,,76864.0,13.01,-0.78,0.34,-0.42,-5.9,-0.7,3.5,36.14,,,,,,,,,,
15.24.00.420,-24.9,6.2,0,,,76864.0,13.01,-0.84,-0.62,-0.53,-26.9,-17.8,-0.1,35.99,,,,,,,,,,
15.24.00.429,-12.7,3.2,0,,,76864.0,13.01,-0.79,-0.57,-0.05,-40.3,-3.1,7.6,36.23,,,,,,,,,,
15.24.00.439,-39.4,9.8,0,,,76864.0,13.01,-1.05,-0.42,-0.1,14.3,-8.2,-5.0,36.23,,,,,,,,,,
15.24.00.448,6.5,1.6,0,,,76864.0,13.01,-0.93,-0.53,0.01,10.5,-4.7,-6.3,35.97,,,,,,,,,,
15.24.00.458,-17.7,4.4,0,,,76864.0,13.01,-0.77,0.05,-0.3,-23.1,14.7,9.5,35.93,,,,,,,,,,
15.24.00.468,-65.3,16.3,0,,,76864.0,13.01,-0.72,-0.59,-0.26,19.4,5.8,5.1,36.22,,,,,,,,,,
15.24.00.479,-76.5,19.1,0,,,76864.0,13.01,-0.74,-0.19,0.48,3.7,11.2,-12.0,36.09,,,,,,,,,,
15.24.00.489,-82.7,20.7,0,,,76864.0,13.01,-0.88,-0.33,-0.29,-26.3,3.6,-6.5,35.92,,,,,,,,,,
15.24.00.499,-65.2,16.3,0,,,76864.0,13.01,-0.75,0.26,-0.25,-0.4,9.4,4.3,36.16,,,,,,,,,,
15.24.00.511,-85.9,21.5,0,,,76864.0,13.01,-0.66,-0.51,-0.22,7.3,5.7,-6.2,36.39,,,,,,,,,,
15.24.00.520,-76.5,19.1,0,,,76864.0,13.01,-0.54,-0.34,-0.04,-9.9,11.0,-12.5,36.02,,,,,,,,,,
15.24.00.530,-90.7,22.7,0,,,76864.0,13.01,-0.7,-0.04,0.0,-11.1,-18.6,19.2,36.2,,,,,,,,,,
15.24.00.540,-71.8,18.0,0,,,76864.0,13.01,-0.64,-0.35,0.14,29.2,-1.7,-11.7,36.06,,,,,,,,,,
15.24.00.548,-87.2,21.8,0,,,76864.0,13.01,-1.11,-0.16,0.13,-23.5,-21.0,-1.7,36.1,,,,,,,,,,
15.24.00.555,-95.1,23.8,0,,,76864.0,13.01,-0.76,0.04,-0.17,14.0,11.6,3.1,36.23,,,,,,,,,,
15.24.00.563,-132.5,33.1,0,,,76864.0,13.01,-1.2,-0.51,0.03,-24.8,17.9,-15.4,36.16,,,,,,,,,,
15.24.00.570,-113.6,28.4,0,,,76864.0,13.01,-0.89,-0.38,-0.18,1.3,40.0,-9.0,36.18,,,,,,,,,,
15.24.00.579,-159.9,40.0,0,,,76864.0,13.01,-1.45,-0.06,0.07,3.8,11.9,5.0,35.82,,,,,,,,,,
15.24.00.585,-91.2,22.8,0,,,76864.0,13.01,-1.16,-0.17,-0.13,7.5,-11.7,5.1,36.13,,,,,,,,,,
15.24.00.594,-101.5,25.4,0,,,76864.0,13.01,-0.63,-0.85,-0.55,12.0,0.1,9.9,35.98,,,,,,,,,,
15.24.00.607,-115.8,29.0,0,,,76864.0,13.01,-0.97,-0.58,-0.68,14.8,27.6,5.3,36.23,,,,,,,,,,
15.24.00.617,-140.1,35.0,0,,,76864.0,13.01,-1.02,0.11,-0.56,-5.5,-6.1,-8.1,36.26,,,,,,,,,,
15.24.00.627,-135.9,34.0,0,,,76864.0,13.01,-0.67,0.19,-0.25,-2.0,-3.0,-12.6,36.14,,,,,,,,,,
15.24.00.638,-154.5,38.6,0,,,76864.0,13.01,-1.02,0.38,-0.18,3.5,-10.4,7.7,35.77,,,,,,,,,,
15.24.00.648,-141.2,35.3,0,,,76864.0,13.01,-1.09,-0.48,-0.64,-15.8,-19.8,-5.1,36.24,,,,,,,,,,
15.24.00.657,-161.2,40.3,0,,,76864.0,13.01,-0.86,-0.42,-0.84,-4.1,8.5,4.5,36.28,,,,,,,,,,
15.24.00.666,-127.7,31.9,0,,,76864.0,13.01,-0.8,-0.41,-0.35,-20.3,20.2,5.6,36.18,,,,,,,,,,
15.24.00.676,-168.6,42.2,0,,,76864.0,13.01,-0.86,-0.42,-0.11,26.6,29.7,2.5,36.06,,,,,,,,,,
15.24.00.686,-7.2,1.8,1,1.0,,76864.0,13.01,-1.07,-0.0,-0.58,28.0,3.7,-7.3,36.06,,,,,,,,,,
15.24.00.693,58.1,14.5,0,,,76864.0,13.01,-1.21,-0.16,-0.53,-11.7,6.6,-4.1,36.15,,,,,,,,,,
15.24.00.703,135.1,33.8,0,,,76864.0,13.01,-1.06,0.55,-0.02,47.8,3.6,5.8,36.14,,,,,,,,,,
15.24.00.712,149.3,37.3,0,,,76804.9,13.02,-0.96,0.38,-0.35,-21.9,-4.6,0.5,36.37,,,,,,,,,,
15.24.00.721,172.9,43.2,0,,,76804.9,13.02,-1.16,0.0,-0.91,-18.7,20.5,6.7,35.99,,,,,,,,,,
15.24.00.729,238.6,59.6,0,,,76804.9,13.02,-1.03,0.11,0.3,-20.6,26.5,2.4,36.16,,,,,,,,,,
15.24.00.738,281.5,70.4,0,,,76804.9,13.02,-1.02,0.12,-0.38,32.3,-5.5,-5.7,36.29,,,,,,,,,,
15.24.00.750,350.1,87.5,0,,,76804.9,13.02,-0.82,-0.09,-0.64,10.8,18.7,-8.4,36.25,,,,,,,,,,
15.24.00.760,396.2,99.0,0,,,76804.9,13.02,-1.07,0.21,-1.04,1.3,23.8,-5.0,36.45,,,,,,,,,,
15.24.00.769,377.0,94.2,0,,,76804.9,13.02,-0.81,0.08,-0.27,-12.5,1.7,6.4,36.06,,,,,,,,,,
15.24.00.778,406.4,101.6,0,,,76804.9,13.02,-1.36,0.25,-0.06,-6.2,32.6,-14.3,36.18,,,,,,,,,,
15.24.00.789,370.0,92.5,0,,,76804.9,13.02,-1.34,0.61,-0.08,17.7,-6.7,0.2,36.06,,,,,,,,,,
15.24.00.800,409.3,102.3,0,,,76804.9,13.02,-1.2,-0.47,-0.57,-5.2,-27.9,-7.5,36.18,,,,,,,,,,
15.24.00.809,417.0,104.2,0,,,76804.9,13.02,-0.88,-0.72,-0.89,-6.6,-12.2,12.6,36.2,,,,,,,,,,
15.24.00.817,386.9,96.7,0,,,76804.9,13.02,-0.75,0.0,-0.37,0.4,-7.1,-1.4,36.23,,,,,,,,,,
15.24.00.827,396.5,99.1,0,,,76804.9,13.02,-0.88,-0.05,-0.05,-9.0,-2.7,-15.8,36.23,,,,,,,,,,
15.24.00.837,337.3,84.3,0,,,76804.9,13.02,-0.87,0.09,-0.38,0.9,-8.1,16.7,35.77,,,,,,,,,,
15.24.00.846,335.1,83.8,0,,,76804.9,13.02,-0.95,-0.04,-0.38,18.7,17.8,-1.1,36.01,,,,,,,,,,
15.24.00.854,290.6,72.6,0,,,76804.9,13.02,-1.06,0.43,-0.04,-10.0,36.6,12.8,35.88,,,,,,,,,,
15.24.00.864,277.0,69.2,0,,,76804.9,13.02,-1.03,0.56,-0.66,-9.2,22.4,-21.7,36.14,,,,,,,,,,
15.24.00.874,230.8,57.7,0,,,76804.9,13.02,-0.59,0.34,-0.49,27.5,8.7,0.3,36.2,,,,,,,,,,
15.24.00.884,181.2,45.3,0,,,76804.9,13.02,-0.64,0.07,0.32,43.5,13.5,7.6,36.02,,,,,,,,,,
15.24.00.893,152.0,38.0,0,,,76804.9,13.02,-0.88,0.39,-0.38,1.9,-7.9,9.4,35.89,,,,,,,,,,
15.24.00.902,79.1,19.8,0,,,76804.9,13.02,-1.12,0.6,-0.17,-5.9,12.0,24.9,36.12,,,,,,,,,,
15.24.00.912,28.5,7.1,0,,,76804.9,13.02,-0.64,-0.25,-0.07,-11.3,32.9,8.8,36.17,,,,,,,,,,
15.24.00.923,9.4,2.4,0,,,76804.9,13.02,-1.01,-0.24,-0.2,26.6,-13.9,1.0,36.17,,,,,,,,,,
15.24.00.934,38.7,9.7,0,,,76804.9,13.02,-0.9,-0.36,-0.51,9.3,7.5,-4.8,36.0,,,,,,,,,,
15.24.00.945,56.0,14.0,0,,,76804.9,13.02,-0.88,-0.23,-0.19,-10.3,2.2,-1.9,36.19,,,,,,,,,,
15.24.00.956,65.7,16.4,0,,,76804.9,13.02,-0.68,-0.41,-0.25,9.1,-19.5,4.8,35.99,,,,,,,,,,
15.24.00.963,71.4,17.8,0,,,76804.9,13.02,-0.87,-0.46,-0.02,-12.8,22.5,-16.6,36.48,,,,,,,,,,
15.24.00.973,87.3,21.8,0,,,76804.9,13.02,-0.9,-0.21,-0.58,-25.7,-1.8,25.8,35.94,,,,,,,,,,
15.24.00.981,71.2,17.8,0,,,76804.9,13.02,-1.0,0.28,0.21,10.9,10.1,2.8,35.82,,,,,,,,,,
15.24.00.989,77.5,19.4,0,,,76804.9,13.02,-0.72,0.14,-0.35,-21.9,7.1,19.1,36.37,,,,,,,,,,
15.24.00.998,66.7,16.7,0,,,76804.9,13.02,-0.82,0.07,0.07,-14.0,-7.7,-0.6,35.85,,,,,,,,,,
15.24.01.007,72.4,18.1,0,,,76804.9,13.02,-0.54,-0.21,0.18,-44.4,0.5,-18.6,35.92,,,,,,,,,,
15.24.01.017,26.6,6.6,0,,,76804.9,13.02,-0.73,0.01,-0.39,5.2,14.3,2.6,36.32,,,,,,,,,,
15.24.01.025,48.0,12.0,0,,,76804.9,13.02,-0.53,0.43,0.11,-0.0,-8.5,1.1,36.14,,,,,,,,,,
15.24.01.034,32.2,8.0,0,,,76804.9,13.02,-0.91,0.09,-0.33,10.2,2.3,-35.3,36.07,,,,,,,,,,
15.24.01.045,13.7,3.4,0,,,76804.9,13.02,-0.5,-0.05,-0.3,-17.9,1.6,-4.0,36.39,,,,,,,,,,
15.24.01.054,4.0,1.0,0,,,76804.9,13.02,-0.73,-0.32,0.42,-2.5,12.3,-4.5,35.95,,,,,,,,,,
15.24.01.065,-23.7,5.9,0,,,76804.9,13.02,-0.36,0.04,-0.22,47.7,-7.5,-12.3,36.14,,,,,,,,,,
15.24.01.075,12.6,3.2,0,,,76804.9,13.02,-0.54,-0.15,-0.2,-6.5,13.8,0.5,36.19,,,,,,,,,,
15.24.01.083,-7.9,2.0,0,,,76804.9,13.02,-0.91,0.15,-0.42,23.2,-20.3,17.5,36.12,,,,,,,,,,
15.24.01.093,-36.1,9.0,0,,,76804.9,13.02,-0.72,-0.11,0.05,-3.7,-2.3,1.6,36.09,,,,,,,,,,
15.24.01.102,-3.2,0.8,0,,,76804.9,13.02,-0.82,-0.39,-0.37,15.2,2.0,4.5,35.93,,,,,,,,,,
15.24.01.112,-49.0,12.2,0,,,76804.9,13.02,-0.93,0.5,-0.23,-25.4,12.2,20.2,36.48,,,,,,,,,,
15.24.01.121,-44.0,11.0,0,,,76804.9,13.02,-0.88,-0.64,-0.58,-9.1,-11.4,3.7,36.4,,,,,,,,,,
15.24.01.133,-35.6,8.9,0,,,76804.9,13.02,-0.96,-0.36,-0.74,9.2,-11.2,9.0,36.18,,,,,,,,,,
15.24.01.142,-53.5,13.4,0,,,76746.0,13.03,-0.64,-0.29,-0.57,17.0,-4.7,1.7,36.06,,,,,,,,,,
15.24.01.154,-20.0,5.0,0,,,76746.0,13.03,-0.61,-0.66,-0.3,14.6,1.8,-2.2,36.17,,,,,,,,,,
15.24.01.165,-77.6,19.4,0,,,76746.0,13.03,-0.65,-0.95,-0.44,-15.1,9.5,-18.6,35.95,,,,,,,,,,
15.24.01.175,-45.3,11.3,0,,,76746.0,13.03,-0.89,-0.42,0.18,18.8,-11.0,-1.8,36.05,,,,,,,,,,
15.24.01.185,-85.3,21.3,0,,,76746.0,13.03,-0.84,0.04,-0.13,-13.8,-0.9,-7.7,36.04,,,,,,,,,,
15.24.01.196,-103.2,25.8,0,,,76746.0,13.03,-0.89,-0.72,-0.79,30.6,15.6,5.1,36.3,,,,,,,,,,
15.24.01.206,-85.1,21.3,0,,,76746.0,13.03,-0.8,-0.07,-0.21,-10.0,-11.5,10.6,36.03,,,,,,,,,,
15.24.01.216,-114.5,28.6,0,,,76746.0,13.03,-0.82,-0.34,-0.42,17.9,-10.1,-4.3,35.92,,,,,,,,,,
15.24.01.226,-107.9,27.0,0,,,76746.0,13.03,-0.9,-0.63,-0.29,0.9,-3.2,7.6,36.06,,,,,,,,,,
15.24.01.234,-103.0,25.8,0,,,76746.0,13.03,-0.85,0.21,-0.6,0.7,-15.5,12.4,35.91,,,,,,,,,,
15.24.01.244,-74.4,18.6,0,,,76746.0,13.03,-0.9,-0.38,-0.72,16.2,22.8,2.7,36.25,,,,,,,,,,
15.24.01.255,-32.4,8.1,0,,,76746.0,13.03,-0.67,-0.63,-0.2,-9.6,-6.4,-5.7,36.39,,,,,,,,,,
15.24.01.266,-114.8,28.7,0,,,76746.0,13.03,-0.47,-0.4,-0.26,36.4,29.4,10.2,36.25,,,,,,,,,,
15.24.01.274,-131.6,32.9,0,,,76746.0,13.03,-0.46,-0.17,-0.23,-17.6,0.2,3.1,35.99,,,,,,,,,,
15.24.01.286,-126.9,31.7,0,,,76746.0,13.03,-0.84,0.1,0.16,-40.5,11.9,13.6,36.04,,,,,,,,,,
15.24.01.295,-104.5,26.1,0,,,76746.0,13.03,-0.84,-0.97,-0.07,43.4,14.5,-15.9,35.84,,,,,,,,,,
15.24.01.300,-133.5,33.4,0,,,76746.0,13.03,-0.99,-0.74,-0.39,-6.4,26.0,-5.1,36.18,,,,,,,,,,
15.24.01.310,-116.6,29.2,0,,,76746.0,13.03,-0.9,-0.57,0.18,-8.3,-6.1,8.0,36.25,,,,,,,,,,
15.24.01.319,-170.2,42.6,0,,,76746.0,13.03,-0.84,-0.28,-0.03,8.7,9.6,5.7,36.05,,,,,,,,,,
15.24.01.330,-131.8,33.0,1,2.0,93.2,76746.0,13.03,-1.18,-0.31,-0.24,-23.9,29.5,-1.0,36.14,,,,,,,,,,
15.24.01.339,-151.2,37.8,0,,,76746.0,13.03,-1.09,-0.23,-0.02,-4.8,-2.9,-10.4,36.0,,,,,,,,,,
15.24.01.346,-141.2,35.3,0,,,76746.0,13.03,-0.77,-0.62,0.08,30.5,4.5,1.4,36.2,,,,,,,,,,
15.24.01.356,-156.9,39.2,0,,,76746.0,13.03,-1.01,-0.33,-0.08,6.3,10.7,20.7,36.18,,,,,,,,,,
15.24.01.365,50.4,12.6,0,,,76746.0,13.03,-1.19,-0.28,0.07,-29.6,3.1,3.0,36.16,,,,,,,,,,
15.24.01.373,35.8,9.0,0,,,76746.0,13.03,-1.28,-0.72,0.17,-2.8,4.0,-9.4,36.1,,,,,,,,,,
15.24.01.384,123.8,31.0,0,,,76746.0,13.03,-0.99,-0.26,-0.2,19.8,8.7,9.5,36.13,,,,,,,,,,
15.24.01.395,163.4,40.8,0,,,76746.0,13.03,-0.81,-0.1,-0.16,0.7,6.4,-2.6,36.14,,,,,,,,,,
15.24.01.405,215.0,53.8,0,,,76746.0,13.03,-0.77,-0.26,-0.11,-1.3,0.3,16.6,36.27,,,,,,,,,,
15.24.01.415,264.0,66.0,0,,,76746.0,13.03,-0.81,-0.37,-0.08,-33.8,11.2,-3.3,36.29,,,,,,,,,,
15.24.01.426,311.2,77.8,0,,,76746.0,13.03,-1.0,-0.17,-0.18,2.0,12.1,0.7,36.4,,,,,,,,,,
15.24.01.435,324.3,81.1,0,,,76746.0,13.03,-1.2,-0.44,0.51,48.0,5.6,9.7,35.96,,,,,,,,,,
15.24.01.445,333.6,83.4,0,,,76746.0,13.03,-0.81,-0.09,0.24,-10.1,-10.7,-0.8,35.98,,,,,,,,,,
15.24.01.455,410.7,102.7,0,,,76746.0,13.03,-0.83,-0.44,-0.14,22.5,2.6,-8.2,36.02,,,,,,,,,,
15.24.01.467,413.9,103.5,0,,,76746.0,13.03,-1.19,-0.18,-0.45,-15.8,27.8,4.3,36.22,,,,,,,,,,
15.24.01.476,416.1,104.0,0,,,76746.0,13.03,-1.11,-0.18,-0.31,7.4,-23.6,-20.4,36.06,,,,,,,,,,
15.24.01.484,411.8,103.0,0,,,76746.0,13.03,-0.74,0.27,-0.01,-4.6,8.9,10.1,36.05,,,,,,,,,,
15.24.01.494,347.7,86.9,0,,,76746.0,13.03,-0.96,0.17,-0.36,22.9,15.0,-15.2,35.94,,,,,,,,,,
15.24.01.504,417.1,104.3,0,,,76746.0,13.03,-0.82,-0.26,0.3,-13.4,19.1,16.6,36.1,,,,,,,,,,
15.24.01.515,368.3,92.1,0,,,76746.0,13.03,-1.0,-0.22,0.3,-0.7,6.2,-13.3,36.19,,,,,,,,,,
15.24.01.524,358.6,89.6,0,,,76746.0,13.03,-0.75,-0.05,-0.15,-3.5,7.8,0.8,36.34,,,,,,,,,,
15.24.01.535,281.0,70.2,0,,,76746.0,13.03,-1.27,-0.0,-0.3,45.6,34.4,-6.2,36.3,,,,,,,,,,
15.24.01.543,274.3,68.6,0,,,76746.0,13.03,-0.92,-0.03,-0.8,-7.9,3.5,-30.8,36.05,,,,,,,,,,
15.24.01.551,252.5,63.1,0,,,76746.0,13.03,-1.02,-0.42,0.05,-19.2,14.8,-30.1,36.36,,,,,,,,,,
15.24.01.561,243.9,61.0,0,,,76746.0,13.03,-0.73,0.29,-0.09,23.3,3.1,-11.8,36.09,,,,,,,,,,
15.24.01.570,180.6,45.2,0,,,76746.0,13.03,-0.87,0.06,0.23,11.7,4.6,8.3,36.15,,,,,,,,,,
15.24.01.578,110.1,27.5,0,,,76746.0,13.03,-1.05,-0.09,-0.3,-22.9,9.4,-16.9,36.42,,,,,,,,,,
15.24.01.588,87.7,21.9,0,,,76746.0,13.03,-0.89,-0.01,-0.46,-13.5,24.7,-12.9,35.97,,,,,,,,,,
15.24.01.597,45.0,11.2,0,,,76746.0,13.03,-0.87,-0.01,-0.32,17.7,8.4,-24.5,36.07,,,,,,,,,,
15.24.01.608,23.7,5.9,0,,,76746.0,13.03,-0.63,-0.18,-0.6,27.1,26.6,-7.1,35.93,,,,,,,,,,
15.24.01.617,-3.6,0.9,0,,,76746.0,13.03,-1.21,-0.04,-0.45,8.4,-2.6,-12.1,36.16,,,,,,,,,,
15.24.01.627,50.2,12.6,0,,,76746.0,13.03,-1.17,0.03,-0.84,-28.2,-5.5,14.8,36.12,,,,,,,,,,
15.24.01.637,58.3,14.6,0,,,76746.0,13.03,-1.11,0.27,-0.21,-13.1,9.3,-5.4,35.95,,,,,,,,,,
15.24.01.647,62.7,15.7,0,,,76746.0,13.03,-0.87,-0.42,-0.42,-5.1,14.2,2.8,36.15,,,,,,,,,,
15.24.01.654,71.8,18.0,0,,,76746.0,13.03,-0.4,-0.36,-0.16,-11.8,-17.3,7.0,35.89,,,,,,,,,,
15.24.01.663,107.0,26.8,0,,,76746.0,13.03,-0.69,0.16,-0.51,17.4,23.4,-2.8,35.93,,,,,,,,,,
15.24.01.672,106.1,26.5,0,,,76746.0,13.03,-0.88,0.02,-0.5,19.7,15.0,-20.6,36.11,,,,,,,,,,
15.24.01.682,103.7,25.9,0,,,76746.0,13.03,-0.84,-0.13,-0.17,15.6,34.0,8.2,35.95,,,,,,,,,,
15.24.01.691,68.8,17.2,0,,,76746.0,13.03,-0.9,0.69,-0.26,2.6,-1.5,1.5,36.2,,,,,,,,,,
15.24.01.700,26.3,6.6,0,,,76746.0,13.03,-0.61,0.14,-0.33,1.9,-7.3,1.8,36.23,,,,,,,,,,
15.24.01.708,41.1,10.3,0,,,76746.0,13.03,-0.61,0.16,0.01,-10.9,23.9,17.6,36.13,,,,,,,,,,
15.24.01.718,53.5,13.4,0,,,76746.0,13.03,-1.03,-0.09,-0.33,-25.6,4.2,-11.2,36.19,,,,,,,,,,
15.24.01.727,59.8,15.0,0,,,76746.0,13.03,-0.89,0.33,-0.37,9.9,14.3,-6.6,36.32,,,,,,,,,,
15.24.01.735,-1.3,0.3,0,,,76746.0,13.03,-0.99,-0.27,-0.46,6.5,24.3,5.6,35.78,,,,,,,,,,
15.24.01.744,1.1,0.3,0,,,76746.0,13.03,-0.79,-0.07,-0.21,-2.4,1.3,7.4,36.1,,,,,,,,,,
15.24.01.755,-11.4,2.8,0,,,76746.0,13.03,-0.85,0.34,-0.21,-6.5,-7.2,16.7,36.36,,,,,,,,,,
15.24.01.767,0.6,0.2,0,,,76746.0,13.03,-0.68,0.27,-0.06,10.8,3.7,1.4,36.09,,,,,,,,,,
15.24.01.775,-1.9,0.5,0,,,76746.0,13.03,-0.87,0.3,-0.62,4.8,12.8,-4.2,35.86,,,,,,,,,,
15.24.01.784,-21.3,5.3,0,,,76746.0,13.03,-0.83,0.56,-0.14,-3.4,28.0,6.2,35.54,,,,,,,,,,
15.24.01.793,-39.2,9.8,0,,,76746.0,13.03,-0.84,-0.11,0.41,-18.6,15.3,19.2,36.29,,,,,,,,,,
15.24.01.805,-42.4,10.6,0,,,76746.0,13.03,-0.68,0.37,-0.01,-20.0,23.8,-14.3,36.19,,,,,,,,,,
15.24.01.814,-58.4,14.6,0,,,76746.0,13.03,-0.6,-0.19,-0.31,5.6,-11.8,8.9,36.28,,,,,,,,,,
15.24.01.824,-33.7,8.4,0,,,76746.0,13.03,-0.58,0.16,-0.82,-23.9,-8.1,-8.9,36.1,,,,,,,,,,
15.24.01.834,-43.0,10.8,0,,,76746.0,13.03,-0.98,-0.32,0.19,20.9,15.4,-19.5,36.23,,,,,,,,,,
15.24.01.846,-73.8,18.4,0,,,76746.0,13.03,-0.3,-0.12,-0.15,-7.7,-10.3,-0.4,36.28,,,,,,,,,,
15.24.01.854,-66.1,16.5,0,,,76746.0,13.03,-0.64,0.05,-0.02,1.8,-12.6,14.4,36.23,,,,,,,,,,
15.24.01.866,-60.0,15.0,0,,,76746.0,13.03,-0.73,0.45,-0.36,-23.4,2.6,-8.3,36.12,,,,,,,,,,
15.24.01.873,-77.8,19.4,0,,,76746.0,13.03,-0.9,0.09,0.21,28.7,28.5,-3.0,35.75,,,,,,,,,,
15.24.01.884,-92.5,23.1,0,,,76746.0,13.03,-0.33,0.29,-0.41,17.0,26.7,-10.2,36.12,,,,,,,,,,
15.24.01.892,-100.7,25.2,0,,,76746.0,13.03,-0.71,0.14,0.23,-16.3,-3.7,3.1,36.44,,,,,,,,,,
15.24.01.903,-131.0,32.8,0,,,76746.0,13.03,-0.48,0.14,-0.19,-28.2,-15.9,5.8,36.15,,,,,,,,,,
15.24.01.913,-74.7,18.7,0,,,76746.0,13.03,-0.8,0.0,0.19,9.4,-11.4,-0.3,36.3,,,,,,,,,,
15.24.01.921,-87.0,21.8,0,,,76687.1,13.04,-0.69,0.02,0.28,-31.5,25.9,-3.9,36.37,,,,,,,,,,
15.24.01.930,-128.7,32.2,0,,,76687.1,13.04,-0.75,0.08,-0.15,20.8,21.0,-5.8,36.06,,,,,,,,,,
15.24.01.939,-97.8,24.4,1,3.0,98.5,76687.1,13.04,-0.84,-0.17,-0.43,-11.0,-5.5,9.8,36.08,,,,,,,,,,
15.24.01.948,-105.8,26.4,0,,,76687.1,13.04,-0.79,-0.1,0.11,27.9,-10.2,13.0,36.18,,,,,,,,,,
15.24.01.959,-114.4,28.6,0,,,76687.1,13.04,-0.73,0.46,-0.06,3.0,8.3,14.5,36.13,,,,,,,,,,
15.24.01.967,-112.2,28.0,0,,,76687.1,13.04,-0.5,0.5,0.03,-32.9,-4.6,8.8,36.03,,,,,,,,,,
15.24.01.979,-108.8,27.2,0,,,76687.1,13.04,-0.79,-0.25,-0.31,-20.1,36.9,-5.0,36.19,,,,,,,,,,
15.24.01.988,-105.2,26.3,0,,,76687.1,13.04,-0.31,-0.46,-0.77,-26.8,4.5,-16.0,36.08,,,,,,,,,,
15.24.01.999,-176.7,44.2,0,,,76687.1,13.04,-0.76,0.62,-0.34,-24.8,15.4,3.0,36.34,,,,,,,,,,
15.24.02.011,-125.5,31.4,0,,,76687.1,13.04,-0.6,-0.67,0.1,39.4,4.3,15.6,36.07,,,,,,,,,,
15.24.02.021,-160.0,40.0,0,,,76687.1,13.04,-0.52,-0.47,-0.19,-25.0,20.5,-8.3,36.12,,,,,,,,,,
15.24.02.030,-163.3,40.8,0,,,76687.1,13.04,-0.54,-0.04,-0.31,-22.8,20.4,8.9,36.17,,,,,,,,,,
15.24.02.040,-178.4,44.6,0,,,76687.1,13.04,-1.03,-0.64,-0.4,-32.0,-7.2,-1.7,36.1,,,,,,,,,,
15.24.02.049,38.6,9.6,0,,,76687.1,13.04,-0.77,-0.3,-0.14,-15.0,15.4,3.6,35.97,,,,,,,,,,
15.24.02.059,54.5,13.6,0,,,76687.1,13.04,-0.77,0.04,-0.39,-1.6,3.4,-21.2,36.23,,,,,,,,,,
15.24.02.069,109.3,27.3,0,,,76687.1,13.04,-0.88,-1.02,-0.37,-4.7,-2.3,0.1,36.22,,,,,,,,,,
15.24.02.077,184.6,46.2,0,,,76687.1,13.04,-0.91,-0.07,-0.2,-7.1,5.1,24.1,36.01,,,,,,,,,,
15.24.02.085,227.7,56.9,0,,,76687.1,13.04,-0.73,-0.62,-0.64,-4.6,-9.3,0.2,36.0,,,,,,,,,,
15.24.02.095,264.6,66.2,0,,,76687.1,13.04,-0.8,-0.96,-0.24,-2.7,7.7,13.8,36.15,,,,,,,,,,
15.24.02.104,302.6,75.6,0,,,76687.1,13.04,-0.78,-0.84,-0.3,-6.2,5.6,-12.7,36.26,,,,,,,,,,
15.24.02.113,310.2,77.6,0,,,76687.1,13.04,-0.93,-0.18,-0.78,-18.2,-24.6,16.1,36.13,,,,,,,,,,
15.24.02.125,390.6,97.6,0,,,76687.1,13.04,-0.56,0.13,-0.52,-7.9,30.0,2.0,35.79,,,,,,,,,,
15.24.02.133,362.3,90.6,0,,,76687.1,13.04,-0.93,-0.7,0.01,-1.5,0.8,5.1,35.99,,,,,,,,,,
15.24.02.143,351.5,87.9,0,,,76687.1,13.04,-0.91,-0.36,0.34,-4.3,4.3,-9.1,35.91,,,,,,,,,,
15.24.02.153,407.0,101.8,0,,,76687.1,13.04,-0.9,-0.23,-1.14,7.6,20.8,-7.1,36.45,,,,,,,,,,
15.24.02.164,393.4,98.4,0,,,76687.1,13.04,-0.52,-0.49,-0.24,-8.4,12.8,-0.5,36.22,,,,,,,,,,
15.24.02.173,406.0,101.5,0,,,76687.1,13.04,-0.73,-0.87,0.1,-9.8,22.4,-15.0,36.12,,,,,,,,,,
15.24.02.181,418.1,104.5,0,,,76687.1,13.04,-1.01,-0.49,-0.31,18.5,15.4,14.2,36.16,,,,,,,,,,
15.24.02.192,437.3,109.3,0,,,76687.1,13.04,-0.74,-0.19,-0.35,-10.0,18.1,-17.9,36.07,,,,,,,,,,
15.24.02.201,348.4,87.1,0,,,76687.1,13.04,-1.04,-0.26,-0.11,11.5,-28.4,-7.3,36.23,,,,,,,,,,
15.24.02.210,321.4,80.4,0,,,76687.1,13.04,-1.04,-0.59,-0.18,34.1,-8.6,-5.8,36.2,,,,,,,,,,
15.24.02.220,273.3,68.3,0,,,76687.1,13.04,-0.99,-0.76,-0.03,3.6,2.9,-1.8,36.12,,,,,,,,,,
15.24.02.231,232.3,58.1,0,,,76687.1,13.04,-0.76,-0.01,-0.05,4.9,10.6,-8.3,35.95,,,,,,,,,,
15.24.02.241,215.9,54.0,0,,,76687.1,13.04,-1.02,-0.21,0.36,-18.7,-16.6,1.9,36.05,,,,,,,,,,
15.24.02.251,129.9,32.5,0,,,76687.1,13.04,-0.87,0.08,-0.74,-8.3,-3.0,21.6,36.05,,,,,,,,,,
15.24.02.260,89.3,22.3,0,,,76687.1,13.04,-1.19,-0.53,0.38,7.2,15.1,-13.3,36.1,,,,,,,,,,
15.24.02.268,67.1,16.8,0,,,76687.1,13.04,-1.1,-0.64,0.66,-7.9,20.7,3.7,36.18,,,,,,,,,,
15.24.02.277,13.6,3.4,0,,,76687.1,13.04,-0.86,-0.23,0.03,16.4,17.4,-11.3,35.79,,,,,,,,,,
15.24.02.286,15.4,3.8,0,,,76687.1,13.04,-0.82,-0.46,-0.68,-0.7,0.9,-8.4,35.92,,,,,,,,,,
15.24.02.295,10.8,2.7,0,,,76687.1,13.04,-0.57,-0.32,-0.15,-4.5,-3.9,-7.1,36.25,,,,,,,,,,
15.24.02.305,37.5,9.4,0,,,76687.1,13.04,-0.74,0.12,-0.3,51.0,1.1,-2.8,36.27,,,,,,,,,,
15.24.02.315,48.8,12.2,0,,,76687.1,13.04,-0.67,-0.21,-0.36,5.4,-8.7,2.8,36.1,,,,,,,,,,
15.24.02.325,28.5,7.1,0,,,76687.1,13.04,-1.21,0.07,-0.1,11.9,-2.5,-4.3,36.06,,,,,,,,,,
15.24.02.336,36.6,9.2,0,,,76687.1,13.04,-0.94,-0.5,-0.13,4.6,19.9,14.3,36.14,,,,,,,,,,
15.24.02.344,63.3,15.8,0,,,76687.1,13.04,-0.85,-0.41,-0.19,7.3,-6.2,-23.6,35.92,,,,,,,,,,
15.24.02.352,79.6,19.9,0,,,76687.1,13.04,-1.15,0.12,-0.33,-9.8,1.5,-14.4,36.03,,,,,,,,,,
15.24.02.363,44.2,11.0,0,,,76687.1,13.04,-0.71,-0.49,0.04,1.7,-16.0,-6.6,36.43,,,,,,,,,,
15.24.02.372,61.3,15.3,0,,,76687.1,13.04,-1.06,-0.11,-0.53,-17.1,-5.6,3.2,35.9,,,,,,,,,,
15.24.02.381,60.6,15.2,0,,,76687.1,13.04,-1.15,-0.74,-0.46,1.3,-2.6,-7.5,36.01,,,,,,,,,,
15.24.02.393,52.8,13.2,0,,,76687.1,13.04,-0.66,0.11,0.42,7.8,11.6,-21.2,36.17,,,,,,,,,,
15.24.02.403,39.7,9.9,0,,,76687.1,13.04,-0.99,-0.26,-0.03,5.5,10.5,-7.4,35.96,,,,,,,,,,
15.24.02.412,7.6,1.9,0,,,76687.1,13.04,-1.21,-0.53,-0.14,19.5,-1.5,7.7,36.23,,,,,,,,,,
15.24.02.422,19.8,5.0,0,,,76687.1,13.04,-0.99,-0.59,-0.17,28.5,-8.6,22.8,35.97,,,,,,,,,,
15.24.02.434,-50.2,12.6,0,,,76687.1,13.04,-1.13,-0.01,-0.49,-40.3,7.1,19.9,36.35,,,,,,,,,,
15.24.02.445,-13.2,3.3,0,,,76687.1,13.04,-0.97,-0.15,-0.23,-7.2,4.7,-1.4,36.0,,,,,,,,,,
15.24.02.457,-14.2,3.6,0,,,76687.1,13.04,-1.27,0.42,-0.03,16.2,6.4,-0.6,35.92,,,,,,,,,,
15.24.02.465,-6.6,1.6,0,,,76687.1,13.04,-0.92,0.14,-0.84,-14.2,11.9,-3.7,36.09,,,,,,,,,,
15.24.02.473,-32.4,8.1,0,,,76687.1,13.04,-0.99,0.11,-0.54,19.5,32.2,-19.8,36.07,,,,,,,,,,
15.24.02.483,-27.3,6.8,0,,,76687.1,13.04,-1.05,0.07,0.21,10.1,10.0,-4.7,36.2,,,,,,,,,,
15.24.02.492,-59.8,15.0,0,,,76687.1,13.04,-0.83,-0.11,-0.38,-14.2,12.9,-14.1,36.34,,,,,,,,,,
15.24.02.502,-59.2,14.8,0,,,76687.1,13.04,-1.0,0.04,-0.45,-19.5,25.1,-7.6,35.78,,,,,,,,,,
15.24.02.512,-42.2,10.6,0,,,76687.1,13.04,-0.92,0.33,-0.06,23.4,20.6,-16.0,36.26,,,,,,,,,,
15.24.02.522,-48.6,12.2,0,,,76687.1,13.04,-1.16,0.09,-0.68,21.4,20.5,13.4,36.02,,,,,,,,,,
15.24.02.532,-38.6,9.6,0,,,76687.1,13.04,-1.0,-0.48,-0.65,-6.6,13.3,15.6,35.96,,,,,,,,,,
15.24.02.542,-44.2,11.0,0,,,76687.1,13.04,-1.23,0.26,-0.77,-6.2,18.0,2.5,35.92,,,,,,,,,,
15.24.02.552,-71.3,17.8,0,,,76687.1,13.04,-1.0,-0.51,-0.18,-19.2,-3.1,3.3,35.79,,,,,,,,,,
15.24.02.560,-101.6,25.4,1,4.0,96.6,76687.1,13.04,-0.86,0.35,-0.47,15.7,19.1,4.0,36.29,,,,,,,,,,
15.24.02.569,-75.2,18.8,0,,,76687.1,13.04,-0.8,0.3,-0.3,2.2,7.5,7.4,36.02,,,,,,,,,,
15.24.02.579,-87.2,21.8,0,,,76687.1,13.04,-0.45,0.05,-0.78,18.7,7.6,-25.9,36.43,,,,,,,,,,
15.24.02.590,-109.1,27.3,0,,,76687.1,13.04,-1.15,-0.06,-0.09,-31.2,12.0,-21.0,36.3,,,,,,,,,,
15.24.02.600,-109.7,27.4,0,,,76687.1,13.04,-0.89,0.53,-0.4,26.1,5.6,14.9,36.12,,,,,,,,,,
15.24.02.609,-112.4,28.1,0,,,76687.1,13.04,-0.77,-0.33,-0.78,19.1,-14.4,-11.1,36.17,,,,,,,,,,
15.24.02.620,-96.0,24.0,0,,,76687.1,13.04,-1.07,-0.2,0.01,4.0,9.0,-6.9,36.3,,,,,,,,,,
15.24.02.629,-118.5,29.6,0,,,76687.1,13.04,-0.82,-0.27,-0.04,13.0,23.2,5.9,36.1,,,,,,,,,,
15.24.02.639,-132.6,33.2,0,,,76687.1,13.04,-0.7,-0.01,0.11,3.9,9.0,3.9,35.98,,,,,,,,,,
15.24.02.651,-165.4,41.4,0,,,76687.1,13.04,-0.96,-0.11,0.29,-2.5,-3.0,15.2,36.12,,,,,,,,,,
15.24.02.661,-127.3,31.8,0,,,76687.1,13.04,-0.94,-0.55,-0.31,25.5,13.4,-15.6,36.33,,,,,,,,,,
15.24.02.670,-135.9,34.0,0,,,76687.1,13.04,-0.82,-0.09,-0.25,9.8,-16.7,-8.2,35.87,,,,,,,,,,
15.24.02.680,-160.7,40.2,0,,,76687.1,13.04,-1.13,-0.2,0.13,-33.3,18.7,16.4,35.89,,,,,,,,,,
15.24.02.690,-162.2,40.6,0,,,76687.1,13.04,-0.95,0.25,0.16,-7.8,-4.5,-4.8,36.24,,,,,,,,,,
15.24.02.700,-141.7,35.4,0,,,76687.1,13.04,-0.9,0.35,-0.08,-26.4,0.3,7.8,35.93,,,,,,,,,,
15.24.02.710,-196.3,49.1,0,,,76687.1,13.04,-0.68,0.05,-0.12,0.7,-4.3,-17.6,36.11,,,,,,,,,,
15.24.02.718,-158.7,39.7,0,,,76687.1,13.04,-0.87,-0.01,-0.26,-5.6,6.3,1.5,36.24,,,,,,,,,,
15.24.02.727,1.1,0.3,0,,,76687.1,13.04,-0.91,-0.14,0.11,-12.6,5.3,-17.4,36.28,,,,,,,,,,
15.24.02.736,112.7,28.2,0,,,76687.1,13.04,-0.11,-0.2,0.31,5.2,24.5,-2.8,36.24,,,,,,,,,,
15.24.02.746,101.8,25.4,0,,,76687.1,13.04,-0.91,-0.04,0.13,-20.4,-0.1,11.6,36.16,,,,,,,,,,
15.24.02.757,161.1,40.3,0,,,76687.1,13.04,-0.69,-0.16,0.26,-10.9,2.7,-4.2,35.82,,,,,,,,,,
15.24.02.765,212.3,53.1,0,,,76687.1,13.04,-0.92,-0.83,-0.14,20.6,2.1,4.7,35.92,,,,,,,,,,
15.24.02.773,239.2,59.8,0,,,76687.1,13.04,-0.39,0.16,-0.25,-19.1,8.0,-4.2,36.23,,,,,,,,,,
15.24.02.783,285.8,71.4,0,,,76687.1,13.04,-0.46,0.3,-0.14,1.4,24.9,-7.7,36.04,,,,,,,,,,
15.24.02.793,293.2,73.3,0,,,76687.1,13.04,-0.91,0.05,-0.27,6.3,-7.2,-4.9,36.15,,,,,,,,,,
15.24.02.803,321.0,80.2,0,,,76687.1,13.04,-0.58,-0.07,0.11,43.1,-17.9,-18.9,36.16,,,,,,,,,,
15.24.02.813,364.7,91.2,0,,,76687.1,13.04,-0.35,0.22,-0.14,-36.1,-4.6,-12.0,36.16,,,,,,,,,,
15.24.02.822,373.7,93.4,0,,,76687.1,13.04,-0.7,0.25,0.07,-14.7,3.0,-22.6,36.06,,,,,,,,,,
15.24.02.830,426.4,106.6,0,,,76687.1,13.04,-0.44,-0.26,0.31,-2.2,12.3,-0.5,35.96,,,,,,,,,,
15.24.02.840,406.8,101.7,0,,,76687.1,13.04,-0.65,0.06,-0.18,16.8,-0.7,-14.1,36.32,,,,,,,,,,
15.24.02.848,415.1,103.8,0,,,76687.1,13.04,-0.61,-0.1,-0.58,14.7,5.5,-1.7,36.12,,,,,,,,,,
15.24.02.858,426.3,106.6,0,,,76687.1,13.04,-0.6,0.17,0.2,2.5,-9.8,13.8,35.88,,,,,,,,,,
15.24.02.867,364.8,91.2,0,,,76687.1,13.04,-0.44,0.4,-0.59,-1.0,10.2,-24.6,36.23,,,,,,,,,,
15.24.02.877,370.7,92.7,0,,,76687.1,13.04,-0.59,0.04,-0.2,7.7,14.8,10.9,36.0,,,,,,,,,,
15.24.02.888,283.9,71.0,0,,,76687.1,13.04,-1.06,-0.25,-0.01,-11.8,2.8,-22.6,36.29,,,,,,,,,,
15.24.02.897,311.6,77.9,0,,,76687.1,13.04,-0.85,-0.69,-0.38,-27.1,-3.1,-12.6,35.87,,,,,,,,,,
15.24.02.908,260.1,65.0,0,,,76628.4,13.05,-1.14,-0.2,-0.61,21.4,-0.1,-13.6,36.09,,,,,,,,,,
15.24.02.917,266.5,66.6,0,,,76628.4,13.05,-1.21,-0.11,-0.5,23.1,0.4,3.5,35.95,,,,,,,,,,
15.24.02.927,165.1,41.3,0,,,76628.4,13.05,-0.79,-0.25,-0.23,-6.8,10.3,4.1,36.1,,,,,,,,,,
15.24.02.937,114.8,28.7,0,,,76628.4,13.05,-0.66,-0.25,-0.26,6.4,21.3,-3.9,36.18,,,,,,,,,,
15.24.02.947,86.7,21.7,0,,,76628.4,13.05,-0.52,-0.29,-0.39,17.2,16.7,-12.0,35.94,,,,,,,,,,
15.24.02.954,30.0,7.5,0,,,76628.4,13.05,-0.92,-0.26,-0.35,10.8,-0.3,-5.7,35.99,,,,,,,,,,
15.24.02.965,31.9,8.0,0,,,76628.4,13.05,-0.91,-0.43,0.08,41.2,6.9,-13.9,36.25,,,,,,,,,,
15.24.02.977,29.6,7.4,0,,,76628.4,13.05,-0.92,-0.18,-0.49,-15.8,24.1,14.0,36.04,,,,,,,,,,
15.24.02.987,21.9,5.5,0,,,76628.4,13.05,-0.59,-0.16,-0.46,-2.1,17.0,11.5,36.05,,,,,,,,,,
15.24.02.996,57.9,14.5,0,,,76628.4,13.05,-0.68,-0.05,-0.55,-48.6,1.4,-26.6,35.91,,,,,,,,,,
15.24.03.006,61.2,15.3,0,,,76628.4,13.05,-1.11,-0.1,-0.41,14.6,-18.8,5.5,35.99,,,,,,,,,,
15.24.03.018,55.2,13.8,0,,,76628.4,13.05,-0.92,-0.25,-0.19,12.5,-21.2,-6.6,36.29,,,,,,,,,,
15.24.03.026,81.0,20.2,0,,,76628.4,13.05,-0.82,-0.22,-0.03,-8.8,-13.9,17.6,36.28,,,,,,,,,,
15.24.03.034,45.1,11.3,0,,,76628.4,13.05,-0.6,-0.51,-0.34,3.8,1.7,14.6,35.88,,,,,,,,,,
15.24.03.043,77.9,19.5,0,,,76628.4,13.05,-0.95,-0.48,-0.21,15.6,1.4,-16.7,36.1,,,,,,,,,,
15.24.03.055,62.5,15.6,0,,,76628.4,13.05,-1.17,-0.29,-0.16,-18.0,14.4,-4.4,35.8,,,,,,,,,,
15.24.03.063,41.3,10.3,0,,,76628.4,13.05,-0.98,-0.03,-0.87,40.6,26.6,15.7,36.21,,,,,,,,,,
15.24.03.074,25.4,6.4,0,,,76628.4,13.05,-0.87,-0.04,-0.6,20.8,14.1,-3.6,36.43,,,,,,,,,,
15.24.03.083,32.8,8.2,0,,,76628.4,13.05,-1.1,-0.55,0.3,-32.4,10.9,-8.7,36.23,,,,,,,,,,
15.24.03.091,12.8,3.2,0,,,76628.4,13.05,-0.72,-0.84,-0.67,15.5,-12.0,-21.5,36.03,,,,,,,,,,
15.24.03.100,9.9,2.5,0,,,76628.4,13.05,-1.34,-0.15,-0.35,-4.6,-8.7,11.9,36.44,,,,,,,,,,
15.24.03.110,7.8,2.0,0,,,76628.4,13.05,-0.96,-0.3,-0.11,7.8,4.7,-18.5,36.1,,,,,,,,,,
15.24.03.119,16.0,4.0,0,,,76628.4,13.05,-1.0,-0.2,-0.22,2.4,-0.6,-0.9,35.97,,,,,,,,,,
15.24.03.128,-36.4,9.1,0,,,76628.4,13.05,-1.15,-0.4,-0.28,-43.2,11.8,-2.6,36.24,,,,,,,,,,
15.24.03.138,4.9,1.2,0,,,76628.4,13.05,-0.77,-0.26,0.27,3.4,1.1,5.3,35.94,,,,,,,,,,
15.24.03.145,-47.8,12.0,0,,,76628.4,13.05,-1.05,0.2,-0.27,-10.3,-0.3,-16.6,35.9,,,,,,,,,,
15.24.03.155,-21.5,5.4,0,,,76628.4,13.05,-0.67,-0.66,0.05,17.6,-24.7,11.0,35.93,,,,,,,,,,
15.24.03.164,-61.3,15.3,0,,,76628.4,13.05,-0.78,-0.38,-0.1,5.5,18.8,-7.6,36.01,,,,,,,,,,
15.24.03.175,-36.7,9.2,0,,,76628.4,13.05,-0.85,-0.05,0.17,-17.5,17.5,-5.6,35.86,,,,,,,,,,
15.24.03.185,-64.9,16.2,0,,,76628.4,13.05,-0.93,-0.37,-0.01,-1.5,25.3,7.6,36.22,,,,,,,,,,
15.24.03.195,-27.5,6.9,1,5.0,94.5,76628.4,13.05,-0.7,-0.15,0.19,-18.4,-2.5,3.0,36.17,,,,,,,,,,
15.24.03.204,-34.3,8.6,0,,,76628.4,13.05,-0.85,-0.28,0.09,-26.3,-5.2,1.6,36.05,,,,,,,,,,
15.24.03.213,-49.3,12.3,0,,,76628.4,13.05,-1.09,-0.08,0.07,8.4,8.0,8.4,36.01,,,,,,,,,,
15.24.03.221,-31.4,7.8,0,,,76628.4,13.05,-0.94,0.18,-0.1,-20.4,-13.5,-13.6,35.98,,,,,,,,,,
15.24.03.230,-88.6,22.2,0,,,76628.4,13.05,-0.98,-0.26,-0.33,14.6,11.8,6.1,35.94,,,,,,,,,,
15.24.03.237,-77.2,19.3,0,,,76628.4,13.05,-0.86,-0.07,0.45,3.0,10.4,-12.2,35.88,,,,,,,,,,
15.24.03.247,-67.5,16.9,0,,,76628.4,13.05,-0.62,-0.16,-0.09,-21.4,4.6,11.9,35.77,,,,,,,,,,
15.24.03.257,-75.1,18.8,0,,,76628.4,13.05,-0.79,0.06,-0.49,10.7,19.8,-11.5,36.17,,,,,,,,,,
15.24.03.267,-95.0,23.8,0,,,76628.4,13.05,-1.33,0.03,-0.02,7.7,-6.2,-0.4,35.89,,,,,,,,,,
15.24.03.278,-81.4,20.4,0,,,76628.4,13.05,-0.84,0.27,-0.68,-8.4,14.3,-25.0,35.89,,,,,,,,,,
15.24.03.288,-99.6,24.9,0,,,76628.4,13.05,-0.69,-0.61,-0.23,15.1,27.0,19.6,35.9,,,,,,,,,,
15.24.03.299,-122.2,30.6,0,,,76628.4,13.05,-1.06,-0.38,-0.37,-13.7,-10.1,-6.9,36.27,,,,,,,,,,
15.24.03.310,-137.1,34.3,0,,,76628.4,13.05,-0.62,-0.45,-0.04,27.6,-14.9,-10.7,35.85,,,,,,,,,,
15.24.03.319,-142.2,35.6,0,,,76628.4,13.05,-0.79,0.14,-0.42,8.2,2.8,3.2,35.95,,,,,,,,,,
15.24.03.329,-139.1,34.8,0,,,76628.4,13.05,-0.67,-0.23,-0.35,-24.3,13.6,-18.8,36.07,,,,,,,,,,
15.24.03.340,-85.8,21.4,0,,,76628.4,13.05,-1.07,-0.47,-0.07,20.8,12.6,-0.5,35.97,,,,,,,,,,
15.24.03.349,-142.0,35.5,0,,,76628.4,13.05,-1.04,-0.51,-0.22,-47.6,20.2,10.0,36.39,,,,,,,,,,
15.24.03.359,-148.1,37.0,0,,,76628.4,13.05,-0.61,0.31,-0.63,27.1,-5.0,-14.5,36.24,,,,,,,,,,
15.24.03.368,-149.2,37.3,0,,,76628.4,13.05,-1.08,0.05,-0.56,20.2,11.3,-3.8,35.96,,,,,,,,,,
15.24.03.377,-141.5,35.4,0,,,76628.4,13.05,-0.99,-0.27,-0.27,13.7,16.8,15.6,36.1,,,,,,,,,,
15.24.03.387,-161.2,40.3,0,,,76628.4,13.05,-0.84,-0.45,-0.37,-20.1,-7.0,14.1,36.1,,,,,,,,,,
15.24.03.397,-168.7,42.2,0,,,76628.4,13.05,-0.57,-0.18,-0.72,-19.5,11.9,-3.6,36.1,,,,,,,,,,
15.24.03.405,-189.7,47.4,0,,,76628.4,13.05,-0.72,0.37,-0.46,32.7,1.8,-10.9,36.24,,,,,,,,,,
15.24.03.416,72.6,18.2,0,,,76628.4,13.05,-0.8,0.5,-0.29,19.5,-15.7,0.6,35.89,,,,,,,,,,
15.24.03.425,117.8,29.4,0,,,76628.4,13.05,-0.68,-0.6,-0.28,22.7,20.8,10.4,35.93,,,,,,,,,,
15.24.03.435,151.6,37.9,0,,,76628.4,13.05,-0.69,0.11,-0.53,-13.0,13.8,14.4,35.75,,,,,,,,,,
15.24.03.445,202.0,50.5,0,,,76628.4,13.05,-0.78,0.12,-0.37,10.2,7.3,11.4,36.07,,,,,,,,,,
15.24.03.455,249.3,62.3,0,,,76628.4,13.05,-1.0,-0.51,-0.12,-4.4,-0.4,13.5,36.2,,,,,,,,,,
15.24.03.464,274.2,68.6,0,,,76628.4,13.05,-0.78,-0.07,-0.12,-1.4,21.5,-3.7,36.1,,,,,,,,,,
15.24.03.472,342.0,85.5,0,,,76628.4,13.05,-0.91,0.35,-0.01,18.5,19.1,-13.3,36.16,,,,,,,,,,
15.24.03.482,374.0,93.5,0,,,76628.4,13.05,-0.74,0.44,-0.21,5.3,23.3,-12.1,36.09,,,,,,,,,,
15.24.03.492,394.5,98.6,0,,,76628.4,13.05,-1.06,0.22,-0.37,11.9,-13.8,5.8,36.39,,,,,,,,,,
15.24.03.500,373.5,93.4,0,,,76628.4,13.05,-0.39,0.21,-0.27,17.4,-0.3,-16.2,36.17,,,,,,,,,,
15.24.03.510,387.8,97.0,0,,,76628.4,13.05,-1.05,0.32,-0.06,9.2,3.9,4.2,36.23,,,,,,,,,,
15.24.03.520,389.2,97.3,0,,,76628.4,13.05,-1.01,-0.15,-0.42,1.5,7.5,-0.9,35.99,,,,,,,,,,
15.24.03.531,387.6,96.9,0,,,76628.4,13.05,-0.42,-0.1,0.25,-5.6,25.6,-10.6,36.11,,,,,,,,,,
15.24.03.540,391.4,97.8,0,,,76628.4,13.05,-0.48,-0.17,-0.37,3.4,32.5,-20.7,36.19,,,,,,,,,,
15.24.03.551,396.0,99.0,0,,,76628.4,13.05,-0.77,0.3,-0.26,10.2,23.9,-7.5,35.98,,,,,,,,,,
15.24.03.559,332.2,83.0,0,,,76628.4,13.05,-0.57,0.11,-0.17,-8.4,11.4,6.4,36.19,,,,,,,,,,
15.24.03.566,360.5,90.1,0,,,76628.4,13.05,-0.57,0.04,-0.97,-19.9,9.0,-21.4,36.19,,,,,,,,,,
15.24.03.577,296.8,74.2,0,,,76628.4,13.05,-0.82,0.63,-0.28,-12.4,-6.9,-2.3,36.11,,,,,,,,,,
15.24.03.586,291.6,72.9,0,,,76628.4,13.05,-0.71,0.04,-0.05,-10.1,14.4,-11.7,35.98,,,,,,,,,,
15.24.03.597,234.8,58.7,0,,,76628.4,13.05,-0.43,0.6,-0.19,-9.5,0.9,-11.2,36.02,,,,,,,,,,
15.24.03.607,203.1,50.8,0,,,76628.4,13.05,-0.24,0.17,-0.22,26.1,0.7,-18.8,35.91,,,,,,,,,,
15.24.03.616,163.2,40.8,0,,,76628.4,13.05,-0.84,0.33,0.17,5.8,7.9,0.6,36.26,,,,,,,,,,
15.24.03.625,112.4,28.1,0,,,76628.4,13.05,-0.49,0.06,-0.17,18.1,-2.8,10.3,36.13,,,,,,,,,,
15.24.03.633,69.8,17.4,0,,,76628.4,13.05,-0.83,-0.14,-0.06,14.6,26.2,-7.4,36.09,,,,,,,,,,
15.24.03.642,22.9,5.7,0,,,76628.4,13.05,-0.55,0.14,-0.4,15.6,16.8,0.8,36.17,,,,,,,,,,
15.24.03.653,18.5,4.6,0,,,76628.4,13.05,-0.72,0.23,0.21,3.3,-7.3,15.7,35.9,,,,,,,,,,
15.24.03.664,29.5,7.4,0,,,76628.4,13.05,-0.6,-0.15,0.18,-1.8,2.0,6.5,36.27,,,,,,,,,,
15.24.03.673,63.4,15.8,0,,,76628.4,13.05,-0.58,-0.35,0.11,5.2,-0.5,-0.6,36.09,,,,,,,,,,
15.24.03.681,20.8,5.2,0,,,76628.4,13.05,-1.09,-0.02,-0.65,-19.4,-14.4,-14.6,36.14,,,,,,,,,,
15.24.03.691,64.1,16.0,0,,,76628.4,13.05,-0.61,0.17,-0.22,-2.7,-5.1,9.6,36.09,,,,,,,,,,
15.24.03.700,62.9,15.7,0,,,76628.4,13.05,-0.63,0.0,0.01,5.4,8.0,-5.6,35.73,,,,,,,,,,
15.24.03.708,104.0,26.0,0,,,76628.4,13.05,-0.41,0.23,-0.12,20.1,11.8,-1.8,36.19,,,,,,,,,,
15.24.03.718,83.8,21.0,0,,,76628.4,13.05,-1.2,-0.28,-0.4,-20.4,-0.6,11.0,36.04,,,,,,,,,,
15.24.03.729,53.7,13.4,0,,,76628.4,13.05,-0.84,-0.5,-0.26,7.4,5.3,6.8,35.99,,,,,,,,,,
15.24.03.740,63.6,15.9,0,,,76628.4,13.05,-0.95,-0.69,0.02,-27.6,1.7,19.5,36.12,,,,,,,,,,
15.24.03.750,55.8,14.0,0,,,76628.4,13.05,-0.6,-0.18,-0.27,23.4,18.2,15.0,35.97,,,,,,,,,,
15.24.03.760,50.9,12.7,0,,,76628.4,13.05,-0.32,0.23,0.04,15.7,20.3,1.9,36.28,,,,,,,,,,
15.24.03.770,21.4,5.4,0,,,76628.4,13.05,-1.04,-0.12,-0.68,9.8,-0.2,-4.6,35.99,,,,,,,,,,
15.24.03.780,-0.2,0.0,0,,,76628.4,13.05,-0.76,-0.21,-0.5,-7.6,-27.1,4.5,35.8,,,,,,,,,,
15.24.03.791,10.9,2.7,0,,,76628.4,13.05,-0.54,-0.5,-0.2,24.0,2.7,16.6,36.15,,,,,,,,,,
15.24.03.801,-32.9,8.2,0,,,76628.4,13.05,-0.75,-0.02,-0.23,-0.1,13.3,-1.5,36.09,,,,,,,,,,
15.24.03.810,1.9,0.5,0,,,76628.4,13.05,-0.94,0.18,-0.23,37.0,-1.5,-22.3,36.25,,,,,,,,,,
15.24.03.820,-42.0,10.5,1,6.0,96.0,76628.4,13.05,-0.94,-0.35,-0.14,-35.3,8.4,-9.4,35.83,,,,,,,,,,
15.24.03.829,-10.7,2.7,0,,,76628.4,13.05,-0.83,-0.45,-0.32,-6.0,17.7,1.9,36.19,,,,,,,,,,
15.24.03.838,-29.5,7.4,0,,,76628.4,13.05,-0.4,-0.6,-0.66,-7.1,0.4,11.4,36.15,,,,,,,,,,
15.24.03.850,-61.5,15.4,0,,,76628.4,13.05,-0.77,-0.37,-0.36,-0.2,3.6,5.9,35.81,,,,,,,,,,
15.24.03.859,-58.1,14.5,0,,,76628.4,13.05,-0.42,-0.51,-0.38,-35.1,-6.2,-19.5,36.16,,,,,,,,,,
15.24.03.870,-64.7,16.2,0,,,76628.4,13.05,-0.93,-0.3,-0.58,-27.6,-4.3,5.2,36.18,,,,,,,,,,
15.24.03.879,-39.4,9.8,0,,,76628.4,13.05,-1.07,0.09,-0.37,17.0,8.1,-6.2,36.33,,,,,,,,,,
15.24.03.889,-71.4,17.8,0,,,76628.4,13.05,-0.96,-0.22,-0.83,-3.2,37.6,-3.7,36.03,,,,,,,,,,
15.24.03.897,-41.6,10.4,0,,,76628.4,13.05,-1.06,-0.15,-0.76,23.0,26.6,-8.4,36.13,,,,,,,,,,
15.24.03.908,-74.7,18.7,0,,,76628.4,13.05,-0.83,-0.64,-0.46,15.6,8.4,13.6,36.42,,,,,,,,,,
15.24.03.920,-81.1,20.3,0,,,76628.4,13.05,-0.9,-0.51,0.06,-17.4,29.8,-11.4,36.11,,,,,,,,,,
15.24.03.931,-69.4,17.4,0,,,76628.4,13.05,-0.86,-0.43,-0.27,21.0,-20.0,7.4,36.21,,,,,,,,,,
15.24.03.939,-102.2,25.6,0,,,76628.4,13.05,-0.94,0.01,0.11,-18.7,2.2,1.6,35.91,,,,,,,,,,
15.24.03.949,-103.9,26.0,0,,,76628.4,13.05,-0.76,-0.63,-0.8,6.1,3.4,5.4,36.08,,,,,,,,,,
15.24.03.960,-63.7,15.9,0,,,76628.4,13.05,-1.07,-1.06,-0.08,51.4,21.3,0.3,36.12,,,,,,,,,,
15.24.03.970,-93.1,23.3,0,,,76628.4,13.05,-0.84,-0.25,0.33,2.1,5.4,17.4,36.18,,,,,,,,,,
15.24.03.981,-139.9,35.0,0,,,76628.4,13.05,-0.87,-0.6,0.02,-32.3,0.6,-2.6,36.25,,,,,,,,,,
15.24.03.991,-84.8,21.2,0,,,76628.4,13.05,-0.94,-0.33,-0.34,13.9,11.3,10.2,36.1,,,,,,,,,,
15.24.04.002,-90.0,22.5,0,,,76628.4,13.05,-1.11,-0.43,0.18,8.5,12.8,-6.9,36.13,,,,,,,,,,
15.24.04.010,-109.7,27.4,0,,,76628.4,13.05,-1.1,-0.01,0.05,-5.6,25.3,2.8,36.16,,,,,,,,,,
15.24.04.020,-113.9,28.5,0,,,76628.4,13.05,-1.11,0.05,-0.32,11.1,13.9,-13.8,36.52,,,,,,,,,,
15.24.04.030,-135.4,33.8,0,,,76628.4,13.05,-0.93,0.09,0.21,-2.3,19.6,2.4,35.99,,,,,,,,,,
15.24.04.040,-127.6,31.9,0,,,76628.4,13.05,-0.85,-0.09,0.21,-12.8,18.8,-0.5,36.02,,,,,,,,,,
15.24.04.050,-133.9,33.5,0,,,76628.4,13.05,-1.02,-0.15,0.17,-17.3,8.4,-2.3,36.03,,,,,,,,,,
15.24.04.059,-150.8,37.7,0,,,76628.4,13.05,-0.71,0.31,0.34,-17.0,3.7,-18.6,36.13,,,,,,,,,,
15.24.04.070,-124.0,31.0,0,,,76628.4,13.05,-1.0,-0.31,0.02,-8.8,4.0,-8.3,36.22,,,,,,,,,,
15.24.04.080,-189.1,47.3,0,,,76628.4,13.05,-1.05,-0.1,0.13,-7.6,9.4,8.9,35.97,,,,,,,,,,
15.24.04.087,-2.9,0.7,0,,,76628.4,13.05,-0.67,-0.13,-0.15,5.7,-5.0,7.7,36.31,,,,,,,,,,
15.24.04.097,52.4,13.1,0,,,76628.4,13.05,-0.92,-0.39,0.28,22.7,18.0,-18.4,36.26,,,,,,,,,,
15.24.04.106,168.7,42.2,0,,,76628.4,13.05,-0.97,-0.15,-0.34,3.3,-5.3,-18.1,35.9,,,,,,,,,,
15.24.04.117,172.2,43.0,0,,,76628.4,13.05,-0.85,-0.44,0.23,19.8,1.4,6.3,35.89,,,,,,,,,,
15.24.04.127,232.5,58.1,0,,,76628.4,13.05,-1.01,-0.56,0.42,14.1,11.0,1.5,36.24,,,,,,,,,,
15.24.04.140,261.0,65.2,0,,,76628.4,13.05,-1.24,-0.38,0.28,-11.7,3.0,-5.9,36.34,,,,,,,,,,
15.24.04.149,319.4,79.8,0,,,76628.4,13.05,-1.57,-0.19,-0.37,25.4,-6.2,-16.8,36.16,,,,,,,,,,
15.24.04.159,371.8,93.0,0,,,76628.4,13.05,-1.26,0.07,-0.44,3.9,-10.1,-1.5,35.99,,,,,,,,,,
15.24.04.169,320.5,80.1,0,,,76628.4,13.05,-0.82,-0.35,-0.79,-26.9,-3.5,19.6,35.98,,,,,,,,,,
15.24.04.178,372.2,93.0,0,,,76628.4,13.05,-0.84,-0.2,-0.38,3.4,2.6,-9.8,36.26,,,,,,,,,,
15.24.04.187,443.1,110.8,0,,,76628.4,13.05,-0.81,0.22,-0.15,-6.9,21.9,9.1,35.84,,,,,,,,,,
15.24.04.198,422.4,105.6,0,,,76628.4,13.05,-0.94,-0.0,-0.35,-18.5,-1.1,-8.0,36.16,,,,,,,,,,
15.24.04.208,382.1,95.5,0,,,76628.4,13.05,-1.02,0.19,-0.22,-13.5,2.9,-21.4,36.16,,,,,,,,,,
15.24.04.217,408.4,102.1,0,,,76628.4,13.05,-1.15,-0.06,-0.2,23.9,20.5,-19.0,36.3,,,,,,,,,,
15.24.04.227,339.2,84.8,0,,,76628.4,13.05,-0.77,-0.49,-0.46,14.8,0.7,0.4,36.03,,,,,,,,,,
15.24.04.237,351.7,87.9,0,,,76628.4,13.05,-1.0,0.27,-0.24,-12.3,-0.2,14.6,35.97,,,,,,,,,,
15.24.04.246,357.8,89.4,0,,,76628.4,13.05,-0.75,-0.34,0.24,9.6,8.7,-20.6,35.94,,,,,,,,,,
15.24.04.256,293.0,73.2,0,,,76628.4,13.05,-1.15,0.01,0.11,21.6,19.5,-16.5,36.33,,,,,,,,,,
15.24.04.266,,,0,,,,,,,,,,,,,,,,,,,,,
15.24.04.273,267.2,66.8,0,,,76628.4,13.05,-0.64,0.45,-0.21,0.7,-4.4,2.6,36.09,,,,,,,,,,
15.24.04.280,199.9,50.0,0,,,76628.4,13.05,-1.19,0.12,-0.27,-1.8,34.7,-25.5,36.08,,,,,,,,,,
15.24.04.289,178.7,44.7,0,,,76628.4,13.05,-0.82,0.28,-0.2,-8.2,-22.2,-7.5,36.21,,,,,,,,,,
15.24.04.298,87.3,21.8,0,,,76628.4,13.05,-1.0,-0.15,-0.24,-19.3,38.2,-2.2,36.27,,,,,,,,,,
15.24.04.308,70.3,17.6,0,,,76628.4,13.05,-0.91,0.29,-0.39,4.2,7.7,-15.8,36.3,,,,,,,,,,
15.24.04.321,24.5,6.1,0,,,76628.4,13.05,-1.09,0.37,-0.47,38.6,-5.8,18.5,36.11,,,,,,,,,,
15.24.04.331,10.9,2.7,0,,,76628.4,13.05,-1.12,0.06,-0.49,-22.5,21.4,-1.6,36.08,,,,,,,,,,
15.24.04.340,25.1,6.3,0,,,76628.4,13.05,-0.68,0.09,0.2,-23.3,-6.7,-5.9,36.19,,,,,,,,,,
15.24.04.349,29.2,7.3,0,,,76628.4,13.05,-0.96,0.61,-0.7,13.7,3.0,-6.7,36.26,,,,,,,,,,
15.24.04.360,41.1,10.3,0,,,76628.4,13.05,-0.58,0.04,-0.14,-11.1,9.3,-0.3,35.93,,,,,,,,,,
15.24.04.370,51.7,12.9,0,,,76628.4,13.05,-0.78,-0.21,-0.25,-8.2,7.5,14.7,35.98,,,,,,,,,,
15.24.04.380,60.1,15.0,0,,,76628.4,13.05,-1.13,0.58,-0.53,20.4,1.1,-10.7,35.98,,,,,,,,,,
15.24.04.389,89.0,22.2,0,,,76628.4,13.05,-1.0,0.12,-0.34,8.2,5.2,4.1,35.76,,,,,,,,,,
15.24.04.399,77.2,19.3,0,,,76628.4,13.05,-0.66,0.06,-0.09,17.0,24.8,-13.2,36.15,,,,,,,,,,
15.24.04.407,49.4,12.4,0,,,76628.4,13.05,-1.05,-0.03,-0.04,7.4,-4.9,4.7,36.33,,,,,,,,,,
15.24.04.414,45.1,11.3,0,,,76628.4,13.05,-1.0,0.07,0.04,15.8,4.7,-0.0,36.01,,,,,,,,,,
15.24.04.424,55.0,13.8,1,7.0,99.3,76628.4,13.05,-0.46,0.04,-0.09,-0.3,-18.8,1.3,36.07,,,,,,,,,,
15.24.04.434,26.3,6.6,0,,,76628.4,13.05,-0.74,-0.09,0.1,-18.4,34.5,-4.4,36.19,,,,,,,,,,
15.24.04.444,32.6,8.2,0,,,76628.4,13.05,-0.46,0.22,-0.01,-1.3,12.8,-20.3,35.98,,,,,,,,,,
15.24.04.453,-13.8,3.4,0,,,76628.4,13.05,-0.63,0.23,-0.05,52.2,16.1,9.9,36.09,,,,,,,,,,
15.24.04.463,27.7,6.9,0,,,76628.4,13.05,-0.86,-0.36,-0.18,-4.9,8.5,16.5,36.23,,,,,,,,,,
15.24.04.476,-17.6,4.4,0,,,76628.4,13.05,-0.74,0.45,0.37,-21.5,6.3,-12.3,36.17,,,,,,,,,,
15.24.04.483,-10.7,2.7,0,,,76628.4,13.05,-1.28,-0.15,-0.22,12.1,-6.7,-9.9,36.07,,,,,,,,,,
15.24.04.492,9.5,2.4,0,,,76628.4,13.05,-0.71,-0.13,-0.12,0.6,-12.3,23.6,36.28,,,,,,,,,,
15.24.04.501,-3.6,0.9,0,,,76628.4,13.05,-1.0,-0.35,0.27,-18.0,15.1,-7.1,35.94,,,,,,,,,,
15.24.04.511,-24.0,6.0,0,,,76628.4,13.05,-0.56,-0.14,0.01,21.1,24.6,8.4,36.04,,,,,,,,,,
15.24.04.522,-28.1,7.0,0,,,76628.4,13.05,-0.69,-0.2,-0.4,-9.7,-3.8,-12.0,36.15,,,,,,,,,,
15.24.04.530,-46.2,11.6,0,,,76628.4,13.05,-0.75,0.08,-0.21,3.7,18.5,9.9,35.81,,,,,,,,,,
15.24.04.539,-44.0,11.0,0,,,76628.4,13.05,-0.81,0.13,0.1,-0.2,14.6,22.9,35.97,,,,,,,,,,
15.24.04.549,-23.5,5.9,0,,,76628.4,13.05,-0.82,-0.22,-0.15,9.4,10.3,1.8,36.24,,,,,,,,,,
15.24.04.558,-30.6,7.6,0,,,76628.4,13.05,-0.56,-0.06,-0.01,-2.7,15.2,1.5,36.02,,,,,,,,,,
15.24.04.568,-53.5,13.4,0,,,76628.4,13.05,-1.02,-0.13,0.2,6.6,-2.3,26.8,36.24,,,,,,,,,,
15.24.04.576,-34.7,8.7,0,,,76628.4,13.05,-0.9,-0.05,0.05,-9.1,6.9,2.7,36.12,,,,,,,,,,
15.24.04.587,-80.2,20.0,0,,,76628.4,13.05,-0.49,-0.39,-0.1,14.8,5.4,-13.6,36.21,,,,,,,,,,
15.24.04.596,-81.4,20.4,0,,,76628.4,13.05,-1.0,-0.34,0.19,-14.8,17.9,11.7,36.14,,,,,,,,,,
15.24.04.606,-28.4,7.1,0,,,76628.4,13.05,-0.85,-0.46,-0.07,-2.5,20.8,-9.0,36.17,,,,,,,,,,
15.24.04.614,-65.8,16.4,0,,,76628.4,13.05,-1.21,0.19,-0.73,19.0,19.8,-1.6,36.22,,,,,,,,,,
15.24.04.623,-93.4,23.4,0,,,76628.4,13.05,-0.6,0.27,0.17,7.6,1.9,4.9,36.06,,,,,,,,,,
15.24.04.633,-87.3,21.8,0,,,76628.4,13.05,-0.84,0.05,-0.26,-5.9,14.6,4.7,36.24,,,,,,,,,,
15.24.04.644,-106.0,26.5,0,,,76628.4,13.05,-0.78,-0.0,-0.39,4.4,-0.1,0.6,35.87,,,,,,,,,,
15.24.04.654,-72.8,18.2,0,,,76628.4,13.05,-0.87,-0.26,-0.11,5.5,21.7,-7.4,36.18,,,,,,,,,,
15.24.04.664,-122.5,30.6,0,,,76628.4,13.05,-0.83,-0.39,-0.27,6.5,0.9,-0.4,36.18,,,,,,,,,,
15.24.04.671,-97.0,24.2,0,,,76628.4,13.05,-1.08,-0.39,-0.67,-3.7,30.5,11.7,36.19,,,,,,,,,,
15.24.04.683,-104.8,26.2,0,,,76628.4,13.05,-0.76,0.08,-0.31,4.4,4.8,-29.0,36.02,,,,,,,,,,
15.24.04.695,-132.0,33.0,0,,,76628.4,13.05,-0.62,-0.12,-0.74,6.1,51.2,1.9,36.16,,,,,,,,,,
15.24.04.705,-142.8,35.7,0,,,76687.1,13.04,-0.55,-0.26,-0.63,-7.2,7.2,14.9,35.99,,,,,,,,,,
15.24.04.716,-127.5,31.9,0,,,76687.1,13.04,-0.7,-0.22,-0.32,-15.4,-1.5,-10.1,35.97,,,,,,,,,,
15.24.04.727,-167.5,41.9,0,,,76687.1,13.04,-0.76,-0.78,-0.62,-18.1,23.7,-5.0,35.79,,,,,,,,,,
15.24.04.736,-150.8,37.7,0,,,76687.1,13.04,-0.61,-0.11,-0.43,-20.2,-4.4,-11.4,35.93,,,,,,,,,,
15.24.04.746,-181.0,45.2,0,,,76687.1,13.04,-1.1,-0.06,-0.62,-37.9,6.2,13.0,35.94,,,,,,,,,,
15.24.04.755,-137.7,34.4,0,,,76687.1,13.04,-0.76,-0.45,-0.94,6.8,20.7,8.3,36.13,,,,,,,,,,
15.24.04.766,3.0,0.8,0,,,76687.1,13.04,-0.89,-0.08,-0.85,-0.8,17.8,-17.7,36.0,,,,,,,,,,
15.24.04.776,32.4,8.1,0,,,76687.1,13.04,-0.79,-0.07,-0.54,-31.1,20.0,7.4,35.92,,,,,,,,,,
15.24.04.787,93.5,23.4,0,,,76687.1,13.04,-1.17,-0.49,0.07,-37.3,2.8,21.4,36.23,,,,,,,,,,
15.24.04.799,180.1,45.0,0,,,76687.1,13.04,-0.89,-0.83,-0.3,7.7,26.7,12.7,36.21,,,,,,,,,,
15.24.04.809,228.8,57.2,0,,,76687.1,13.04,-0.59,-0.21,-0.71,4.6,-8.8,23.0,36.48,,,,,,,,,,
15.24.04.818,288.0,72.0,0,,,76687.1,13.04,-0.73,-0.76,-0.26,-21.7,-27.0,-5.4,35.83,,,,,,,,,,
15.24.04.828,333.4,83.4,0,,,76687.1,13.04,-0.6,-0.04,-0.27,9.0,-2.8,11.6,35.83,,,,,,,,,,
15.24.04.838,347.1,86.8,0,,,76687.1,13.04,-0.7,-0.44,-0.6,22.2,8.8,-21.8,36.38,,,,,,,,,,
15.24.04.847,369.8,92.4,0,,,76687.1,13.04,-1.2,-0.48,0.06,9.0,7.2,-5.0,36.15,,,,,,,,,,
15.24.04.858,427.4,106.8,0,,,76687.1,13.04,-0.85,0.12,-0.04,-11.5,15.7,-18.9,36.13,,,,,,,,,,
15.24.04.867,371.8,93.0,0,,,76687.1,13.04,-1.0,0.19,-0.12,26.3,22.6,0.2,35.92,,,,,,,,,,
15.24.04.876,362.6,90.6,0,,,76687.1,13.04,-0.87,-0.41,-0.31,18.4,0.1,2.0,36.08,,,,,,,,,,
15.24.04.887,384.5,96.1,0,,,76687.1,13.04,-1.05,-0.12,-0.08,-7.7,34.3,1.8,36.32,,,,,,,,,,
15.24.04.896,393.6,98.4,0,,,76687.1,13.04,-0.7,-0.47,0.03,-3.0,-2.8,-9.4,36.15,,,,,,,,,,
15.24.04.908,386.2,96.6,0,,,76687.1,13.04,-1.17,-0.58,0.23,8.8,11.0,-16.8,36.07,,,,,,,,,,
15.24.04.917,389.6,97.4,0,,,76687.1,13.04,-1.0,-0.61,0.26,7.6,29.2,7.9,36.17,,,,,,,,,,
15.24.04.928,279.4,69.8,0,,,76687.1,13.04,-0.74,-0.54,-0.32,19.4,0.2,10.0,36.14,,,,,,,,,,
15.24.04.938,323.8,81.0,0,,,76687.1,13.04,-0.69,-0.72,-0.1,43.1,-0.7,-0.2,36.08,,,,,,,,,,
15.24.04.947,290.7,72.7,0,,,76687.1,13.04,-0.83,-0.46,-0.02,-27.6,11.5,11.0,36.37,,,,,,,,,,
15.24.04.956,246.6,61.6,0,,,76687.1,13.04,-1.44,-0.41,-0.28,36.3,13.1,13.1,36.12,,,,,,,,,,
15.24.04.966,197.0,49.2,0,,,76687.1,13.04,-0.66,-0.22,0.28,-6.3,9.6,-32.8,35.71,,,,,,,,,,
15.24.04.974,137.9,34.5,0,,,76687.1,13.04,-0.96,-0.48,-0.32,7.0,-15.6,-7.7,36.31,,,,,,,,,,
15.24.04.983,137.0,34.2,0,,,76687.1,13.04,-0.64,-0.07,0.07,-5.6,-0.1,-16.8,36.25,,,,,,,,,,
15.24.04.992,61.5,15.4,0,,,76687.1,13.04,-0.82,-0.36,-0.15,7.7,22.8,-15.0,36.02,,,,,,,,,,
15.24.05.001,5.6,1.4,0,,,76687.1,13.04,-0.72,-0.24,-0.33,-8.2,-25.3,7.4,36.05,87.9,,,,,,,,,
15.24.05.010,2.1,0.5,0,,,76687.1,13.04,-0.78,0.22,-0.15,-6.5,7.3,-12.5,36.41,,,,,,,,,,
15.24.05.020,31.9,8.0,1,8.0,100.7,76687.1,13.04,-1.19,0.24,0.31,-6.0,1.2,1.5,36.2,,,,,,,,,,
15.24.05.029,46.4,11.6,0,,,76687.1,13.04,-1.17,-0.2,-0.09,-0.3,12.4,5.6,35.95,,,,,,,,,,
15.24.05.036,66.0,16.5,0,,,76687.1,13.04,-0.97,-0.43,-0.69,9.7,-2.1,-7.9,36.1,,,,,,,,,,
15.24.05.046,60.9,15.2,0,,,76687.1,13.04,-1.07,0.04,-0.52,40.9,-8.6,7.8,36.31,,,,,,,,,,
15.24.05.056,69.1,17.3,0,,,76687.1,13.04,-0.83,-0.24,-0.42,1.3,24.5,-21.1,36.08,,,,,,,,,,
15.24.05.067,92.9,23.2,0,,,76687.1,13.04,-1.14,-0.32,-0.51,-11.7,-4.8,19.1,36.45,,,,,,,,,,
15.24.05.075,52.6,13.2,0,,,76687.1,13.04,-0.98,-0.07,0.09,-11.1,-8.8,-4.6,35.83,,,,,,,,,,
15.24.05.086,43.2,10.8,0,,,76687.1,13.04,-1.31,0.04,-0.56,29.2,-3.0,-3.4,35.95,,,,,,,,,,
15.24.05.095,77.7,19.4,0,,,76687.1,13.04,-0.67,0.07,-0.21,6.7,4.0,-7.9,36.03,,,,,,,,,,
15.24.05.104,50.6,12.6,0,,,76687.1,13.04,-1.23,-0.5,-0.75,-27.5,29.7,-10.9,35.96,,,,,,,,,,
15.24.05.114,45.4,11.4,0,,,76687.1,13.04,-0.89,0.19,-0.1,-8.6,2.8,0.2,36.26,,,,,,,,,,
15.24.05.124,45.7,11.4,0,,,76687.1,13.04,-0.85,-0.32,-0.21,-2.5,-1.9,-5.9,36.03,,,,,,,,,,
15.24.05.134,12.2,3.0,0,,,76687.1,13.04,-1.08,0.24,-0.05,23.3,28.1,-36.6,36.18,,,,,,,,,,
15.24.05.145,-7.6,1.9,0,,,76687.1,13.04,-1.12,0.13,-0.57,28.6,19.6,3.9,36.01,,,,,,,,,,
15.24.05.156,-17.9,4.5,0,,,76687.1,13.04,-1.07,-0.31,-0.59,-21.6,30.3,6.5,36.19,,,,,,,,,,
15.24.05.165,-14.1,3.5,0,,,76687.1,13.04,-0.9,0.06,-0.17,32.0,8.2,-0.8,36.2,,,,,,,,,,
15.24.05.176,-8.0,2.0,0,,,76687.1,13.04,-0.95,0.17,-0.36,-4.8,-12.9,-0.1,36.15,,,,,,,,,,
15.24.05.184,1.7,0.4,0,,,76687.1,13.04,-0.84,0.07,-0.45,26.2,1.6,15.9,35.91,,,,,,,,,,
15.24.05.193,0.9,0.2,0,,,76687.1,13.04,-0.88,0.21,0.22,-17.9,10.3,3.9,35.88,,,,,,,,,,
15.24.05.202,-14.9,3.7,0,,,76687.1,13.04,-0.75,0.49,-0.48,2.8,27.3,16.2,36.25,,,,,,,,,,
15.24.05.211,-45.6,11.4,0,,,76687.1,13.04,-0.72,0.1,-0.7,-6.6,-12.7,5.6,36.12,,,,,,,,,,
15.24.05.221,-24.9,6.2,0,,,76687.1,13.04,-1.17,-0.12,0.09,-1.4,-4.0,-6.9,36.11,,,,,,,,,,
15.24.05.232,-60.9,15.2,0,,,76687.1,13.04,-0.74,-0.11,-0.25,5.3,9.0,6.0,36.21,,,,,,,,,,
15.24.05.243,-46.9,11.7,0,,,76687.1,13.04,-0.69,0.4,-0.11,-12.3,5.2,-1.6,36.23,,,,,,,,,,
15.24.05.252,-48.8,12.2,0,,,76687.1,13.04,-0.78,-0.31,-0.42,26.8,12.4,19.4,36.12,,,,,,,,,,
15.24.05.260,-45.1,11.3,0,,,76687.1,13.04,-1.17,0.16,-0.34,-11.0,20.8,-1.0,36.03,,,,,,,,,,
15.24.05.271,-61.7,15.4,0,,,76687.1,13.04,-0.76,-0.03,-0.56,32.7,36.4,-24.3,35.96,,,,,,,,,,
15.24.05.282,-85.3,21.3,0,,,76687.1,13.04,-0.91,-0.13,0.3,20.0,3.3,11.0,36.25,,,,,,,,,,
15.24.05.293,-85.7,21.4,0,,,76687.1,13.04,-0.63,0.08,0.07,2.9,12.3,1.7,36.22,,,,,,,,,,
15.24.05.302,-54.3,13.6,0,,,76687.1,13.04,-0.88,0.11,-0.34,9.3,31.6,3.4,36.25,,,,,,,,,,
15.24.05.311,-61.5,15.4,0,,,76687.1,13.04,-0.54,0.59,-0.33,19.5,0.4,6.8,35.96,,,,,,,,,,
15.24.05.323,-132.7,33.2,0,,,76687.1,13.04,-0.71,0.12,0.14,-13.3,28.4,2.3,36.0,,,,,,,,,,
15.24.05.332,-102.2,25.6,0,,,76687.1,13.04,-0.76,0.02,-0.4,-29.6,14.3,8.2,36.22,,,,,,,,,,
15.24.05.343,-139.3,34.8,0,,,76687.1,13.04,-0.8,0.55,0.44,4.6,-17.8,-3.3,36.24,,,,,,,,,,
15.24.05.354,-123.3,30.8,0,,,76687.1,13.04,-0.45,-0.23,0.31,-8.4,20.9,-10.4,36.19,,,,,,,,,,
15.24.05.363,-136.1,34.0,0,,,76687.1,13.04,-0.84,-0.08,-0.52,8.5,-9.2,-12.7,35.82,,,,,,,,,,
15.24.05.374,-151.8,38.0,0,,,76687.1,13.04,-0.54,0.2,0.25,-15.3,16.4,-10.3,35.91,,,,,,,,,,
15.24.05.383,-97.3,24.3,0,,,76687.1,13.04,-0.89,-0.18,-0.53,6.1,13.8,0.4,35.9,,,,,,,,,,
15.24.05.392,-117.2,29.3,0,,,76687.1,13.04,-0.67,-0.14,-0.4,3.6,17.8,3.2,36.14,,,,,,,,,,
15.24.05.401,-155.5,38.9,0,,,76687.1,13.04,-0.67,-0.43,-0.18,-2.5,0.6,-6.7,36.31,,,,,,,,,,
15.24.05.412,-153.0,38.2,0,,,76687.1,13.04,-0.62,0.17,0.26,-0.2,14.2,7.1,36.12,,,,,,,,,,
15.24.05.421,-150.3,37.6,0,,,76687.1,13.04,-0.74,-0.27,-0.28,23.2,1.3,10.6,36.19,,,,,,,,,,
15.24.05.430,-103.8,26.0,0,,,76687.1,13.04,-0.82,-0.23,-0.11,19.1,5.2,17.5,35.89,,,,,,,,,,
15.24.05.441,-133.4,33.4,0,,,76687.1,13.04,-0.92,0.22,-0.19,23.2,-2.6,2.3,36.37,,,,,,,,,,
15.24.05.452,29.7,7.4,0,,,76687.1,13.04,-0.79,0.23,0.37,-3.4,19.9,-2.6,35.98,,,,,,,,,,
15.24.05.459,85.3,21.3,0,,,76687.1,13.04,-0.65,-0.33,0.31,-8.7,-14.8,17.0,36.04,,,,,,,,,,
15.24.05.470,113.3,28.3,0,,,76687.1,13.04,-1.02,0.05,-0.12,23.6,2.1,-12.8,35.93,,,,,,,,,,
15.24.05.482,203.1,50.8,0,,,76687.1,13.04,-0.58,0.45,0.14,-18.1,-10.7,-21.2,36.31,,,,,,,,,,
15.24.05.493,252.8,63.2,0,,,76687.1,13.04,-0.92,-0.37,-0.11,-17.6,18.1,-3.5,35.93,,,,,,,,,,
15.24.05.504,277.1,69.3,0,,,76687.1,13.04,-0.86,-0.26,-0.42,-25.1,-11.0,7.7,35.8,,,,,,,,,,
15.24.05.513,319.7,79.9,0,,,76687.1,13.04,-0.66,-0.52,-0.33,-0.4,7.0,4.3,36.13,,,,,,,,,,
15.24.05.522,371.1,92.8,0,,,76687.1,13.04,-1.06,-0.22,-0.2,-0.5,29.0,-16.6,36.21,,,,,,,,,,
15.24.05.532,387.3,96.8,0,,,76687.1,13.04,-0.56,0.15,-0.73,-18.0,20.6,8.6,36.04,,,,,,,,,,
15.24.05.543,424.6,106.2,0,,,76687.1,13.04,-0.59,-0.21,-0.3,-12.1,-5.9,-5.1,36.35,,,,,,,,,,
15.24.05.555,456.7,114.2,0,,,76687.1,13.04,-0.9,-0.54,-0.4,-27.9,6.7,12.3,36.13,,,,,,,,,,
15.24.05.563,404.0,101.0,0,,,76687.1,13.04,-0.59,-0.21,-0.63,-10.2,10.4,-4.1,35.97,,,,,,,,,,
15.24.05.573,372.3,93.1,0,,,76687.1,13.04,-0.37,-0.43,-0.39,23.6,9.7,-30.4,36.06,,,,,,,,,,
15.24.05.581,341.5,85.4,0,,,76687.1,13.04,-1.01,-0.42,-0.81,15.5,-11.4,2.7,36.29,,,,,,,,,,
15.24.05.590,396.6,99.2,0,,,76687.1,13.04,-1.02,0.02,-0.5,10.3,-2.9,3.3,36.15,,,,,,,,,,
15.24.05.601,367.1,91.8,0,,,76687.1,13.04,-0.54,-0.48,-0.33,-18.7,31.5,-6.7,36.33,,,,,,,,,,
15.24.05.611,374.9,93.7,0,,,76687.1,13.04,-0.85,-0.32,-0.07,-27.2,11.7,-6.7,36.0,,,,,,,,,,
15.24.05.623,284.8,71.2,0,,,76687.1,13.04,-0.7,-0.23,-0.14,14.0,0.9,11.8,35.86,,,,,,,,,,
15.24.05.631,252.4,63.1,0,,,76687.1,13.04,-0.71,0.09,-0.36,-5.9,-19.7,0.8,36.25,,,,,,,,,,
15.24.05.641,230.1,57.5,1,9.0,96.6,76687.1,13.04,-0.68,-0.16,-0.62,2.8,9.6,7.7,36.17,,,,,,,,,,
15.24.05.649,152.8,38.2,0,,,76687.1,13.04,-0.93,-0.59,-0.64,12.3,6.2,4.8,36.02,,,,,,,,,,
15.24.05.661,130.9,32.7,0,,,76687.1,13.04,-0.99,-0.14,-0.15,0.3,6.2,-8.5,36.02,,,,,,,,,,
15.24.05.669,45.9,11.5,0,,,76687.1,13.04,-0.88,-0.58,-0.12,2.9,6.2,12.3,35.85,,,,,,,,,,
15.24.05.680,22.0,5.5,0,,,76687.1,13.04,-1.01,-0.32,-0.12,31.4,12.7,11.9,36.21,,,,,,,,,,
15.24.05.688,20.9,5.2,0,,,76687.1,13.04,-1.09,-0.13,-0.88,5.4,-0.9,2.4,35.86,,,,,,,,,,
15.24.05.697,5.6,1.4,0,,,76687.1,13.04,-0.88,-0.12,-0.42,-10.0,5.2,10.0,36.11,,,,,,,,,,
15.24.05.707,58.7,14.7,0,,,76687.1,13.04,-0.78,-0.67,-0.55,-43.6,9.8,15.5,36.19,,,,,,,,,,
15.24.05.716,51.2,12.8,0,,,76687.1,13.04,-0.92,-0.21,-0.13,3.7,2.7,12.2,35.65,,,,,,,,,,
15.24.05.726,93.8,23.4,0,,,76687.1,13.04,-1.25,-0.27,-0.59,-3.3,1.4,-12.9,36.32,,,,,,,,,,
15.24.05.736,86.8,21.7,0,,,76687.1,13.04,-0.89,-0.33,-0.31,1.0,13.4,7.8,35.91,,,,,,,,,,
15.24.05.747,87.2,21.8,0,,,76687.1,13.04,-1.15,-0.34,0.21,9.0,-22.9,0.5,36.17,,,,,,,,,,
15.24.05.759,62.3,15.6,0,,,76687.1,13.04,-0.78,-0.28,-0.0,-28.7,15.1,6.2,36.18,,,,,,,,,,
15.24.05.768,57.8,14.4,0,,,76687.1,13.04,-1.21,-0.25,0.32,-39.6,-8.8,20.7,36.11,,,,,,,,,,
15.24.05.780,72.4,18.1,0,,,76687.1,13.04,-0.82,-0.31,-0.45,38.3,-28.3,24.6,36.09,,,,,,,,,,
15.24.05.788,14.4,3.6,0,,,76687.1,13.04,-0.7,-0.35,-0.16,11.3,5.6,24.3,35.99,,,,,,,,,,
15.24.05.795,52.2,13.0,0,,,76687.1,13.04,-1.17,-0.45,-0.19,3.6,29.1,-13.7,36.17,,,,,,,,,,
15.24.05.804,43.9,11.0,0,,,76687.1,13.04,-0.69,-0.03,0.75,-44.4,-7.1,20.1,36.07,,,,,,,,,,
15.24.05.813,27.0,6.8,0,,,76687.1,13.04,-0.68,-0.44,-0.29,18.2,20.2,11.4,35.96,,,,,,,,,,
15.24.05.823,21.9,5.5,0,,,76687.1,13.04,-0.77,-0.14,-0.02,1.2,20.9,6.6,36.03,,,,,,,,,,
15.24.05.833,9.4,2.4,0,,,76687.1,13.04,-1.23,-0.51,0.21,-19.5,-8.3,13.2,36.14,,,,,,,,,,
15.24.05.841,-14.9,3.7,0,,,76687.1,13.04,-0.82,-0.67,0.14,13.1,20.2,4.0,36.19,,,,,,,,,,
15.24.05.852,-25.6,6.4,0,,,76687.1,13.04,-0.89,-0.91,-0.49,20.2,14.8,3.1,36.14,,,,,,,,,,
15.24.05.862,-20.7,5.2,0,,,76687.1,13.04,-1.0,-0.71,-0.17,30.2,8.8,-8.9,36.06,,,,,,,,,,
15.24.05.875,-55.8,14.0,0,,,76687.1,13.04,-0.84,-0.21,0.33,12.7,19.4,-10.7,36.19,,,,,,,,,,
15.24.05.884,-55.7,13.9,0,,,76687.1,13.04,-0.68,-0.02,0.11,4.9,-10.0,-22.1,36.17,,,,,,,,,,
15.24.05.895,-53.6,13.4,0,,,76687.1,13.04,-0.96,0.26,-0.34,25.6,-0.5,11.8,36.08,,,,,,,,,,
15.24.05.906,-59.0,14.8,0,,,76687.1,13.04,-0.85,0.02,-0.93,1.6,8.6,20.0,36.15,,,,,,,,,,
15.24.05.914,-44.3,11.1,0,,,76687.1,13.04,-0.71,0.19,-0.36,-32.7,-3.1,-5.7,36.16,,,,,,,,,,
15.24.05.923,-51.7,12.9,0,,,76687.1,13.04,-0.76,0.13,-0.29,15.5,-0.4,35.7,35.9,,,,,,,,,,
15.24.05.935,-72.5,18.1,0,,,76687.1,13.04,-0.8,-0.28,-0.47,-15.5,21.2,-19.4,36.07,,,,,,,,,,
15.24.05.944,-34.2,8.6,0,,,76687.1,13.04,-1.1,-0.11,-0.17,26.2,12.2,6.1,36.11,,,,,,,,,,
15.24.05.953,-70.4,17.6,0,,,76687.1,13.04,-1.04,0.42,-0.41,-3.2,3.9,-9.8,36.23,,,,,,,,,,
15.24.05.962,-78.7,19.7,0,,,76687.1,13.04,-0.55,0.16,-0.05,-1.3,17.7,1.7,35.91,,,,,,,,,,
15.24.05.976,-97.5,24.4,0,,,76687.1,13.04,-0.87,-0.06,-0.22,0.6,0.4,16.9,36.23,,,,,,,,,,
15.24.05.988,-72.1,18.0,0,,,76687.1,13.04,-1.46,0.42,-0.75,8.1,16.9,-2.8,36.12,,,,,,,,,,
15.24.05.997,-121.7,30.4,0,,,76687.1,13.04,-0.86,-0.32,-0.39,-21.9,7.0,-3.1,36.03,,,,,,,,,,
15.24.06.007,-104.0,26.0,0,,,76687.1,13.04,-1.02,-0.01,-0.25,15.7,9.5,3.3,36.27,,,,,,,,,,
15.24.06.019,-135.8,34.0,0,,,76687.1,13.04,-0.89,0.46,-0.45,-19.7,-5.9,-3.8,36.27,,,,,,,,,,
15.24.06.027,-133.9,33.5,0,,,76687.1,13.04,-0.88,-0.14,-0.71,10.6,-18.3,-16.2,35.91,,,,,,,,,,
15.24.06.036,-107.7,26.9,0,,,76687.1,13.04,-0.88,-0.07,0.02,-5.0,-21.8,-14.8,36.02,,,,,,,,,,
15.24.06.045,-112.3,28.1,0,,,76687.1,13.04,-1.01,-0.37,-0.12,-1.0,-15.2,-8.7,36.18,,,,,,,,,,
15.24.06.056,-177.6,44.4,0,,,76687.1,13.04,-0.74,0.08,-0.1,23.2,-6.4,10.0,36.22,,,,,,,,,,
15.24.06.064,-123.9,31.0,0,,,76687.1,13.04,-0.89,0.21,0.04,9.6,-5.7,14.4,36.21,,,,,,,,,,
15.24.06.072,-144.1,36.0,0,,,76687.1,13.04,-1.04,-0.39,-0.72,14.9,6.1,-5.6,36.18,,,,,,,,,,
15.24.06.083,-137.1,34.3,0,,,76687.1,13.04,-0.83,0.31,-0.53,-4.1,4.2,11.8,36.0,,,,,,,,,,
15.24.06.091,-162.4,40.6,0,,,76687.1,13.04,-1.17,0.26,-0.61,-14.2,18.2,18.5,36.07,,,,,,,,,,
15.24.06.100,-167.4,41.8,0,,,76687.1,13.04,-1.16,0.45,-0.32,6.0,25.2,-16.1,35.97,,,,,,,,,,
15.24.06.110,-168.7,42.2,0,,,76687.1,13.04,-1.36,0.6,0.0,-15.7,27.6,9.3,35.96,,,,,,,,,,
15.24.06.119,-173.1,43.3,0,,,76687.1,13.04,-0.96,0.39,0.51,-4.6,-19.0,2.8,35.93,,,,,,,,,,
15.24.06.128,40.2,10.0,0,,,76687.1,13.04,-0.77,-0.11,-0.3,30.0,8.9,-15.8,36.21,,,,,,,,,,
15.24.06.138,92.0,23.0,0,,,76687.1,13.04,-0.66,0.07,-0.25,14.7,9.8,-8.0,36.16,,,,,,,,,,
15.24.06.149,135.3,33.8,0,,,76687.1,13.04,-0.86,0.09,-0.62,-27.7,2.4,-14.6,35.96,,,,,,,,,,
15.24.06.160,209.2,52.3,0,,,76687.1,13.04,-1.11,0.17,0.06,-22.4,6.6,1.6,36.17,,,,,,,,,,
15.24.06.169,249.2,62.3,0,,,76687.1,13.04,-0.81,0.01,-0.33,13.5,0.3,19.0,36.31,,,,,,,,,,
15.24.06.179,242.8,60.7,0,,,76687.1,13.04,-0.59,0.15,-0.4,-11.1,-5.1,11.6,36.0,,,,,,,,,,
15.24.06.188,321.6,80.4,0,,,76687.1,13.04,-0.7,-0.16,-0.14,-16.6,19.6,20.3,36.11,,,,,,,,,,
15.24.06.196,351.5,87.9,0,,,76687.1,13.04,-0.74,0.37,0.48,-1.3,-10.5,-13.4,36.05,,,,,,,,,,
15.24.06.203,344.2,86.0,0,,,76687.1,13.04,-1.22,0.0,0.22,6.0,5.0,-8.1,36.09,,,,,,,,,,
15.24.06.211,380.0,95.0,0,,,76687.1,13.04,-0.78,0.34,0.06,51.4,10.7,-4.1,36.17,,,,,,,,,,
15.24.06.222,396.3,99.1,0,,,76687.1,13.04,-0.93,-0.73,-0.0,-7.4,-3.6,3.1,36.01,,,,,,,,,,
15.24.06.233,368.6,92.2,0,,,76687.1,13.04,-0.95,-0.02,-0.34,-4.3,19.4,24.1,36.22,,,,,,,,,,
15.24.06.245,405.6,101.4,0,,,76687.1,13.04,-0.75,0.05,0.06,17.6,-0.1,-1.7,36.3,,,,,,,,,,
15.24.06.254,423.2,105.8,0,,,76687.1,13.04,-0.74,-0.02,-0.3,13.6,4.8,18.3,36.4,,,,,,,,,,
15.24.06.265,434.3,108.6,0,,,76687.1,13.04,-0.64,0.25,-0.33,0.4,1.6,12.1,36.09,,,,,,,,,,
15.24.06.276,392.4,98.1,0,,,76687.1,13.04,-0.52,0.31,-0.1,23.8,-9.8,1.2,36.14,,,,,,,,,,
15.24.06.284,362.8,90.7,0,,,76687.1,13.04,-0.83,0.26,0.51,-7.5,2.3,-14.5,36.43,,,,,,,,,,
15.24.06.293,360.4,90.1,1,10.0,92.0,76687.1,13.04,-0.66,0.62,-0.03,10.9,-8.3,-5.7,36.07,,,,,,,,,,
15.24.06.301,321.0,80.2,0,,,76687.1,13.04,-0.93,0.25,-0.36,-5.8,26.0,3.1,36.31,,,,,,,,,,
15.24.06.311,261.0,65.2,0,,,76687.1,13.04,-0.86,0.51,0.04,3.6,3.0,-11.9,36.27,,,,,,,,,,
15.24.06.322,208.2,52.0,0,,,76687.1,13.04,-0.62,-0.41,-0.11,31.8,-7.8,-25.1,36.24,,,,,,,,,,
15.24.06.333,164.1,41.0,0,,,76687.1,13.04,-0.7,0.07,0.1,3.6,21.7,6.0,36.15,,,,,,,,,,
15.24.06.344,83.1,20.8,0,,,76687.1,13.04,-0.72,0.16,0.28,18.7,-16.2,1.7,36.13,,,,,,,,,,
15.24.06.354,30.3,7.6,0,,,76687.1,13.04,-0.37,-0.05,0.15,6.3,-0.5,-25.0,36.06,,,,,,,,,,
15.24.06.363,-2.4,0.6,0,,,76687.1,13.04,-1.07,-0.7,0.41,-2.5,7.8,-0.9,35.91,,,,,,,,,,
15.24.06.371,33.8,8.4,0,,,76687.1,13.04,-0.45,0.1,-0.3,-18.8,13.2,-8.7,36.07,,,,,,,,,,
15.24.06.382,23.4,5.8,0,,,76687.1,13.04,-0.69,-0.31,-0.4,9.7,6.2,-2.3,36.06,,,,,,,,,,
15.24.06.392,49.5,12.4,0,,,76687.1,13.04,-0.22,-0.47,-0.05,-41.5,-2.1,25.3,36.11,,,,,,,,,,
15.24.06.402,57.0,14.2,0,,,76687.1,13.04,-0.51,-0.26,-0.06,10.7,30.2,-7.5,36.05,,,,,,,,,,
15.24.06.411,70.3,17.6,0,,,76687.1,13.04,-0.96,0.13,0.05,7.4,26.0,-10.8,36.03,,,,,,,,,,
15.24.06.423,73.6,18.4,0,,,76687.1,13.04,-0.48,0.03,0.05,10.4,18.7,4.2,36.19,,,,,,,,,,
15.24.06.432,83.2,20.8,0,,,76687.1,13.04,-0.61,-0.17,0.15,-8.4,17.2,15.6,36.05,,,,,,,,,,
15.24.06.444,96.5,24.1,0,,,76746.0,13.03,-0.43,-0.43,-0.06,-0.0,-18.7,-20.3,36.1,,,,,,,,,,
15.24.06.453,48.3,12.1,0,,,76746.0,13.03,-0.52,-0.44,-0.01,6.1,15.2,3.7,36.24,,,,,,,,,,
15.24.06.463,63.3,15.8,0,,,76746.0,13.03,-0.66,-0.77,-0.24,-8.7,0.5,-19.1,36.02,,,,,,,,,,
15.24.06.473,26.6,6.6,0,,,76746.0,13.03,-0.8,0.0,0.52,9.2,-20.5,-1.4,36.01,,,,,,,,,,
15.24.06.483,21.0,5.2,0,,,76746.0,13.03,-0.94,-0.05,-0.36,-21.7,2.2,7.0,36.38,,,,,,,,,,
15.24.06.494,18.7,4.7,0,,,76746.0,13.03,-0.41,-0.19,-0.26,22.3,15.8,-12.4,36.03,,,,,,,,,,
15.24.06.503,-1.0,0.2,0,,,76746.0,13.03,-0.81,-0.38,-0.4,-30.4,20.7,4.1,36.29,,,,,,,,,,
15.24.06.516,14.5,3.6,0,,,76746.0,13.03,-0.74,-0.4,-1.07,17.5,14.9,1.7,36.17,,,,,,,,,,
15.24.06.527,-15.8,4.0,0,,,76746.0,13.03,-1.03,0.01,-0.54,3.2,3.1,-13.3,35.83,,,,,,,,,,
15.24.06.537,-43.3,10.8,0,,,76746.0,13.03,-0.57,0.32,-0.61,0.4,7.7,-3.7,36.27,,,,,,,,,,
15.24.06.548,-42.4,10.6,0,,,76746.0,13.03,-0.84,-0.65,-0.39,10.9,10.8,3.2,36.16,,,,,,,,,,
15.24.06.557,2.5,0.6,0,,,76746.0,13.03,-0.58,0.51,-0.48,-4.7,-11.0,-14.8,36.26,,,,,,,,,,
15.24.06.567,-41.7,10.4,0,,,76746.0,13.03,-0.81,-0.47,-0.37,-10.8,14.2,-15.6,36.13,,,,,,,,,,
15.24.06.576,-31.3,7.8,0,,,76746.0,13.03,-0.93,-0.72,-0.32,8.9,0.5,-12.7,36.04,,,,,,,,,,
15.24.06.587,-48.9,12.2,0,,,76746.0,13.03,-0.55,-0.51,-0.09,8.0,-0.6,7.6,36.12,,,,,,,,,,
15.24.06.595,-52.8,13.2,0,,,76746.0,13.03,-0.69,0.04,-0.09,2.3,15.2,-3.6,36.15,,,,,,,,,,
15.24.06.604,-63.0,15.8,0,,,76746.0,13.03,-0.64,-0.22,-0.47,-4.3,25.7,-21.1,36.35,,,,,,,,,,
15.24.06.614,-65.3,16.3,0,,,76746.0,13.03,-0.74,-0.32,-0.09,27.0,8.7,-6.1,36.1,,,,,,,,,,
15.24.06.624,-82.0,20.5,0,,,76746.0,13.03,-0.9,-0.22,-0.47,-17.9,13.9,10.6,36.22,,,,,,,,,,
15.24.06.632,-55.3,13.8,0,,,76746.0,13.03,-1.06,-0.4,0.16,7.7,19.8,-11.3,36.03,,,,,,,,,,
15.24.06.641,-109.7,27.4,0,,,76746.0,13.03,-1.16,-0.76,0.1,10.8,13.3,-11.4,36.23,,,,,,,,,,
15.24.06.651,-114.7,28.7,0,,,76746.0,13.03,-1.01,-0.35,-0.21,-4.0,15.8,-4.8,36.31,,,,,,,,,,
15.24.06.659,-92.7,23.2,0,,,76746.0,13.03,-0.9,-0.45,-0.12,-17.9,1.8,7.6,36.18,,,,,,,,,,
15.24.06.669,-116.1,29.0,0,,,76746.0,13.03,-0.69,-0.4,-0.34,-15.7,-13.7,11.3,35.81,,,,,,,,,,
15.24.06.680,-90.7,22.7,0,,,76746.0,13.03,-0.92,-0.04,-0.91,15.0,-20.9,-4.5,36.24,,,,,,,,,,
15.24.06.688,-88.7,22.2,0,,,76746.0,13.03,-0.84,-0.37,-0.34,-17.4,1.9,3.8,36.08,,,,,,,,,,
15.24.06.698,-135.4,33.8,0,,,76746.0,13.03,-0.83,-0.52,-0.2,19.6,9.4,17.6,36.24,,,,,,,,,,
15.24.06.707,-123.9,31.0,0,,,76746.0,13.03,-1.08,-0.1,0.2,-1.8,10.2,7.4,36.2,,,,,,,,,,
15.24.06.717,-103.3,25.8,0,,,76746.0,13.03,-0.79,-0.15,-0.07,-11.1,6.0,-3.2,36.2,,,,,,,,,,
15.24.06.728,-129.6,32.4,0,,,76746.0,13.03,-1.3,-0.44,-0.39,-9.0,3.4,3.0,36.13,,,,,,,,,,
15.24.06.738,-151.6,37.9,0,,,76746.0,13.03,-0.95,-0.71,0.03,7.6,5.4,4.3,36.04,,,,,,,,,,
15.24.06.748,-146.9,36.7,0,,,76746.0,13.03,-1.14,-0.09,-0.13,-10.5,12.6,9.1,35.84,,,,,,,,,,
15.24.06.758,-148.4,37.1,0,,,76746.0,13.03,-0.43,-0.5,-0.25,19.9,12.1,-8.3,36.15,,,,,,,,,,
15.24.06.766,-150.6,37.6,0,,,76746.0,13.03,-0.84,-0.29,-0.2,23.8,14.2,5.0,35.94,,,,,,,,,,
15.24.06.777,-125.5,31.4,0,,,76746.0,13.03,-0.81,0.29,-0.16,-6.1,7.2,-3.8,36.21,,,,,,,,,,
15.24.06.786,-183.2,45.8,0,,,76746.0,13.03,-0.72,0.07,-0.07,-27.0,-15.3,5.4,36.02,,,,,,,,,,
15.24.06.796,-125.2,31.3,0,,,76746.0,13.03,-1.04,-0.11,0.08,7.5,-25.0,-4.7,36.03,,,,,,,,,,
15.24.06.808,59.9,15.0,0,,,76746.0,13.03,-0.75,-0.24,0.21,32.6,38.0,18.0,35.88,,,,,,,,,,
15.24.06.819,84.4,21.1,0,,,76746.0,13.03,-0.74,-0.07,-0.06,-7.1,15.8,19.6,36.11,,,,,,,,,,
15.24.06.828,131.6,32.9,0,,,76746.0,13.03,-0.73,-0.36,-0.19,44.9,34.5,4.5,36.16,,,,,,,,,,
15.24.06.837,216.4,54.1,0,,,76746.0,13.03,-1.03,-0.2,-1.06,2.8,1.8,-5.4,36.29,,,,,,,,,,
15.24.06.847,213.5,53.4,0,,,76746.0,13.03,-0.84,0.0,-0.3,-28.7,15.1,-2.7,36.16,,,,,,,,,,
15.24.06.856,265.3,66.3,0,,,76746.0,13.03,-0.89,-0.31,-0.55,9.5,-6.0,7.2,36.08,,,,,,,,,,
15.24.06.865,291.0,72.8,0,,,76746.0,13.03,-1.14,-0.1,-0.31,-25.1,-4.1,-9.7,36.26,,,,,,,,,,
15.24.06.873,302.0,75.5,0,,,76746.0,13.03,-0.96,0.44,-0.24,16.6,22.2,-15.3,35.95,,,,,,,,,,
15.24.06.883,321.1,80.3,0,,,76746.0,13.03,-0.93,0.16,-0.22,6.5,1.6,-3.9,36.24,,,,,,,,,,
15.24.06.894,418.5,104.6,0,,,76746.0,13.03,-0.69,-0.2,-0.31,14.4,8.4,4.9,36.16,,,,,,,,,,
15.24.06.903,401.6,100.4,0,,,76746.0,13.03,-0.66,-0.52,-0.26,-23.7,34.6,5.1,36.1,,,,,,,,,,
15.24.06.911,404.5,101.1,0,,,76746.0,13.03,-0.94,0.07,-0.65,19.4,28.7,-3.4,36.13,,,,,,,,,,
15.24.06.921,400.3,100.1,1,11.0,95.5,76746.0,13.03,-0.84,0.04,-0.58,-36.2,4.9,10.8,36.32,,,,,,,,,,
15.24.06.931,420.7,105.2,0,,,76746.0,13.03,-1.02,0.16,-0.62,17.1,22.0,7.2,36.18,,,,,,,,,,
15.24.06.941,401.2,100.3,0,,,76746.0,13.03,-0.91,0.15,-0.05,-18.5,-11.8,18.0,36.24,,,,,,,,,,
15.24.06.952,423.8,106.0,0,,,76746.0,13.03,-0.94,0.02,-0.81,6.9,7.2,-1.9,36.39,,,,,,,,,,
15.24.06.962,326.7,81.7,0,,,76746.0,13.03,-0.89,0.1,-0.39,10.5,25.6,-35.7,36.12,,,,,,,,,,
15.24.06.974,299.8,75.0,0,,,76746.0,13.03,-0.69,0.21,-0.46,-3.4,9.9,10.9,36.08,,,,,,,,,,
15.24.06.982,279.5,69.9,0,,,76746.0,13.03,-1.07,0.01,-0.34,9.9,13.8,-10.3,36.13,,,,,,,,,,
15.24.06.991,213.6,53.4,0,,,76746.0,13.03,-0.64,0.28,-0.87,-17.0,10.4,-7.3,36.0,,,,,,,,,,
15.24.07.002,172.0,43.0,0,,,76746.0,13.03,-0.84,-0.26,-0.56,19.2,5.1,-16.2,36.01,,,,,,,,,,
15.24.07.013,159.2,39.8,0,,,76746.0,13.03,-0.88,0.54,-0.59,-6.9,10.2,9.8,36.14,,,,,,,,,,
15.24.07.023,98.8,24.7,0,,,76746.0,13.03,-0.9,0.07,-0.68,18.5,-8.1,-1.4,36.1,,,,,,,,,,
15.24.07.031,61.9,15.5,0,,,76746.0,13.03,-1.14,-0.21,-0.45,8.9,-17.2,-12.9,36.15,,,,,,,,,,
15.24.07.040,0.6,0.2,0,,,76746.0,13.03,-1.07,-0.0,-0.32,-19.8,15.6,-28.9,36.09,,,,,,,,,,
15.24.07.051,26.0,6.5,0,,,76746.0,13.03,-1.15,0.07,0.14,-25.6,-15.5,-5.1,36.21,,,,,,,,,,
15.24.07.061,47.1,11.8,0,,,76746.0,13.03,-0.72,-0.03,-0.02,9.7,-18.7,-6.5,36.19,,,,,,,,,,
15.24.07.072,38.2,9.6,0,,,76746.0,13.03,-0.75,0.32,-0.05,-29.5,-17.1,-15.5,36.16,,,,,,,,,,
15.24.07.079,23.1,5.8,0,,,76746.0,13.03,-0.73,0.05,-0.63,11.8,5.1,25.4,36.19,,,,,,,,,,
15.24.07.088,83.3,20.8,0,,,76746.0,13.03,-0.78,-0.2,-0.47,-12.2,-3.8,11.1,35.85,,,,,,,,,,
15.24.07.099,66.2,16.6,0,,,76746.0,13.03,-0.64,0.08,-0.37,-5.5,-4.6,8.6,36.39,,,,,,,,,,
15.24.07.109,55.8,14.0,0,,,76746.0,13.03,-0.85,0.01,0.01,-13.1,-7.3,-24.4,36.16,,,,,,,,,,
15.24.07.119,80.4,20.1,0,,,76746.0,13.03,-0.59,0.09,-0.33,36.2,18.3,-25.6,36.08,,,,,,,,,,
15.24.07.127,96.3,24.1,0,,,76746.0,13.03,-0.85,-0.17,-0.2,21.6,26.5,-12.2,36.08,,,,,,,,,,
15.24.07.135,79.5,19.9,0,,,76746.0,13.03,-0.71,0.79,-0.2,-3.9,3.6,1.8,36.02,,,,,,,,,,
15.24.07.142,63.8,16.0,0,,,76746.0,13.03,-1.4,-0.04,-0.06,0.0,9.7,-4.1,35.96,,,,,,,,,,
15.24.07.152,41.5,10.4,0,,,76746.0,13.03,-0.65,0.84,-0.05,-28.0,7.6,-12.7,36.0,,,,,,,,,,
15.24.07.163,28.5,7.1,0,,,76746.0,13.03,-0.89,-0.14,0.2,-11.4,-3.7,15.2,36.34,,,,,,,,,,
15.24.07.173,3.5,0.9,0,,,76746.0,13.03,-0.73,-0.24,-0.15,-1.6,0.1,-0.3,36.22,,,,,,,,,,
15.24.07.185,12.7,3.2,0,,,76746.0,13.03,-0.62,0.2,0.05,19.8,3.1,-5.5,36.1,,,,,,,,,,
15.24.07.193,-30.6,7.6,0,,,76746.0,13.03,-0.41,-0.09,-0.22,23.1,-10.1,-21.9,36.09,,,,,,,,,,
15.24.07.202,-1.7,0.4,0,,,76746.0,13.03,-1.25,-0.03,-0.05,-16.6,-17.3,-15.5,36.12,,,,,,,,,,
15.24.07.211,-11.1,2.8,0,,,76746.0,13.03,-0.5,-0.07,0.02,4.2,4.1,-11.1,36.38,,,,,,,,,,
15.24.07.223,-15.9,4.0,0,,,76746.0,13.03,-0.52,0.27,-0.74,12.9,21.6,-6.5,36.11,,,,,,,,,,
15.24.07.232,-56.9,14.2,0,,,76746.0,13.03,-0.82,-0.39,-0.2,-18.8,-20.5,-13.7,36.07,,,,,,,,,,
15.24.07.243,-52.7,13.2,0,,,76746.0,13.03,-0.78,-0.36,-0.47,17.8,6.2,23.7,36.19,,,,,,,,,,
15.24.07.254,-35.1,8.8,0,,,76746.0,13.03,-0.8,0.02,-0.11,12.9,-1.4,14.3,35.96,,,,,,,,,,
15.24.07.264,-57.7,14.4,0,,,76746.0,13.03,-0.68,-0.38,0.1,3.0,13.1,0.6,36.21,,,,,,,,,,
15.24.07.274,-70.1,17.5,0,,,76746.0,13.03,-0.79,-0.09,-0.44,16.0,-1.2,-1.3,36.1,,,,,,,,,,
15.24.07.286,-53.2,13.3,0,,,76746.0,13.03,-0.79,-0.15,-0.27,-3.3,26.7,0.5,36.03,,,,,,,,,,
15.24.07.296,-67.5,16.9,0,,,76746.0,13.03,-0.87,-0.11,0.38,-13.4,9.4,-7.5,36.08,,,,,,,,,,
15.24.07.306,-61.7,15.4,0,,,76746.0,13.03,-0.51,-0.35,-0.99,1.1,-10.4,-9.6,35.93,,,,,,,,,,
15.24.07.317,-115.9,29.0,0,,,76746.0,13.03,-0.43,0.07,-0.26,-0.8,-19.5,-1.8,36.13,,,,,,,,,,
15.24.07.326,-40.1,10.0,0,,,76746.0,13.03,-0.77,-0.38,-0.51,-1.7,23.6,-24.9,35.89,,,,,,,,,,
15.24.07.337,-58.8,14.7,0,,,76746.0,13.03,-0.98,-0.2,-0.1,20.9,-14.1,3.5,36.07,,,,,,,,,,
15.24.07.345,-97.8,24.4,0,,,76746.0,13.03,-0.95,-0.39,-0.42,7.2,-6.5,-9.0,36.2,,,,,,,,,,
15.24.07.356,-117.3,29.3,0,,,76746.0,13.03,-0.73,-0.31,-0.26,29.2,-9.9,-6.0,35.89,,,,,,,,,,
15.24.07.366,-115.4,28.8,0,,,76746.0,13.03,-0.53,0.11,-0.67,1.4,42.4,-6.7,36.26,,,,,,,,,,
15.24.07.373,-107.8,27.0,0,,,76746.0,13.03,-1.03,-0.01,-0.48,-24.0,-14.3,3.3,36.14,,,,,,,,,,
15.24.07.385,-125.7,31.4,0,,,76746.0,13.03,-0.97,-0.08,-0.75,-8.3,15.0,3.0,35.94,,,,,,,,,,
15.24.07.395,-118.0,29.5,0,,,76746.0,13.03,-0.59,0.04,-0.48,31.1,-0.3,10.6,36.29,,,,,,,,,,
15.24.07.405,-101.7,25.4,0,,,76746.0,13.03,-1.0,-0.21,-0.62,-0.6,3.0,12.6,35.95,,,,,,,,,,
15.24.07.415,-128.7,32.2,0,,,76746.0,13.03,-0.73,-0.06,-0.12,24.6,15.5,-14.2,36.16,,,,,,,,,,
15.24.07.422,-123.5,30.9,0,,,76746.0,13.03,-0.45,-0.26,0.04,31.6,13.0,8.0,36.21,,,,,,,,,,
15.24.07.431,-142.4,35.6,0,,,76746.0,13.03,-0.68,-0.29,0.06,-26.3,-16.4,-4.8,36.27,,,,,,,,,,
15.24.07.440,-144.1,36.0,0,,,76746.0,13.03,-0.89,-0.54,-0.39,-16.9,-14.7,-1.6,35.98,,,,,,,,,,
15.24.07.449,-118.4,29.6,0,,,76746.0,13.03,-0.88,-0.29,-0.88,-36.3,0.7,8.1,36.13,,,,,,,,,,
15.24.07.458,-154.0,38.5,0,,,76746.0,13.03,-0.5,-0.16,-0.63,43.0,25.0,16.9,35.76,,,,,,,,,,
15.24.07.469,-133.3,33.3,0,,,76746.0,13.03,-1.21,-0.24,-0.4,-8.5,-18.0,2.8,36.19,,,,,,,,,,
15.24.07.478,-156.4,39.1,0,,,76746.0,13.03,-1.28,-0.49,-0.49,1.4,1.0,10.4,36.05,,,,,,,,,,
15.24.07.489,48.1,12.0,0,,,76746.0,13.03,-0.68,-0.4,-0.36,13.7,33.7,0.8,36.18,,,,,,,,,,
15.24.07.499,58.9,14.7,0,,,76746.0,13.03,-0.75,-0.05,0.25,22.9,-14.7,-13.9,35.94,,,,,,,,,,
15.24.07.510,136.2,34.0,0,,,76746.0,13.03,-0.69,0.14,0.38,22.1,41.5,-2.9,36.25,,,,,,,,,,
15.24.07.519,238.2,59.6,0,,,76746.0,13.03,-0.6,-0.08,0.14,5.3,-15.6,-0.2,35.85,,,,,,,,,,
15.24.07.528,217.9,54.5,0,,,76746.0,13.03,-1.2,-0.36,-0.1,10.0,-2.8,-4.6,36.16,,,,,,,,,,
15.24.07.536,233.4,58.4,1,12.0,97.6,76746.0,13.03,-0.44,-0.41,0.12,5.1,13.1,1.4,36.12,,,,,,,,,,
15.24.07.545,290.0,72.5,0,,,76746.0,13.03,-0.58,-0.44,0.14,11.3,18.9,-7.6,36.12,,,,,,,,,,
15.24.07.555,318.5,79.6,0,,,76746.0,13.03,-0.88,-0.2,0.16,-0.8,29.8,3.3,36.16,,,,,,,,,,
15.24.07.565,337.5,84.4,0,,,76746.0,13.03,-0.65,-0.74,-0.05,16.5,18.9,-8.8,36.36,,,,,,,,,,
15.24.07.573,420.0,105.0,0,,,76746.0,13.03,-0.78,-0.05,0.43,-4.4,12.4,-17.7,36.38,,,,,,,,,,
15.24.07.583,402.8,100.7,0,,,76746.0,13.03,-1.07,-0.5,0.05,-11.2,11.7,-0.5,36.0,,,,,,,,,,
15.24.07.591,462.7,115.7,0,,,76746.0,13.03,-0.84,-0.17,-0.37,35.7,0.1,11.4,36.22,,,,,,,,,,
15.24.07.599,442.8,110.7,0,,,76746.0,13.03,-1.24,-0.14,-0.32,-20.0,7.9,-3.4,36.0,,,,,,,,,,
15.24.07.607,402.3,100.6,0,,,76746.0,13.03,-0.87,-0.34,-0.39,16.8,-2.7,16.3,36.08,,,,,,,,,,
15.24.07.617,414.6,103.6,0,,,76746.0,13.03,-0.95,-0.29,0.28,-28.3,13.2,8.1,36.04,,,,,,,,,,
15.24.07.628,400.6,100.2,0,,,76746.0,13.03,-0.81,-0.11,-0.16,26.3,-1.4,-3.7,36.39,,,,,,,,,,
15.24.07.637,352.8,88.2,0,,,76746.0,13.03,-0.91,-0.32,0.06,-4.8,4.7,0.5,35.95,,,,,,,,,,
15.24.07.648,329.9,82.5,0,,,76746.0,13.03,-0.86,-0.45,-0.16,7.2,42.5,12.6,36.05,,,,,,,,,,
15.24.07.658,310.6,77.6,0,,,76746.0,13.03,-1.1,-0.07,0.04,2.0,25.2,8.2,36.43,,,,,,,,,,
15.24.07.666,281.7,70.4,0,,,76746.0,13.03,-1.03,-0.52,-0.24,-3.3,11.7,-2.8,36.01,,,,,,,,,,
15.24.07.676,247.3,61.8,0,,,76746.0,13.03,-0.61,-0.19,-0.06,-1.4,-2.1,-15.0,36.11,,,,,,,,,,
15.24.07.687,145.7,36.4,0,,,76687.1,13.04,-1.04,0.2,-0.16,-2.8,-7.5,3.6,36.03,,,,,,,,,,
15.24.07.697,134.6,33.6,0,,,76687.1,13.04,-0.75,-0.34,-0.19,-24.8,15.0,-10.7,36.07,,,,,,,,,,
15.24.07.704,60.2,15.0,0,,,76687.1,13.04,-1.18,-0.34,-0.12,5.0,23.1,9.9,35.88,,,,,,,,,,
15.24.07.713,18.2,4.6,0,,,76687.1,13.04,-0.94,-0.05,-0.28,-18.3,-6.5,-12.1,36.23,,,,,,,,,,
15.24.07.722,23.7,5.9,0,,,76687.1,13.04,-0.84,0.19,-0.26,-21.2,-5.3,-3.4,35.95,,,,,,,,,,
15.24.07.732,65.1,16.3,0,,,76687.1,13.04,-1.27,0.22,-0.48,-15.8,5.6,-15.9,36.09,,,,,,,,,,
15.24.07.742,45.6,11.4,0,,,76687.1,13.04,-0.74,0.03,-0.21,-28.1,1.8,7.7,36.15,,,,,,,,,,
15.24.07.753,48.8,12.2,0,,,76687.1,13.04,-0.92,-0.54,0.07,1.4,-14.4,20.6,36.11,,,,,,,,,,
15.24.07.762,72.1,18.0,0,,,76687.1,13.04,-0.76,0.21,0.02,-19.8,-0.3,-13.2,36.07,,,,,,,,,,
15.24.07.771,51.6,12.9,0,,,76687.1,13.04,-0.97,-0.03,0.15,1.3,4.4,4.9,36.31,,,,,,,,,,
15.24.07.781,88.5,22.1,0,,,76687.1,13.04,-0.7,-0.35,-0.43,-9.7,12.0,-1.6,35.91,,,,,,,,,,
15.24.07.790,66.9,16.7,0,,,76687.1,13.04,-1.17,0.27,-0.51,16.3,-13.3,2.1,36.12,,,,,,,,,,
15.24.07.802,97.8,24.4,0,,,76687.1,13.04,-0.98,-0.35,-0.12,3.8,0.1,11.0,35.98,,,,,,,,,,
15.24.07.811,73.4,18.4,0,,,76687.1,13.04,-0.77,0.31,0.17,38.1,0.1,-11.2,36.15,,,,,,,,,,
15.24.07.820,29.1,7.3,0,,,76687.1,13.04,-0.79,0.1,-0.49,-6.8,19.6,8.2,36.06,,,,,,,,,,
15.24.07.829,-0.4,0.1,0,,,76687.1,13.04,-0.42,-0.04,-0.6,5.7,-0.6,9.2,36.28,,,,,,,,,,
15.24.07.840,43.1,10.8,0,,,76687.1,13.04,-0.95,-0.17,0.05,2.0,-9.5,1.1,35.81,,,,,,,,,,
15.24.07.849,,,0,,,,,,,,,,,,,,,,,,,,,
15.24.07.858,-21.2,5.3,0,,,76687.1,13.04,-0.85,-0.17,0.38,-14.1,10.1,-14.7,36.34,,,,,,,,,,
15.24.07.866,-9.2,2.3,0,,,76687.1,13.04,-0.92,0.04,-0.45,11.9,10.6,-14.7,36.1,,,,,,,,,,
15.24.07.875,-33.1,8.3,0,,,76687.1,13.04,-0.84,0.24,-0.33,-15.3,15.1,-6.3,35.98,,,,,,,,,,
15.24.07.884,-1.4,0.4,0,,,76687.1,13.04,-1.02,-0.57,-0.15,2.6,4.0,2.9,35.83,,,,,,,,,,
15.24.07.893,4.2,1.0,0,,,76687.1,13.04,-0.78,0.53,-0.05,48.3,18.4,-4.3,36.19,,,,,,,,,,
15.24.07.902,-31.0,7.8,0,,,76687.1,13.04,-0.8,0.14,0.27,-10.7,13.9,10.2,36.1,,,,,,,,,,
15.24.07.914,-1.4,0.4,0,,,76687.1,13.04,-0.69,-0.22,-0.38,8.6,-3.4,-9.6,35.96,,,,,,,,,,
15.24.07.923,-44.5,11.1,0,,,76687.1,13.04,-0.86,-0.32,0.07,13.3,12.0,-22.9,36.35,,,,,,,,,,
15.24.07.931,-76.1,19.0,0,,,76687.1,13.04,-0.67,-0.02,-0.17,4.1,8.6,-2.8,35.96,,,,,,,,,,
15.24.07.941,-61.6,15.4,0,,,76687.1,13.04,-1.24,0.05,-0.5,-20.3,-5.0,-6.2,36.09,,,,,,,,,,
15.24.07.950,-37.3,9.3,0,,,76687.1,13.04,-0.52,0.03,0.44,22.8,15.3,-10.8,36.26,,,,,,,,,,
15.24.07.961,-81.3,20.3,0,,,76687.1,13.04,-0.98,0.07,-0.41,-14.8,5.5,12.9,36.23,,,,,,,,,,
15.24.07.973,-41.5,10.4,0,,,76687.1,13.04,-0.78,0.31,-0.31,-11.9,22.7,-9.9,36.12,,,,,,,,,,
15.24.07.982,-98.5,24.6,0,,,76687.1,13.04,-0.8,0.51,-0.23,-3.3,-2.2,-16.9,36.11,,,,,,,,,,
15.24.07.992,-82.2,20.6,0,,,76687.1,13.04,-0.7,0.24,0.12,52.5,-9.9,20.9,36.06,,,,,,,,,,
15.24.08.000,-104.3,26.1,0,,,76687.1,13.04,-0.68,-0.05,-0.07,7.3,11.2,6.4,36.35,,,,,,,,,,
15.24.08.010,-132.2,33.0,0,,,76687.1,13.04,-1.09,-0.36,-0.25,-22.7,-8.9,11.1,36.19,,,,,,,,,,
15.24.08.018,-100.5,25.1,0,,,76687.1,13.04,-0.85,-0.03,0.04,-11.9,-26.5,-0.0,36.3,,,,,,,,,,
15.24.08.026,-88.2,22.0,0,,,76687.1,13.04,-0.6,0.34,-0.41,7.2,-5.9,-6.4,36.07,,,,,,,,,,
15.24.08.037,-90.5,22.6,0,,,76687.1,13.04,-0.78,-0.06,0.3,-5.9,-19.6,19.4,36.1,,,,,,,,,,
15.24.08.045,-95.5,23.9,0,,,76687.1,13.04,-0.53,-0.13,0.16,4.4,19.1,-2.2,35.91,,,,,,,,,,
15.24.08.055,-102.5,25.6,0,,,76687.1,13.04,-0.79,-0.1,0.13,-13.7,37.6,0.6,36.12,,,,,,,,,,
15.24.08.066,-119.8,30.0,0,,,76687.1,13.04,-0.72,-0.17,0.21,-9.4,-33.0,5.0,36.08,,,,,,,,,,
15.24.08.078,-128.4,32.1,0,,,76687.1,13.04,-0.82,-0.24,-0.13,3.7,-22.9,-8.6,36.15,,,,,,,,,,
15.24.08.089,-130.4,32.6,0,,,76687.1,13.04,-0.87,0.16,-0.21,-2.1,-4.6,2.3,36.31,,,,,,,,,,
15.24.08.094,-121.9,30.5,0,,,76687.1,13.04,-0.33,0.11,-0.01,-12.2,1.2,-10.6,36.27,,,,,,,,,,
15.24.08.103,-107.0,26.8,0,,,76687.1,13.04,-0.6,-0.28,-0.24,9.2,2.4,-26.7,36.27,,,,,,,,,,
15.24.08.114,-153.4,38.4,0,,,76687.1,13.04,-0.72,-0.22,-0.12,20.3,8.8,5.8,36.2,,,,,,,,,,
15.24.08.126,-164.9,41.2,0,,,76687.1,13.04,-0.18,-0.07,-0.91,-7.7,14.6,-16.5,36.24,,,,,,,,,,
15.24.08.137,-142.1,35.5,0,,,76687.1,13.04,-0.5,0.58,-0.43,4.3,-9.2,-5.6,36.19,,,,,,,,,,
15.24.08.148,-172.9,43.2,0,,,76687.1,13.04,-0.36,0.19,-0.28,-12.5,17.6,6.9,36.18,,,,,,,,,,
15.24.08.160,4.0,1.0,1,13.0,96.2,76687.1,13.04,-0.75,0.38,0.07,-9.3,25.1,-8.2,36.11,,,,,,,,,,
15.24.08.171,56.9,14.2,0,,,76687.1,13.04,-1.23,-0.03,0.07,-41.4,12.4,4.9,36.14,,,,,,,,,,
15.24.08.179,98.4,24.6,0,,,76687.1,13.04,-0.75,-0.62,-0.54,17.0,1.8,-10.0,36.0,,,,,,,,,,
15.24.08.189,172.3,43.1,0,,,76687.1,13.04,-0.91,-0.05,0.0,12.1,12.9,8.6,36.2,,,,,,,,,,
15.24.08.198,195.3,48.8,0,,,76687.1,13.04,-0.76,-0.37,-0.63,-10.4,32.8,12.4,36.18,,,,,,,,,,
15.24.08.207,238.2,59.6,0,,,76687.1,13.04,-0.79,-0.46,0.04,-33.9,-7.6,13.2,36.15,,,,,,,,,,
15.24.08.217,272.6,68.2,0,,,76687.1,13.04,-0.84,-0.43,-0.99,5.1,10.6,-8.1,36.04,,,,,,,,,,
15.24.08.226,295.3,73.8,0,,,76687.1,13.04,-0.51,0.06,-0.64,-3.1,49.2,-6.8,36.3,,,,,,,,,,
15.24.08.236,357.7,89.4,0,,,76687.1,13.04,-0.83,-0.4,-0.58,-6.7,7.7,7.7,36.16,,,,,,,,,,
15.24.08.245,378.1,94.5,0,,,76687.1,13.04,-0.68,0.08,-0.47,-11.2,-8.2,-5.0,36.14,,,,,,,,,,
15.24.08.253,354.0,88.5,0,,,76687.1,13.04,-1.2,0.3,-0.44,-9.9,-1.1,-5.5,35.88,,,,,,,,,,
15.24.08.263,326.0,81.5,0,,,76687.1,13.04,-0.8,-0.17,-0.38,10.4,7.1,-20.2,36.03,,,,,,,,,,
15.24.08.273,404.1,101.0,0,,,76687.1,13.04,-0.64,-0.17,-0.89,29.9,11.8,12.1,36.05,,,,,,,,,,
15.24.08.283,404.3,101.1,0,,,76687.1,13.04,-0.57,0.18,-0.08,-11.6,12.9,14.6,36.02,,,,,,,,,,
15.24.08.293,435.2,108.8,0,,,76687.1,13.04,-0.67,-0.41,-0.5,13.3,5.0,-32.0,36.06,,,,,,,,,,
15.24.08.303,384.9,96.2,0,,,76687.1,13.04,-0.67,-0.49,-0.59,8.5,-17.2,4.5,36.33,,,,,,,,,,
15.24.08.313,353.2,88.3,0,,,76687.1,13.04,-0.7,0.26,-0.23,30.1,-4.7,-1.8,36.19,,,,,,,,,,
15.24.08.321,346.3,86.6,0,,,76687.1,13.04,-0.9,-0.49,0.25,-11.6,-6.7,6.9,36.24,,,,,,,,,,
15.24.08.331,298.0,74.5,0,,,76687.1,13.04,-0.6,-0.43,-0.02,-12.8,9.1,-1.6,36.49,,,,,,,,,,
15.24.08.341,292.1,73.0,0,,,76687.1,13.04,-0.9,-0.01,-0.54,31.5,-10.6,-0.4,35.85,,,,,,,,,,
15.24.08.351,218.3,54.6,0,,,76687.1,13.04,-1.0,-0.3,-0.67,6.2,8.8,-10.2,35.82,,,,,,,,,,
15.24.08.360,191.0,47.8,0,,,76687.1,13.04,-1.09,-0.27,-0.63,25.6,15.6,-11.3,36.06,,,,,,,,,,
15.24.08.371,137.6,34.4,0,,,76687.1,13.04,-0.8,-0.28,0.16,-3.4,0.1,12.7,36.35,,,,,,,,,,
15.24.08.381,84.7,21.2,0,,,76687.1,13.04,-1.24,-0.47,-0.02,3.4,2.0,6.6,35.87,,,,,,,,,,
15.24.08.388,73.2,18.3,0,,,76687.1,13.04,-0.99,-0.55,-0.27,-10.4,12.4,-11.4,36.25,,,,,,,,,,
15.24.08.397,-0.4,0.1,0,,,76687.1,13.04,-0.99,-0.37,0.18,-43.8,2.4,12.7,36.05,,,,,,,,,,
15.24.08.406,-2.5,0.6,0,,,76687.1,13.04,-1.03,-0.16,-0.22,-31.5,11.8,-8.3,36.16,,,,,,,,,,
15.24.08.416,41.8,10.4,0,,,76687.1,13.04,-1.04,-0.28,0.02,18.9,29.8,-0.5,36.27,,,,,,,,,,
15.24.08.425,38.5,9.6,0,,,76687.1,13.04,-0.92,-0.35,-0.01,-0.4,5.6,-4.4,36.24,,,,,,,,,,
15.24.08.434,57.4,14.4,0,,,76687.1,13.04,-0.67,-0.33,-0.03,-21.9,-9.0,-9.8,36.22,,,,,,,,,,
15.24.08.444,50.9,12.7,0,,,76687.1,13.04,-1.29,-0.38,-0.26,-11.9,-9.8,-19.4,36.31,,,,,,,,,,
15.24.08.453,40.9,10.2,0,,,76687.1,13.04,-0.99,0.05,-0.31,26.5,19.5,0.5,36.07,,,,,,,,,,
15.24.08.463,85.2,21.3,0,,,76628.4,13.05,-1.04,-0.11,-0.23,4.7,-22.7,-3.4,36.13,,,,,,,,,,
15.24.08.472,73.8,18.4,0,,,76628.4,13.05,-0.88,-0.26,0.26,35.9,15.1,5.0,36.05,,,,,,,,,,
15.24.08.483,72.4,18.1,0,,,76628.4,13.05,-0.45,0.06,-0.17,10.0,6.4,-5.9,35.97,,,,,,,,,,
15.24.08.491,86.4,21.6,0,,,76628.4,13.05,-0.98,0.19,-0.23,18.6,26.7,3.1,36.08,,,,,,,,,,
15.24.08.501,38.3,9.6,0,,,76628.4,13.05,-1.21,0.32,-0.43,17.8,12.9,-7.8,36.15,,,,,,,,,,
15.24.08.510,26.4,6.6,0,,,76628.4,13.05,-0.81,-0.35,0.24,27.4,-5.4,9.2,36.32,,,,,,,,,,
15.24.08.520,4.1,1.0,0,,,76628.4,13.05,-1.13,-0.25,-0.12,10.1,9.8,2.9,35.99,,,,,,,,,,
15.24.08.531,15.4,3.8,0,,,76628.4,13.05,-1.0,-0.69,0.35,-7.8,32.7,7.5,36.06,,,,,,,,,,
15.24.08.541,-27.1,6.8,0,,,76628.4,13.05,-0.82,-0.43,0.26,-0.1,-20.9,15.9,36.33,,,,,,,,,,
15.24.08.549,-30.2,7.6,0,,,76628.4,13.05,-1.0,-0.53,-0.43,30.2,-4.5,-7.4,35.98,,,,,,,,,,
15.24.08.558,-14.4,3.6,0,,,76628.4,13.05,-0.81,-0.13,-0.01,15.4,-0.4,13.3,36.12,,,,,,,,,,
15.24.08.567,-19.9,5.0,0,,,76628.4,13.05,-1.1,-0.06,-0.57,-26.1,6.3,-10.2,36.09,,,,,,,,,,
15.24.08.577,-43.0,10.8,0,,,76628.4,13.05,-1.16,-0.1,-0.3,11.8,21.8,-17.2,36.36,,,,,,,,,,
15.24.08.587,-11.8,3.0,0,,,76628.4,13.05,-1.22,-0.07,-0.15,-8.7,1.5,-14.4,36.04,,,,,,,,,,
15.24.08.598,-30.4,7.6,0,,,76628.4,13.05,-1.15,-0.15,0.05,4.5,-4.6,-15.5,36.3,,,,,,,,,,
15.24.08.611,-69.6,17.4,0,,,76628.4,13.05,-1.36,-0.06,0.12,11.4,-3.1,-5.0,36.4,,,,,,,,,,
15.24.08.619,-73.3,18.3,0,,,76628.4,13.05,-1.14,-0.36,-0.38,0.5,17.5,7.5,36.19,,,,,,,,,,
15.24.08.631,-95.9,24.0,0,,,76628.4,13.05,-0.87,0.59,0.11,2.7,1.0,6.3,36.33,,,,,,,,,,
15.24.08.639,-67.3,16.8,0,,,76628.4,13.05,-1.05,-0.34,-0.25,33.1,8.5,1.2,35.82,,,,,,,,,,
15.24.08.649,-78.0,19.5,0,,,76628.4,13.05,-0.6,0.53,-0.26,22.4,22.2,14.0,36.27,,,,,,,,,,
15.24.08.657,-106.3,26.6,0,,,76628.4,13.05,-0.71,-0.23,-0.44,15.5,-13.4,14.4,36.12,,,,,,,,,,
15.24.08.666,-48.7,12.2,0,,,76628.4,13.05,-1.03,0.17,0.07,-8.5,18.8,-4.6,36.0,,,,,,,,,,
15.24.08.679,-70.0,17.5,0,,,76628.4,13.05,-1.38,0.0,-0.79,26.5,-3.0,6.0,36.28,,,,,,,,,,
15.24.08.687,-76.6,19.2,0,,,76628.4,13.05,-0.49,0.37,-0.65,24.4,10.1,5.1,36.12,,,,,,,,,,
15.24.08.697,-77.2,19.3,0,,,76628.4,13.05,-1.37,0.15,-0.61,-2.3,-1.5,14.0,36.0,,,,,,,,,,
15.24.08.707,-75.4,18.8,0,,,76628.4,13.05,-1.09,0.15,-0.06,24.9,14.2,2.4,36.01,,,,,,,,,,
15.24.08.718,-140.1,35.0,0,,,76628.4,13.05,-0.95,0.08,-0.37,-2.9,6.7,0.2,36.21,,,,,,,,,,
15.24.08.729,-96.1,24.0,0,,,76628.4,13.05,-0.99,-0.21,-0.08,-9.7,13.9,0.9,35.92,,,,,,,,,,
15.24.08.738,-124.7,31.2,0,,,76628.4,13.05,-0.9,-0.13,-0.49,-14.8,9.8,-5.9,36.38,,,,,,,,,,
15.24.08.748,-108.8,27.2,0,,,76628.4,13.05,-0.98,0.63,-0.58,19.8,8.8,-11.4,36.06,,,,,,,,,,
15.24.08.757,-107.6,26.9,0,,,76628.4,13.05,-0.56,0.2,-0.2,-0.2,1.8,-15.9,36.11,,,,,,,,,,
15.24.08.764,-147.1,36.8,0,,,76628.4,13.05,-0.64,0.05,-0.47,2.3,-1.9,4.5,36.14,,,,,,,,,,
15.24.08.772,-129.0,32.2,0,,,76628.4,13.05,-0.61,-0.49,-0.76,30.4,-11.9,4.4,36.29,,,,,,,,,,
15.24.08.781,-140.0,35.0,1,14.0,96.6,76628.4,13.05,-1.01,0.32,-0.05,-13.2,-25.1,9.3,36.02,,,,,,,,,,
15.24.08.791,-153.4,38.4,0,,,76628.4,13.05,-0.71,0.11,-0.11,-4.4,-2.5,1.1,36.2,,,,,,,,,,
15.24.08.799,-161.8,40.4,0,,,76628.4,13.05,-0.78,-0.03,-0.19,18.0,-20.1,12.3,36.15,,,,,,,,,,
15.24.08.809,-155.3,38.8,0,,,76628.4,13.05,-0.63,0.16,0.04,-17.3,-3.9,-2.4,36.19,,,,,,,,,,
15.24.08.817,-153.7,38.4,0,,,76628.4,13.05,-1.13,0.35,-0.59,-27.1,1.4,-18.3,36.21,,,,,,,,,,
15.24.08.828,-175.4,43.8,0,,,76628.4,13.05,-0.69,-0.07,0.39,-27.9,21.7,2.5,36.15,,,,,,,,,,
15.24.08.839,20.5,5.1,0,,,76628.4,13.05,-0.9,0.17,-0.67,10.7,3.5,-24.0,36.15,,,,,,,,,,
15.24.08.850,74.8,18.7,0,,,76628.4,13.05,-1.17,0.3,-0.49,-4.7,32.3,21.8,36.17,,,,,,,,,,
15.24.08.859,120.5,30.1,0,,,76628.4,13.05,-0.75,0.08,-0.17,-14.8,3.9,-0.7,35.88,,,,,,,,,,
15.24.08.871,153.5,38.4,0,,,76628.4,13.05,-0.8,0.05,-0.29,6.6,-1.7,-1.3,36.11,,,,,,,,,,
15.24.08.881,281.8,70.4,0,,,76628.4,13.05,-0.95,0.45,-0.07,-8.7,16.9,5.6,36.11,,,,,,,,,,
15.24.08.891,225.3,56.3,0,,,76628.4,13.05,-0.92,0.61,-0.23,-4.3,4.1,-1.9,35.99,,,,,,,,,,
15.24.08.900,308.4,77.1,0,,,76628.4,13.05,-0.71,-0.6,0.14,-1.3,15.0,9.6,36.08,,,,,,,,,,
15.24.08.912,312.3,78.1,0,,,76628.4,13.05,-0.65,-0.53,-0.1,-52.1,4.9,-9.5,35.98,,36.11,,,,,,,,
15.24.08.922,342.9,85.7,0,,,76628.4,13.05,-0.91,0.19,0.05,13.9,18.3,-0.1,36.47,,,,,,,,,,
15.24.08.933,321.8,80.4,0,,,76628.4,13.05,-0.97,0.34,0.04,-1.3,7.8,-10.0,36.08,,,,,,,,,,
15.24.08.943,442.2,110.6,0,,,76628.4,13.05,-1.03,0.23,-0.42,9.9,5.9,17.9,35.93,,,,,,,,,,
15.24.08.955,365.3,91.3,0,,,76628.4,13.05,-0.97,0.4,-0.07,-1.8,-1.3,12.0,36.08,,,,,,,,,,
15.24.08.963,423.6,105.9,0,,,76628.4,13.05,-0.5,0.29,-0.02,22.9,29.0,0.7,35.84,,,,,,,,,,
15.24.08.972,415.7,103.9,0,,,76628.4,13.05,-0.88,-0.38,0.33,1.8,14.9,4.8,36.2,,,,,,,,,,
15.24.08.983,427.1,106.8,0,,,76628.4,13.05,-0.79,-0.6,-0.45,-3.7,6.9,-13.7,35.84,,,,,,,,,,
15.24.08.991,376.4,94.1,0,,,76628.4,13.05,-1.01,0.04,0.15,-1.2,-9.7,6.8,36.37,,,,,,,,,,
15.24.09.000,330.7,82.7,0,,,76628.4,13.05,-0.92,-0.12,-0.53,-7.1,-8.0,-11.6,35.82,,,,,,,,,,
15.24.09.008,264.6,66.2,0,,,76628.4,13.05,-0.74,-0.23,-0.25,-5.3,10.0,-30.0,35.95,,,,,,,,,,
15.24.09.020,283.4,70.8,0,,,76628.4,13.05,-0.67,0.16,-0.51,-12.5,4.8,4.9,36.09,,,,,,,,,,
15.24.09.030,181.1,45.3,0,,,76628.4,13.05,-0.9,-0.0,-0.09,23.3,-1.8,-3.4,36.12,,,,,,,,,,
15.24.09.040,178.0,44.5,0,,,76628.4,13.05,-0.85,0.08,-0.13,-19.8,30.5,23.9,36.22,,,,,,,,,,
15.24.09.047,164.1,41.0,0,,,76628.4,13.05,-0.85,0.23,-0.46,-0.8,-0.2,7.9,36.34,,,,,,,,,,
15.24.09.055,91.4,22.8,0,,,76628.4,13.05,-0.71,-0.36,0.28,-1.6,16.6,10.7,36.18,,,,,,,,,,
15.24.09.065,50.4,12.6,0,,,76628.4,13.05,-0.57,-0.11,-0.39,2.6,3.8,-1.5,36.29,,,,,,,,,,
15.24.09.076,-1.3,0.3,0,,,76628.4,13.05,-0.67,-0.05,-0.06,13.9,34.0,2.0,36.18,,,,,,,,,,
15.24.09.088,14.9,3.7,0,,,76628.4,13.05,-0.69,-0.02,-0.85,15.4,-1.4,7.1,35.96,,,,,,,,,,
15.24.09.096,38.5,9.6,0,,,76628.4,13.05,-0.84,0.24,-0.9,19.4,-6.3,13.6,36.13,,,,,,,,,,
15.24.09.107,47.3,11.8,0,,,76628.4,13.05,-0.67,0.02,-0.62,1.4,-2.6,5.5,36.14,,,,,,,,,,
15.24.09.117,81.3,20.3,0,,,76628.4,13.05,-0.87,-0.57,-0.57,4.3,11.6,-14.9,36.34,,,,,,,,,,
15.24.09.125,107.1,26.8,0,,,76628.4,13.05,-1.07,-0.57,-0.96,13.1,16.6,-15.0,35.85,,,,,,,,,,
15.24.09.134,69.7,17.4,0,,,76628.4,13.05,-0.62,-0.35,-0.23,17.1,8.9,-3.4,36.1,,,,,,,,,,
15.24.09.145,85.2,21.3,0,,,76628.4,13.05,-1.01,0.09,-0.48,-13.8,28.8,-10.7,35.92,,,,,,,,,,
15.24.09.155,64.2,16.0,0,,,76628.4,13.05,-0.68,-0.31,-0.45,4.0,-2.0,-2.7,36.19,,,,,,,,,,
15.24.09.164,65.0,16.2,0,,,76628.4,13.05,-1.09,-0.23,-0.27,1.1,4.8,0.6,36.1,,,,,,,,,,
15.24.09.172,53.6,13.4,0,,,76628.4,13.05,-0.83,-0.21,-0.24,-19.9,-4.3,-15.5,36.0,,,,,,,,,,
15.24.09.181,48.0,12.0,0,,,76628.4,13.05,-0.6,-0.39,-0.39,-10.2,7.6,10.9,36.01,,,,,,,,,,
15.24.09.188,12.8,3.2,0,,,76628.4,13.05,-0.63,0.09,-0.59,38.5,2.0,-12.3,36.34,,,,,,,,,,
15.24.09.200,22.7,5.7,0,,,76628.4,13.05,-1.09,-0.28,-0.46,-7.1,-10.2,-3.5,35.98,,,,,,,,,,
15.24.09.209,14.6,3.6,0,,,76628.4,13.05,-0.68,-0.65,0.2,14.5,0.5,-0.8,36.04,,,,,,,,,,
15.24.09.220,-2.1,0.5,0,,,76628.4,13.05,-0.81,-0.9,-0.0,-11.4,28.1,2.8,36.07,,,,,,,,,,
15.24.09.231,-0.3,0.1,0,,,76628.4,13.05,-0.66,-0.6,-0.39,24.6,18.5,27.0,36.03,,,,,,,,,,
15.24.09.241,-4.9,1.2,0,,,76628.4,13.05,-0.66,-0.46,0.29,20.6,-8.7,-8.7,36.12,,,,,,,,,,
15.24.09.252,-19.9,5.0,0,,,76628.4,13.05,-1.17,-0.27,-0.13,-10.6,3.3,22.9,36.23,,,,,,,,,,
15.24.09.259,-14.6,3.6,0,,,76628.4,13.05,-0.8,-0.47,-0.38,-32.2,23.4,-11.8,36.01,,,,,,,,,,
15.24.09.268,-9.3,2.3,0,,,76628.4,13.05,-0.67,0.05,-0.31,1.1,22.2,10.0,36.44,,,,,,,,,,
15.24.09.277,-46.0,11.5,0,,,76628.4,13.05,-0.52,-0.58,-0.12,16.7,-5.7,6.8,36.11,,,,,,,,,,
15.24.09.286,-55.4,13.8,0,,,76628.4,13.05,-0.81,-0.29,-0.23,-34.7,23.9,18.6,36.12,,,,,,,,,,
15.24.09.297,-40.1,10.0,0,,,76628.4,13.05,-0.79,-0.19,0.27,3.3,18.4,-22.4,35.99,,,,,,,,,,
15.24.09.305,-26.3,6.6,0,,,76628.4,13.05,-0.68,0.2,-0.11,-3.3,-11.3,16.2,36.07,,,,,,,,,,
15.24.09.314,-22.4,5.6,0,,,76628.4,13.05,-0.8,-0.44,0.27,-9.5,7.3,0.1,36.17,,,,,,,,,,
15.24.09.323,-57.2,14.3,0,,,76628.4,13.05,-0.92,-0.42,0.07,-7.7,14.7,17.4,36.01,,,,,,,,,,
15.24.09.333,-88.0,22.0,0,,,76628.4,13.05,-0.91,-0.7,-0.07,-0.6,11.7,-8.8,36.16,,,,,,,,,,
15.24.09.342,-54.1,13.5,0,,,76628.4,13.05,-1.13,-0.43,-0.32,-4.9,34.1,10.9,36.05,,,,,,,,,,
15.24.09.350,-77.1,19.3,0,,,76628.4,13.05,-0.81,-0.48,-0.1,-17.4,9.8,-19.7,35.81,,,,,,,,,,
15.24.09.360,-104.8,26.2,0,,,76628.4,13.05,-0.85,-0.19,-0.18,-17.3,2.7,-10.3,36.3,,,,,,,,,,
15.24.09.372,-105.3,26.3,0,,,76628.4,13.05,-0.89,0.08,0.02,1.5,1.5,-15.4,36.13,,,,,,,,,,
15.24.09.382,-59.9,15.0,0,,,76628.4,13.05,-0.72,0.51,-0.2,19.5,10.9,7.1,36.11,,,,,,,,,,
15.24.09.392,-123.3,30.8,1,15.0,98.2,76628.4,13.05,-1.41,-0.61,-0.22,27.2,-3.1,-18.1,36.01,,,,,,,,,,
15.24.09.401,-96.6,24.2,0,,,76628.4,13.05,-1.09,-0.7,0.09,-4.1,17.9,-1.4,35.93,,,,,,,,,,
15.24.09.412,-110.9,27.7,0,,,76628.4,13.05,-0.91,-0.38,-0.04,0.8,-1.2,-7.3,36.27,,,,,,,,,,
15.24.09.421,-133.8,33.4,0,,,76628.4,13.05,-1.1,-0.2,0.05,-30.5,32.9,11.2,36.05,,,,,,,,,,
15.24.09.428,-150.7,37.7,0,,,76628.4,13.05,-0.95,0.03,0.14,-15.7,-9.1,-4.5,36.15,,,,,,,,,,
15.24.09.437,-101.5,25.4,0,,,76628.4,13.05,-0.89,-0.29,0.31,6.9,12.8,-15.8,36.18,,,,,,,,,,
15.24.09.450,-147.1,36.8,0,,,76628.4,13.05,-0.79,-0.04,0.11,-24.8,2.7,3.0,36.18,,,,,,,,,,
15.24.09.460,-152.5,38.1,0,,,76628.4,13.05,-0.86,0.18,-0.22,15.5,39.8,10.0,36.26,,,,,,,,,,
15.24.09.468,-141.5,35.4,0,,,76628.4,13.05,-0.97,0.1,-0.02,-28.6,-0.0,0.6,36.19,,,,,,,,,,
15.24.09.476,-162.7,40.7,0,,,76628.4,13.05,-1.02,-0.02,-0.07,30.9,12.7,-18.6,36.27,,,,,,,,,,
15.24.09.486,-143.5,35.9,0,,,76628.4,13.05,-0.87,-0.77,-0.33,13.0,6.9,1.9,36.1,,,,,,,,,,
15.24.09.498,-162.9,40.7,0,,,76628.4,13.05,-0.94,-0.29,-0.04,-11.8,-19.6,18.1,36.18,,,,,,,,,,
15.24.09.508,-182.3,45.6,0,,,76628.4,13.05,-1.22,-0.5,-0.27,35.2,-11.0,9.2,35.98,,,,,,,,,,
15.24.09.516,-12.3,3.1,0,,,76628.4,13.05,-1.2,0.28,-0.54,-0.9,3.6,-8.5,36.15,,,,,,,,,,
15.24.09.525,72.4,18.1,0,,,76628.4,13.05,-0.74,-0.55,-0.82,5.7,2.5,-34.9,36.31,,,,,,,,,,
15.24.09.536,112.0,28.0,0,,,76628.4,13.05,-0.83,-0.51,-0.28,-8.0,17.8,-33.0,36.08,,,,,,,,,,
15.24.09.544,155.6,38.9,0,,,76628.4,13.05,-0.9,-0.07,-0.04,2.4,20.1,-0.6,35.78,,,,,,,,,,
15.24.09.554,208.7,52.2,0,,,76628.4,13.05,-1.15,0.13,-0.18,-10.4,-15.9,-2.5,36.26,,,,,,,,,,
15.24.09.566,278.3,69.6,0,,,76628.4,13.05,-1.07,0.12,-0.66,-4.3,-2.1,-19.1,36.11,,,,,,,,,,
15.24.09.577,327.5,81.9,0,,,76628.4,13.05,-0.72,0.27,-0.48,41.3,8.4,-10.2,36.23,,,,,,,,,,
15.24.09.588,367.4,91.8,0,,,76628.4,13.05,-1.0,0.41,-0.22,-23.8,14.7,12.9,36.06,,,,,,,,,,
15.24.09.602,339.5,84.9,0,,,76628.4,13.05,-0.9,0.15,0.03,29.1,5.9,-1.9,36.17,,,,,,,,,,
15.24.09.612,396.4,99.1,0,,,76628.4,13.05,-1.05,0.27,-0.2,-9.7,-5.8,-6.7,36.1,,,,,,,,,,
15.24.09.621,367.6,91.9,0,,,76628.4,13.05,-0.88,0.05,-0.19,29.2,-10.1,-0.4,36.25,,,,,,,,,,
15.24.09.632,431.5,107.9,0,,,76628.4,13.05,-1.2,0.23,-0.51,12.6,4.5,8.0,35.98,,,,,,,,,,
15.24.09.642,409.7,102.4,0,,,76628.4,13.05,-0.95,0.49,-0.81,-12.9,-6.7,4.8,36.04,,,,,,,,,,
15.24.09.654,412.5,103.1,0,,,76628.4,13.05,-1.12,0.04,-0.2,-3.0,23.7,-2.6,36.28,,,,,,,,,,
15.24.09.666,364.1,91.0,0,,,76628.4,13.05,-0.58,-0.39,-0.58,24.9,14.4,0.0,36.12,,,,,,,,,,
15.24.09.674,347.5,86.9,0,,,76628.4,13.05,-0.86,0.34,0.13,-20.9,4.9,-7.5,36.03,,,,,,,,,,
15.24.09.684,364.2,91.0,0,,,76628.4,13.05,-1.06,0.25,0.0,-2.9,23.2,22.1,36.1,,,,,,,,,,
15.24.09.695,276.2,69.0,0,,,76628.4,13.05,-0.97,0.0,0.03,9.3,-13.1,41.2,36.04,,,,,,,,,,
15.24.09.704,243.3,60.8,0,,,76628.4,13.05,-1.06,-0.16,-0.31,-2.1,12.8,4.8,36.2,,,,,,,,,,
15.24.09.714,206.8,51.7,0,,,76628.4,13.05,-0.99,0.11,-0.36,-21.5,-4.9,18.3,36.06,,,,,,,,,,
15.24.09.724,124.8,31.2,0,,,76628.4,13.05,-1.24,0.3,-0.72,-5.2,12.8,-17.1,36.02,,,,,,,,,,
15.24.09.734,113.3,28.3,0,,,76628.4,13.05,-0.88,0.71,-0.36,26.0,1.9,-14.4,36.06,,,,,,,,,,
15.24.09.744,42.5,10.6,0,,,76628.4,13.05,-0.67,-0.25,-0.72,34.7,21.7,-6.7,35.99,,,,,,,,,,
15.24.09.755,5.9,1.5,0,,,76628.4,13.05,-0.66,0.26,0.29,15.8,-1.3,-6.5,36.2,,,,,,,,,,
15.24.09.765,20.8,5.2,0,,,76628.4,13.05,-0.74,0.5,0.03,23.3,3.0,-6.9,35.69,,,,,,,,,,
15.24.09.774,26.1,6.5,0,,,76628.4,13.05,-1.0,0.35,-0.2,-42.2,-3.1,-5.0,36.58,,,,,,,,,,
15.24.09.783,58.2,14.6,0,,,76628.4,13.05,-1.03,-0.14,0.08,-42.4,-7.1,-7.9,36.26,,,,,,,,,,
15.24.09.792,48.0,12.0,0,,,76628.4,13.05,-0.83,-0.1,-0.17,-8.2,-6.5,-7.5,36.04,,,,,,,,,,
15.24.09.800,68.3,17.1,0,,,76628.4,13.05,-1.13,-0.23,-0.0,21.5,21.6,-7.9,36.01,,,,,,,,,,
15.24.09.809,87.6,21.9,0,,,76628.4,13.05,-0.7,0.23,-0.03,18.0,8.3,-33.3,36.0,,,,,,,,,,
15.24.09.819,96.5,24.1,0,,,76628.4,13.05,-0.72,-0.17,-0.4,-14.0,0.8,-1.2,36.01,,,,,,,,,,
15.24.09.829,58.6,14.6,0,,,76628.4,13.05,-1.07,-0.36,-0.02,17.6,9.8,-9.0,36.08,,,,,,,,,,
15.24.09.839,69.7,17.4,0,,,76628.4,13.05,-0.8,-0.22,-0.39,11.3,10.4,-10.7,35.99,,,,,,,,,,
15.24.09.848,72.6,18.2,0,,,76628.4,13.05,-0.9,-0.18,-0.13,-3.9,25.6,-8.9,36.12,,,,,,,,,,
15.24.09.860,31.2,7.8,0,,,76628.4,13.05,-1.14,0.37,0.12,11.1,13.6,-16.8,36.24,,,,,,,,,,
15.24.09.868,51.6,12.9,0,,,76628.4,13.05,-0.98,0.03,-0.47,-36.9,-9.3,-18.6,35.93,,,,,,,,,,
15.24.09.879,36.2,9.0,0,,,76628.4,13.05,-0.52,0.31,0.06,26.4,15.2,-3.6,36.19,,,,,,,,,,
15.24.09.888,17.8,4.4,0,,,76628.4,13.05,-0.71,-0.54,-0.57,-20.7,-2.9,2.0,36.0,,,,,,,,,,
15.24.09.896,1.4,0.4,0,,,76628.4,13.05,-0.99,-0.44,-0.42,-39.7,1.9,11.4,36.2,,,,,,,,,,
15.24.09.907,-1.7,0.4,0,,,76628.4,13.05,-0.71,-0.11,-0.06,-16.1,-1.9,-17.4,36.14,,,,,,,,,,
15.24.09.915,30.2,7.6,0,,,76628.4,13.05,-0.63,-0.26,-0.18,34.8,-10.1,-2.1,36.12,,,,,,,,,,
15.24.09.924,-17.3,4.3,0,,,76628.4,13.05,-0.36,-0.2,-0.21,-27.9,-0.5,8.2,36.2,,,,,,,,,,
15.24.09.935,-38.9,9.7,0,,,76628.4,13.05,-0.74,0.06,-0.01,21.4,4.7,-18.3,36.31,,,,,,,,,,
15.24.09.944,-31.6,7.9,0,,,76628.4,13.05,-0.9,0.28,-0.16,9.1,12.7,-11.0,36.21,,,,,,,,,,
15.24.09.952,-19.8,5.0,0,,,76628.4,13.05,-0.94,0.08,-0.14,-5.6,29.7,-2.8,36.05,,,,,,,,,,
15.24.09.962,-27.7,6.9,0,,,76628.4,13.05,-0.89,-0.3,-0.39,5.3,15.3,-4.5,36.22,,,,,,,,,,
15.24.09.971,-70.3,17.6,0,,,76628.4,13.05,-0.79,0.06,-0.16,-3.9,19.0,-10.7,36.05,,,,,,,,,,
15.24.09.980,-51.3,12.8,0,,,76628.4,13.05,-0.73,-0.37,-0.56,-30.1,12.5,-2.9,35.9,,,,,,,,,,
15.24.09.992,-49.3,12.3,0,,,76628.4,13.05,-0.81,-0.13,0.06,7.4,19.5,-0.6,36.02,,,,,,,,,,
15.24.10.003,-73.6,18.4,1,16.0,98.2,76628.4,13.05,-0.87,-0.06,-0.28,8.9,7.5,5.0,36.12,90.3,,,,,,,,,
15.24.10.014,-79.4,19.8,0,,,76628.4,13.05,-0.67,0.07,-0.81,-16.1,-11.5,-27.1,36.03,,,,,,,,,,
15.24.10.023,-100.4,25.1,0,,,76628.4,13.05,-0.46,-0.18,-0.39,21.9,12.6,-15.4,36.19,,,,,,,,,,
15.24.10.034,-83.2,20.8,0,,,76628.4,13.05,-0.77,-0.67,-0.56,-24.1,11.9,2.8,36.0,,,,,,,,,,
15.24.10.044,-64.0,16.0,0,,,76628.4,13.05,-0.93,-0.22,-0.83,-4.7,2.8,-33.9,36.03,,,,,,,,,,
15.24.10.053,-77.9,19.5,0,,,76628.4,13.05,-0.97,-0.43,0.19,-5.6,23.1,4.3,36.06,,,,,,,,,,
15.24.10.062,-77.3,19.3,0,,,76628.4,13.05,-0.86,-0.55,-0.24,-16.3,9.4,-5.1,36.06,,,,,,,,,,
15.24.10.073,-137.7,34.4,0,,,76628.4,13.05,-1.08,-0.25,0.17,-13.8,25.4,-3.9,36.24,,,,,,,,,,
15.24.10.081,-68.5,17.1,0,,,76628.4,13.05,-0.86,-0.33,-0.08,13.2,-14.2,0.4,36.23,,,,,,,,,,
15.24.10.092,-76.5,19.1,0,,,76628.4,13.05,-0.74,-0.45,-0.33,-5.4,19.8,-19.9,36.22,,,,,,,,,,
15.24.10.102,-97.1,24.3,0,,,76628.4,13.05,-0.42,-0.02,-0.42,5.7,26.4,-11.6,36.27,,,,,,,,,,
15.24.10.112,-135.1,33.8,0,,,76628.4,13.05,-0.52,-0.69,-0.51,-14.7,0.7,6.0,35.99,,,,,,,,,,
15.24.10.123,-149.3,37.3,0,,,76628.4,13.05,-1.21,-0.41,-0.37,31.7,-7.8,13.1,36.04,,,,,,,,,,
15.24.10.132,-157.5,39.4,0,,,76628.4,13.05,-0.77,-0.4,-0.43,16.1,2.7,3.5,35.91,,,,,,,,,,
15.24.10.141,-127.6,31.9,0,,,76628.4,13.05,-0.44,-0.88,-0.38,17.9,-7.5,1.1,36.09,,,,,,,,,,
15.24.10.150,-126.6,31.6,0,,,76628.4,13.05,-0.51,-0.39,0.16,-44.4,17.0,-5.9,36.1,,,,,,,,,,
15.24.10.160,-158.5,39.6,0,,,76628.4,13.05,-0.75,-0.46,-0.0,-12.7,5.8,-4.6,36.2,,,,,,,,,,
15.24.10.168,-138.4,34.6,0,,,76628.4,13.05,-1.02,-0.04,0.44,4.7,27.4,-5.4,36.14,,,,,,,,,,
15.24.10.179,-154.2,38.6,0,,,76628.4,13.05,-1.01,-0.38,0.04,-33.4,7.6,8.9,36.15,,,,,,,,,,
15.24.10.189,-144.7,36.2,0,,,76628.4,13.05,-0.83,-0.21,-0.38,47.6,8.5,11.9,36.09,,,,,,,,,,
15.24.10.201,46.6,11.6,0,,,76628.4,13.05,-0.73,0.08,0.33,0.4,-0.8,2.6,35.73,,,,,,,,,,
15.24.10.211,82.5,20.6,0,,,76628.4,13.05,-0.96,-0.27,-0.36,1.0,7.3,6.4,36.04,,,,,,,,,,
15.24.10.219,150.0,37.5,0,,,76628.4,13.05,-0.97,-0.48,0.43,-30.1,6.0,-19.9,35.95,,,,,,,,,,
15.24.10.228,147.5,36.9,0,,,76628.4,13.05,-1.03,0.08,0.06,-42.8,9.4,1.2,36.08,,,,,,,,,,
15.24.10.238,233.1,58.3,0,,,76628.4,13.05,-1.01,0.02,0.05,8.8,5.2,-18.1,36.11,,,,,,,,,,
15.24.10.248,296.4,74.1,0,,,76628.4,13.05,-0.91,-0.59,-0.37,13.8,33.6,4.1,36.09,,,,,,,,,,
15.24.10.258,327.0,81.8,0,,,76628.4,13.05,-1.05,-0.34,-0.24,22.4,-6.5,-2.4,36.06,,,,,,,,,,
15.24.10.270,336.7,84.2,0,,,76628.4,13.05,-0.77,-0.26,-0.18,11.0,6.6,-14.7,35.76,,,,,,,,,,
15.24.10.280,382.3,95.6,0,,,76628.4,13.05,-0.81,-0.12,-0.07,-15.3,0.2,2.6,36.29,,,,,,,,,,
15.24.10.290,364.5,91.1,0,,,76628.4,13.05,-1.12,0.1,-0.09,16.9,-10.4,-10.6,35.94,,,,,,,,,,
15.24.10.299,367.9,92.0,0,,,76628.4,13.05,-1.1,0.04,-0.27,33.6,-1.0,-37.4,36.07,,,,,,,,,,
15.24.10.309,389.4,97.4,0,,,76628.4,13.05,-1.13,0.58,-0.99,-46.9,3.8,-8.1,36.43,,,,,,,,,,
15.24.10.318,412.4,103.1,0,,,76628.4,13.05,-1.01,-0.42,0.07,23.2,7.7,-1.9,35.92,,,,,,,,,,
15.24.10.328,364.1,91.0,0,,,76628.4,13.05,-0.68,-0.17,-0.13,-24.9,20.8,5.9,36.24,,,,,,,,,,
15.24.10.340,429.4,107.4,0,,,76628.4,13.05,-1.07,-0.36,-0.05,24.1,14.0,-0.2,36.2,,,,,,,,,,
15.24.10.349,356.6,89.2,0,,,76628.4,13.05,-1.08,-0.17,0.14,-2.5,-8.1,-8.8,36.03,,,,,,,,,,
15.24.10.358,336.7,84.2,0,,,76628.4,13.05,-0.9,0.52,-0.37,18.1,1.9,-16.8,36.26,,,,,,,,,,
15.24.10.364,335.6,83.9,0,,,76628.4,13.05,-1.0,0.2,-0.34,24.1,6.3,2.4,36.32,,,,,,,,,,
15.24.10.373,287.2,71.8,0,,,76628.4,13.05,-0.63,-0.17,0.02,-32.9,-3.7,-0.9,36.23,,,,,,,,,,
15.24.10.383,257.6,64.4,0,,,76628.4,13.05,-1.21,-0.47,0.01,-24.6,-13.8,-2.3,36.14,,,,,,,,,,
15.24.10.393,198.6,49.6,0,,,76628.4,13.05,-0.86,-0.12,0.21,16.0,16.4,-7.5,35.98,,,,,,,,,,
15.24.10.404,156.3,39.1,0,,,76628.4,13.05,-1.07,-0.5,-0.43,15.2,5.6,5.5,36.09,,,,,,,,,,
15.24.10.414,129.6,32.4,0,,,76628.4,13.05,-0.95,0.05,-0.5,0.5,32.6,22.6,36.49,,,,,,,,,,
15.24.10.421,53.5,13.4,0,,,76628.4,13.05,-0.96,0.37,-0.32,-29.0,-2.6,-18.7,36.19,,,,,,,,,,
15.24.10.433,8.0,2.0,0,,,76628.4,13.05,-1.02,-0.51,-0.77,36.5,20.4,-9.2,36.02,,,,,,,,,,
15.24.10.443,5.5,1.4,0,,,76628.4,13.05,-0.82,-0.07,-0.33,15.5,12.4,5.4,36.28,,,,,,,,,,
15.24.10.452,36.5,9.1,0,,,76628.4,13.05,-1.11,-0.29,-0.47,-17.6,-2.2,7.2,36.18,,,,,,,,,,
15.24.10.461,14.2,3.6,0,,,76628.4,13.05,-1.1,0.09,-0.85,15.1,10.1,-14.2,36.17,,,,,,,,,,
15.24.10.470,40.8,10.2,0,,,76628.4,13.05,-0.77,0.25,-0.57,9.8,22.4,-2.0,35.94,,,,,,,,,,
15.24.10.479,87.2,21.8,0,,,76628.4,13.05,-0.83,0.48,0.18,13.7,24.1,-3.3,35.81,,,,,,,,,,
15.24.10.489,75.4,18.8,0,,,76628.4,13.05,-0.75,0.22,-0.58,48.9,-2.5,-1.1,36.48,,,,,,,,,,
15.24.10.499,76.2,19.0,0,,,76628.4,13.05,-0.98,-0.19,-0.59,-18.4,2.2,-12.8,36.34,,,,,,,,,,
15.24.10.510,104.9,26.2,0,,,76628.4,13.05,-0.72,-0.31,-0.43,9.5,20.5,16.9,35.89,,,,,,,,,,
15.24.10.518,43.8,11.0,0,,,76628.4,13.05,-0.78,-0.01,-0.41,-3.7,6.7,-16.0,36.24,,,,,,,,,,
15.24.10.527,79.0,19.8,0,,,76628.4,13.05,-0.74,0.1,-0.55,11.1,23.3,1.7,36.24,,,,,,,,,,
15.24.10.537,60.8,15.2,0,,,76628.4,13.05,-0.97,0.19,-0.84,-7.0,-10.8,3.8,36.06,,,,,,,,,,
15.24.10.549,6.4,1.6,0,,,76628.4,13.05,-0.87,-0.1,-0.22,15.6,10.1,-3.2,35.91,,,,,,,,,,
15.24.10.559,-12.2,3.0,0,,,76628.4,13.05,-1.06,0.25,0.41,3.1,11.3,-12.1,35.75,,,,,,,,,,
15.24.10.569,7.8,2.0,0,,,76628.4,13.05,-1.29,-0.33,-0.57,-24.9,-12.8,-5.1,36.0,,,,,,,,,,
15.24.10.579,1.0,0.2,0,,,76628.4,13.05,-0.94,0.2,-0.56,41.2,9.1,-3.9,36.29,,,,,,,,,,
15.24.10.589,-38.7,9.7,1,17.0,102.4,76628.4,13.05,-0.63,0.36,0.29,22.6,25.0,-9.2,36.11,,,,,,,,,,
15.24.10.601,-48.1,12.0,0,,,76628.4,13.05,-0.66,0.38,-0.1,-12.3,-15.0,10.8,36.23,,,,,,,,,,
15.24.10.611,-13.0,3.2,0,,,76628.4,13.05,-0.96,0.05,-1.32,5.2,7.8,-0.1,36.23,,,,,,,,,,
15.24.10.620,-17.9,4.5,0,,,76628.4,13.05,-0.76,0.03,-0.06,-13.1,7.8,7.1,36.07,,,,,,,,,,
15.24.10.630,-36.9,9.2,0,,,76628.4,13.05,-0.73,0.26,-0.65,-4.8,-0.6,-21.7,36.0,,,,,,,,,,
15.24.10.641,-24.8,6.2,0,,,76628.4,13.05,-0.81,-0.26,-0.4,9.9,15.0,-17.0,36.1,,,,,,,,,,
15.24.10.651,-33.4,8.4,0,,,76628.4,13.05,-0.7,0.12,0.13,14.0,1.9,-0.2,36.11,,,,,,,,,,
15.24.10.658,-47.2,11.8,0,,,76628.4,13.05,-0.95,0.09,-0.12,-23.5,12.4,23.3,35.93,,,,,,,,,,
15.24.10.665,-51.8,13.0,0,,,76628.4,13.05,-0.74,-0.06,0.13,10.3,27.8,4.1,35.91,,,,,,,,,,
15.24.10.676,-67.0,16.8,0,,,76628.4,13.05,-0.8,-0.09,-0.58,26.0,14.0,-8.6,36.44,,,,,,,,,,
15.24.10.684,-77.8,19.4,0,,,76628.4,13.05,-0.64,-0.07,0.24,-13.4,14.0,-1.9,36.12,,,,,,,,,,
15.24.10.694,-82.9,20.7,0,,,76628.4,13.05,-0.49,-0.17,-0.57,1.6,9.9,-16.5,36.13,,,,,,,,,,
15.24.10.702,-52.4,13.1,0,,,76628.4,13.05,-1.26,-0.34,0.22,0.5,1.4,7.3,35.97,,,,,,,,,,
15.24.10.711,-66.3,16.6,0,,,76628.4,13.05,-0.56,0.41,-0.03,11.8,-29.1,-9.8,35.94,,,,,,,,,,
15.24.10.720,-91.5,22.9,0,,,76628.4,13.05,-1.12,-0.03,-0.2,-8.7,1.8,-19.0,36.08,,,,,,,,,,
15.24.10.730,-72.0,18.0,0,,,76628.4,13.05,-0.67,0.05,0.01,-21.1,-9.2,16.8,36.03,,,,,,,,,,
15.24.10.739,-97.1,24.3,0,,,76628.4,13.05,-0.45,0.17,-0.44,-24.7,8.6,-6.4,36.08,,,,,,,,,,
15.24.10.749,-82.8,20.7,0,,,76628.4,13.05,-0.95,-0.07,0.26,14.7,15.7,0.5,36.39,,,,,,,,,,
15.24.10.759,-110.9,27.7,0,,,76628.4,13.05,-0.96,0.28,-0.05,-17.7,-1.6,-15.1,36.14,,,,,,,,,,
15.24.10.769,-81.0,20.2,0,,,76628.4,13.05,-0.69,-0.42,0.32,11.9,23.6,-8.8,36.16,,,,,,,,,,
15.24.10.777,-110.3,27.6,0,,,76628.4,13.05,-0.75,-0.24,-0.78,-33.7,5.7,3.0,35.97,,,,,,,,,,
15.24.10.787,-140.9,35.2,0,,,76628.4,13.05,-1.1,0.27,-0.24,-1.0,-10.7,20.1,36.13,,,,,,,,,,
15.24.10.797,-96.1,24.0,0,,,76628.4,13.05,-0.33,0.42,-0.49,-3.1,-10.5,-2.6,36.36,,,,,,,,,,
15.24.10.809,-94.1,23.5,0,,,76628.4,13.05,-0.89,-0.67,-0.62,28.4,-7.9,-1.3,36.16,,,,,,,,,,
15.24.10.820,-113.4,28.4,0,,,76628.4,13.05,-1.03,-0.15,-0.35,-13.9,-6.7,-4.3,36.03,,,,,,,,,,
15.24.10.830,-137.6,34.4,0,,,76628.4,13.05,-0.75,-0.28,-0.09,4.4,7.8,8.3,36.07,,,,,,,,,,
15.24.10.837,-138.2,34.6,0,,,76628.4,13.05,-0.96,-0.29,-0.1,-14.0,5.0,4.6,36.37,,,,,,,,,,
15.24.10.848,-149.4,37.4,0,,,76628.4,13.05,-0.39,-0.18,-0.11,-6.0,-7.9,2.5,36.09,,,,,,,,,,
15.24.10.857,-184.7,46.2,0,,,76628.4,13.05,-0.64,-0.43,-0.21,18.3,13.6,7.4,36.11,,,,,,,,,,
15.24.10.866,-190.4,47.6,0,,,76628.4,13.05,-0.75,-0.21,-0.82,8.5,1.3,-10.0,36.23,,,,,,,,,,
15.24.10.876,65.3,16.3,0,,,76628.4,13.05,-0.88,-0.62,-0.61,-12.6,15.7,11.2,36.26,,,,,,,,,,
15.24.10.885,76.5,19.1,0,,,76628.4,13.05,-0.72,0.08,-0.71,6.7,12.1,-11.2,35.91,,,,,,,,,,
15.24.10.896,157.1,39.3,0,,,76628.4,13.05,-0.61,-0.46,-0.18,7.1,1.5,-14.4,36.03,,,,,,,,,,
15.24.10.906,218.7,54.7,0,,,76628.4,13.05,-0.72,-0.23,-0.52,-19.5,9.4,10.4,36.08,,,,,,,,,,
15.24.10.914,225.9,56.5,0,,,76628.4,13.05,-0.56,-0.62,-0.78,19.1,31.1,-1.0,36.18,,,,,,,,,,
15.24.10.925,275.9,69.0,0,,,76628.4,13.05,-0.69,-0.16,-0.04,-4.7,30.0,2.0,35.93,,,,,,,,,,
15.24.10.936,358.1,89.5,0,,,76628.4,13.05,-0.74,-0.56,-0.11,7.5,22.6,-1.2,35.98,,,,,,,,,,
15.24.10.948,302.0,75.5,0,,,76628.4,13.05,-0.7,-0.5,0.12,-27.5,15.2,19.8,36.1,,,,,,,,,,
15.24.10.956,426.6,106.6,0,,,76628.4,13.05,-1.01,-0.12,-0.62,1.4,27.9,21.9,35.96,,,,,,,,,,
15.24.10.965,408.7,102.2,0,,,76628.4,13.05,-0.83,-0.05,-0.9,7.5,7.4,-10.5,36.02,,,,,,,,,,
15.24.10.976,386.1,96.5,0,,,76628.4,13.05,-1.17,-0.35,-0.08,27.9,-18.1,14.4,36.27,,,,,,,,,,
15.24.10.984,407.0,101.8,0,,,76628.4,13.05,-0.69,0.07,-0.16,-8.0,30.1,-16.3,35.93,,,,,,,,,,
15.24.10.998,437.9,109.5,0,,,76628.4,13.05,-0.8,-0.21,-0.25,-20.7,21.4,-25.0,36.02,,,,,,,,,,
15.24.11.008,430.9,107.7,0,,,76628.4,13.05,-0.7,-0.06,0.23,-17.8,-0.9,-2.5,36.16,,,,,,,,,,
15.24.11.018,390.0,97.5,0,,,76628.4,13.05,-0.72,-0.31,-0.16,-21.2,-2.4,-7.0,36.24,,,,,,,,,,
15.24.11.027,356.0,89.0,0,,,76628.4,13.05,-0.31,-0.18,0.07,0.5,0.3,10.2,36.02,,,,,,,,,,
15.24.11.038,364.1,91.0,0,,,76628.4,13.05,-1.01,-0.66,-0.57,-31.5,-3.1,-0.9,36.05,,,,,,,,,,
15.24.11.048,287.2,71.8,0,,,76628.4,13.05,-0.68,-0.23,-0.28,-11.1,25.0,5.0,36.08,,,,,,,,,,
15.24.11.058,259.4,64.8,0,,,76628.4,13.05,-0.94,-0.66,-0.49,8.9,24.5,-15.5,36.18,,,,,,,,,,
15.24.11.066,228.4,57.1,0,,,76628.4,13.05,-1.01,-0.08,0.21,-10.6,7.5,-17.1,36.11,,,,,,,,,,
15.24.11.074,165.7,41.4,0,,,76628.4,13.05,-1.29,-0.19,-0.35,23.8,-15.2,25.9,36.38,,,,,,,,,,
15.24.11.086,113.4,28.4,0,,,76628.4,13.05,-0.67,-0.78,-0.55,17.6,17.3,-3.7,36.03,,,,,,,,,,
15.24.11.093,72.5,18.1,0,,,76628.4,13.05,-0.97,-0.06,0.08,-1.5,9.7,-16.7,36.11,,,,,,,,,,
15.24.11.104,30.7,7.7,0,,,76628.4,13.05,-0.97,0.2,-0.15,-10.5,-5.2,-7.3,36.22,,,,,,,,,,
15.24.11.113,-0.1,0.0,0,,,76628.4,13.05,-0.64,-0.66,-0.23,14.9,9.5,7.7,36.36,,,,,,,,,,
15.24.11.123,33.9,8.5,0,,,76628.4,13.05,-1.12,0.15,0.36,2.1,10.9,11.6,36.06,,,,,,,,,,
15.24.11.133,22.2,5.6,0,,,76628.4,13.05,-0.89,-0.27,0.08,7.4,-10.4,9.0,35.94,,,,,,,,,,
15.24.11.144,67.7,16.9,0,,,76628.4,13.05,-0.75,-0.34,-0.12,13.4,-2.8,3.7,36.13,,,,,,,,,,
15.24.11.153,47.0,11.8,0,,,76628.4,13.05,-1.18,0.03,0.1,-18.6,4.6,-9.4,36.29,,,,,,,,,,
15.24.11.163,98.2,24.6,0,,,76628.4,13.05,-0.8,-0.24,0.2,13.1,21.5,-6.7,36.2,,,,,,,,,,
15.24.11.174,72.4,18.1,0,,,76628.4,13.05,-0.7,-0.31,-0.08,-19.2,21.5,0.4,36.25,,,,,,,,,,
15.24.11.187,85.3,21.3,0,,,76628.4,13.05,-1.1,-0.11,0.23,12.1,14.7,5.6,36.41,,,,,,,,,,
15.24.11.198,80.3,20.1,0,,,76628.4,13.05,-1.15,-0.08,0.05,-40.9,9.5,-5.0,36.15,,,,,,,,,,
15.24.11.206,66.6,16.6,0,,,76628.4,13.05,-0.78,-0.44,-0.28,-41.0,-7.1,-14.9,36.13,,,,,,,,,,
15.24.11.218,46.4,11.6,0,,,76628.4,13.05,-1.04,-0.47,-0.16,-9.1,3.3,-24.5,36.34,,,,,,,,,,
15.24.11.225,30.3,7.6,1,18.0,94.3,76628.4,13.05,-1.08,0.34,0.19,22.3,-6.6,-15.3,36.13,,,,,,,,,,
15.24.11.234,22.7,5.7,0,,,76628.4,13.05,-0.99,-0.5,-0.52,16.2,-1.0,-10.7,36.13,,,,,,,,,,
15.24.11.243,-20.3,5.1,0,,,76628.4,13.05,-1.06,-0.02,-0.06,15.7,7.9,2.8,35.94,,,,,,,,,,
15.24.11.253,-1.5,0.4,0,,,76628.4,13.05,-1.0,-0.11,0.32,18.9,-8.0,-6.1,36.15,,,,,,,,,,
15.24.11.264,-16.3,4.1,0,,,76628.4,13.05,-0.7,0.1,-0.65,2.7,16.8,-7.7,36.4,,,,,,,,,,
15.24.11.276,-29.4,7.4,0,,,76628.4,13.05,-0.75,-0.16,0.07,-12.5,21.7,26.3,36.32,,,,,,,,,,
15.24.11.284,-50.8,12.7,0,,,76628.4,13.05,-0.59,0.09,-0.11,-31.4,2.2,-9.6,36.33,,,,,,,,,,
15.24.11.294,6.3,1.6,0,,,76628.4,13.05,-1.32,0.12,-0.45,21.0,0.0,18.1,36.27,,,,,,,,,,
15.24.11.300,-22.3,5.6,0,,,76628.4,13.05,-1.05,-0.54,-0.56,16.1,9.7,-6.6,35.99,,,,,,,,,,
15.24.11.311,-28.5,7.1,0,,,76628.4,13.05,-1.2,0.38,0.01,12.7,26.3,11.4,36.17,,,,,,,,,,
15.24.11.322,-61.8,15.4,0,,,76628.4,13.05,-1.02,-0.24,-0.15,-7.2,18.2,11.5,36.06,,,,,,,,,,
15.24.11.330,-41.0,10.2,0,,,76628.4,13.05,-1.11,0.18,0.05,-19.7,-14.2,10.5,35.87,,,,,,,,,,
15.24.11.340,-59.3,14.8,0,,,76628.4,13.05,-1.05,0.15,-0.47,3.5,1.9,-8.4,36.2,,,,,,,,,,
15.24.11.350,-95.5,23.9,0,,,76628.4,13.05,-0.93,0.23,-0.93,-10.5,-16.7,18.2,36.32,,,,,,,,,,
15.24.11.361,-63.3,15.8,0,,,76628.4,13.05,-0.87,0.24,-0.21,-4.9,34.2,8.5,36.2,,,,,,,,,,
15.24.11.371,-71.0,17.8,0,,,76628.4,13.05,-0.84,0.01,-0.67,14.0,15.1,-7.2,36.45,,,,,,,,,,
15.24.11.379,-52.7,13.2,0,,,76628.4,13.05,-0.93,-0.15,-0.29,-16.5,16.4,6.0,35.87,,,,,,,,,,
15.24.11.390,-89.7,22.4,0,,,76628.4,13.05,-1.06,0.12,-0.36,-23.2,24.0,-18.1,36.17,,,,,,,,,,
15.24.11.399,-107.0,26.8,0,,,76628.4,13.05,-0.73,-0.04,-0.41,-12.7,2.9,5.3,36.32,,,,,,,,,,
15.24.11.407,-63.7,15.9,0,,,76628.4,13.05,-1.14,-0.3,-0.35,11.0,0.6,-8.7,36.03,,,,,,,,,,
15.24.11.418,-114.3,28.6,0,,,76628.4,13.05,-0.87,-0.18,-0.33,0.2,14.1,2.1,36.01,,,,,,,,,,
15.24.11.425,-99.9,25.0,0,,,76628.4,13.05,-0.84,0.11,-0.49,4.4,-3.4,1.9,36.02,,,,,,,,,,
15.24.11.436,-128.3,32.1,0,,,76628.4,13.05,-0.9,-0.03,-0.53,18.6,1.7,-6.5,36.24,,,,,,,,,,
15.24.11.444,-108.4,27.1,0,,,76628.4,13.05,-0.7,0.24,0.34,15.9,10.5,13.6,36.21,,,,,,,,,,
15.24.11.452,-96.8,24.2,0,,,76628.4,13.05,-0.93,0.11,-0.35,-3.0,13.2,-14.2,36.01,,,,,,,,,,
15.24.11.464,-102.6,25.6,0,,,76628.4,13.05,-0.83,0.03,0.13,-7.7,-1.0,-12.1,36.06,,,,,,,,,,
15.24.11.474,-114.6,28.6,0,,,76628.4,13.05,-0.77,0.06,0.43,25.6,6.1,5.1,36.11,,,,,,,,,,
15.24.11.482,-147.2,36.8,0,,,76628.4,13.05,-1.2,-0.34,-0.32,-4.7,-0.6,-2.9,36.22,,,,,,,,,,
15.24.11.492,-147.9,37.0,0,,,76628.4,13.05,-0.84,-0.13,0.49,12.5,20.9,-23.7,35.99,,,,,,,,,,
15.24.11.501,-138.3,34.6,0,,,76628.4,13.05,-1.06,0.37,-0.36,10.1,13.1,-17.3,35.83,,,,,,,,,,
15.24.11.511,-163.1,40.8,0,,,76628.4,13.05,-0.99,-0.0,-0.73,-2.4,10.2,-11.7,35.85,,,,,,,,,,
15.24.11.519,-163.5,40.9,0,,,76628.4,13.05,-1.14,-0.42,-0.46,-16.7,3.8,15.9,36.23,,,,,,,,,,
15.24.11.526,-147.7,36.9,0,,,76628.4,13.05,-0.31,0.39,-0.79,5.2,30.3,3.6,35.82,,,,,,,,,,
15.24.11.535,-169.2,42.3,0,,,76628.4,13.05,-0.68,0.15,0.03,-4.1,-8.2,-1.6,36.02,,,,,,,,,,
15.24.11.543,-157.0,39.2,0,,,76628.4,13.05,-0.69,0.17,0.08,-15.8,11.9,-18.2,36.01,,,,,,,,,,
15.24.11.552,6.3,1.6,0,,,76628.4,13.05,-1.02,0.34,-0.07,5.1,-2.0,-14.3,36.41,,,,,,,,,,
15.24.11.560,39.5,9.9,0,,,76628.4,13.05,-0.57,-0.16,0.11,-7.4,5.6,0.6,36.1,,,,,,,,,,
15.24.11.569,115.4,28.8,0,,,76628.4,13.05,-1.05,0.46,0.28,-4.7,12.5,12.1,36.15,,,,,,,,,,
15.24.11.579,189.3,47.3,0,,,76628.4,13.05,-0.77,-0.3,0.18,-1.8,6.2,5.0,36.24,,,,,,,,,,
15.24.11.588,218.5,54.6,0,,,76628.4,13.05,-0.57,-0.02,-0.38,20.1,5.4,-19.8,36.34,,,,,,,,,,
15.24.11.598,226.6,56.6,0,,,76628.4,13.05,-0.62,0.4,-0.23,-16.5,3.2,-8.5,36.37,,,,,,,,,,
15.24.11.607,273.8,68.4,0,,,76628.4,13.05,-0.75,-0.14,-0.31,-13.1,8.4,-13.6,36.08,,,,,,,,,,
15.24.11.614,283.1,70.8,0,,,76628.4,13.05,-0.78,0.01,-0.19,4.2,38.4,4.3,36.11,,,,,,,,,,
15.24.11.622,345.8,86.4,0,,,76628.4,13.05,-0.77,0.42,-0.41,-14.5,12.3,-22.2,36.28,,,,,,,,,,
15.24.11.632,374.9,93.7,0,,,76628.4,13.05,-0.83,0.35,-0.29,6.2,-14.6,5.3,36.3,,,,,,,,,,
15.24.11.642,383.3,95.8,0,,,76628.4,13.05,-0.58,-0.11,-0.2,29.2,-1.7,-6.8,36.43,,,,,,,,,,
15.24.11.652,413.2,103.3,0,,,76628.4,13.05,-0.42,-0.01,-0.42,24.7,-9.4,-6.3,36.22,,,,,,,,,,
15.24.11.662,430.2,107.6,0,,,76628.4,13.05,-0.83,-0.39,-0.9,3.2,5.2,-12.5,36.01,,,,,,,,,,
15.24.11.670,443.9,111.0,0,,,76628.4,13.05,-0.68,-0.25,0.41,-38.6,0.5,-3.5,36.19,,,,,,,,,,
15.24.11.680,407.5,101.9,0,,,76628.4,13.05,-0.24,0.04,-0.15,12.8,7.0,11.9,36.11,,,,,,,,,,
15.24.11.690,360.9,90.2,0,,,76628.4,13.05,-0.89,0.29,-0.32,-6.2,17.0,-0.4,36.34,,,,,,,,,,
15.24.11.699,351.6,87.9,0,,,76628.4,13.05,-0.42,-0.15,-0.48,-5.4,-2.4,-9.7,36.16,,,,,,,,,,
15.24.11.710,329.0,82.2,0,,,76628.4,13.05,-0.45,-0.4,-0.34,27.9,-11.5,12.7,36.0,,,,,,,,,,
15.24.11.719,307.4,76.8,0,,,76628.4,13.05,-0.89,-0.09,-0.16,-13.7,2.7,-8.5,36.19,,,,,,,,,,
15.24.11.729,297.7,74.4,0,,,76628.4,13.05,-0.88,-0.47,-0.79,15.5,4.5,4.4,36.16,,,,,,,,,,
15.24.11.737,225.2,56.3,0,,,76628.4,13.05,-0.81,-0.57,-0.41,12.9,16.7,-13.8,36.25,,,,,,,,,,
15.24.11.746,191.2,47.8,0,,,76628.4,13.05,-0.89,-0.41,-0.1,2.5,27.1,-16.3,36.27,,,,,,,,,,
15.24.11.758,128.6,32.2,0,,,76628.4,13.05,-0.96,0.06,-0.6,-3.2,-20.7,8.9,36.21,,,,,,,,,,
15.24.11.768,85.8,21.4,0,,,76628.4,13.05,-0.53,0.13,-0.18,-16.5,-15.1,-4.8,35.88,,,,,,,,,,
15.24.11.779,55.9,14.0,0,,,76628.4,13.05,-0.75,-0.51,-0.33,19.0,16.4,-7.9,35.81,,,,,,,,,,
15.24.11.789,15.3,3.8,0,,,76628.4,13.05,-0.93,-0.36,-0.38,7.5,13.4,-17.4,36.0,,,,,,,,,,
15.24.11.799,5.8,1.4,0,,,76628.4,13.05,-1.0,0.03,-0.67,-0.5,28.7,3.5,36.2,,,,,,,,,,
15.24.11.807,39.8,10.0,1,19.0,103.1,76628.4,13.05,-0.83,0.18,-0.97,32.7,19.7,13.9,35.93,,,,,,,,,,
15.24.11.815,51.9,13.0,0,,,76628.4,13.05,-0.67,-0.3,0.02,24.0,-9.7,19.1,36.18,,,,,,,,,,
15.24.11.823,60.0,15.0,0,,,76628.4,13.05,-0.94,-0.56,-0.31,-3.7,17.4,-6.3,36.03,,,,,,,,,,
15.24.11.833,97.4,24.4,0,,,76628.4,13.05,-0.99,-0.19,0.25,29.4,14.7,7.3,36.05,,,,,,,,,,
15.24.11.843,81.5,20.4,0,,,76628.4,13.05,-0.55,-0.28,-0.32,17.1,4.8,23.6,36.3,,,,,,,,,,
15.24.11.852,54.8,13.7,0,,,76628.4,13.05,-0.73,-0.25,-0.26,10.5,-11.2,-5.5,36.09,,,,,,,,,,
15.24.11.864,87.3,21.8,0,,,76628.4,13.05,-0.57,-0.15,-0.07,-14.4,0.9,-8.6,36.07,,,,,,,,,,
15.24.11.874,49.7,12.4,0,,,76628.4,13.05,-0.98,-0.51,-0.51,16.4,15.9,2.0,36.44,,,,,,,,,,
15.24.11.883,43.9,11.0,0,,,76628.4,13.05,-0.78,-0.32,-0.44,-14.5,11.8,3.9,36.2,,,,,,,,,,
15.24.11.893,11.4,2.8,0,,,76628.4,13.05,-0.9,0.11,-0.16,-17.7,2.2,7.5,35.94,,,,,,,,,,
15.24.11.902,44.5,11.1,0,,,76628.4,13.05,-1.17,0.04,-0.22,-12.2,2.6,0.2,36.19,,,,,,,,,,
15.24.11.911,6.8,1.7,0,,,76628.4,13.05,-1.1,-0.68,0.0,-12.9,-4.1,4.1,35.9,,,,,,,,,,
15.24.11.921,12.4,3.1,0,,,76628.4,13.05,-0.77,-0.13,-0.49,-2.3,-3.8,-7.7,36.22,,,,,,,,,,
15.24.11.932,13.1,3.3,0,,,76628.4,13.05,-1.06,-0.62,0.22,-1.1,4.7,15.0,36.16,,,,,,,,,,
15.24.11.943,-1.6,0.4,0,,,76628.4,13.05,-0.81,-0.49,0.07,-10.7,9.4,-20.0,36.27,,,,,,,,,,
15.24.11.952,-1.8,0.4,0,,,76628.4,13.05,-0.99,-0.59,-0.25,7.6,18.9,1.7,36.06,,,,,,,,,,
15.24.11.962,-5.5,1.4,0,,,76628.4,13.05,-0.9,0.11,-0.24,16.7,-2.5,-1.0,36.14,,,,,,,,,,
15.24.11.971,13.3,3.3,0,,,76628.4,13.05,-0.75,-0.04,-0.25,-15.7,4.6,11.2,36.02,,,,,,,,,,
15.24.11.979,-41.6,10.4,0,,,76628.4,13.05,-0.87,-0.23,-0.75,30.4,-17.0,-8.2,36.12,,,,,,,,,,
15.24.11.989,-19.8,5.0,0,,,76628.4,13.05,-0.86,-0.4,-0.1,25.1,24.7,6.5,36.26,,,,,,,,,,
15.24.11.996,-37.2,9.3,0,,,76628.4,13.05,-1.05,-0.14,0.52,-19.1,2.1,-0.1,35.97,,,,,,,,,,
15.24.12.007,-67.9,17.0,0,,,76628.4,13.05,-0.53,0.07,-0.74,-6.6,-8.9,-0.7,36.1,,,,,,,,,,
15.24.12.017,-36.3,9.1,0,,,76628.4,13.05,-1.07,-0.16,-0.28,-13.3,-12.7,13.7,36.25,,,,,,,,,,
15.24.12.028,-66.0,16.5,0,,,76628.4,13.05,-1.13,0.06,-0.29,18.4,3.5,-21.0,36.15,,,,,,,,,,
15.24.12.039,-67.8,17.0,0,,,76628.4,13.05,-1.32,-0.67,-0.47,-7.5,3.8,1.4,36.21,,,,,,,,,,
15.24.12.048,-49.9,12.5,0,,,76628.4,13.05,-1.02,-0.54,0.12,13.7,-6.6,-12.2,36.25,,,,,,,,,,
15.24.12.057,-74.3,18.6,0,,,76628.4,13.05,-0.92,-0.13,-0.6,-30.6,45.2,-17.0,36.19,,,,,,,,,,
15.24.12.066,-99.7,24.9,0,,,76628.4,13.05,-0.92,-0.26,-0.17,18.2,5.9,5.5,35.96,,,,,,,,,,
15.24.12.075,-44.9,11.2,0,,,76628.4,13.05,-1.03,-0.21,-0.49,2.8,-3.3,2.5,36.24,,,,,,,,,,
15.24.12.086,-113.3,28.3,0,,,76628.4,13.05,-0.94,0.02,0.35,24.0,6.6,2.3,36.34,,,,,,,,,,
15.24.12.095,-107.0,26.8,0,,,76628.4,13.05,-1.06,-0.27,-0.08,-5.2,2.9,-14.1,35.77,,,,,,,,,,
15.24.12.105,-110.2,27.6,0,,,76628.4,13.05,-1.3,-0.49,-0.17,-14.6,24.0,-3.0,36.25,,,,,,,,,,
15.24.12.114,-103.1,25.8,0,,,76628.4,13.05,-1.12,-0.7,0.14,-8.9,15.3,-20.5,35.89,,,,,,,,,,
15.24.12.125,-67.1,16.8,0,,,76628.4,13.05,-0.79,-0.24,-0.54,-17.8,-12.4,-0.1,36.18,,,,,,,,,,
15.24.12.136,-109.5,27.4,0,,,76628.4,13.05,-1.1,-0.42,-0.49,-22.7,-3.7,-2.7,36.43,,,,,,,,,,
15.24.12.147,-135.8,34.0,0,,,76628.4,13.05,-0.68,-0.36,0.06,-14.5,6.6,-2.5,36.39,,,,,,,,,,
15.24.12.158,-140.1,35.0,0,,,76628.4,13.05,-0.98,-0.45,-0.7,-6.6,29.5,-11.2,36.14,,,,,,,,,,
15.24.12.171,-124.8,31.2,0,,,76628.4,13.05,-0.83,-0.81,-0.43,-10.8,-22.3,-8.0,36.12,,,,,,,,,,
15.24.12.182,-130.6,32.6,0,,,76628.4,13.05,-1.06,-0.26,-0.24,-17.6,23.9,-6.5,36.16,,,,,,,,,,
15.24.12.192,-119.2,29.8,0,,,76628.4,13.05,-0.67,-0.25,-0.18,13.8,13.7,-0.0,35.89,,,,,,,,,,
15.24.12.202,-162.4,40.6,0,,,76628.4,13.05,-1.22,0.32,-0.42,-6.5,23.5,-13.0,35.98,,,,,,,,,,
15.24.12.212,-182.0,45.5,0,,,76628.4,13.05,-0.95,0.47,-0.52,-16.4,-14.8,7.8,36.08,,,,,,,,,,
15.24.12.221,-163.4,40.8,0,,,76628.4,13.05,-1.18,0.03,0.03,-10.3,6.2,-3.4,36.32,,,,,,,,,,
15.24.12.233,68.5,17.1,0,,,76628.4,13.05,-0.82,-0.31,-0.56,-5.9,8.0,-11.5,36.03,,,,,,,,,,
15.24.12.241,103.5,25.9,0,,,76628.4,13.05,-1.1,0.25,-0.44,-22.7,-2.9,-12.0,36.22,,,,,,,,,,
15.24.12.252,133.3,33.3,0,,,76628.4,13.05,-0.74,-0.45,-0.05,22.7,12.2,-1.2,36.03,,,,,,,,,,
15.24.12.261,211.0,52.8,0,,,76628.4,13.05,-1.12,-0.2,-0.32,42.3,29.8,-13.8,36.38,,,,,,,,,,
15.24.12.273,240.9,60.2,0,,,76628.4,13.05,-0.78,-0.74,-0.41,-8.3,-11.1,12.6,36.19,,,,,,,,,,
15.24.12.283,305.4,76.4,0,,,76628.4,13.05,-0.72,0.17,-0.37,9.2,4.1,-0.3,36.03,,,,,,,,,,
15.24.12.292,291.0,72.8,0,,,76628.4,13.05,-0.97,0.22,-0.22,0.1,-7.1,6.8,36.3,,,,,,,,,,
15.24.12.301,375.5,93.9,0,,,76628.4,13.05,-1.08,-0.26,-0.19,10.4,11.5,-8.6,35.69,,,,,,,,,,
15.24.12.312,392.6,98.2,0,,,76628.4,13.05,-1.02,0.05,-0.45,-17.9,-10.4,-3.5,36.05,,,,,,,,,,
15.24.12.321,373.4,93.4,0,,,76569.7,13.06,-1.08,0.02,-0.08,32.5,13.6,5.0,36.33,,,,,,,,,,
15.24.12.332,402.7,100.7,0,,,76569.7,13.06,-0.85,0.52,-0.33,-0.5,-7.5,3.8,36.16,,,,,,,,,,
15.24.12.343,391.3,97.8,0,,,76569.7,13.06,-0.33,0.63,0.03,-1.2,25.9,-11.7,36.07,,,,,,,,,,
15.24.12.352,389.4,97.4,0,,,76569.7,13.06,-0.68,0.26,-0.29,28.4,-7.3,0.2,36.12,,,,,,,,,,
15.24.12.363,427.4,106.8,0,,,76569.7,13.06,-0.9,-0.13,-0.14,7.8,-7.0,34.3,36.16,,,,,,,,,,
15.24.12.371,373.4,93.4,0,,,76569.7,13.06,-1.13,0.59,-0.07,6.6,23.5,-12.8,36.16,,,,,,,,,,
15.24.12.382,381.0,95.2,0,,,76569.7,13.06,-0.53,0.56,-0.23,1.3,-3.7,-18.5,36.29,,,,,,,,,,
15.24.12.390,366.3,91.6,0,,,76569.7,13.06,-0.68,-0.07,0.3,-3.9,26.0,-7.5,36.12,,,,,,,,,,
15.24.12.400,293.4,73.4,0,,,76569.7,13.06,-0.72,0.21,-0.26,-8.4,13.5,2.8,36.22,,,,,,,,,,
15.24.12.411,220.6,55.2,0,,,76569.7,13.06,-0.84,0.15,0.28,-22.7,3.0,7.2,36.09,,,,,,,,,,
15.24.12.422,181.2,45.3,1,20.0,97.6,76569.7,13.06,-0.92,-0.19,-0.12,-0.6,25.1,11.4,36.07,,,,,,,,,,
15.24.12.432,150.2,37.6,0,,,76569.7,13.06,-1.01,0.12,-0.18,3.4,0.7,1.7,35.98,,,,,,,,,,
15.24.12.441,111.6,27.9,0,,,76569.7,13.06,-0.78,-0.56,0.12,29.8,12.2,-4.9,36.14,,,,,,,,,,
15.24.12.450,17.2,4.3,0,,,76569.7,13.06,-0.72,0.38,0.11,-16.8,-1.8,12.8,36.19,,,,,,,,,,
15.24.12.459,16.8,4.2,0,,,76569.7,13.06,-0.75,-0.16,-0.44,-5.9,-13.3,5.5,36.12,,,,,,,,,,
15.24.12.467,8.1,2.0,0,,,76569.7,13.06,-0.89,-0.24,-0.06,-9.2,5.7,0.2,35.83,,,,,,,,,,
15.24.12.475,-23.6,5.9,0,,,76569.7,13.06,-0.6,-0.11,0.32,-13.9,22.3,-4.5,36.08,,,,,,,,,,
15.24.12.485,25.4,6.4,0,,,76569.7,13.06,-0.9,0.11,-0.59,11.3,-10.6,3.8,36.39,,,,,,,,,,
15.24.12.494,82.4,20.6,0,,,76569.7,13.06,-0.53,-0.06,0.46,-1.6,2.0,-12.2,35.92,,,,,,,,,,
15.24.12.504,78.4,19.6,0,,,76569.7,13.06,-0.59,-0.51,-0.17,-23.0,-1.0,8.5,36.14,,,,,,,,,,
15.24.12.517,64.3,16.1,0,,,76569.7,13.06,-0.67,-0.11,0.34,-53.9,1.9,-16.2,36.27,,,,,,,,,,
15.24.12.527,84.8,21.2,0,,,76569.7,13.06,-0.82,-0.14,-0.35,-8.5,2.8,4.4,36.21,,,,,,,,,,
15.24.12.535,68.3,17.1,0,,,76569.7,13.06,-0.55,-0.05,-0.39,-17.5,5.9,-16.7,36.28,,,,,,,,,,
15.24.12.545,37.5,9.4,0,,,76569.7,13.06,-0.5,0.11,-0.7,-31.0,9.0,-6.3,36.06,,,,,,,,,,
15.24.12.555,64.1,16.0,0,,,76569.7,13.06,-0.9,-0.16,0.42,13.3,18.9,19.5,36.1,,,,,,,,,,
15.24.12.562,87.2,21.8,0,,,76569.7,13.06,-0.61,0.12,0.34,-0.6,14.7,-5.9,36.19,,,,,,,,,,
15.24.12.570,24.3,6.1,0,,,76569.7,13.06,-0.7,-0.26,-0.23,-4.8,27.3,14.7,36.18,,,,,,,,,,
15.24.12.578,35.7,8.9,0,,,76569.7,13.06,-0.37,-0.36,-0.31,0.1,22.3,4.1,35.91,,,,,,,,,,
15.24.12.588,-0.0,0.0,0,,,76569.7,13.06,-0.88,0.17,-0.37,-20.4,31.2,-8.0,36.1,,,,,,,,,,
15.24.12.600,0.0,0.0,0,,,76569.7,13.06,-0.44,-0.29,0.12,0.6,18.9,-4.9,35.92,,,,,,,,,,
15.24.12.609,5.8,1.4,0,,,76569.7,13.06,-0.81,-0.83,-0.19,-20.4,-16.1,2.2,36.48,,,,,,,,,,
15.24.12.618,18.9,4.7,0,,,76569.7,13.06,-0.94,-0.04,-0.85,-5.8,11.6,-16.7,36.26,,,,,,,,,,
15.24.12.627,-19.4,4.8,0,,,76569.7,13.06,-0.76,-0.02,-0.11,20.6,21.1,-5.6,36.15,,,,,,,,,,
15.24.12.637,-51.6,12.9,0,,,76569.7,13.06,-0.67,0.06,-0.69,28.9,19.0,6.4,36.26,,,,,,,,,,
15.24.12.646,-10.4,2.6,0,,,76569.7,13.06,-1.05,-0.66,-0.13,44.2,21.8,4.2,36.34,,,,,,,,,,
15.24.12.655,-42.8,10.7,0,,,76569.7,13.06,-0.52,0.31,-0.1,18.3,22.5,15.6,36.17,,,,,,,,,,
15.24.12.664,-17.0,4.2,0,,,76569.7,13.06,-0.85,-0.6,-0.1,4.4,17.7,19.7,36.22,,,,,,,,,,
15.24.12.675,-48.7,12.2,0,,,76569.7,13.06,-0.38,-0.22,-0.51,4.9,0.6,-10.3,35.97,,,,,,,,,,
15.24.12.687,-9.1,2.3,0,,,76569.7,13.06,-0.67,-0.13,-0.23,-15.0,9.3,-3.5,36.15,,,,,,,,,,
15.24.12.697,-47.4,11.8,0,,,76569.7,13.06,-0.65,-0.09,-0.23,23.3,7.6,-8.1,35.87,,,,,,,,,,
15.24.12.707,-61.2,15.3,0,,,76569.7,13.06,-0.57,-0.36,-0.96,4.8,-5.2,-7.4,35.91,,,,,,,,,,
15.24.12.719,-76.6,19.2,0,,,76569.7,13.06,-1.05,0.16,-0.54,-5.6,22.8,12.3,36.12,,,,,,,,,,
15.24.12.728,-76.2,19.0,0,,,76569.7,13.06,-0.8,-0.47,-0.68,9.8,32.7,11.9,35.95,,,,,,,,,,
15.24.12.739,-74.4,18.6,0,,,76569.7,13.06,-0.8,0.04,-0.43,-4.3,-3.8,-10.8,36.23,,,,,,,,,,
15.24.12.748,-65.3,16.3,0,,,76569.7,13.06,-1.02,-0.23,-0.06,-15.6,1.4,15.5,36.07,,,,,,,,,,
15.24.12.757,-86.3,21.6,0,,,76569.7,13.06,-0.75,-0.94,-0.38,-1.1,12.5,-11.3,36.34,,,,,,,,,,
15.24.12.765,-70.3,17.6,0,,,76569.7,13.06,-0.8,-0.04,-0.21,8.9,5.8,-1.5,36.41,,,,,,,,,,
15.24.12.774,-101.8,25.4,0,,,76569.7,13.06,-0.57,0.09,-0.12,6.0,-3.6,7.6,36.11,,,,,,,,,,
15.24.12.782,-131.5,32.9,0,,,76569.7,13.06,-1.16,-0.53,0.34,-17.6,2.8,2.6,36.21,,,,,,,,,,
15.24.12.790,-123.4,30.8,0,,,76569.7,13.06,-0.54,0.14,-0.43,31.7,-9.4,6.8,36.19,,,,,,,,,,
15.24.12.799,,,0,,,,,,,,,,,,,,,,,,,,,
15.24.12.810,-121.7,30.4,0,,,76569.7,13.06,-0.95,-0.53,-0.42,1.9,16.3,-5.8,36.04,,,,,,,,,,
15.24.12.820,-87.9,22.0,0,,,76569.7,13.06,-0.87,-0.39,0.19,20.1,-0.5,-4.2,36.21,,,,,,,,,,
15.24.12.829,-117.3,29.3,0,,,76569.7,13.06,-1.21,-0.39,0.35,25.6,4.6,-21.6,36.05,,,,,,,,,,
15.24.12.839,-90.1,22.5,0,,,76569.7,13.06,-0.87,-0.2,0.1,14.6,33.3,22.6,36.3,,,,,,,,,,
15.24.12.848,-106.4,26.6,0,,,76569.7,13.06,-1.15,-0.18,-0.07,3.3,29.2,-1.6,35.91,,,,,,,,,,
15.24.12.856,-147.9,37.0,0,,,76569.7,13.06,-0.68,0.09,0.25,-18.7,11.1,-0.3,36.03,,,,,,,,,,
15.24.12.866,-171.4,42.8,0,,,76569.7,13.06,-0.96,0.09,-0.05,37.1,-19.6,1.0,36.01,,,,,,,,,,
15.24.12.876,-164.8,41.2,0,,,76569.7,13.06,-0.79,-0.09,0.41,5.2,-6.5,4.6,36.02,,,,,,,,,,
15.24.12.884,-158.0,39.5,0,,,76569.7,13.06,-1.02,-0.19,0.13,-11.2,9.2,-4.1,36.0,,,,,,,,,,
15.24.12.894,-144.8,36.2,0,,,76569.7,13.06,-0.94,0.21,-0.48,33.2,19.6,1.9,36.13,,,,,,,,,,
15.24.12.902,-5.3,1.3,0,,,76569.7,13.06,-1.07,-0.52,-0.47,-14.2,22.3,22.6,35.73,,,,,,,,,,
15.24.12.913,86.9,21.7,0,,,76569.7,13.06,-1.04,-0.2,-0.14,-24.3,8.8,-3.9,35.94,,,,,,,,,,
15.24.12.921,107.2,26.8,0,,,76569.7,13.06,-1.13,-0.22,-0.11,2.0,-1.8,-5.8,35.86,,,,,,,,,,
15.24.12.930,151.2,37.8,0,,,76569.7,13.06,-0.79,0.22,-0.04,14.0,-7.7,-1.3,36.05,,,,,,,,,,
15.24.12.939,198.8,49.7,0,,,76569.7,13.06,-1.18,-0.36,-0.17,-10.6,0.6,4.6,36.14,,,,,,,,,,
