timestamp,ppg,threshold,beat,beat_count,inst_bpm,gsr_resistance_ohm,gsr_conductance_us,accel_x,accel_y,accel_z,gyro_x,gyro_y,gyro_z,temp_c,window_bpm,window_temp_c,status_message,SpO2,bmi,age,height,weight,env_temp_c,env_humidity_pct
15.47.00.000,0.0,0.0,0,,,24703.6,40.48,-0.38,1.06,0.09,26.4,8.0,-3.5,36.18,106.1,,,,22.1,23.0,175.26,68.0,29.23,32.0
15.47.00.008,7.7,1.9,0,,,24703.6,40.48,-0.48,0.93,1.11,-9.9,-19.3,13.2,35.86,,,,,,,,,,
15.47.00.018,152.8,38.2,0,,,24703.6,40.48,-0.71,0.7,-0.12,-7.5,15.3,-2.7,36.23,,,,,,,,,,
15.47.00.030,200.3,50.1,0,,,24697.5,40.49,-0.1,0.74,0.22,-15.2,26.9,7.2,36.38,,,,,,,,,,
15.47.00.038,228.2,57.0,0,,,24697.5,40.49,-0.92,0.08,0.06,15.0,1.3,0.4,36.27,,,,,,,,,,
15.47.00.047,322.3,80.6,0,,,24697.5,40.49,-0.25,0.5,-0.42,10.8,32.9,7.5,36.16,,,,,,,,,,
15.47.00.056,365.8,91.4,0,,,24697.5,40.49,-0.13,-0.04,1.03,-19.1,2.5,1.1,36.08,,,,,,,,,,
15.47.00.064,410.9,102.7,0,,,24697.5,40.49,-0.46,0.72,0.7,8.2,12.8,-0.6,35.95,,,,,,,,,,
15.47.00.075,441.0,110.2,0,,,24697.5,40.49,-0.46,0.37,1.02,-17.8,6.9,8.5,36.31,,,,,,,,,,
15.47.00.082,543.2,135.8,0,,,24697.5,40.49,-0.45,0.58,0.1,2.2,-3.4,-29.5,36.24,,,,,,,,,,
15.47.00.091,454.3,113.6,0,,,24697.5,40.49,-0.09,0.47,1.08,-0.2,18.3,-4.2,36.26,,,,,,,,,,
15.47.00.100,449.1,112.3,0,,,24697.5,40.49,-0.46,0.7,1.05,4.5,5.2,-6.7,36.07,,,,,,,,,,
15.47.00.111,505.2,126.3,0,,,24697.5,40.49,-0.05,-0.14,0.74,-30.5,8.0,20.1,35.95,,,,,,,,,,
15.47.00.123,516.1,129.0,0,,,24697.5,40.49,-0.59,0.24,1.1,-12.1,6.2,9.7,36.16,,,,,,,,,,
15.47.00.131,426.8,106.7,0,,,24697.5,40.49,-0.97,-0.27,0.64,-24.5,-1.2,-8.4,36.17,,,,,,,,,,
15.47.00.141,418.7,104.7,0,,,24697.5,40.49,-0.3,-0.47,-0.34,-0.3,15.7,-10.1,36.18,,,,,,,,,,
15.47.00.152,356.6,89.2,0,,,24697.5,40.49,-0.45,0.12,0.6,-8.6,4.5,-7.7,36.16,,,,,,,,,,
15.47.00.163,279.7,69.9,0,,,24697.5,40.49,-0.18,-0.01,0.67,-11.8,0.1,-15.1,36.11,,,,,,,,,,
15.47.00.172,212.3,53.1,0,,,24697.5,40.49,-0.87,-0.24,-0.19,12.4,-1.5,23.5,36.13,,,,,,,,,,
15.47.00.183,99.9,25.0,0,,,24697.5,40.49,-0.25,-0.21,0.99,24.5,5.0,6.4,36.0,,,,,,,,,,
15.47.00.193,23.6,5.9,0,,,24697.5,40.49,-0.61,0.76,0.01,15.8,3.7,0.9,36.29,,,,,,,,,,
15.47.00.203,-47.8,12.0,0,,,24691.4,40.5,-0.28,0.04,0.16,-17.2,17.0,-3.1,36.21,,,,,,,,,,
15.47.00.214,-22.3,5.6,0,,,24691.4,40.5,-0.94,-0.17,0.93,-2.0,24.3,16.4,36.09,,,,,,,,,,
15.47.00.225,70.3,17.6,0,,,24691.4,40.5,-0.85,-0.23,-0.26,5.6,-10.5,-11.7,36.06,,,,,,,,,,
15.47.00.236,68.4,17.1,0,,,24691.4,40.5,-0.6,0.41,0.6,0.7,-1.0,0.5,36.04,,,,,,,,,,
15.47.00.245,85.6,21.4,0,,,24691.4,40.5,-0.59,0.16,-0.67,20.0,2.8,-9.5,36.19,,,,,,,,,,
15.47.00.253,60.4,15.1,0,,,24691.4,40.5,-0.78,0.62,0.1,-20.0,-4.1,3.5,36.16,,,,,,,,,,
15.47.00.262,43.6,10.9,0,,,24691.4,40.5,-0.66,0.64,-0.24,-0.8,6.6,-7.8,36.17,,,,,,,,,,
15.47.00.270,90.5,22.6,0,,,24691.4,40.5,-0.46,-0.0,0.03,27.7,-5.7,10.5,35.78,,,,,,,,,,
15.47.00.281,57.2,14.3,0,,,24691.4,40.5,-0.89,0.65,0.01,-1.4,34.5,-2.3,36.0,,,,,,,,,,
15.47.00.292,97.3,24.3,0,,,24691.4,40.5,-0.69,0.3,-0.31,16.3,11.7,11.6,36.05,,,,,,,,,,
15.47.00.302,27.7,6.9,0,,,24691.4,40.5,-0.61,0.52,-0.39,29.6,10.0,-1.5,36.23,,,,,,,,,,
15.47.00.311,-55.0,13.8,0,,,24691.4,40.5,-0.79,0.65,0.54,-16.6,-1.5,14.4,36.08,,,,,,,,,,
15.47.00.321,45.9,11.5,0,,,24691.4,40.5,-0.48,0.24,0.51,-22.3,9.5,2.6,36.36,,,,,,,,,,
15.47.00.330,-62.2,15.6,0,,,24691.4,40.5,-0.8,0.0,0.5,9.5,5.3,-11.0,36.31,,,,,,,,,,
15.47.00.340,-51.0,12.8,0,,,24691.4,40.5,-0.6,0.51,-0.36,-14.7,10.8,15.1,36.07,,,,,,,,,,
15.47.00.347,-61.3,15.3,0,,,24691.4,40.5,-0.58,1.33,0.34,5.8,-11.0,8.4,36.12,,,,,,,,,,
15.47.00.355,-18.4,4.6,0,,,24691.4,40.5,-0.06,0.54,1.01,-6.8,24.4,-5.2,35.86,,,,,,,,,,
15.47.00.365,-25.7,6.4,0,,,24685.3,40.51,-0.55,1.03,0.4,-3.0,-5.7,3.6,36.17,,,,,,,,,,
15.47.00.377,-49.6,12.4,0,,,24685.3,40.51,-0.47,0.89,1.56,14.5,8.3,-7.9,36.18,,,,,,,,,,
15.47.00.387,-50.9,12.7,0,,,24685.3,40.51,-0.26,0.6,1.05,4.5,-5.2,-11.6,36.23,,,,,,,,,,
15.47.00.395,-64.5,16.1,0,,,24685.3,40.51,-0.58,0.32,-0.1,15.8,1.8,3.9,36.1,,,,,,,,,,
15.47.00.403,-32.0,8.0,0,,,24685.3,40.51,-0.13,0.34,0.89,-2.1,12.2,5.6,36.34,,,,,,,,,,
15.47.00.413,-74.1,18.5,0,,,24685.3,40.51,0.12,0.63,0.64,-34.5,1.6,4.7,36.1,,,,,,,,,,
15.47.00.424,-50.7,12.7,0,,,24685.3,40.51,-0.11,0.48,0.82,9.3,14.8,23.7,35.96,,,,,,,,,,
15.47.00.433,-89.1,22.3,0,,,24685.3,40.51,-0.18,0.25,0.65,-30.1,13.7,2.4,36.18,,,,,,,,,,
15.47.00.442,-74.0,18.5,0,,,24685.3,40.51,0.07,0.59,0.37,-2.9,24.8,3.9,36.04,,,,,,,,,,
15.47.00.452,-159.6,39.9,0,,,24685.3,40.51,-0.11,0.3,0.68,19.8,15.5,-23.1,36.2,,,,,,,,,,
15.47.00.463,-93.1,23.3,0,,,24685.3,40.51,-0.32,0.95,1.21,-1.3,18.9,3.8,35.94,,,,,,,,,,
15.47.00.472,-104.4,26.1,0,,,24685.3,40.51,-0.62,0.27,0.18,-23.8,-10.1,-7.2,36.0,,,,,,,,,,
15.47.00.482,-148.5,37.1,0,,,24685.3,40.51,-0.17,-0.17,0.34,15.4,-12.4,-13.5,36.3,,,,,,,,,,
15.47.00.493,-95.1,23.8,0,,,24685.3,40.51,-0.3,-0.01,1.35,0.6,0.1,-26.4,36.09,,,,,,,,,,
15.47.00.504,-132.1,33.0,0,,,24685.3,40.51,-0.42,0.57,1.13,5.7,27.3,-29.2,35.92,,,,,,,,,,
15.47.00.514,-131.0,32.8,0,,,24685.3,40.51,-0.71,0.55,0.81,3.4,29.5,10.5,36.35,,,,,,,,,,
15.47.00.524,-151.7,37.9,0,,,24685.3,40.51,-0.33,0.46,0.77,-1.1,15.4,3.7,36.18,,,,,,,,,,
15.47.00.532,-121.4,30.4,0,,,24679.2,40.52,-0.64,0.13,0.04,8.0,36.4,-12.8,35.93,,,,,,,,,,
15.47.00.543,-162.3,40.6,0,,,24679.2,40.52,-0.54,0.41,-0.28,11.8,19.5,18.7,36.29,,,,,,,,,,
15.47.00.553,-176.4,44.1,0,,,24679.2,40.52,-0.68,0.36,-0.48,20.6,17.1,-1.0,36.39,,,,,,,,,,
15.47.00.563,-151.0,37.8,0,,,24679.2,40.52,-0.34,0.32,-0.19,4.2,-23.0,-8.5,36.28,,,,,,,,,,
15.47.00.573,54.5,13.6,1,1.0,,24679.2,40.52,-0.74,0.6,0.26,-5.7,-9.6,-9.7,36.02,,,,,,,,,,
15.47.00.582,73.3,18.3,0,,,24679.2,40.52,-0.78,0.89,-0.35,0.3,0.9,1.0,36.11,,,,,,,,,,
15.47.00.589,136.6,34.2,0,,,24679.2,40.52,-0.68,-0.03,-0.35,-22.0,1.1,-1.4,36.04,,,,,,,,,,
15.47.00.599,198.8,49.7,0,,,24679.2,40.52,-0.9,-0.18,0.14,21.2,9.3,-3.9,36.1,,,,,,,,,,
15.47.00.608,249.5,62.4,0,,,24679.2,40.52,-1.03,0.17,0.14,-2.3,15.9,-3.3,36.02,,,,,,,,,,
15.47.00.615,226.8,56.7,0,,,24679.2,40.52,-0.74,0.84,-0.03,-13.7,6.4,6.2,36.35,,,,,,,,,,
15.47.00.624,337.9,84.5,0,,,24679.2,40.52,-0.9,0.34,-0.78,19.3,-6.0,-0.7,36.2,,,,,,,,,,
15.47.00.630,376.6,94.2,0,,,24679.2,40.52,-0.52,0.56,-0.32,27.3,23.4,-0.9,36.09,,,,,,,,,,
15.47.00.642,395.5,98.9,0,,,24679.2,40.52,-0.5,0.7,-0.08,9.5,3.7,-5.8,36.0,,,,,,,,,,
15.47.00.653,496.0,124.0,0,,,24679.2,40.52,-0.63,1.01,-0.01,-13.0,16.2,28.2,36.13,,,,,,,,,,
15.47.00.662,488.1,122.0,0,,,24679.2,40.52,-0.27,0.83,0.13,34.3,19.5,1.9,35.6,,,,,,,,,,
15.47.00.670,450.9,112.7,0,,,24679.2,40.52,-0.9,0.71,0.54,-7.9,-27.4,8.7,36.03,,,,,,,,,,
15.47.00.677,534.7,133.7,0,,,24679.2,40.52,-0.52,0.45,0.19,-6.7,-21.2,-4.2,36.39,,,,,,,,,,
15.47.00.687,407.1,101.8,0,,,24679.2,40.52,-0.39,1.04,0.62,8.8,11.7,-9.2,36.22,,,,,,,,,,
15.47.00.696,397.0,99.2,0,,,24673.1,40.53,0.1,0.83,0.92,0.4,6.8,-13.2,35.99,,,,,,,,,,
15.47.00.707,347.7,86.9,0,,,24673.1,40.53,-0.37,1.01,0.58,6.2,-16.8,7.6,36.13,,,,,,,,,,
15.47.00.717,384.6,96.2,0,,,24673.1,40.53,-0.47,0.16,0.15,14.2,7.9,-22.2,36.16,,,,,,,,,,
15.47.00.726,350.7,87.7,0,,,24673.1,40.53,0.0,0.97,1.26,27.5,22.7,9.6,35.97,,,,,,,,,,
15.47.00.734,272.0,68.0,0,,,24673.1,40.53,-0.19,0.29,0.64,7.6,-5.3,-2.3,36.22,,,,,,,,,,
15.47.00.742,247.2,61.8,0,,,24673.1,40.53,-0.39,1.22,-0.02,20.8,-1.1,11.0,36.28,,,,,,,,,,
15.47.00.751,128.9,32.2,0,,,24673.1,40.53,-0.19,0.88,1.33,9.0,-4.1,1.7,35.91,,,,,,,,,,
15.47.00.761,79.0,19.8,0,,,24673.1,40.53,-0.47,0.73,1.63,-11.2,-7.1,12.2,36.32,,,,,,,,,,
15.47.00.771,21.2,5.3,0,,,24673.1,40.53,-0.44,0.52,0.5,-1.3,2.4,12.2,36.28,,,,,,,,,,
15.47.00.782,31.3,7.8,0,,,24673.1,40.53,-0.72,0.41,0.45,-3.5,3.2,-16.6,36.21,,,,,,,,,,
15.47.00.792,53.3,13.3,0,,,24673.1,40.53,-0.94,0.46,1.13,7.3,3.3,-13.7,35.86,,,,,,,,,,
15.47.00.802,-3.6,0.9,0,,,24673.1,40.53,-0.43,-0.46,0.2,17.3,11.5,-10.7,35.97,,,,,,,,,,
15.47.00.810,70.7,17.7,0,,,24673.1,40.53,-0.55,0.12,0.73,-43.2,-1.5,2.0,36.01,,,,,,,,,,
15.47.00.820,92.5,23.1,0,,,24673.1,40.53,-0.58,-0.06,1.06,-2.9,34.8,-1.4,36.28,,,,,,,,,,
15.47.00.827,60.7,15.2,0,,,24673.1,40.53,-0.37,-0.04,0.33,-16.2,-10.0,17.4,36.3,,,,,,,,,,
15.47.00.838,92.9,23.2,0,,,24673.1,40.53,-0.4,0.33,0.47,1.0,6.7,-7.3,36.01,,,,,,,,,,
15.47.00.848,71.3,17.8,0,,,24673.1,40.53,-0.68,0.4,-0.23,-17.8,5.9,-8.9,36.32,,,,,,,,,,
15.47.00.857,50.2,12.6,0,,,24667.0,40.54,-1.03,0.06,0.01,-19.2,-0.8,1.9,36.23,,,,,,,,,,
15.47.00.868,66.2,16.6,0,,,24667.0,40.54,-0.48,-0.27,-0.01,-14.1,-1.3,7.8,36.03,,,,,,,,,,
15.47.00.876,-32.3,8.1,0,,,24667.0,40.54,-1.02,-0.06,-0.49,-3.5,-8.0,-6.1,36.25,,,,,,,,,,
15.47.00.884,34.7,8.7,0,,,24667.0,40.54,-0.49,0.34,-0.31,-12.4,24.6,-21.3,36.1,,,,,,,,,,
15.47.00.893,-20.2,5.0,0,,,24667.0,40.54,-0.71,0.9,0.59,-23.0,0.2,-3.5,36.25,,,,,,,,,,
15.47.00.901,-90.1,22.5,0,,,24667.0,40.54,-0.6,0.23,0.47,-26.3,30.0,-14.0,36.09,,,,,,,,,,
15.47.00.912,23.7,5.9,0,,,24667.0,40.54,-0.38,0.42,-0.28,-3.4,5.8,-10.8,35.94,,,,,,,,,,
15.47.00.920,-28.4,7.1,0,,,24667.0,40.54,-0.68,0.25,-0.22,14.9,26.3,-0.1,36.04,,,,,,,,,,
15.47.00.930,-5.5,1.4,0,,,24667.0,40.54,-0.86,0.5,0.47,18.0,13.3,6.0,36.06,,,,,,,,,,
15.47.00.939,-1.6,0.4,0,,,24667.0,40.54,-1.01,0.16,0.3,-1.5,10.1,-6.7,36.06,,,,,,,,,,
15.47.00.946,-80.1,20.0,0,,,24667.0,40.54,-0.33,0.93,0.94,27.0,1.6,6.9,36.09,,,,,,,,,,
15.47.00.955,-78.8,19.7,0,,,24667.0,40.54,-0.34,0.47,0.47,20.8,4.2,1.1,36.35,,,,,,,,,,
15.47.00.963,-88.9,22.2,0,,,24667.0,40.54,-0.15,0.82,-0.2,-15.7,24.9,6.1,36.07,,,,,,,,,,
15.47.00.972,0.0,0.0,0,,,24667.0,40.54,-0.21,1.06,0.17,-17.1,28.5,5.9,36.25,,,,,,,,,,
15.47.00.984,-16.6,4.2,0,,,24667.0,40.54,-0.29,0.65,-0.28,5.0,-2.8,-3.5,36.2,,,,,,,,,,
15.47.00.994,-63.1,15.8,0,,,24667.0,40.54,0.04,0.41,-0.44,-4.9,18.2,7.0,36.15,,,,,,,,,,
15.47.01.003,-131.3,32.8,0,,,24667.0,40.54,-0.44,0.03,0.03,15.8,20.3,15.2,35.82,,,,,,,,,,
15.47.01.014,-138.8,34.7,0,,,24667.0,40.54,-0.8,0.56,-0.24,8.6,12.0,-3.4,36.03,,,,,,,,,,
15.47.01.022,-147.3,36.8,0,,,24667.0,40.54,-0.22,1.02,0.05,-7.0,-2.9,-23.2,35.92,,,,,,,,,,
15.47.01.032,-147.2,36.8,0,,,24667.0,40.54,-0.09,0.46,-0.12,6.6,-14.4,6.9,36.27,,,,,,,,,,
15.47.01.046,-112.6,28.2,0,,,24667.0,40.54,-0.35,0.7,-0.2,38.5,-13.1,2.8,36.31,,,,,,,,,,
15.47.01.056,-110.4,27.6,0,,,24667.0,40.54,-0.12,0.44,0.76,24.9,34.3,10.1,36.15,,,,,,,,,,
15.47.01.063,-142.6,35.6,1,2.0,122.4,24667.0,40.54,0.0,1.02,0.29,-3.7,-6.4,-19.2,36.01,,,,,,,,,,
15.47.01.074,-151.6,37.9,0,,,24673.1,40.53,-0.27,1.29,1.23,-17.5,4.5,-15.1,36.0,,,,,,,,,,
15.47.01.084,-234.9,58.7,0,,,24673.1,40.53,-0.37,1.11,0.3,24.1,6.3,-28.7,36.17,,,,,,,,,,
15.47.01.094,-139.5,34.9,0,,,24673.1,40.53,-0.24,-0.25,0.9,13.3,19.1,-18.8,35.91,,,,,,,,,,
15.47.01.106,-179.6,44.9,0,,,24673.1,40.53,-0.41,-0.13,1.13,-4.0,20.5,0.3,36.15,,,,,,,,,,
15.47.01.116,-162.2,40.6,0,,,24673.1,40.53,-0.3,0.46,0.67,7.2,-4.2,10.8,36.07,,,,,,,,,,
15.47.01.125,-120.3,30.1,0,,,24673.1,40.53,-0.53,-0.22,1.67,1.8,5.2,-10.4,36.19,,,,,,,,,,
15.47.01.132,-181.7,45.4,0,,,24673.1,40.53,-0.61,0.02,0.75,17.0,11.1,12.9,36.23,,,,,,,,,,
15.47.01.142,9.0,2.2,0,,,24673.1,40.53,-0.34,0.83,1.28,0.2,12.7,4.2,36.19,,,,,,,,,,
15.47.01.149,103.3,25.8,0,,,24673.1,40.53,-0.1,0.4,0.85,-2.4,-14.6,10.0,36.35,,,,,,,,,,
15.47.01.160,153.5,38.4,0,,,24679.2,40.52,-0.39,0.17,1.88,-16.5,-1.2,-12.9,36.04,,,,,,,,,,
15.47.01.169,227.8,57.0,0,,,24679.2,40.52,-0.24,-0.12,0.46,10.4,10.2,8.2,35.88,,,,,,,,,,
15.47.01.177,271.2,67.8,0,,,24679.2,40.52,-0.4,0.41,0.59,5.9,2.4,5.9,36.04,,,,,,,,,,
15.47.01.184,363.2,90.8,0,,,24679.2,40.52,-0.71,0.32,0.89,-0.3,27.1,9.1,36.34,,,,,,,,,,
15.47.01.192,384.0,96.0,0,,,24679.2,40.52,-0.76,0.24,-0.59,-16.4,4.2,-17.3,36.19,,,,,,,,,,
15.47.01.201,343.0,85.8,0,,,24679.2,40.52,-0.46,0.51,1.06,-11.2,23.4,-9.0,36.31,,,,,,,,,,
15.47.01.212,508.6,127.2,0,,,24679.2,40.52,-0.34,0.11,0.15,-13.7,-9.1,13.6,35.82,,,,,,,,,,
15.47.01.222,435.3,108.8,0,,,24679.2,40.52,-0.9,0.56,-0.12,-28.4,12.0,-2.2,36.11,,,,,,,,,,
15.47.01.231,490.5,122.6,0,,,24679.2,40.52,-0.64,0.25,-0.02,-7.9,19.9,-5.7,36.35,,,,,,,,,,
15.47.01.240,498.3,124.6,0,,,24685.3,40.51,-0.69,0.43,0.25,-6.9,-0.7,-2.4,36.34,,,,,,,,,,
15.47.01.250,421.2,105.3,0,,,24685.3,40.51,-0.47,0.6,-0.24,-10.6,-13.4,-13.6,36.18,,,,,,,,,,
15.47.01.261,432.3,108.1,0,,,24685.3,40.51,-1.19,0.22,0.17,28.9,-15.7,-27.5,36.29,,,,,,,,,,
15.47.01.271,465.6,116.4,0,,,24685.3,40.51,-0.79,0.2,-0.05,15.7,-5.8,24.2,35.99,,,,,,,,,,
15.47.01.280,428.2,107.0,0,,,24685.3,40.51,-0.45,0.67,-0.71,-4.8,8.1,1.2,35.99,,,,,,,,,,
15.47.01.290,306.1,76.5,0,,,24685.3,40.51,-0.71,0.64,0.29,-25.9,14.4,4.8,36.17,,,,,,,,,,
15.47.01.300,343.1,85.8,0,,,24685.3,40.51,-0.52,0.57,-0.72,9.3,4.2,-3.2,35.95,,,,,,,,,,
15.47.01.307,236.0,59.0,0,,,24685.3,40.51,-0.38,-0.21,0.09,-3.8,8.9,-4.5,36.37,,,,,,,,,,
15.47.01.317,113.3,28.3,0,,,24691.4,40.5,-1.13,0.97,0.27,-0.3,-0.6,11.6,36.16,,,,,,,,,,
15.47.01.327,55.2,13.8,0,,,24691.4,40.5,-0.73,0.7,0.55,8.8,23.3,14.7,35.98,,,,,,,,,,
15.47.01.336,25.3,6.3,0,,,24691.4,40.5,-0.31,1.06,-1.13,21.4,-18.9,10.8,36.05,,,,,,,,,,
15.47.01.346,-11.4,2.8,0,,,24691.4,40.5,-0.52,0.59,0.08,0.4,-12.9,-8.9,36.14,,,,,,,,,,
15.47.01.355,-12.5,3.1,0,,,24691.4,40.5,-0.24,0.61,0.96,36.4,0.0,4.5,35.9,,,,,,,,,,
15.47.01.366,84.3,21.1,0,,,24691.4,40.5,-0.45,0.74,-0.03,-42.5,9.1,0.7,36.21,,,,,,,,,,
15.47.01.374,68.3,17.1,0,,,24691.4,40.5,-0.53,1.13,1.59,-5.0,-2.1,-21.5,35.88,,,,,,,,,,
15.47.01.382,119.1,29.8,0,,,24691.4,40.5,-0.63,0.02,0.82,21.1,27.9,22.5,36.28,,,,,,,,,,
15.47.01.393,42.2,10.6,0,,,24691.4,40.5,0.13,0.45,1.76,-21.5,19.7,6.3,36.33,,,,,,,,,,
15.47.01.403,92.8,23.2,0,,,24697.5,40.49,-0.21,0.69,-0.07,17.1,20.4,-18.0,36.05,,,,,,,,,,
15.47.01.411,69.7,17.4,0,,,24697.5,40.49,-0.11,0.54,0.96,15.6,30.7,10.2,36.2,,,,,,,,,,
15.47.01.421,86.9,21.7,0,,,24697.5,40.49,-0.21,0.44,1.03,-5.9,20.9,5.4,36.01,,,,,,,,,,
15.47.01.432,36.0,9.0,0,,,24697.5,40.49,-0.43,0.9,0.47,-33.2,-14.5,20.9,36.13,,,,,,,,,,
15.47.01.441,43.5,10.9,0,,,24697.5,40.49,-0.1,0.36,1.27,9.0,1.8,18.9,36.11,,,,,,,,,,
15.47.01.451,-13.1,3.3,0,,,24697.5,40.49,-0.65,-0.1,1.49,-19.3,-0.5,6.1,36.02,,,,,,,,,,
15.47.01.461,-37.1,9.3,0,,,24697.5,40.49,-0.32,0.02,-0.29,3.5,31.1,7.4,35.74,,,,,,,,,,
15.47.01.471,-5.1,1.3,0,,,24697.5,40.49,-0.33,0.15,0.55,33.8,3.4,-5.8,36.29,,,,,,,,,,
15.47.01.481,-9.7,2.4,0,,,24703.6,40.48,-0.5,0.56,0.73,-5.1,-1.7,-16.3,36.12,,,,,,,,,,
15.47.01.490,-31.2,7.8,0,,,24703.6,40.48,-0.46,-0.62,0.16,-19.8,25.6,-12.5,35.98,,,,,,,,,,
15.47.01.502,-7.3,1.8,0,,,24703.6,40.48,-0.45,-0.05,0.56,1.2,19.1,-9.8,36.12,,,,,,,,,,
15.47.01.512,-14.8,3.7,0,,,24703.6,40.48,-0.56,0.19,1.29,-15.8,-9.7,-1.9,35.89,,,,,,,,,,
15.47.01.521,-89.4,22.4,0,,,24703.6,40.48,-0.36,-0.04,-0.39,11.5,7.5,16.9,36.15,,,,,,,,,,
15.47.01.532,-101.3,25.3,0,,,24703.6,40.48,-0.61,0.05,0.49,6.1,4.9,-4.3,36.27,,,,,,,,,,
15.47.01.540,-67.0,16.8,0,,,24703.6,40.48,-0.24,0.04,0.05,14.0,9.2,-15.0,36.22,,,,,,,,,,
15.47.01.550,-35.8,9.0,0,,,24703.6,40.48,-0.66,0.05,-0.54,-7.4,-0.4,-19.6,36.04,,,,,,,,,,
15.47.01.557,-44.6,11.2,0,,,24709.7,40.47,-0.47,-0.02,0.32,-14.3,27.4,13.2,36.28,,,,,,,,,,
15.47.01.566,-98.1,24.5,0,,,24709.7,40.47,-0.53,-0.13,1.04,15.7,6.3,-0.0,36.08,,,,,,,,,,
15.47.01.575,-120.8,30.2,1,3.0,117.2,24709.7,40.47,-1.01,0.14,-0.61,-20.2,22.3,12.1,36.01,,,,,,,,,,
15.47.01.586,-104.9,26.2,0,,,24709.7,40.47,-0.61,0.19,0.7,-9.4,11.2,20.2,36.32,,,,,,,,,,
15.47.01.594,-104.2,26.0,0,,,24709.7,40.47,-0.94,0.43,0.14,-25.3,26.6,-4.0,36.33,,,,,,,,,,
15.47.01.601,-91.9,23.0,0,,,24709.7,40.47,-1.19,0.06,-0.78,-11.9,5.9,-7.7,36.25,,,,,,,,,,
15.47.01.609,-105.0,26.2,0,,,24709.7,40.47,-0.38,-0.13,-0.2,27.2,20.0,-0.5,35.87,,,,,,,,,,
15.47.01.618,-139.2,34.8,0,,,24709.7,40.47,-1.02,0.45,-0.7,21.7,5.7,0.3,36.35,,,,,,,,,,
15.47.01.629,-178.6,44.6,0,,,24709.7,40.47,-0.63,0.07,0.08,-15.6,-16.0,4.9,36.01,,,,,,,,,,
15.47.01.638,-158.9,39.7,0,,,24715.8,40.46,-0.53,0.85,0.37,16.7,11.9,10.4,36.1,,,,,,,,,,
15.47.01.651,-106.5,26.6,0,,,24715.8,40.46,-0.67,0.83,-0.2,34.3,11.8,-0.5,36.23,,,,,,,,,,
15.47.01.662,-146.0,36.5,0,,,24715.8,40.46,-1.23,0.91,0.5,-5.2,-2.4,-9.2,36.17,,,,,,,,,,
15.47.01.672,-173.2,43.3,0,,,24715.8,40.46,-0.66,0.6,0.53,-1.0,-3.4,-7.5,35.86,,,,,,,,,,
15.47.01.682,-180.9,45.2,0,,,24715.8,40.46,-0.34,0.75,0.79,19.5,2.2,16.4,36.11,,,,,,,,,,
15.47.01.692,-107.7,26.9,0,,,24715.8,40.46,-0.53,1.44,0.92,-14.6,3.7,-8.4,36.08,,,,,,,,,,
15.47.01.701,-213.0,53.2,0,,,24715.8,40.46,-0.73,0.89,0.91,15.5,28.2,1.8,36.19,,,,,,,,,,
15.47.01.712,34.6,8.6,0,,,24715.8,40.46,-0.45,0.46,0.74,-2.6,21.3,-7.4,36.19,,,,,,,,,,
15.47.01.722,76.1,19.0,0,,,24721.9,40.45,-0.08,1.29,-0.22,31.7,6.8,-13.4,36.1,,,,,,,,,,
15.47.01.732,207.2,51.8,0,,,24721.9,40.45,-0.43,0.98,-0.16,0.7,1.4,12.7,35.87,,,,,,,,,,
15.47.01.743,270.5,67.6,0,,,24721.9,40.45,-0.73,0.88,0.86,-33.5,3.2,-19.4,36.31,,,,,,,,,,
15.47.01.753,272.4,68.1,0,,,24721.9,40.45,-0.34,1.07,0.54,-20.7,-10.1,2.9,35.91,,,,,,,,,,
15.47.01.763,343.2,85.8,0,,,24721.9,40.45,-0.14,1.24,1.35,-14.2,12.2,-2.2,36.17,,,,,,,,,,
15.47.01.772,,,0,,,,,,,,,,,,,,,,,,,,,
15.47.01.781,478.3,119.6,0,,,24721.9,40.45,-0.54,-0.13,1.43,-26.4,-1.5,6.7,36.29,,,,,,,,,,
15.47.01.790,432.0,108.0,0,,,24721.9,40.45,0.01,0.47,1.31,-15.1,13.3,4.6,36.21,,,,,,,,,,
15.47.01.799,521.0,130.2,0,,,24721.9,40.45,-0.23,0.59,1.58,17.5,12.2,5.7,36.02,,,,,,,,,,
15.47.01.808,469.3,117.3,0,,,24728.0,40.44,-0.57,-0.15,0.67,11.4,-5.0,-10.0,36.22,,,,,,,,,,
15.47.01.817,459.6,114.9,0,,,24728.0,40.44,-0.42,0.26,1.03,-27.1,-8.0,-13.5,35.98,,,,,,,,,,
15.47.01.826,463.9,116.0,0,,,24728.0,40.44,-0.44,-0.4,1.64,-6.6,-22.1,-17.0,36.4,,,,,,,,,,
15.47.01.835,440.5,110.1,0,,,24728.0,40.44,-0.28,0.71,-0.02,-0.7,11.2,-17.1,35.98,,,,,,,,,,
15.47.01.845,402.4,100.6,0,,,24728.0,40.44,-0.88,0.25,0.85,18.9,-21.7,-6.5,36.24,,,,,,,,,,
15.47.01.855,332.5,83.1,0,,,24728.0,40.44,-0.54,0.02,0.65,-1.4,-4.8,-0.5,36.06,,,,,,,,,,
15.47.01.864,310.7,77.7,0,,,24728.0,40.44,-0.62,0.28,0.33,-9.7,-3.9,6.7,36.09,,,,,,,,,,
15.47.01.875,279.0,69.8,0,,,24728.0,40.44,-0.31,0.84,-0.77,-10.7,0.5,-17.1,36.0,,,,,,,,,,
15.47.01.886,162.4,40.6,0,,,24734.1,40.43,-0.37,-0.42,0.27,30.6,-15.3,-4.1,35.89,,,,,,,,,,
15.47.01.896,115.6,28.9,0,,,24734.1,40.43,-0.51,0.18,-0.19,15.0,16.4,2.2,36.16,,,,,,,,,,
15.47.01.906,43.6,10.9,0,,,24734.1,40.43,-1.01,0.68,0.19,-14.2,7.3,4.7,36.14,,,,,,,,,,
15.47.01.918,19.0,4.8,0,,,24734.1,40.43,-0.85,0.25,-0.33,13.4,17.7,20.1,36.2,,,,,,,,,,
15.47.01.926,77.8,19.4,0,,,24734.1,40.43,-0.33,0.2,0.04,-24.6,-13.1,-7.7,36.01,,,,,,,,,,
15.47.01.936,102.5,25.6,0,,,24734.1,40.43,-0.67,-0.12,-0.83,21.0,18.9,15.6,35.99,,,,,,,,,,
15.47.01.947,102.6,25.6,0,,,24734.1,40.43,-0.49,0.32,0.39,8.4,6.8,14.9,36.0,,,,,,,,,,
15.47.01.957,54.0,13.5,0,,,24734.1,40.43,-0.74,0.95,0.11,5.4,23.3,-14.3,36.06,,,,,,,,,,
15.47.01.968,55.2,13.8,0,,,24740.2,40.42,-0.96,0.72,-0.33,-26.9,14.5,7.6,36.18,,,,,,,,,,
15.47.01.981,78.9,19.7,0,,,24740.2,40.42,-0.83,-0.24,0.33,-16.7,18.5,-20.4,35.84,,,,,,,,,,
15.47.01.990,98.2,24.6,0,,,24740.2,40.42,-0.94,0.47,-0.74,21.8,-4.4,-16.3,36.34,,,,,,,,,,
15.47.02.001,53.8,13.4,0,,,24740.2,40.42,-0.48,0.16,0.08,11.2,6.2,12.4,36.01,,,,,,,,,,
15.47.02.012,6.9,1.7,0,,,24740.2,40.42,-0.67,0.89,-0.16,20.7,1.1,3.3,35.89,,,,,,,,,,
15.47.02.022,10.1,2.5,0,,,24740.2,40.42,-1.08,0.61,-0.35,8.7,14.0,15.1,36.12,,,,,,,,,,
15.47.02.031,-12.7,3.2,0,,,24740.2,40.42,-0.6,0.62,-0.36,-8.0,-8.0,23.0,36.31,,,,,,,,,,
15.47.02.042,52.0,13.0,0,,,24740.2,40.42,-0.19,0.28,0.93,-29.4,-7.2,0.5,36.04,,,,,,,,,,
15.47.02.054,8.5,2.1,1,4.0,125.3,24740.2,40.42,-0.49,0.55,-0.87,-29.1,4.1,0.6,36.11,,,,,,,,,,
15.47.02.063,-36.2,9.0,0,,,24740.2,40.42,-1.02,1.48,-0.58,16.6,-3.1,-1.7,35.84,,,,,,,,,,
15.47.02.075,-61.3,15.3,0,,,24740.2,40.42,-0.5,0.89,0.53,-15.6,-17.9,-10.7,36.06,,,,,,,,,,
15.47.02.085,-60.8,15.2,0,,,24740.2,40.42,-0.63,1.44,0.21,13.7,13.6,23.9,36.04,,,,,,,,,,
15.47.02.094,-36.5,9.1,0,,,24734.1,40.43,-0.1,1.07,0.56,-24.1,-19.3,-4.5,36.17,,,,,,,,,,
15.47.02.105,-59.2,14.8,0,,,24734.1,40.43,-0.42,0.71,1.43,-16.2,16.2,-5.9,36.22,,,,,,,,,,
15.47.02.113,-42.0,10.5,0,,,24734.1,40.43,-0.34,0.93,0.52,-8.9,7.1,-0.9,36.12,,,,,,,,,,
15.47.02.121,-68.6,17.2,0,,,24734.1,40.43,-0.44,0.0,1.12,24.7,16.7,-3.5,36.08,,,,,,,,,,
15.47.02.132,-50.0,12.5,0,,,24734.1,40.43,-0.02,0.21,0.51,-1.4,3.9,-13.4,36.04,,,,,,,,,,
15.47.02.143,-133.0,33.2,0,,,24734.1,40.43,-0.34,0.48,0.93,0.4,12.4,-4.2,36.11,,,,,,,,,,
15.47.02.152,-79.0,19.8,0,,,24734.1,40.43,-0.13,0.02,0.72,-24.2,-0.6,12.1,35.97,,,,,,,,,,
15.47.02.161,-60.4,15.1,0,,,24734.1,40.43,-0.68,0.42,1.65,-34.2,-7.0,-13.0,36.23,,,,,,,,,,
15.47.02.171,-116.8,29.2,0,,,24734.1,40.43,-0.41,0.26,0.71,-36.2,-4.7,-0.9,36.17,,,,,,,,,,
15.47.02.182,-114.4,28.6,0,,,24734.1,40.43,-0.21,0.43,1.48,14.3,0.2,15.1,36.26,,,,,,,,,,
15.47.02.191,-125.8,31.4,0,,,24734.1,40.43,-0.46,0.29,0.6,-19.5,-8.9,5.8,36.05,,,,,,,,,,
15.47.02.200,-148.6,37.2,0,,,24734.1,40.43,-0.33,-0.13,-0.12,23.9,3.0,-5.1,36.24,,,,,,,,,,
15.47.02.211,-193.2,48.3,0,,,24734.1,40.43,-0.21,-0.28,0.59,-24.8,-3.8,-8.2,36.33,,,,,,,,,,
15.47.02.221,-184.7,46.2,0,,,24734.1,40.43,-0.65,0.07,0.62,2.7,-3.3,-12.7,36.06,,,,,,,,,,
15.47.02.229,-148.5,37.1,0,,,24734.1,40.43,-0.63,0.11,0.72,-3.9,6.4,9.8,36.13,,,,,,,,,,
15.47.02.238,-133.7,33.4,0,,,24734.1,40.43,-0.53,-0.12,-0.57,-19.9,20.6,9.6,36.02,,,,,,,,,,
15.47.02.248,-137.4,34.4,0,,,24734.1,40.43,-0.22,0.5,-0.32,-11.2,9.2,8.8,36.22,,,,,,,,,,
15.47.02.259,-187.9,47.0,0,,,24734.1,40.43,-0.3,0.42,0.27,7.4,41.3,-10.7,35.97,,,,,,,,,,
15.47.02.266,-190.3,47.6,0,,,24728.0,40.44,-0.8,0.31,-0.24,25.0,21.6,-15.0,36.38,,,,,,,,,,
15.47.02.277,-222.0,55.5,0,,,24728.0,40.44,-0.77,-0.33,-0.6,3.4,2.8,-8.0,35.96,,,,,,,,,,
15.47.02.288,80.5,20.1,0,,,24728.0,40.44,-0.49,0.08,0.77,4.1,5.9,5.9,36.04,,,,,,,,,,
15.47.02.299,200.4,50.1,0,,,24728.0,40.44,-0.83,0.5,-0.47,-16.6,2.8,11.2,36.06,,,,,,,,,,
15.47.02.311,211.7,52.9,0,,,24728.0,40.44,-0.74,0.61,-0.19,20.9,15.5,0.8,36.18,,,,,,,,,,
15.47.02.318,298.1,74.5,0,,,24728.0,40.44,-0.43,0.59,-0.35,1.6,-20.2,-4.1,36.26,,,,,,,,,,
15.47.02.328,378.1,94.5,0,,,24728.0,40.44,-0.8,0.3,-0.04,3.9,23.4,-19.3,36.25,,,,,,,,,,
15.47.02.339,439.3,109.8,0,,,24728.0,40.44,-1.07,0.7,-0.27,35.9,10.4,3.6,36.24,,,,,,,,,,
15.47.02.348,418.3,104.6,0,,,24728.0,40.44,-0.86,0.57,0.47,-17.6,19.5,-0.3,36.17,,,,,,,,,,
15.47.02.358,381.5,95.4,0,,,24728.0,40.44,-0.78,0.8,-0.74,-10.5,14.0,-26.2,36.13,,,,,,,,,,
15.47.02.368,475.9,119.0,0,,,24728.0,40.44,-0.35,0.78,-0.3,-4.3,7.0,15.5,36.06,,,,,,,,,,
15.47.02.379,455.1,113.8,0,,,24728.0,40.44,-0.76,0.21,0.29,0.4,14.9,2.2,35.78,,,,,,,,,,
15.47.02.389,450.4,112.6,0,,,24728.0,40.44,-0.58,0.9,-0.1,-7.1,2.5,10.7,36.3,,,,,,,,,,
15.47.02.399,418.4,104.6,0,,,24728.0,40.44,-1.03,0.61,-0.4,-4.5,-7.9,3.6,36.21,,,,,,,,,,
15.47.02.408,414.3,103.6,0,,,24728.0,40.44,-0.16,0.34,-0.36,8.3,10.7,-3.4,36.15,,,,,,,,,,
15.47.02.418,310.6,77.6,0,,,24728.0,40.44,-0.32,0.68,0.51,7.0,-4.7,-2.3,36.32,,,,,,,,,,
15.47.02.425,320.4,80.1,0,,,24728.0,40.44,-0.64,0.79,0.19,-15.6,1.3,-12.6,36.17,,,,,,,,,,
15.47.02.436,298.2,74.6,0,,,24728.0,40.44,-0.82,0.7,0.9,-45.4,-1.5,-21.0,36.15,,,,,,,,,,
15.47.02.446,278.5,69.6,0,,,24721.9,40.45,-0.29,0.99,1.66,-9.4,6.4,-6.5,36.03,,,,,,,,,,
15.47.02.455,200.5,50.1,0,,,24721.9,40.45,-0.61,-0.07,0.61,-15.2,-4.4,-10.0,35.94,,,,,,,,,,
15.47.02.465,98.6,24.6,0,,,24721.9,40.45,-0.68,0.41,1.04,-23.4,-18.7,0.7,36.08,,,,,,,,,,
15.47.02.477,84.6,21.2,0,,,24721.9,40.45,-0.2,0.7,0.85,12.6,-6.2,3.7,35.94,,,,,,,,,,
15.47.02.487,-17.2,4.3,0,,,24721.9,40.45,0.13,1.03,0.11,-23.8,15.5,23.1,36.23,,,,,,,,,,
15.47.02.495,-27.7,6.9,0,,,24721.9,40.45,0.22,0.47,0.33,6.4,-6.3,14.5,36.15,,,,,,,,,,
15.47.02.503,33.4,8.4,0,,,24721.9,40.45,-0.34,0.64,0.82,30.5,25.2,-4.6,36.25,,,,,,,,,,
15.47.02.511,33.3,8.3,0,,,24721.9,40.45,-0.06,0.01,0.8,10.1,-3.6,-7.9,36.1,,,,,,,,,,
15.47.02.522,80.7,20.2,0,,,24721.9,40.45,-0.25,0.13,0.87,-25.5,13.0,-5.0,36.31,,,,,,,,,,
15.47.02.533,68.2,17.0,0,,,24721.9,40.45,-0.22,-0.3,0.58,-2.3,18.6,-3.8,35.86,,,,,,,,,,
15.47.02.542,96.0,24.0,0,,,24721.9,40.45,-0.47,0.1,0.53,4.9,2.6,-9.1,36.3,,,,,,,,,,
15.47.02.552,97.0,24.2,0,,,24721.9,40.45,-0.09,0.73,0.58,28.0,-10.4,15.4,36.37,,,,,,,,,,
15.47.02.561,61.8,15.4,0,,,24721.9,40.45,-0.59,0.18,0.13,-23.0,4.6,5.6,36.28,,,,,,,,,,
15.47.02.569,46.5,11.6,0,,,24721.9,40.45,-0.57,0.49,-0.15,-12.7,2.3,0.9,35.97,,,,,,,,,,
15.47.02.578,104.5,26.1,0,,,24721.9,40.45,-0.34,0.03,0.27,-1.3,16.6,-6.2,36.25,,,,,,,,,,
15.47.02.588,28.9,7.2,0,,,24721.9,40.45,-0.55,-0.13,-0.23,8.8,26.0,-7.3,36.08,,,,,,,,,,
15.47.02.596,-41.8,10.4,1,5.0,110.7,24721.9,40.45,-0.48,0.19,0.46,-12.5,-15.1,13.1,36.03,,,,,,,,,,
15.47.02.606,36.8,9.2,0,,,24721.9,40.45,-0.72,0.88,0.58,11.6,-9.5,-7.5,36.09,,,,,,,,,,
15.47.02.616,69.9,17.5,0,,,24721.9,40.45,-0.93,0.06,0.12,6.0,3.8,-5.9,36.26,,,,,,,,,,
15.47.02.626,-18.8,4.7,0,,,24715.8,40.46,-0.78,0.62,0.11,4.2,7.8,-1.4,36.29,,,,,,,,,,
15.47.02.634,31.1,7.8,0,,,24715.8,40.46,-0.48,-0.3,0.19,11.0,-1.7,-10.6,36.15,,,,,,,,,,
15.47.02.643,-62.0,15.5,0,,,24715.8,40.46,-0.65,0.31,0.17,-1.0,6.2,3.7,36.15,,,,,,,,,,
15.47.02.654,-22.5,5.6,0,,,24715.8,40.46,-0.57,0.34,0.19,26.7,18.6,-9.3,36.13,,,,,,,,,,
15.47.02.662,-39.9,10.0,0,,,24715.8,40.46,-0.69,1.04,0.47,20.7,21.1,9.3,36.17,,,,,,,,,,
15.47.02.670,-106.2,26.6,0,,,24715.8,40.46,-0.26,0.62,-0.13,19.1,-11.7,-3.4,35.97,,,,,,,,,,
15.47.02.680,-33.9,8.5,0,,,24715.8,40.46,-0.85,0.84,-0.3,-17.0,-24.9,2.4,36.42,,,,,,,,,,
15.47.02.689,10.6,2.6,0,,,24715.8,40.46,-1.05,0.54,-0.17,-5.6,14.2,-2.3,36.24,,,,,,,,,,
15.47.02.700,-87.7,21.9,0,,,24715.8,40.46,-0.23,1.16,0.26,15.8,18.9,21.0,36.1,,,,,,,,,,
15.47.02.710,-71.6,17.9,0,,,24715.8,40.46,-0.92,0.68,-0.13,10.9,4.3,-0.4,36.43,,,,,,,,,,
15.47.02.718,-83.7,20.9,0,,,24715.8,40.46,-0.54,1.05,0.55,17.2,-20.4,-20.7,35.97,,,,,,,,,,
15.47.02.727,-84.6,21.2,0,,,24715.8,40.46,-1.0,0.82,0.32,-3.9,11.3,-2.3,36.53,,,,,,,,,,
15.47.02.739,-108.1,27.0,0,,,24715.8,40.46,-0.36,0.95,0.68,-8.2,7.2,-8.9,36.17,,,,,,,,,,
15.47.02.749,-175.4,43.8,0,,,24715.8,40.46,-0.86,1.37,-0.14,-13.4,29.1,0.5,36.18,,,,,,,,,,
15.47.02.756,-159.9,40.0,0,,,24715.8,40.46,-0.53,0.81,1.04,-22.0,17.6,12.1,36.29,,,,,,,,,,
15.47.02.768,-103.5,25.9,0,,,24715.8,40.46,-0.47,0.23,0.23,20.4,11.0,-2.0,35.78,,,,,,,,,,
15.47.02.778,-103.1,25.8,0,,,24715.8,40.46,-0.19,1.09,0.4,-1.0,-4.1,8.4,35.76,,,,,,,,,,
15.47.02.789,-158.8,39.7,0,,,24715.8,40.46,-0.31,0.75,1.21,6.3,2.8,-21.7,36.12,,,,,,,,,,
15.47.02.800,-108.4,27.1,0,,,24709.7,40.47,-0.59,0.68,0.9,-12.6,4.2,5.5,35.97,,,,,,,,,,
15.47.02.809,-164.9,41.2,0,,,24709.7,40.47,-0.39,0.45,0.44,-7.0,2.2,-18.2,36.07,,,,,,,,,,
15.47.02.818,-209.9,52.5,0,,,24709.7,40.47,-0.4,0.19,1.31,4.6,38.8,-2.8,36.13,,,,,,,,,,
15.47.02.828,-222.6,55.6,0,,,24709.7,40.47,0.03,0.38,0.38,-5.6,17.2,10.5,35.92,,,,,,,,,,
15.47.02.839,-160.4,40.1,0,,,24709.7,40.47,-0.17,1.1,-0.15,-10.3,-5.6,-1.5,36.4,,,,,,,,,,
15.47.02.849,39.7,9.9,0,,,24709.7,40.47,-0.13,0.52,0.17,9.9,18.5,2.1,36.08,,,,,,,,,,
15.47.02.859,101.2,25.3,0,,,24709.7,40.47,-0.41,0.12,0.42,-3.2,12.7,2.6,36.22,,,,,,,,,,
15.47.02.871,176.1,44.0,0,,,24709.7,40.47,-0.09,0.22,0.26,-12.2,17.8,11.2,35.98,,,,,,,,,,
15.47.02.880,256.0,64.0,0,,,24709.7,40.47,-0.14,0.3,1.12,-11.9,27.8,-2.5,36.01,,,,,,,,,,
15.47.02.892,325.3,81.3,0,,,24709.7,40.47,-0.18,-0.06,0.99,-30.2,2.6,-10.2,36.01,,,,,,,,,,
15.47.02.901,310.2,77.6,0,,,24709.7,40.47,-0.76,0.1,0.12,-0.3,16.8,-15.4,35.87,,,,,,,,,,
15.47.02.910,362.3,90.6,0,,,24709.7,40.47,-0.29,0.76,0.32,-24.6,25.6,-2.7,36.14,,,,,,,,,,
15.47.02.920,464.1,116.0,0,,,24709.7,40.47,-0.35,-0.13,-0.16,8.7,7.3,-4.1,36.3,,,,,,,,,,
15.47.02.930,391.2,97.8,0,,,24709.7,40.47,-0.27,0.04,0.63,1.0,15.6,-11.2,36.06,,,,,,,,,,
15.47.02.940,488.2,122.0,0,,,24709.7,40.47,-0.21,0.83,0.92,21.5,4.5,19.4,36.04,,,,,,,,,,
15.47.02.949,525.4,131.4,0,,,24709.7,40.47,-0.58,-0.21,0.13,18.1,13.0,-6.1,36.23,,,,,,,,,,
15.47.02.957,479.8,120.0,0,,,24709.7,40.47,-0.77,0.89,0.53,-19.1,8.3,5.3,36.34,,,,,,,,,,
15.47.02.968,476.2,119.0,0,,,24709.7,40.47,-0.48,-0.25,0.03,-4.3,11.3,12.2,36.05,,,,,,,,,,
15.47.02.976,456.2,114.0,0,,,24703.6,40.48,-0.82,-0.19,0.49,-27.8,-1.4,25.6,36.38,,,,,,,,,,
15.47.02.985,404.8,101.2,0,,,24703.6,40.48,-0.41,0.2,-0.97,-19.6,22.5,-2.8,35.96,,,,,,,,,,
15.47.02.992,314.6,78.6,0,,,24703.6,40.48,-0.59,0.18,0.12,-31.1,10.2,-27.8,36.16,,,,,,,,,,
15.47.03.000,329.5,82.4,0,,,24703.6,40.48,-0.56,0.64,-1.02,2.6,8.9,-10.6,36.07,,,,,,,,,,
15.47.03.009,234.8,58.7,0,,,24703.6,40.48,-0.65,1.13,-0.51,-6.8,21.6,1.4,36.24,,,,,,,,,,
15.47.03.018,245.9,61.5,0,,,24703.6,40.48,-0.87,0.44,-1.03,-4.5,7.2,-0.8,36.46,,,,,,,,,,
15.47.03.029,110.2,27.6,0,,,24709.7,40.47,-0.63,0.38,-0.39,-26.0,1.1,-12.7,36.36,,,,,,,,,,
15.47.03.042,53.8,13.4,0,,,24709.7,40.47,-0.58,0.39,0.75,-4.5,14.7,4.6,35.87,,,,,,,,,,
15.47.03.050,-9.8,2.4,0,,,24709.7,40.47,-1.0,0.55,0.34,-20.4,16.3,4.5,35.99,,,,,,,,,,
15.47.03.060,63.7,15.9,0,,,24709.7,40.47,-0.63,1.3,-0.79,21.0,-3.8,-0.5,36.03,,,,,,,,,,
15.47.03.069,32.5,8.1,1,6.0,126.8,24709.7,40.47,-0.53,0.84,-0.15,11.1,10.8,-5.4,36.03,,,,,,,,,,
15.47.03.079,42.8,10.7,0,,,24709.7,40.47,-0.47,0.59,-0.67,-15.9,4.2,16.4,36.22,,,,,,,,,,
15.47.03.089,109.0,27.2,0,,,24709.7,40.47,-0.52,0.78,0.79,3.4,0.9,4.1,35.91,,,,,,,,,,
15.47.03.100,42.6,10.6,0,,,24709.7,40.47,-0.43,0.82,-0.79,-10.4,-3.6,7.5,36.16,,,,,,,,,,
15.47.03.109,132.2,33.0,0,,,24709.7,40.47,-0.81,0.26,0.57,-17.3,14.5,-1.9,36.16,,,,,,,,,,
15.47.03.118,77.4,19.4,0,,,24709.7,40.47,-0.56,1.56,0.68,-12.7,23.1,2.7,36.03,,,,,,,,,,
15.47.03.127,82.4,20.6,0,,,24709.7,40.47,-0.2,0.6,1.21,-8.2,33.4,8.0,35.86,,,,,,,,,,
15.47.03.137,40.8,10.2,0,,,24709.7,40.47,-0.23,0.3,1.13,52.7,15.9,6.2,36.03,,,,,,,,,,
15.47.03.148,-9.2,2.3,0,,,24709.7,40.47,0.01,1.27,1.05,-1.1,-8.8,3.7,35.92,,,,,,,,,,
15.47.03.160,-17.9,4.5,0,,,24715.8,40.46,-0.7,0.32,0.07,-25.4,10.8,-7.2,35.82,,,,,,,,,,
15.47.03.170,-10.8,2.7,0,,,24715.8,40.46,-0.24,0.3,0.89,-7.3,6.5,-14.4,36.3,,,,,,,,,,
15.47.03.179,-57.9,14.5,0,,,24715.8,40.46,-0.32,0.3,0.66,11.1,26.6,-15.2,36.19,,,,,,,,,,
15.47.03.189,-40.7,10.2,0,,,24715.8,40.46,-0.26,0.34,0.02,-17.6,-3.5,-12.9,36.11,,,,,,,,,,
15.47.03.201,-72.4,18.1,0,,,24715.8,40.46,-0.4,1.11,0.06,17.2,12.6,-0.8,35.91,,,,,,,,,,
15.47.03.211,-37.1,9.3,0,,,24715.8,40.46,-0.36,-0.27,1.56,-13.2,2.4,20.9,35.76,,,,,,,,,,
15.47.03.219,-42.0,10.5,0,,,24715.8,40.46,-0.0,-0.05,-0.17,-11.3,19.8,0.6,35.96,,,,,,,,,,
15.47.03.229,-62.7,15.7,0,,,24715.8,40.46,-0.51,0.51,0.7,14.5,-1.2,-4.5,36.2,,,,,,,,,,
15.47.03.238,-59.6,14.9,0,,,24715.8,40.46,-0.16,0.13,0.61,20.8,21.7,-23.2,35.84,,,,,,,,,,
15.47.03.248,-47.9,12.0,0,,,24715.8,40.46,0.18,-0.01,0.65,-12.5,-26.5,-9.3,35.94,,,,,,,,,,
15.47.03.257,-69.1,17.3,0,,,24715.8,40.46,-0.27,-0.05,-0.36,-7.5,-5.8,-8.6,36.11,,,,,,,,,,
15.47.03.268,,,0,,,,,,,,,,,,,,,,,,,,,
15.47.03.277,-147.5,36.9,0,,,24715.8,40.46,-0.3,0.55,0.68,-9.2,-3.2,2.0,36.08,,,,,,,,,,
15.47.03.285,-41.5,10.4,0,,,24715.8,40.46,-0.7,-0.02,0.21,-7.6,15.3,7.6,35.97,,,,,,,,,,
15.47.03.295,-122.0,30.5,0,,,24721.9,40.45,-0.52,-0.56,0.23,-15.6,16.6,-21.8,36.21,,,,,,,,,,
15.47.03.305,-113.7,28.4,0,,,24721.9,40.45,-0.45,0.74,0.36,6.2,-10.1,-17.3,36.4,,,,,,,,,,
15.47.03.314,-113.1,28.3,0,,,24721.9,40.45,-1.14,0.46,-1.32,18.3,5.6,-9.9,36.18,,,,,,,,,,
15.47.03.323,-146.0,36.5,0,,,24721.9,40.45,-0.75,-0.48,-0.36,25.9,-7.9,10.3,36.26,,,,,,,,,,
15.47.03.331,-135.6,33.9,0,,,24721.9,40.45,-0.75,0.56,0.15,9.6,-4.5,16.9,36.1,,,,,,,,,,
15.47.03.340,-112.8,28.2,0,,,24721.9,40.45,-0.6,0.18,0.56,-28.6,-7.2,-10.8,36.07,,,,,,,,,,
15.47.03.348,-178.1,44.5,0,,,24721.9,40.45,-0.99,0.11,-0.4,2.1,10.4,-11.5,35.95,,,,,,,,,,
15.47.03.358,-128.1,32.0,0,,,24721.9,40.45,-0.73,0.48,-0.22,34.1,14.0,-0.4,36.23,,,,,,,,,,
15.47.03.367,-195.1,48.8,0,,,24721.9,40.45,-0.99,0.75,-0.2,9.5,-3.8,-4.5,35.8,,,,,,,,,,
15.47.03.377,-164.3,41.1,0,,,24721.9,40.45,-0.98,0.44,0.37,-11.0,14.4,-8.7,36.11,,,,,,,,,,
15.47.03.387,-193.8,48.4,0,,,24721.9,40.45,-0.53,1.28,-0.28,30.0,-0.6,11.3,36.25,,,,,,,,,,
15.47.03.397,-189.2,47.3,0,,,24721.9,40.45,-0.38,1.19,-0.24,4.1,5.6,3.7,35.89,,,,,,,,,,
15.47.03.408,-220.6,55.2,0,,,24721.9,40.45,-0.75,0.58,-0.23,-4.1,2.3,-8.4,36.01,,,,,,,,,,
15.47.03.417,25.3,6.3,0,,,24721.9,40.45,-0.78,1.0,0.27,0.5,13.7,6.2,36.23,,,,,,,,,,
15.47.03.429,9.1,2.3,0,,,24728.0,40.44,-0.49,0.69,0.18,4.4,18.5,5.3,36.1,,,,,,,,,,
15.47.03.438,163.5,40.9,0,,,24728.0,40.44,-0.47,0.6,0.0,-6.4,-1.1,18.8,36.0,,,,,,,,,,
15.47.03.448,268.7,67.2,0,,,24728.0,40.44,-0.27,1.5,0.29,3.7,13.0,1.2,36.01,,,,,,,,,,
15.47.03.458,292.4,73.1,0,,,24728.0,40.44,-0.59,0.77,0.53,-13.9,-6.2,5.7,36.12,,,,,,,,,,
15.47.03.466,313.5,78.4,0,,,24728.0,40.44,-0.64,0.74,1.15,-3.4,-5.1,1.6,36.28,,,,,,,,,,
15.47.03.476,412.4,103.1,0,,,24728.0,40.44,-0.26,0.87,0.32,6.3,14.6,6.9,36.16,,,,,,,,,,
15.47.03.485,435.0,108.8,0,,,24728.0,40.44,-0.2,0.38,0.63,-18.1,-6.9,0.7,36.12,,,,,,,,,,
15.47.03.495,412.9,103.2,0,,,24728.0,40.44,-0.12,0.67,-0.26,1.2,29.5,-7.6,36.1,,,,,,,,,,
15.47.03.506,483.2,120.8,1,7.0,137.3,24728.0,40.44,-0.01,0.48,1.2,22.2,-11.9,7.9,35.99,,,,,,,,,,
15.47.03.516,449.8,112.4,0,,,24728.0,40.44,-0.67,0.21,0.46,23.3,1.2,-24.1,36.08,,,,,,,,,,
15.47.03.526,508.6,127.2,0,,,24728.0,40.44,-0.16,0.31,0.56,18.8,-12.9,15.5,36.39,,,,,,,,,,
15.47.03.536,487.5,121.9,0,,,24728.0,40.44,0.05,-0.38,1.68,27.8,31.1,-10.7,36.04,,,,,,,,,,
15.47.03.547,428.7,107.2,0,,,24728.0,40.44,-0.56,0.56,1.01,-19.2,14.6,17.7,36.01,,,,,,,,,,
15.47.03.559,399.7,99.9,0,,,24728.0,40.44,-0.54,0.69,-0.33,-8.1,20.6,-8.6,36.07,,,,,,,,,,
15.47.03.568,302.8,75.7,0,,,24734.1,40.43,-0.05,-0.19,0.28,-1.9,15.8,26.1,35.67,,,,,,,,,,
15.47.03.578,244.4,61.1,0,,,24734.1,40.43,-0.29,0.15,-0.07,17.0,4.7,-8.7,36.22,,,,,,,,,,
15.47.03.586,177.9,44.5,0,,,24734.1,40.43,0.07,0.41,0.5,-10.6,-19.8,-9.0,36.07,,,,,,,,,,
15.47.03.597,170.1,42.5,0,,,24734.1,40.43,-0.44,0.1,0.67,21.4,8.2,4.5,36.22,,,,,,,,,,
15.47.03.607,46.9,11.7,0,,,24734.1,40.43,-0.58,-0.29,0.19,-20.8,14.5,3.3,36.13,,,,,,,,,,
15.47.03.619,39.9,10.0,0,,,24734.1,40.43,-0.52,-0.06,0.44,-4.3,-20.9,-4.6,36.3,,,,,,,,,,
15.47.03.630,32.7,8.2,0,,,24734.1,40.43,-0.44,0.18,0.96,-23.3,29.4,-20.2,36.03,,,,,,,,,,
15.47.03.639,43.7,10.9,0,,,24734.1,40.43,-0.46,-0.1,0.13,25.7,-18.2,5.4,36.08,,,,,,,,,,
15.47.03.649,114.9,28.7,0,,,24734.1,40.43,-0.76,0.6,0.14,4.4,22.6,-3.1,36.35,,,,,,,,,,
15.47.03.659,103.9,26.0,0,,,24734.1,40.43,-0.37,-0.22,0.13,-2.4,8.1,-7.9,36.13,,,,,,,,,,
15.47.03.669,74.5,18.6,0,,,24734.1,40.43,-0.62,-0.45,0.24,-0.8,12.4,-1.8,36.09,,,,,,,,,,
15.47.03.679,113.2,28.3,0,,,24734.1,40.43,-1.14,-0.06,-0.47,-10.1,26.9,-3.5,36.23,,,,,,,,,,
15.47.03.688,14.1,3.5,0,,,24734.1,40.43,-0.78,0.18,-0.83,13.1,3.9,-5.3,36.21,,,,,,,,,,
15.47.03.697,64.8,16.2,0,,,24740.2,40.42,-1.13,0.64,-0.22,14.1,-8.1,-21.6,36.16,,,,,,,,,,
15.47.03.705,65.6,16.4,0,,,24740.2,40.42,-0.67,0.09,0.44,24.3,8.7,-16.8,36.12,,,,,,,,,,
15.47.03.716,-23.1,5.8,0,,,24740.2,40.42,-0.46,0.25,-0.46,41.0,5.1,-9.0,36.11,,,,,,,,,,
15.47.03.726,7.9,2.0,0,,,24740.2,40.42,-0.73,0.41,-0.15,3.5,-13.0,4.2,36.25,,,,,,,,,,
15.47.03.736,,,0,,,,,,,,,,,,,,,,,,,,,
15.47.03.746,-58.1,14.5,0,,,24740.2,40.42,-0.83,0.35,0.08,10.7,22.1,-26.1,36.39,,,,,,,,,,
15.47.03.755,-12.5,3.1,0,,,24740.2,40.42,-0.62,0.95,-0.66,3.5,17.6,12.9,35.97,,,,,,,,,,
15.47.03.764,-94.7,23.7,0,,,24740.2,40.42,-0.82,0.49,-0.18,-6.8,-1.1,17.6,36.28,,,,,,,,,,
15.47.03.774,-2.0,0.5,0,,,24740.2,40.42,-0.78,0.79,0.84,-1.7,-4.7,9.2,36.06,,,,,,,,,,
15.47.03.783,-29.7,7.4,0,,,24740.2,40.42,-0.48,1.36,-0.02,28.1,-16.1,4.7,36.07,,,,,,,,,,
15.47.03.792,-110.7,27.7,0,,,24740.2,40.42,-0.66,1.25,-0.21,9.7,-5.5,-3.9,36.07,,,,,,,,,,
15.47.03.801,-72.4,18.1,0,,,24740.2,40.42,-0.59,0.92,0.06,-34.4,-8.7,7.0,36.06,,,,,,,,,,
15.47.03.810,-97.6,24.4,0,,,24740.2,40.42,-0.56,0.56,-0.09,6.2,3.0,-13.1,36.21,,,,,,,,,,
15.47.03.820,-55.6,13.9,0,,,24740.2,40.42,0.13,1.17,0.24,-16.5,20.5,-16.1,36.08,,,,,,,,,,
15.47.03.830,-33.5,8.4,0,,,24740.2,40.42,-0.34,0.13,-0.01,-21.7,-4.7,15.5,36.05,,,,,,,,,,
15.47.03.838,-97.8,24.4,0,,,24746.3,40.41,-0.36,0.23,0.04,2.9,19.4,-14.5,36.06,,,,,,,,,,
15.47.03.847,-82.8,20.7,0,,,24746.3,40.41,-0.39,0.37,0.97,-5.6,-3.3,6.7,35.86,,,,,,,,,,
15.47.03.857,-103.6,25.9,0,,,24746.3,40.41,-0.4,0.42,0.96,11.3,13.4,28.2,35.93,,,,,,,,,,
15.47.03.869,-99.2,24.8,0,,,24746.3,40.41,-0.37,0.06,0.81,5.0,35.9,-7.3,35.99,,,,,,,,,,
15.47.03.880,-121.8,30.4,0,,,24746.3,40.41,-0.32,0.58,1.02,-2.0,46.7,-10.6,36.08,,,,,,,,,,
15.47.03.890,-131.1,32.8,0,,,24746.3,40.41,-0.33,0.33,1.01,-24.5,6.7,-6.4,36.3,,,,,,,,,,
15.47.03.899,-184.1,46.0,0,,,24746.3,40.41,-0.5,0.06,0.31,15.5,3.7,-3.3,36.34,,,,,,,,,,
15.47.03.910,-102.7,25.7,0,,,24746.3,40.41,0.04,0.8,-0.32,0.8,13.1,-7.0,36.17,,,,,,,,,,
15.47.03.922,-98.6,24.6,0,,,24746.3,40.41,-0.42,0.6,0.49,3.1,-0.8,1.6,36.02,,,,,,,,,,
15.47.03.931,-131.6,32.9,0,,,24746.3,40.41,-0.76,-0.6,-0.44,6.3,-13.5,-2.5,35.82,,,,,,,,,,
15.47.03.941,-145.2,36.3,0,,,24746.3,40.41,-0.53,0.23,0.72,4.3,-6.8,9.1,36.03,,,,,,,,,,
15.47.03.950,-146.6,36.6,0,,,24746.3,40.41,-0.26,0.55,0.2,-0.2,6.5,-4.1,35.87,,,,,,,,,,
15.47.03.959,-187.8,47.0,0,,,24746.3,40.41,-0.53,-0.02,0.24,23.5,0.2,-7.4,36.04,,,,,,,,,,
15.47.03.968,-202.8,50.7,0,,,24752.5,40.4,-0.51,0.4,0.08,11.8,-2.1,7.2,36.21,,,,,,,,,,
15.47.03.978,-191.8,48.0,0,,,24752.5,40.4,-0.93,-0.15,1.08,27.5,1.7,8.8,36.09,,,,,,,,,,
15.47.03.988,48.6,12.2,0,,,24752.5,40.4,-0.69,0.13,0.44,-11.0,11.3,8.8,36.05,,,,,,,,,,
15.47.03.998,117.8,29.4,0,,,24752.5,40.4,-0.72,0.8,-0.48,18.8,1.9,18.0,36.22,,,,,,,,,,
15.47.04.007,206.5,51.6,0,,,24752.5,40.4,-0.92,0.2,-0.02,-0.7,24.0,10.8,36.05,,,,,,,,,,
15.47.04.018,298.9,74.7,1,8.0,117.2,24752.5,40.4,-0.69,0.32,0.27,-12.5,9.2,2.2,36.14,,,,,,,,,,
15.47.04.028,331.0,82.8,0,,,24746.3,40.41,-0.18,0.82,0.4,-12.1,11.6,-14.5,36.17,,,,,,,,,,
15.47.04.039,362.3,90.6,0,,,24746.3,40.41,-0.74,0.42,0.02,24.9,17.2,1.7,36.19,,,,,,,,,,
15.47.04.049,471.6,117.9,0,,,24746.3,40.41,-0.9,-0.15,-0.3,19.7,-2.9,-1.2,36.04,,,,,,,,,,
15.47.04.059,476.5,119.1,0,,,24746.3,40.41,-1.34,0.84,-0.04,-10.0,26.9,13.5,35.83,,,,,,,,,,
15.47.04.071,525.4,131.4,0,,,24746.3,40.41,-0.53,0.6,-0.51,-18.7,27.3,-0.3,36.16,,,,,,,,,,
15.47.04.080,465.3,116.3,0,,,24746.3,40.41,-0.91,0.85,0.48,-10.4,9.3,-2.7,36.13,,,,,,,,,,
15.47.04.089,464.2,116.0,0,,,24746.3,40.41,-0.76,0.63,-0.83,-1.1,-0.9,-5.2,36.13,,,,,,,,,,
15.47.04.101,459.2,114.8,0,,,24746.3,40.41,-0.59,0.12,0.14,-27.6,7.0,-4.4,36.17,,,,,,,,,,
15.47.04.110,374.1,93.5,0,,,24746.3,40.41,-0.72,0.38,0.01,8.0,4.9,-12.6,36.07,,,,,,,,,,
15.47.04.120,318.8,79.7,0,,,24746.3,40.41,-0.07,1.33,0.13,1.1,3.8,13.2,36.25,,,,,,,,,,
15.47.04.132,347.2,86.8,0,,,24746.3,40.41,-0.48,0.62,0.53,6.4,14.7,-11.9,36.14,,,,,,,,,,
15.47.04.140,321.4,80.4,0,,,24740.2,40.42,-0.29,0.47,0.39,-22.5,8.8,14.4,36.24,,,,,,,,,,
15.47.04.151,244.1,61.0,0,,,24740.2,40.42,-0.36,0.75,1.22,-7.9,7.1,-14.4,36.21,,,,,,,,,,
15.47.04.160,141.2,35.3,0,,,24740.2,40.42,-0.28,0.81,0.36,13.0,-1.9,6.6,36.19,,,,,,,,,,
15.47.04.173,61.2,15.3,0,,,24740.2,40.42,-0.45,1.18,0.41,-25.3,-17.4,0.2,36.07,,,,,,,,,,
15.47.04.181,-38.7,9.7,0,,,24740.2,40.42,-0.54,1.02,0.24,-8.3,-6.6,4.4,35.98,,,,,,,,,,
15.47.04.192,17.4,4.4,0,,,24740.2,40.42,-0.41,0.05,1.21,18.9,-11.9,-9.8,36.42,,,,,,,,,,
15.47.04.201,31.2,7.8,0,,,24740.2,40.42,-0.44,0.9,1.25,20.0,20.4,0.6,35.83,,,,,,,,,,
15.47.04.210,92.2,23.0,0,,,24740.2,40.42,-0.1,0.55,1.19,14.1,4.6,11.0,36.11,,,,,,,,,,
15.47.04.220,46.8,11.7,0,,,24740.2,40.42,-0.02,0.57,0.82,-14.1,17.2,-9.9,36.06,,,,,,,,,,
15.47.04.231,126.4,31.6,0,,,24740.2,40.42,-0.11,-0.11,0.99,-20.8,-6.5,-3.5,36.28,,,,,,,,,,
15.47.04.242,114.2,28.6,0,,,24734.1,40.43,-0.38,0.53,0.3,14.6,-2.4,2.9,36.41,,,,,,,,,,
15.47.04.251,96.0,24.0,0,,,24734.1,40.43,0.08,0.6,0.63,11.3,12.6,3.6,36.14,,,,,,,,,,
15.47.04.259,29.4,7.4,0,,,24734.1,40.43,-0.33,0.98,1.04,5.1,16.6,-3.0,36.12,,,,,,,,,,
15.47.04.271,42.8,10.7,0,,,24734.1,40.43,0.32,0.28,0.5,-10.2,13.1,-10.7,36.29,,,,,,,,,,
15.47.04.281,49.1,12.3,0,,,24734.1,40.43,-0.19,-0.27,1.28,0.2,20.4,-20.0,36.43,,,,,,,,,,
15.47.04.289,-18.6,4.6,0,,,24734.1,40.43,-0.77,0.17,0.22,27.7,2.0,-9.0,36.04,,,,,,,,,,
15.47.04.300,-30.1,7.5,0,,,24734.1,40.43,-0.12,0.21,0.89,-0.2,16.4,0.4,36.27,,,,,,,,,,
15.47.04.311,25.1,6.3,0,,,24734.1,40.43,-0.82,-0.1,0.34,-15.5,28.9,-5.1,36.23,,,,,,,,,,
15.47.04.319,-37.0,9.2,0,,,24734.1,40.43,-0.11,0.46,0.15,-18.9,11.6,19.2,36.19,,,,,,,,,,
15.47.04.329,-19.9,5.0,0,,,24734.1,40.43,-0.36,-0.2,-0.02,-8.5,5.2,-5.6,36.32,,,,,,,,,,
15.47.04.339,-13.1,3.3,0,,,24734.1,40.43,-0.21,0.02,0.49,-10.7,-25.4,-4.2,36.21,,,,,,,,,,
15.47.04.349,-17.5,4.4,0,,,24734.1,40.43,-0.85,-0.44,0.03,-15.0,10.7,-3.1,36.21,,,,,,,,,,
15.47.04.358,-45.7,11.4,0,,,24728.0,40.44,-0.72,-0.36,0.21,-35.0,1.0,-2.2,36.33,,,,,,,,,,
15.47.04.369,-67.1,16.8,0,,,24728.0,40.44,-0.72,0.07,-0.09,-21.9,3.5,4.1,36.13,,,,,,,,,,
15.47.04.380,-97.3,24.3,0,,,24728.0,40.44,-0.86,0.56,-1.06,4.5,13.5,2.3,36.05,,,,,,,,,,
15.47.04.389,-129.6,32.4,0,,,24728.0,40.44,-0.47,-0.31,0.2,12.7,16.4,-9.5,35.96,,,,,,,,,,
15.47.04.399,-31.6,7.9,0,,,24728.0,40.44,-0.62,-0.62,-0.43,13.5,-6.3,4.7,36.03,,,,,,,,,,
15.47.04.407,-86.5,21.6,0,,,24728.0,40.44,-1.19,0.47,-0.22,22.9,23.8,11.4,36.11,,,,,,,,,,
15.47.04.418,-96.1,24.0,0,,,24728.0,40.44,-0.64,0.24,0.21,5.3,15.7,-1.8,36.32,,,,,,,,,,
15.47.04.427,-107.9,27.0,0,,,24728.0,40.44,-0.99,0.8,-0.14,-11.3,-1.9,15.7,36.03,,,,,,,,,,
15.47.04.437,-53.4,13.4,0,,,24728.0,40.44,-1.0,0.37,0.15,-17.3,1.1,-2.7,36.11,,,,,,,,,,
15.47.04.446,-66.5,16.6,0,,,24728.0,40.44,-0.53,1.25,-0.07,32.4,-10.6,-9.1,35.95,,,,,,,,,,
15.47.04.455,-102.8,25.7,0,,,24728.0,40.44,-0.6,0.43,0.05,3.0,11.6,15.7,36.35,,,,,,,,,,
15.47.04.464,-155.6,38.9,0,,,24721.9,40.45,-0.49,0.24,-0.68,-4.8,-7.4,14.6,36.03,,,,,,,,,,
15.47.04.473,-195.4,48.8,0,,,24721.9,40.45,-0.77,0.56,-0.01,-14.5,6.1,-13.8,36.01,,,,,,,,,,
15.47.04.483,-173.9,43.5,0,,,24721.9,40.45,-0.35,0.71,0.21,-24.6,4.7,3.2,36.11,,,,,,,,,,
15.47.04.494,-215.0,53.8,0,,,24721.9,40.45,-0.48,0.1,-0.1,-24.2,11.8,0.1,36.12,,,,,,,,,,
15.47.04.502,-177.6,44.4,0,,,24721.9,40.45,-0.42,0.99,0.23,-7.4,28.1,10.8,36.03,,,,,,,,,,
15.47.04.514,-176.9,44.2,1,9.0,121.0,24721.9,40.45,-0.34,0.69,0.84,-11.5,7.4,5.6,36.05,,,,,,,,,,
15.47.04.525,-166.6,41.6,0,,,24721.9,40.45,0.03,0.64,0.45,-37.7,17.0,9.0,36.0,,,,,,,,,,
15.47.04.535,,,0,,,,,,,,,,,,,,,,,,,,,
15.47.04.544,-173.9,43.5,0,,,24721.9,40.45,0.28,0.15,1.09,-10.1,4.9,-2.6,36.14,,,,,,,,,,
15.47.04.554,33.9,8.5,0,,,24721.9,40.45,-0.38,-0.39,1.11,30.2,-2.3,6.3,36.12,,,,,,,,,,
15.47.04.566,181.5,45.4,0,,,24715.8,40.46,-0.2,0.05,0.59,12.3,-2.6,-2.4,35.85,,,,,,,,,,
15.47.04.574,269.6,67.4,0,,,24715.8,40.46,-0.06,0.42,-0.41,4.1,-11.0,2.5,36.15,,,,,,,,,,
15.47.04.586,294.9,73.7,0,,,24715.8,40.46,-0.37,0.22,0.42,-14.6,3.8,-9.0,36.12,,,,,,,,,,
15.47.04.595,413.6,103.4,0,,,24715.8,40.46,-0.39,-0.08,0.79,-6.4,15.7,-13.0,35.93,,,,,,,,,,
15.47.04.605,389.5,97.4,0,,,24715.8,40.46,-0.06,0.15,0.83,27.3,-8.2,-8.1,36.1,,,,,,,,,,
15.47.04.614,406.9,101.7,0,,,24715.8,40.46,-0.32,0.34,0.69,2.1,2.1,-0.7,35.83,,,,,,,,,,
15.47.04.622,546.4,136.6,0,,,24715.8,40.46,-0.06,-0.47,0.08,16.9,26.8,-15.6,36.09,,,,,,,,,,
15.47.04.631,434.9,108.7,0,,,24715.8,40.46,-0.43,0.21,0.51,27.8,1.9,-7.7,36.17,,,,,,,,,,
15.47.04.639,512.5,128.1,0,,,24715.8,40.46,-0.57,0.3,0.76,24.4,5.7,11.1,36.03,,,,,,,,,,
15.47.04.648,450.1,112.5,0,,,24715.8,40.46,-0.17,0.54,0.99,2.7,8.6,1.2,35.97,,,,,,,,,,
15.47.04.654,474.7,118.7,0,,,24715.8,40.46,-0.29,-0.2,0.31,20.9,-14.2,30.3,35.74,,,,,,,,,,
15.47.04.664,476.6,119.2,0,,,24715.8,40.46,-0.26,-0.25,0.4,-1.0,3.5,-9.4,35.59,,,,,,,,,,
15.47.04.674,516.2,129.0,0,,,24709.7,40.47,-0.56,-0.61,-0.63,-12.3,-1.8,-7.8,36.07,,,,,,,,,,
15.47.04.685,474.2,118.6,0,,,24709.7,40.47,-0.29,0.01,-0.5,-56.8,31.2,-31.3,36.14,,,,,,,,,,
15.47.04.694,385.8,96.4,0,,,24709.7,40.47,-0.46,0.92,0.14,4.0,-7.6,-14.6,36.1,,,,,,,,,,
15.47.04.705,282.0,70.5,0,,,24709.7,40.47,-0.72,-0.14,-0.5,6.8,-4.3,12.9,36.0,,,,,,,,,,
15.47.04.712,281.4,70.4,0,,,24709.7,40.47,-1.11,-0.1,-0.49,3.2,-13.3,5.0,36.12,,,,,,,,,,
15.47.04.723,162.1,40.5,0,,,24709.7,40.47,-0.89,0.22,0.72,0.1,5.5,9.3,36.26,,,,,,,,,,
15.47.04.735,97.1,24.3,0,,,24709.7,40.47,-1.06,0.2,-0.69,8.6,7.0,-5.9,36.03,,,,,,,,,,
15.47.04.745,-33.5,8.4,0,,,24709.7,40.47,-0.6,-0.46,-0.04,-14.8,17.4,-20.2,35.99,,,,,,,,,,
15.47.04.753,15.5,3.9,0,,,24709.7,40.47,-0.71,-0.12,0.66,-8.4,7.7,-5.4,35.96,,,,,,,,,,
15.47.04.762,124.5,31.1,0,,,24709.7,40.47,-0.64,0.12,0.03,-24.2,12.9,5.4,36.18,,,,,,,,,,
15.47.04.774,63.4,15.8,0,,,24709.7,40.47,-0.52,-0.02,0.22,20.7,-6.5,-14.0,36.53,,,,,,,,,,
15.47.04.785,74.6,18.6,0,,,24703.6,40.48,-0.37,0.93,-0.16,18.8,10.9,14.0,36.13,,,,,,,,,,
15.47.04.794,101.0,25.2,0,,,24703.6,40.48,-0.63,-0.21,-0.52,-11.1,-3.5,2.5,36.14,,,,,,,,,,
15.47.04.804,59.6,14.9,0,,,24703.6,40.48,-0.38,0.68,-0.48,23.9,14.1,-5.3,36.15,,,,,,,,,,
15.47.04.814,117.2,29.3,0,,,24703.6,40.48,-0.4,0.74,0.44,26.5,20.9,-1.2,36.02,,,,,,,,,,
15.47.04.825,57.9,14.5,0,,,24703.6,40.48,-0.68,0.86,0.0,15.6,6.1,3.2,36.07,,,,,,,,,,
15.47.04.835,45.3,11.3,0,,,24703.6,40.48,-1.12,1.04,0.38,5.9,6.4,4.4,36.08,,,,,,,,,,
15.47.04.845,-15.6,3.9,0,,,24703.6,40.48,-1.01,0.52,0.54,28.9,5.8,-0.1,36.14,,,,,,,,,,
15.47.04.852,50.4,12.6,0,,,24703.6,40.48,0.19,0.94,-0.41,-1.4,-8.5,-2.2,36.21,,,,,,,,,,
15.47.04.864,-42.3,10.6,0,,,24703.6,40.48,0.01,1.12,0.64,-19.0,-2.5,-0.3,35.96,,,,,,,,,,
15.47.04.875,-32.5,8.1,0,,,24703.6,40.48,-0.76,0.96,1.08,-25.3,16.2,-18.0,36.34,,,,,,,,,,
15.47.04.886,1.8,0.4,0,,,24703.6,40.48,-0.78,0.7,1.15,-17.5,11.5,11.2,35.9,,,,,,,,,,
15.47.04.895,-2.8,0.7,0,,,24697.5,40.49,-0.27,1.2,0.25,16.9,8.9,5.4,36.18,,,,,,,,,,
15.47.04.903,-60.2,15.0,0,,,24697.5,40.49,-0.5,0.16,0.69,19.0,-20.1,-6.7,36.23,,,,,,,,,,
15.47.04.912,4.0,1.0,0,,,24697.5,40.49,-0.35,0.31,0.32,-23.6,4.2,8.0,36.06,,,,,,,,,,
15.47.04.925,-49.0,12.2,0,,,24697.5,40.49,-0.37,0.73,0.68,-30.3,-4.9,1.7,35.87,,,,,,,,,,
15.47.04.934,-133.3,33.3,0,,,24697.5,40.49,0.2,0.1,0.47,31.5,20.5,-8.0,35.87,,,,,,,,,,
15.47.04.942,-56.4,14.1,0,,,24697.5,40.49,-0.4,0.23,0.67,27.5,-5.3,0.7,36.12,,,,,,,,,,
15.47.04.951,-48.9,12.2,0,,,24697.5,40.49,0.04,0.0,1.29,21.2,16.2,3.3,36.16,,,,,,,,,,
15.47.04.959,-50.3,12.6,0,,,24697.5,40.49,-0.13,0.16,-0.21,-10.8,14.6,-1.7,36.1,,,,,,,,,,
15.47.04.968,-22.0,5.5,1,10.0,132.2,24697.5,40.49,-0.23,0.24,0.11,25.2,18.7,-3.1,35.94,,,,,,,,,,
15.47.04.978,-162.4,40.6,0,,,24697.5,40.49,-0.4,0.41,0.76,-9.1,12.9,-2.1,36.24,,,,,,,,,,
15.47.04.988,-48.4,12.1,0,,,24697.5,40.49,-0.37,-0.04,0.91,2.6,12.3,-6.2,36.28,,,,,,,,,,
15.47.04.996,-153.5,38.4,0,,,24691.4,40.5,0.04,0.13,1.06,31.4,-7.5,-7.7,36.23,,,,,,,,,,
15.47.05.007,-187.6,46.9,0,,,24691.4,40.5,-0.57,0.26,0.44,-16.8,7.8,-5.4,36.08,104.6,,,,,,,,,
15.47.05.017,-187.5,46.9,0,,,24691.4,40.5,-0.89,-0.16,-0.54,13.7,14.4,-6.0,36.05,,,,,,,,,,
15.47.05.027,-126.3,31.6,0,,,24691.4,40.5,-0.49,0.72,0.55,2.2,12.7,-7.5,36.28,,,,,,,,,,
15.47.05.038,-135.0,33.8,0,,,24691.4,40.5,-0.54,-0.15,0.35,-0.9,9.3,1.3,35.96,,,,,,,,,,
15.47.05.046,-147.2,36.8,0,,,24691.4,40.5,-1.06,0.38,-0.58,55.4,11.7,8.3,35.99,,,,,,,,,,
15.47.05.056,-160.5,40.1,0,,,24691.4,40.5,-0.89,0.13,-0.2,22.3,11.5,4.1,36.05,,,,,,,,,,
15.47.05.066,-185.5,46.4,0,,,24691.4,40.5,-0.38,-0.11,-0.1,19.0,-5.8,0.8,36.19,,,,,,,,,,
15.47.05.078,-201.3,50.3,0,,,24691.4,40.5,-0.93,0.59,-0.29,-38.6,10.7,8.2,36.21,,,,,,,,,,
15.47.05.088,-239.0,59.8,0,,,24685.3,40.51,-0.4,0.06,0.49,-16.9,21.3,23.7,36.22,,,,,,,,,,
15.47.05.097,-207.8,52.0,0,,,24685.3,40.51,-0.68,0.87,0.13,-0.3,14.4,2.7,36.04,,,,,,,,,,
15.47.05.107,-186.3,46.6,0,,,24685.3,40.51,-1.15,0.72,-0.39,22.2,17.4,3.4,36.08,,,,,,,,,,
15.47.05.120,93.4,23.4,0,,,24685.3,40.51,-0.5,-0.14,0.59,33.3,-23.1,-2.0,36.02,,,,,,,,,,
15.47.05.129,144.5,36.1,0,,,24685.3,40.51,-0.88,0.22,0.02,-29.3,36.6,1.6,35.86,,,,,,,,,,
15.47.05.138,221.5,55.4,0,,,24685.3,40.51,-0.22,0.95,-0.69,24.8,18.9,13.0,36.12,,,,,,,,,,
15.47.05.150,261.7,65.4,0,,,24685.3,40.51,-0.98,1.0,-0.71,21.9,-1.6,-0.4,36.1,,,,,,,,,,
15.47.05.160,328.9,82.2,0,,,24685.3,40.51,-0.77,0.9,0.71,6.0,15.5,-4.0,36.15,,,,,,,,,,
15.47.05.171,461.5,115.4,0,,,24685.3,40.51,-0.53,0.38,0.14,-15.8,25.6,-3.6,36.28,,,,,,,,,,
15.47.05.182,454.8,113.7,0,,,24679.2,40.52,-0.44,0.72,0.41,9.3,-6.2,-10.8,36.22,,,,,,,,,,
15.47.05.192,468.1,117.0,0,,,24679.2,40.52,-0.27,1.18,0.63,40.1,-5.4,-10.2,36.07,,,,,,,,,,
15.47.05.202,521.9,130.5,0,,,24679.2,40.52,-0.62,0.45,1.32,-25.6,-10.9,-3.0,36.35,,,,,,,,,,
15.47.05.211,484.3,121.1,0,,,24679.2,40.52,-0.32,1.19,-0.67,6.2,33.4,6.2,36.13,,,,,,,,,,
15.47.05.220,523.4,130.8,0,,,24679.2,40.52,-0.45,0.44,1.34,9.7,29.0,-15.5,36.01,,,,,,,,,,
15.47.05.227,483.1,120.8,0,,,24679.2,40.52,-0.48,0.81,0.22,-11.3,11.7,5.1,35.93,,,,,,,,,,
15.47.05.239,487.3,121.8,0,,,24679.2,40.52,-0.14,0.92,0.76,5.8,1.7,-12.1,36.14,,,,,,,,,,
15.47.05.248,390.1,97.5,0,,,24679.2,40.52,-0.21,0.83,1.1,8.9,29.2,12.4,36.14,,,,,,,,,,
15.47.05.256,364.2,91.0,0,,,24679.2,40.52,-0.42,0.43,1.25,34.3,0.9,-7.5,35.82,,,,,,,,,,
15.47.05.266,350.6,87.6,0,,,24679.2,40.52,-0.46,0.3,0.11,-20.7,-24.1,3.9,36.13,,,,,,,,,,
15.47.05.277,221.1,55.3,0,,,24673.1,40.53,-0.03,0.41,0.96,26.8,22.3,2.4,36.32,,,,,,,,,,
15.47.05.288,197.1,49.3,0,,,24673.1,40.53,-0.3,0.56,0.21,4.5,37.2,7.3,36.04,,,,,,,,,,
15.47.05.297,130.2,32.6,0,,,24673.1,40.53,-0.23,0.11,0.35,23.9,-8.2,12.7,35.95,,,,,,,,,,
15.47.05.309,1.3,0.3,0,,,24673.1,40.53,-0.53,0.27,0.97,10.6,13.3,-7.7,36.17,,,,,,,,,,
15.47.05.318,48.1,12.0,0,,,24673.1,40.53,-0.32,0.61,1.27,1.1,-3.2,-1.6,36.06,,,,,,,,,,
15.47.05.327,34.8,8.7,0,,,24673.1,40.53,-0.34,-0.05,0.18,-4.8,-1.0,-1.7,36.21,,,,,,,,,,
15.47.05.337,38.9,9.7,0,,,24673.1,40.53,-0.08,0.87,-0.4,0.6,-1.2,-0.8,36.13,,,,,,,,,,
15.47.05.347,50.0,12.5,0,,,24673.1,40.53,-0.53,0.26,0.4,17.6,18.0,-1.5,36.05,,,,,,,,,,
15.47.05.359,143.7,35.9,0,,,24667.0,40.54,-0.06,0.64,-0.35,-17.4,20.4,5.9,35.93,,,,,,,,,,
15.47.05.369,107.5,26.9,0,,,24667.0,40.54,-0.03,-0.23,0.8,-1.6,5.1,17.9,36.18,,,,,,,,,,
15.47.05.380,129.4,32.4,0,,,24667.0,40.54,-0.37,0.46,-0.65,-9.4,8.0,-22.7,36.11,,,,,,,,,,
15.47.05.391,38.2,9.6,0,,,24667.0,40.54,-0.2,0.47,-0.28,13.4,23.0,-14.1,35.96,,,,,,,,,,
15.47.05.401,44.7,11.2,0,,,24667.0,40.54,-0.86,-0.62,0.55,24.8,2.4,-15.9,36.22,,,,,,,,,,
15.47.05.411,-36.9,9.2,0,,,24667.0,40.54,-0.6,0.72,-0.03,-1.6,24.1,-10.4,36.22,,,,,,,,,,
15.47.05.421,-36.9,9.2,1,11.0,132.5,24667.0,40.54,-0.71,-0.15,0.7,13.9,10.4,9.3,36.2,,,,,,,,,,
15.47.05.432,76.1,19.0,0,,,24667.0,40.54,-0.33,0.34,-0.81,-25.4,10.4,-17.9,35.98,,,,,,,,,,
15.47.05.444,-50.2,12.6,0,,,24667.0,40.54,-1.13,0.21,0.26,4.8,-18.2,-13.3,36.0,,,,,,,,,,
15.47.05.453,-8.8,2.2,0,,,24660.9,40.55,-0.74,0.98,0.38,32.4,11.9,-19.6,36.1,,,,,,,,,,
15.47.05.464,12.6,3.2,0,,,24660.9,40.55,-0.75,-0.04,-0.18,10.8,19.1,-12.2,36.4,,,,,,,,,,
15.47.05.471,-44.0,11.0,0,,,24660.9,40.55,-1.11,0.57,-0.36,8.0,10.7,9.2,35.97,,,,,,,,,,
15.47.05.481,-72.5,18.1,0,,,24660.9,40.55,-0.98,0.15,-0.58,-2.7,19.8,-15.8,36.01,,,,,,,,,,
15.47.05.492,-50.1,12.5,0,,,24660.9,40.55,-0.52,0.42,-0.11,-4.7,-5.7,7.6,36.06,,,,,,,,,,
15.47.05.500,-70.9,17.7,0,,,24660.9,40.55,-0.85,0.63,0.29,-0.4,-1.2,6.7,36.07,,,,,,,,,,
15.47.05.510,-15.2,3.8,0,,,24660.9,40.55,-0.2,1.2,-0.36,-13.6,-22.8,1.5,36.06,,,,,,,,,,
15.47.05.519,-63.5,15.9,0,,,24660.9,40.55,-0.68,0.99,-0.97,-20.4,-10.0,7.7,36.17,,,,,,,,,,
15.47.05.528,-19.0,4.8,0,,,24660.9,40.55,-0.7,1.4,-0.2,17.3,14.8,1.3,36.31,,,,,,,,,,
15.47.05.539,-64.9,16.2,0,,,24660.9,40.55,-0.65,1.03,0.09,-5.1,7.8,-6.1,36.17,,,,,,,,,,
15.47.05.548,-137.0,34.2,0,,,24654.8,40.56,-0.55,0.65,0.52,-28.9,21.3,-18.0,35.9,,,,,,,,,,
15.47.05.558,-81.8,20.4,0,,,24654.8,40.56,-0.6,0.97,1.03,7.5,8.4,-15.2,36.28,,,,,,,,,,
15.47.05.567,-118.1,29.5,0,,,24654.8,40.56,-0.1,1.07,0.49,12.3,13.6,11.7,36.05,,,,,,,,,,
15.47.05.578,-117.1,29.3,0,,,24654.8,40.56,-0.54,1.29,-0.16,11.3,-23.0,-10.1,36.18,,,,,,,,,,
15.47.05.589,-159.2,39.8,0,,,24654.8,40.56,-0.05,0.42,0.46,1.0,-5.5,11.4,36.03,,,,,,,,,,
15.47.05.599,-190.6,47.6,0,,,24654.8,40.56,-0.03,1.12,0.15,-21.7,6.5,-11.0,36.16,,,,,,,,,,
15.47.05.610,-112.1,28.0,0,,,24654.8,40.56,-0.29,1.21,0.92,18.1,31.0,-12.3,36.13,,,,,,,,,,
15.47.05.619,-203.0,50.8,0,,,24654.8,40.56,-0.35,0.85,0.34,9.4,6.8,-9.4,36.01,,,,,,,,,,
15.47.05.628,-117.1,29.3,0,,,24654.8,40.56,-0.22,0.28,0.81,-26.4,-7.8,-3.2,36.15,,,,,,,,,,
15.47.05.638,-163.8,41.0,0,,,24648.8,40.57,-0.67,1.35,0.84,10.2,-18.8,-33.3,36.07,,,,,,,,,,
15.47.05.647,-158.0,39.5,0,,,24648.8,40.57,-0.02,0.3,-0.2,27.5,-9.1,3.4,35.94,,,,,,,,,,
15.47.05.658,-211.5,52.9,0,,,24648.8,40.57,-0.47,0.07,0.5,-15.0,24.6,-5.2,36.02,,,,,,,,,,
15.47.05.669,-177.5,44.4,0,,,24648.8,40.57,-0.01,-0.08,0.51,-43.7,6.8,-8.3,36.24,,,,,,,,,,
15.47.05.678,6.6,1.6,0,,,24648.8,40.57,-0.39,0.33,0.9,28.7,-6.5,-12.7,36.17,,,,,,,,,,
15.47.05.688,,,0,,,,,,,,,,,,,,,,,,,,,
15.47.05.697,103.5,25.9,0,,,24648.8,40.57,-0.67,-0.16,0.1,-12.1,-15.2,-13.6,36.07,,,,,,,,,,
15.47.05.708,210.9,52.7,0,,,24648.8,40.57,-0.48,0.42,0.27,16.8,10.2,-2.7,35.87,,,,,,,,,,
15.47.05.717,291.8,73.0,0,,,24648.8,40.57,-0.21,0.5,-0.0,2.7,27.7,10.5,36.04,,,,,,,,,,
15.47.05.726,322.6,80.6,0,,,24642.7,40.58,-0.66,-0.01,0.17,-24.7,-0.5,0.3,36.27,,,,,,,,,,
15.47.05.735,369.3,92.3,0,,,24642.7,40.58,-0.87,-0.1,-0.21,12.4,3.9,-18.6,36.08,,,,,,,,,,
15.47.05.744,349.1,87.3,0,,,24642.7,40.58,-0.59,-0.29,0.18,18.5,-19.1,-0.2,36.1,,,,,,,,,,
15.47.05.755,487.3,121.8,0,,,24642.7,40.58,-0.22,0.2,-0.11,-31.0,22.7,-15.7,35.99,,,,,,,,,,
15.47.05.764,473.8,118.4,0,,,24642.7,40.58,-0.47,-0.49,0.02,12.8,10.0,-2.7,36.28,,,,,,,,,,
15.47.05.774,534.3,133.6,0,,,24642.7,40.58,-0.77,0.24,-0.13,-10.7,-28.6,4.1,36.16,,,,,,,,,,
15.47.05.783,480.3,120.1,0,,,24642.7,40.58,-0.24,1.19,0.62,-2.8,36.2,1.4,36.0,,,,,,,,,,
15.47.05.790,480.7,120.2,0,,,24642.7,40.58,-0.19,0.6,0.1,-21.8,-9.3,4.4,36.23,,,,,,,,,,
15.47.05.800,421.9,105.5,0,,,24642.7,40.58,-0.74,-0.15,-0.01,-12.9,16.0,17.9,36.31,,,,,,,,,,
15.47.05.807,428.9,107.2,0,,,24642.7,40.58,-0.34,0.37,0.06,-8.5,11.2,12.4,36.06,,,,,,,,,,
15.47.05.817,400.9,100.2,0,,,24636.6,40.59,-0.88,0.52,-0.05,-9.9,-1.8,-42.4,35.92,,,,,,,,,,
15.47.05.825,361.7,90.4,0,,,24636.6,40.59,-0.95,0.45,-0.24,-8.4,-7.5,3.5,36.06,,,,,,,,,,
15.47.05.836,238.7,59.7,0,,,24636.6,40.59,-1.02,0.6,-0.18,-1.7,16.0,7.8,36.07,,,,,,,,,,
15.47.05.847,209.0,52.2,0,,,24636.6,40.59,-0.82,0.61,0.19,11.1,2.1,-9.0,36.02,,,,,,,,,,
15.47.05.857,121.0,30.2,0,,,24636.6,40.59,-0.8,0.46,0.19,-9.5,-6.6,-5.1,35.89,,,,,,,,,,
15.47.05.869,25.5,6.4,0,,,24636.6,40.59,-0.33,0.96,-0.45,6.2,0.1,-8.1,35.95,,,,,,,,,,
15.47.05.880,-0.7,0.2,0,,,24636.6,40.59,-0.98,-0.13,-0.71,-3.6,8.3,-10.1,36.48,,,,,,,,,,
15.47.05.889,60.8,15.2,0,,,24636.6,40.59,-0.7,0.5,-0.04,-6.6,11.5,13.9,36.01,,,,,,,,,,
15.47.05.898,73.8,18.4,0,,,24636.6,40.59,-0.67,0.69,0.18,-7.9,-1.5,10.2,35.96,,,,,,,,,,
15.47.05.909,99.7,24.9,1,12.0,123.0,24630.5,40.6,-0.97,0.33,0.41,-7.5,29.9,-2.5,36.03,,,,,,,,,,
15.47.05.919,21.4,5.4,0,,,24630.5,40.6,-0.85,0.58,-0.47,6.1,16.3,-13.4,35.93,,,,,,,,,,
15.47.05.927,100.2,25.0,0,,,24630.5,40.6,-0.53,0.12,-0.08,-20.3,22.1,-14.4,36.0,,,,,,,,,,
15.47.05.936,132.1,33.0,0,,,24630.5,40.6,-0.18,0.69,0.62,-8.2,-5.0,-4.9,36.41,,,,,,,,,,
15.47.05.946,64.6,16.2,0,,,24630.5,40.6,-0.46,0.91,0.67,-20.5,22.7,8.9,35.98,,,,,,,,,,
15.47.05.957,79.0,19.8,0,,,24630.5,40.6,-0.63,1.17,0.22,11.2,12.2,-9.4,36.12,,,,,,,,,,
15.47.05.966,60.2,15.0,0,,,24630.5,40.6,-0.45,0.53,-0.44,-6.1,1.0,12.8,36.08,,,,,,,,,,
15.47.05.976,43.9,11.0,0,,,24630.5,40.6,-0.06,0.08,0.79,27.5,-11.8,10.8,35.98,,,,,,,,,,
15.47.05.986,-22.9,5.7,0,,,24630.5,40.6,-0.28,0.21,1.34,8.2,6.9,-10.1,36.32,,,,,,,,,,
15.47.05.997,-37.7,9.4,0,,,24624.5,40.61,-0.28,0.15,0.95,-19.7,14.9,-3.2,36.15,,,,,,,,,,
15.47.06.007,-37.5,9.4,0,,,24624.5,40.61,-0.53,0.32,1.31,18.9,26.5,5.4,35.71,,,,,,,,,,
15.47.06.017,-41.3,10.3,0,,,24624.5,40.61,-0.27,0.2,1.5,34.9,21.6,-2.0,35.99,,,,,,,,,,
15.47.06.025,11.4,2.8,0,,,24624.5,40.61,-0.65,0.6,1.12,14.1,2.5,-3.0,36.17,,,,,,,,,,
15.47.06.035,-85.4,21.4,0,,,24624.5,40.61,-0.21,0.36,0.96,-20.8,-4.1,9.4,36.17,,,,,,,,,,
15.47.06.045,-64.7,16.2,0,,,24624.5,40.61,-0.35,-0.08,0.91,13.3,7.4,3.5,36.18,,,,,,,,,,
15.47.06.055,-101.5,25.4,0,,,24618.4,40.62,-0.17,0.05,0.91,-8.6,-8.8,2.0,36.11,,,,,,,,,,
15.47.06.066,-70.8,17.7,0,,,24618.4,40.62,-0.51,-0.19,-0.09,14.9,-9.9,17.8,36.05,,,,,,,,,,
15.47.06.078,-112.9,28.2,0,,,24618.4,40.62,-0.3,-0.43,0.94,5.9,-20.1,-3.9,36.36,,,,,,,,,,
15.47.06.089,-59.2,14.8,0,,,24618.4,40.62,-0.29,0.32,1.02,-4.8,0.5,9.0,36.12,,,,,,,,,,
15.47.06.100,-92.3,23.1,0,,,24612.4,40.63,-0.57,0.16,0.23,2.1,3.7,-15.4,36.31,,,,,,,,,,
15.47.06.109,-71.7,17.9,0,,,24612.4,40.63,-0.97,0.17,-0.44,14.4,0.6,3.2,36.44,,,,,,,,,,
15.47.06.119,-158.9,39.7,0,,,24612.4,40.63,-0.69,-0.24,-0.24,30.3,17.3,-13.7,36.23,,,,,,,,,,
15.47.06.128,-119.1,29.8,0,,,24612.4,40.63,-0.48,0.2,0.33,-2.4,5.1,-7.2,36.09,,,,,,,,,,
15.47.06.138,-109.1,27.3,0,,,24612.4,40.63,-0.77,0.15,0.77,-18.7,-4.3,-13.5,36.13,,,,,,,,,,
15.47.06.149,-123.4,30.8,0,,,24606.3,40.64,-0.85,-0.08,-0.23,5.6,10.8,7.7,36.06,,,,,,,,,,
15.47.06.159,-130.2,32.6,0,,,24606.3,40.64,-0.72,0.26,0.16,8.8,2.9,-1.3,36.18,,,,,,,,,,
15.47.06.167,-159.8,40.0,0,,,24606.3,40.64,-0.78,0.19,-0.58,-23.9,-4.8,14.8,36.32,,,,,,,,,,
15.47.06.177,-158.4,39.6,0,,,24606.3,40.64,-1.03,0.2,-0.1,-0.7,-1.6,19.3,36.13,,,,,,,,,,
15.47.06.186,-169.5,42.4,0,,,24606.3,40.64,-1.02,0.82,-0.65,0.7,23.0,6.7,36.28,,,,,,,,,,
15.47.06.196,-174.7,43.7,0,,,24606.3,40.64,-0.64,0.64,-0.5,13.1,0.1,4.4,36.14,,,,,,,,,,
15.47.06.205,-105.5,26.4,0,,,24600.2,40.65,-0.65,0.44,0.43,28.4,13.2,-15.3,35.79,,,,,,,,,,
15.47.06.213,-163.8,41.0,0,,,24600.2,40.65,-0.53,0.53,0.45,0.4,35.4,-2.5,36.09,,,,,,,,,,
15.47.06.224,-156.4,39.1,0,,,24600.2,40.65,-0.58,1.23,0.15,6.4,10.0,6.2,35.8,,,,,,,,,,
15.47.06.233,-189.3,47.3,0,,,24600.2,40.65,-0.41,0.99,0.41,1.8,-9.9,6.4,36.15,,,,,,,,,,
15.47.06.241,-34.0,8.5,0,,,24600.2,40.65,-0.26,1.11,0.31,-16.8,-3.4,1.5,36.04,,,,,,,,,,
15.47.06.252,121.2,30.3,0,,,24594.2,40.66,-0.16,0.44,-0.35,23.5,3.1,1.3,36.06,,,,,,,,,,
15.47.06.261,174.4,43.6,0,,,24594.2,40.66,-0.43,1.21,0.25,1.8,-1.6,4.5,36.1,,,,,,,,,,
15.47.06.272,265.6,66.4,0,,,24594.2,40.66,-0.09,1.0,-0.21,7.0,18.6,1.5,35.87,,,,,,,,,,
15.47.06.283,332.6,83.2,0,,,24594.2,40.66,-0.28,1.37,0.66,-4.9,15.1,9.9,36.08,,,,,,,,,,
15.47.06.292,289.7,72.4,0,,,24594.2,40.66,-0.6,0.86,0.26,-20.9,11.9,-3.5,36.19,,,,,,,,,,
15.47.06.304,470.2,117.6,0,,,24588.1,40.67,-0.44,0.67,0.95,-14.2,5.5,13.1,36.18,,,,,,,,,,
15.47.06.313,465.1,116.3,0,,,24588.1,40.67,0.09,0.54,0.69,-6.2,19.2,-10.3,35.81,,,,,,,,,,
15.47.06.324,462.3,115.6,1,13.0,144.6,24588.1,40.67,-0.33,0.76,0.58,-7.6,22.9,-6.0,36.19,,,,,,,,,,
15.47.06.334,551.5,137.9,0,,,24588.1,40.67,-0.46,0.9,1.39,-4.2,6.7,4.8,36.03,,,,,,,,,,
15.47.06.344,477.2,119.3,0,,,24588.1,40.67,-0.07,0.23,0.37,-44.7,10.1,-6.0,36.24,,,,,,,,,,
15.47.06.353,486.7,121.7,0,,,24582.1,40.68,-0.44,0.21,0.77,7.7,7.1,-31.0,36.26,,,,,,,,,,
15.47.06.363,458.5,114.6,0,,,24582.1,40.68,-0.22,0.4,0.82,-9.8,-0.3,-11.9,36.0,,,,,,,,,,
15.47.06.370,467.2,116.8,0,,,24582.1,40.68,-0.55,0.4,-0.26,2.4,-10.5,5.5,35.99,,,,,,,,,,
15.47.06.380,362.1,90.5,0,,,24582.1,40.68,0.2,0.19,1.21,-23.5,-12.3,9.6,36.08,,,,,,,,,,
15.47.06.393,332.3,83.1,0,,,24582.1,40.68,-0.2,0.3,0.61,28.0,5.9,-13.7,36.4,,,,,,,,,,
15.47.06.402,238.6,59.6,0,,,24576.1,40.69,-0.5,-0.23,1.0,6.7,15.3,-1.7,36.32,,,,,,,,,,
15.47.06.413,212.7,53.2,0,,,24576.1,40.69,-0.54,0.21,1.46,-5.8,0.1,-1.6,36.2,,,,,,,,,,
15.47.06.423,130.8,32.7,0,,,24576.1,40.69,-0.64,0.12,1.54,-33.7,3.2,22.3,36.26,,,,,,,,,,
15.47.06.434,7.9,2.0,0,,,24576.1,40.69,-0.6,-0.36,-0.57,-6.8,-15.5,-15.0,36.12,,,,,,,,,,
15.47.06.442,16.7,4.2,0,,,24576.1,40.69,-1.39,0.34,0.4,-48.6,1.5,18.3,35.93,,,,,,,,,,
15.47.06.449,58.3,14.6,0,,,24576.1,40.69,-1.18,0.62,0.26,-2.8,-1.1,-9.8,36.18,,,,,,,,,,
15.47.06.458,24.6,6.2,0,,,24570.0,40.7,-1.05,0.42,0.53,13.4,-2.0,-11.1,36.29,,,,,,,,,,
15.47.06.469,36.9,9.2,0,,,24570.0,40.7,-1.03,-0.38,0.01,-20.7,8.2,-5.0,36.16,,,,,,,,,,
15.47.06.479,92.8,23.2,0,,,24570.0,40.7,-0.86,0.23,-1.11,1.5,-1.5,-16.1,36.05,,,,,,,,,,
15.47.06.488,15.7,3.9,0,,,24570.0,40.7,-0.42,0.54,-0.82,-4.7,20.7,-13.2,36.37,,,,,,,,,,
15.47.06.499,86.6,21.6,0,,,24570.0,40.7,-1.21,0.06,-1.43,36.6,15.9,24.3,36.15,,,,,,,,,,
15.47.06.511,62.2,15.6,0,,,24564.0,40.71,-1.26,0.35,0.51,-9.2,-10.5,22.2,36.03,,,,,,,,,,
15.47.06.520,79.5,19.9,0,,,24564.0,40.71,-0.72,0.52,-0.26,-14.2,21.2,0.4,35.88,,,,,,,,,,
15.47.06.530,37.3,9.3,0,,,24564.0,40.71,-0.45,-0.39,-0.65,29.6,1.3,-2.6,36.42,,,,,,,,,,
15.47.06.540,84.2,21.0,0,,,24564.0,40.71,-1.12,0.74,0.29,14.9,5.2,-5.9,36.09,,,,,,,,,,
15.47.06.547,-4.6,1.2,0,,,24564.0,40.71,-0.96,0.24,-0.46,12.4,7.1,6.5,36.07,,,,,,,,,,
15.47.06.559,-19.9,5.0,0,,,24558.0,40.72,-0.94,0.46,-0.86,14.3,0.4,0.6,36.3,,,,,,,,,,
15.47.06.568,-3.6,0.9,0,,,24558.0,40.72,-0.66,0.49,-0.26,-15.2,10.1,-1.1,36.31,,,,,,,,,,
15.47.06.576,-21.1,5.3,0,,,24558.0,40.72,-0.8,0.36,0.1,16.0,23.3,21.5,36.01,,,,,,,,,,
15.47.06.585,-84.0,21.0,0,,,24558.0,40.72,-0.61,0.85,0.0,1.6,6.3,21.2,36.26,,,,,,,,,,
15.47.06.594,-79.9,20.0,0,,,24558.0,40.72,-0.39,0.85,0.86,-5.7,12.2,11.3,36.16,,,,,,,,,,
15.47.06.604,-121.4,30.4,0,,,24558.0,40.72,-0.53,0.78,0.47,8.0,10.5,-0.9,35.84,,,,,,,,,,
15.47.06.615,-70.2,17.6,0,,,24551.9,40.73,-0.23,0.26,0.98,1.3,-14.8,9.2,36.12,,,,,,,,,,
15.47.06.625,-61.3,15.3,0,,,24551.9,40.73,-0.21,0.7,0.85,12.6,-13.1,1.2,36.22,,,,,,,,,,
15.47.06.633,-72.6,18.2,0,,,24551.9,40.73,-0.52,1.05,1.46,-27.7,1.8,-15.1,36.14,,,,,,,,,,
15.47.06.642,-37.8,9.4,0,,,24551.9,40.73,-0.46,0.34,1.21,39.8,10.7,-21.0,36.05,,,,,,,,,,
15.47.06.652,-127.2,31.8,0,,,24551.9,40.73,-0.54,0.11,0.35,11.7,12.8,-1.7,36.07,,,,,,,,,,
15.47.06.663,-126.4,31.6,0,,,24545.9,40.74,-0.05,0.61,0.97,-16.0,19.4,14.2,36.06,,,,,,,,,,
15.47.06.673,-54.4,13.6,0,,,24545.9,40.74,-0.45,0.26,0.83,-1.1,17.1,-10.0,36.13,,,,,,,,,,
15.47.06.683,-59.1,14.8,0,,,24545.9,40.74,-0.37,0.05,0.83,3.0,1.3,18.2,36.21,,,,,,,,,,
15.47.06.692,-80.1,20.0,1,14.0,163.0,24545.9,40.74,-0.43,0.51,0.42,34.8,25.2,15.0,36.03,,,,,,,,,,
15.47.06.702,-164.9,41.2,0,,,24545.9,40.74,-0.58,-0.12,0.21,-24.3,17.8,4.2,36.24,,,,,,,,,,
15.47.06.711,-142.1,35.5,0,,,24539.9,40.75,-0.04,0.23,0.43,-30.4,17.1,-2.4,36.06,,,,,,,,,,
15.47.06.719,-109.0,27.2,0,,,24539.9,40.75,0.18,-0.29,-0.27,6.5,4.4,-9.6,36.05,,,,,,,,,,
15.47.06.729,-148.1,37.0,0,,,24539.9,40.75,-0.7,0.15,0.83,-25.8,8.9,-7.3,36.23,,,,,,,,,,
15.47.06.738,-183.5,45.9,0,,,24539.9,40.75,-0.48,-0.18,0.75,18.9,-0.5,17.8,36.48,,,,,,,,,,
15.47.06.750,-113.8,28.4,0,,,24539.9,40.75,-0.68,-0.26,0.25,11.3,37.7,-18.5,36.36,,,,,,,,,,
15.47.06.758,-113.2,28.3,0,,,24533.9,40.76,-0.35,0.4,0.75,17.5,7.7,6.3,36.09,,,,,,,,,,
15.47.06.767,-138.3,34.6,0,,,24533.9,40.76,-0.33,-0.59,0.87,28.4,12.7,-10.2,36.17,,,,,,,,,,
15.47.06.777,-218.4,54.6,0,,,24533.9,40.76,-0.16,0.16,0.4,17.7,-7.6,-3.8,36.2,,,,,,,,,,
15.47.06.787,-144.4,36.1,0,,,24533.9,40.76,-0.26,0.51,0.36,0.0,24.8,-1.8,36.03,,,,,,,,,,
15.47.06.798,-189.8,47.4,0,,,24533.9,40.76,-0.39,0.54,0.44,12.7,-8.3,-5.9,36.26,,,,,,,,,,
15.47.06.808,48.3,12.1,0,,,24527.8,40.77,-0.79,-0.16,-0.11,-28.4,30.4,9.9,35.91,,,,,,,,,,
15.47.06.819,102.3,25.6,0,,,24527.8,40.77,-0.56,0.18,-0.09,3.3,16.6,-22.8,36.06,,,,,,,,,,
15.47.06.827,180.3,45.1,0,,,24527.8,40.77,-0.55,0.36,0.46,23.1,-13.1,5.5,36.38,,,,,,,,,,
15.47.06.836,287.3,71.8,0,,,24527.8,40.77,-0.89,-0.29,0.02,-22.8,6.0,3.5,36.12,,,,,,,,,,
15.47.06.843,316.3,79.1,0,,,24527.8,40.77,-0.79,0.68,-0.51,-0.7,6.6,-7.2,36.05,,,,,,,,,,
15.47.06.852,313.3,78.3,0,,,24527.8,40.77,-0.71,-0.27,-0.11,-1.6,22.0,-2.1,35.95,,,,,,,,,,
15.47.06.863,366.2,91.6,0,,,24521.8,40.78,-0.4,0.93,-0.34,-5.7,-13.7,9.4,36.1,,,,,,,,,,
15.47.06.874,402.0,100.5,0,,,24521.8,40.78,-1.03,0.34,0.01,-23.8,26.7,-2.8,36.22,,,,,,,,,,
15.47.06.885,482.4,120.6,0,,,24521.8,40.78,-0.7,1.14,-0.59,-8.0,15.4,14.0,36.05,,,,,,,,,,
15.47.06.894,524.7,131.2,0,,,24521.8,40.78,-0.9,0.87,0.57,-8.0,43.5,19.2,36.2,,,,,,,,,,
15.47.06.903,449.5,112.4,0,,,24521.8,40.78,-0.29,1.25,0.31,-4.3,2.8,-3.3,36.3,,,,,,,,,,
15.47.06.914,455.9,114.0,0,,,24515.8,40.79,-0.79,0.84,-0.24,5.8,13.5,3.0,36.03,,,,,,,,,,
15.47.06.924,467.5,116.9,0,,,24515.8,40.79,-0.59,0.46,0.48,-18.5,32.1,3.3,36.16,,,,,,,,,,
15.47.06.935,420.5,105.1,0,,,24515.8,40.79,-0.71,0.15,0.23,8.1,-19.3,1.2,36.09,,,,,,,,,,
15.47.06.945,446.3,111.6,0,,,24515.8,40.79,-0.89,0.63,-0.41,5.8,22.9,17.1,36.04,,,,,,,,,,
15.47.06.957,298.1,74.5,0,,,24515.8,40.79,-0.41,0.65,-0.3,-0.9,12.8,12.7,35.95,,,,,,,,,,
15.47.06.968,237.6,59.4,0,,,24509.8,40.8,-0.2,-0.27,0.85,21.0,6.2,28.0,36.15,,,,,,,,,,
15.47.06.978,158.5,39.6,0,,,24509.8,40.8,-0.37,0.69,0.51,8.2,13.6,6.6,36.04,,,,,,,,,,
15.47.06.989,37.9,9.5,0,,,24509.8,40.8,-0.47,0.74,0.59,8.2,10.7,4.0,36.25,,,,,,,,,,
15.47.06.999,-31.0,7.8,0,,,24509.8,40.8,0.11,0.38,0.77,-13.2,-9.5,-2.8,36.11,,,,,,,,,,
15.47.07.009,63.8,16.0,0,,,24509.8,40.8,-0.65,0.03,0.4,-17.3,0.9,19.9,36.11,,,,,,,,,,
15.47.07.019,40.7,10.2,0,,,24509.8,40.8,-0.25,0.73,1.45,-16.1,20.5,-1.1,36.18,,,,,,,,,,
15.47.07.027,133.2,33.3,0,,,24503.8,40.81,-0.35,0.79,0.4,26.8,18.6,3.3,36.2,,,,,,,,,,
15.47.07.037,75.6,18.9,0,,,24503.8,40.81,-0.39,-0.3,1.11,-22.5,4.0,-11.2,36.17,,,,,,,,,,
15.47.07.048,130.4,32.6,0,,,24503.8,40.81,-0.49,0.1,0.53,23.7,11.7,-25.6,36.36,,,,,,,,,,
15.47.07.058,46.5,11.6,0,,,24503.8,40.81,-0.32,0.49,0.35,0.9,-17.2,8.2,36.11,,,,,,,,,,
15.47.07.067,84.3,21.1,0,,,24503.8,40.81,0.02,0.26,0.35,28.1,3.1,18.7,36.05,,,,,,,,,,
15.47.07.077,57.6,14.4,0,,,24503.8,40.81,-0.05,0.14,0.53,-6.5,32.0,-12.8,36.24,,,,,,,,,,
15.47.07.084,35.1,8.8,0,,,24503.8,40.81,-0.2,0.8,0.25,-3.1,10.0,-4.5,36.29,,,,,,,,,,
15.47.07.095,54.5,13.6,0,,,24503.8,40.81,-0.36,0.66,0.71,3.5,31.9,3.5,36.27,,,,,,,,,,
15.47.07.104,-1.4,0.4,0,,,24503.8,40.81,-0.6,0.41,0.33,-26.4,4.9,6.3,36.25,,,,,,,,,,
15.47.07.113,16.1,4.0,0,,,24503.8,40.81,-0.97,-0.09,1.05,-11.0,14.0,18.1,36.19,,,,,,,,,,
15.47.07.124,-69.4,17.4,0,,,24503.8,40.81,-0.29,-1.03,0.42,21.5,16.2,-2.9,36.47,,,,,,,,,,
15.47.07.132,-34.2,8.6,0,,,24503.8,40.81,-0.63,0.54,1.01,-0.2,3.5,-12.6,36.27,,,,,,,,,,
15.47.07.142,-54.0,13.5,0,,,24503.8,40.81,-0.5,0.58,0.35,-5.6,6.8,-11.1,36.3,,,,,,,,,,
15.47.07.152,-21.8,5.4,0,,,24497.8,40.82,-0.61,0.5,0.23,-9.6,2.4,-7.7,36.26,,,,,,,,,,
15.47.07.163,-44.7,11.2,0,,,24497.8,40.82,-0.98,0.1,-0.71,35.1,-3.2,-22.0,36.3,,,,,,,,,,
15.47.07.171,-41.7,10.4,1,15.0,125.3,24497.8,40.82,-0.33,0.04,-0.88,-35.0,3.8,-15.6,35.92,,,,,,,,,,
15.47.07.182,-33.5,8.4,0,,,24497.8,40.82,-0.47,0.21,-0.29,-23.0,0.2,3.8,36.37,,,,,,,,,,
15.47.07.192,-59.9,15.0,0,,,24497.8,40.82,-0.72,-0.08,-0.48,-10.8,9.8,-4.4,36.19,,,,,,,,,,
15.47.07.200,-109.7,27.4,0,,,24497.8,40.82,-0.79,-0.41,-0.23,-5.8,-8.6,-7.2,36.15,,,,,,,,,,
15.47.07.210,-46.1,11.5,0,,,24497.8,40.82,-0.35,0.32,-0.45,13.3,-14.3,-1.6,36.33,,,,,,,,,,
15.47.07.218,-41.3,10.3,0,,,24497.8,40.82,-0.61,0.62,0.16,-0.9,-5.6,7.5,36.14,,,,,,,,,,
15.47.07.227,-122.5,30.6,0,,,24497.8,40.82,-0.93,0.24,-0.17,9.6,10.6,5.1,36.2,,,,,,,,,,
15.47.07.237,-109.5,27.4,0,,,24497.8,40.82,-0.63,0.06,-0.47,-19.1,21.0,1.3,36.05,,,,,,,,,,
15.47.07.246,-75.9,19.0,0,,,24497.8,40.82,-0.65,0.52,0.08,-9.4,28.8,-2.0,36.03,,,,,,,,,,
15.47.07.257,-164.5,41.1,0,,,24497.8,40.82,-0.55,0.8,0.43,22.3,22.2,-5.5,36.02,,,,,,,,,,
15.47.07.267,-117.0,29.2,0,,,24497.8,40.82,-0.69,0.89,0.39,-8.5,8.0,18.5,36.4,,,,,,,,,,
15.47.07.277,-95.7,23.9,0,,,24491.8,40.83,-0.63,0.58,-0.19,-2.2,-7.5,-18.3,36.02,,,,,,,,,,
15.47.07.286,-151.0,37.8,0,,,24491.8,40.83,-0.37,0.77,0.86,1.2,18.1,2.4,35.82,,,,,,,,,,
15.47.07.293,-109.2,27.3,0,,,24491.8,40.83,-0.67,0.32,0.11,-23.8,31.2,9.0,36.16,,,,,,,,,,
15.47.07.301,-119.3,29.8,0,,,24491.8,40.83,-0.39,1.29,0.69,7.0,8.7,9.4,36.06,,,,,,,,,,
15.47.07.310,-174.8,43.7,0,,,24491.8,40.83,-0.87,0.76,1.48,18.2,21.0,12.9,36.13,,,,,,,,,,
15.47.07.318,-108.8,27.2,0,,,24491.8,40.83,-0.36,0.74,0.55,-1.7,26.5,-6.9,36.02,,,,,,,,,,
15.47.07.327,-180.5,45.1,0,,,24491.8,40.83,-0.59,0.42,0.52,-5.7,7.5,8.3,36.19,,,,,,,,,,
15.47.07.336,-194.6,48.6,0,,,24491.8,40.83,-0.37,0.85,1.02,-3.8,-9.1,12.2,36.13,,,,,,,,,,
15.47.07.345,-142.9,35.7,0,,,24491.8,40.83,-0.4,0.68,-0.04,8.2,3.5,2.4,36.1,,,,,,,,,,
15.47.07.354,-228.1,57.0,0,,,24491.8,40.83,-0.13,0.51,0.68,10.6,15.3,-1.6,36.3,,,,,,,,,,
15.47.07.362,-173.9,43.5,0,,,24491.8,40.83,0.17,-0.1,0.73,24.5,18.5,6.5,36.06,,,,,,,,,,
15.47.07.372,44.1,11.0,0,,,24491.8,40.83,-0.07,0.29,0.86,21.5,11.2,8.3,36.3,,,,,,,,,,
15.47.07.380,96.7,24.2,0,,,24491.8,40.83,-0.26,0.28,0.82,-13.7,3.5,-11.9,36.08,,,,,,,,,,
15.47.07.389,201.4,50.4,0,,,24491.8,40.83,-0.19,0.33,0.15,-43.9,7.5,-15.9,36.0,,,,,,,,,,
15.47.07.398,229.3,57.3,0,,,24491.8,40.83,-0.55,0.18,-0.03,23.5,-5.0,-17.2,36.37,,,,,,,,,,
15.47.07.410,343.4,85.8,0,,,24485.8,40.84,-0.55,0.12,0.49,-13.6,10.2,4.7,36.32,,,,,,,,,,
15.47.07.420,421.1,105.3,0,,,24485.8,40.84,-0.18,-0.16,1.1,-10.9,-0.4,0.1,35.98,,,,,,,,,,
15.47.07.429,440.9,110.2,0,,,24485.8,40.84,-0.73,0.19,0.56,6.0,14.7,-18.6,36.13,,,,,,,,,,
15.47.07.438,412.1,103.0,0,,,24485.8,40.84,-0.15,0.03,0.73,33.4,8.7,-9.3,36.18,,,,,,,,,,
15.47.07.447,455.1,113.8,0,,,24485.8,40.84,-0.19,0.35,-0.05,5.1,7.4,8.6,36.18,,,,,,,,,,
15.47.07.455,484.4,121.1,0,,,24485.8,40.84,-0.11,0.65,0.1,13.2,16.3,7.5,36.29,,,,,,,,,,
15.47.07.464,471.1,117.8,0,,,24485.8,40.84,-0.36,-0.23,-0.06,-10.2,-5.6,14.8,36.11,,,,,,,,,,
15.47.07.472,438.6,109.6,0,,,24485.8,40.84,-0.33,-0.14,-0.04,0.3,0.8,-5.9,36.39,,,,,,,,,,
15.47.07.482,441.4,110.4,0,,,24485.8,40.84,-1.32,-0.22,0.68,-0.4,27.9,-2.3,36.07,,,,,,,,,,
15.47.07.491,411.4,102.8,0,,,24485.8,40.84,-0.37,0.35,-0.17,-31.4,4.0,14.3,36.1,,,,,,,,,,
15.47.07.499,483.9,121.0,0,,,24485.8,40.84,-0.41,0.68,-0.48,-23.0,7.0,-1.9,36.25,,,,,,,,,,
15.47.07.510,348.7,87.2,0,,,24485.8,40.84,-0.39,-0.15,0.49,-47.9,5.2,2.2,36.01,,,,,,,,,,
15.47.07.520,293.9,73.5,0,,,24485.8,40.84,-0.64,0.46,0.26,28.9,-0.7,-9.8,36.02,,,,,,,,,,
15.47.07.530,244.4,61.1,0,,,24479.8,40.85,-0.87,0.12,1.31,-27.6,-1.1,4.3,35.97,,,,,,,,,,
15.47.07.540,174.1,43.5,0,,,24479.8,40.85,-0.65,0.37,-1.23,18.9,7.4,-12.2,36.08,,,,,,,,,,
15.47.07.546,136.6,34.2,0,,,24479.8,40.85,-0.48,0.28,-0.22,-6.0,6.7,13.9,36.29,,,,,,,,,,
15.47.07.559,3.6,0.9,0,,,24479.8,40.85,-1.07,0.73,-0.11,-4.3,20.3,16.3,36.14,,,,,,,,,,
15.47.07.570,5.6,1.4,0,,,24479.8,40.85,-0.72,1.06,-0.38,7.3,6.7,-21.2,36.14,,,,,,,,,,
15.47.07.580,42.7,10.7,0,,,24479.8,40.85,-0.57,1.1,0.49,-6.8,-6.7,4.5,36.52,,,,,,,,,,
15.47.07.589,32.5,8.1,0,,,24479.8,40.85,-0.22,1.24,0.45,2.4,-1.8,3.8,36.32,,,,,,,,,,
15.47.07.597,53.7,13.4,0,,,24479.8,40.85,-0.69,0.89,-0.62,-12.7,14.2,10.6,36.16,,,,,,,,,,
15.47.07.606,74.0,18.5,0,,,24479.8,40.85,-0.69,0.53,-0.2,16.4,22.0,-4.9,36.11,,,,,,,,,,
15.47.07.616,77.2,19.3,0,,,24479.8,40.85,-0.45,0.13,0.36,-3.3,6.9,-5.3,36.38,,,,,,,,,,
15.47.07.624,60.9,15.2,0,,,24479.8,40.85,-0.64,0.84,1.19,13.3,8.2,-7.2,36.3,,,,,,,,,,
15.47.07.633,109.2,27.3,0,,,24479.8,40.85,-0.67,0.65,0.8,-6.4,-20.4,-22.4,36.09,,,,,,,,,,
15.47.07.642,97.5,24.4,0,,,24479.8,40.85,-0.31,0.62,0.27,-36.2,-7.7,-6.2,36.21,,,,,,,,,,
15.47.07.650,73.2,18.3,1,16.0,125.3,24473.8,40.86,-0.38,0.77,0.77,47.7,2.7,3.2,36.3,,,,,,,,,,
15.47.07.661,38.4,9.6,0,,,24473.8,40.86,-0.3,0.42,1.54,-17.2,16.7,-19.3,35.98,,,,,,,,,,
15.47.07.670,-6.3,1.6,0,,,24473.8,40.86,-0.56,0.62,0.85,-5.2,15.8,3.9,36.41,,,,,,,,,,
15.47.07.679,4.5,1.1,0,,,24473.8,40.86,-0.23,1.01,0.14,2.2,-3.3,10.5,36.1,,,,,,,,,,
15.47.07.688,10.9,2.7,0,,,24473.8,40.86,-0.33,0.49,1.07,-4.7,-11.8,-2.7,36.25,,,,,,,,,,
15.47.07.699,-59.1,14.8,0,,,24473.8,40.86,-0.48,0.35,0.36,-17.4,15.4,4.3,36.02,,,,,,,,,,
15.47.07.708,-48.9,12.2,0,,,24473.8,40.86,-0.15,0.22,1.17,-26.8,4.9,2.1,35.97,,,,,,,,,,
15.47.07.719,-64.9,16.2,0,,,24473.8,40.86,-0.2,-0.32,0.52,-31.6,-17.5,4.3,36.11,,,,,,,,,,
15.47.07.728,7.7,1.9,0,,,24473.8,40.86,0.03,-0.16,0.33,-17.5,4.7,-6.0,35.93,,,,,,,,,,
15.47.07.736,-21.4,5.4,0,,,24473.8,40.86,-0.11,-0.0,1.18,-6.6,-13.1,-22.2,36.13,,,,,,,,,,
15.47.07.747,-20.0,5.0,0,,,24473.8,40.86,-0.27,-0.15,0.35,-21.1,11.9,-4.3,35.96,,,,,,,,,,
15.47.07.757,-79.3,19.8,0,,,24473.8,40.86,-0.26,0.23,0.86,2.5,2.5,3.5,36.34,,,,,,,,,,
15.47.07.766,-7.6,1.9,0,,,24473.8,40.86,-0.19,-0.56,-0.45,0.0,-1.1,-7.4,36.06,,,,,,,,,,
15.47.07.775,-78.6,19.6,0,,,24467.8,40.87,-0.31,-0.07,-0.36,15.3,25.6,-8.3,36.26,,,,,,,,,,
15.47.07.784,-128.7,32.2,0,,,24467.8,40.87,-0.21,-0.53,0.53,-2.9,29.7,12.2,35.95,,,,,,,,,,
15.47.07.795,-69.5,17.4,0,,,24467.8,40.87,-0.38,-0.1,0.16,-0.6,-8.7,11.0,36.01,,,,,,,,,,
15.47.07.805,-84.4,21.1,0,,,24467.8,40.87,-0.77,0.32,0.12,-25.5,-13.6,23.6,36.24,,,,,,,,,,
15.47.07.817,-140.2,35.0,0,,,24467.8,40.87,-0.57,0.63,-0.16,22.2,3.2,2.2,36.06,,,,,,,,,,
15.47.07.826,-119.2,29.8,0,,,24467.8,40.87,-0.58,0.47,-0.42,14.0,13.2,12.4,36.25,,,,,,,,,,
15.47.07.835,-113.5,28.4,0,,,24467.8,40.87,-0.7,0.32,0.86,-6.6,16.5,-28.8,36.33,,,,,,,,,,
15.47.07.844,-130.5,32.6,0,,,24467.8,40.87,-0.55,0.06,0.39,-12.6,3.9,-1.3,35.99,,,,,,,,,,
15.47.07.853,-118.3,29.6,0,,,24467.8,40.87,-0.27,0.34,-0.7,-15.8,7.4,12.9,36.17,,,,,,,,,,
15.47.07.862,-137.1,34.3,0,,,24467.8,40.87,-0.98,0.12,-1.28,12.2,3.6,7.0,36.24,,,,,,,,,,
15.47.07.873,-133.8,33.4,0,,,24467.8,40.87,-0.31,0.57,-0.63,-23.6,-11.6,-9.0,36.28,,,,,,,,,,
15.47.07.884,-222.8,55.7,0,,,24467.8,40.87,-0.9,0.59,-0.69,11.3,-13.8,6.1,35.99,,,,,,,,,,
15.47.07.894,-98.0,24.5,0,,,24467.8,40.87,-0.67,0.55,-0.74,-4.8,12.5,-8.3,36.31,,,,,,,,,,
15.47.07.903,-158.6,39.6,0,,,24461.8,40.88,-0.76,0.44,0.58,26.3,1.9,9.0,36.33,,,,,,,,,,
15.47.07.914,-186.1,46.5,0,,,24461.8,40.88,-0.35,1.41,0.73,-7.4,1.9,-13.1,35.98,,,,,,,,,,
15.47.07.925,-252.4,63.1,0,,,24461.8,40.88,-0.92,0.59,0.8,6.6,5.7,13.8,36.0,,,,,,,,,,
15.47.07.938,71.4,17.8,0,,,24461.8,40.88,-0.88,1.12,-0.04,11.7,17.6,-1.1,36.0,,,,,,,,,,
15.47.07.947,99.5,24.9,0,,,24461.8,40.88,-0.6,1.13,0.77,28.4,38.1,-11.9,35.97,,,,,,,,,,
15.47.07.958,220.3,55.1,0,,,24461.8,40.88,-0.8,1.61,-0.62,14.5,-8.1,7.2,36.21,,,,,,,,,,
15.47.07.968,330.5,82.6,0,,,24461.8,40.88,-0.82,0.58,-0.16,-13.2,6.0,1.4,36.08,,,,,,,,,,
15.47.07.979,345.1,86.3,0,,,24461.8,40.88,-0.95,0.68,0.19,-29.8,-2.1,2.3,35.9,,,,,,,,,,
15.47.07.988,449.0,112.2,0,,,24461.8,40.88,-0.39,0.71,0.97,-4.5,17.1,10.1,35.84,,,,,,,,,,
15.47.07.996,508.9,127.2,0,,,24461.8,40.88,-0.87,0.78,0.54,-16.7,-18.1,-10.2,36.16,,,,,,,,,,
15.47.08.006,522.1,130.5,0,,,24461.8,40.88,-0.1,0.42,0.67,5.8,9.9,10.3,36.03,,,,,,,,,,
15.47.08.017,529.0,132.2,0,,,24455.9,40.89,-0.22,0.28,0.37,7.8,-11.4,2.0,36.05,,,,,,,,,,
15.47.08.027,527.0,131.8,0,,,24455.9,40.89,-0.36,0.77,2.0,-1.5,6.7,9.3,36.04,,,,,,,,,,
15.47.08.036,515.6,128.9,0,,,24455.9,40.89,0.04,0.75,1.03,5.9,15.2,-14.1,36.03,,,,,,,,,,
15.47.08.047,419.3,104.8,0,,,24455.9,40.89,-0.39,0.12,1.82,20.7,9.0,5.7,36.44,,,,,,,,,,
15.47.08.056,353.0,88.2,0,,,24449.9,40.9,-0.25,0.17,0.89,15.5,10.3,-13.4,36.09,,,,,,,,,,
15.47.08.064,360.6,90.2,0,,,24449.9,40.9,-0.39,0.61,2.0,3.0,23.2,-13.0,36.46,,,,,,,,,,
15.47.08.072,346.4,86.6,0,,,24449.9,40.9,-0.14,0.18,0.68,9.3,18.0,-3.0,36.12,,,,,,,,,,
15.47.08.084,273.0,68.2,0,,,24449.9,40.9,-0.42,0.06,1.07,5.8,19.8,-11.8,36.04,,,,,,,,,,
15.47.08.096,196.2,49.0,0,,,24443.9,40.91,-0.26,0.34,0.58,20.0,-22.5,9.0,36.19,,,,,,,,,,
15.47.08.106,82.4,20.6,0,,,24443.9,40.91,-0.55,0.37,0.18,-12.8,-6.6,6.0,36.39,,,,,,,,,,
15.47.08.116,51.6,12.9,0,,,24443.9,40.91,-0.48,0.34,0.83,-18.0,19.0,-1.8,36.37,,,,,,,,,,
15.47.08.125,-5.4,1.4,0,,,24443.9,40.91,-1.03,0.16,0.49,13.5,4.9,-4.9,36.1,,,,,,,,,,
15.47.08.133,-1.1,0.3,0,,,24437.9,40.92,-0.14,-0.31,0.56,-4.3,-3.8,-2.2,36.18,,,,,,,,,,
15.47.08.143,80.5,20.1,0,,,24437.9,40.92,-0.56,-0.2,-0.19,-7.9,-3.8,-4.0,35.96,,,,,,,,,,
15.47.08.152,99.6,24.9,1,17.0,119.5,24437.9,40.92,-0.67,-0.11,0.12,-6.5,3.1,-2.5,36.22,,,,,,,,,,
15.47.08.161,77.7,19.4,0,,,24437.9,40.92,-0.77,0.48,-0.68,18.1,19.1,-10.4,36.07,,,,,,,,,,
15.47.08.169,96.2,24.0,0,,,24437.9,40.92,-0.49,0.05,0.46,-8.1,-8.1,7.6,36.04,,,,,,,,,,
15.47.08.178,88.2,22.0,0,,,24432.0,40.93,-0.83,0.01,-0.33,0.9,22.0,10.7,36.28,,,,,,,,,,
15.47.08.188,98.9,24.7,0,,,24432.0,40.93,-0.77,0.71,1.08,-14.5,-0.4,-7.5,36.38,,,,,,,,,,
15.47.08.198,85.4,21.4,0,,,24432.0,40.93,-0.54,0.23,0.12,-12.8,7.3,-12.3,36.1,,,,,,,,,,
15.47.08.209,35.6,8.9,0,,,24432.0,40.93,-0.87,0.22,-0.33,26.4,-0.2,-7.5,35.94,,,,,,,,,,
15.47.08.218,5.1,1.3,0,,,24426.0,40.94,-0.94,0.69,0.61,27.2,-6.5,-18.3,35.98,,,,,,,,,,
15.47.08.228,-6.3,1.6,0,,,24426.0,40.94,-1.02,0.56,-0.13,0.8,-1.1,10.5,36.17,,,,,,,,,,
15.47.08.236,58.8,14.7,0,,,24426.0,40.94,-1.16,-0.07,0.37,-22.0,21.8,-6.4,36.05,,,,,,,,,,
15.47.08.245,-42.9,10.7,0,,,24426.0,40.94,-0.69,0.79,-0.2,-15.6,6.8,-12.1,36.31,,,,,,,,,,
15.47.08.254,-108.7,27.2,0,,,24420.0,40.95,-1.15,0.69,-0.21,6.8,10.5,-0.1,36.36,,,,,,,,,,
15.47.08.263,-44.2,11.0,0,,,24420.0,40.95,-0.56,1.1,0.6,-0.5,-11.9,8.0,36.34,,,,,,,,,,
15.47.08.272,-60.1,15.0,0,,,24420.0,40.95,-1.02,0.33,-0.23,-9.7,7.1,-3.5,36.07,,,,,,,,,,
15.47.08.280,-73.0,18.2,0,,,24420.0,40.95,-0.65,0.58,0.35,25.6,-23.2,-17.4,36.15,,,,,,,,,,
15.47.08.291,-26.5,6.6,0,,,24420.0,40.95,-0.7,0.73,-0.55,-7.3,-2.9,-23.3,36.44,,,,,,,,,,
15.47.08.302,-59.5,14.9,0,,,24414.1,40.96,-0.56,0.27,-0.15,1.4,36.7,-2.1,36.16,,,,,,,,,,
15.47.08.311,-99.5,24.9,0,,,24414.1,40.96,-0.96,0.59,0.55,-27.9,17.6,-8.3,35.92,,,,,,,,,,
15.47.08.321,-64.0,16.0,0,,,24414.1,40.96,-0.57,1.19,0.87,6.9,-14.9,11.1,35.95,,,,,,,,,,
15.47.08.333,-29.3,7.3,0,,,24414.1,40.96,-0.66,0.68,0.66,-6.8,10.1,-9.6,35.92,,,,,,,,,,
15.47.08.342,-51.3,12.8,0,,,24408.1,40.97,0.16,0.72,-0.21,10.2,16.6,-14.0,36.03,,,,,,,,,,
15.47.08.352,-96.9,24.2,0,,,24408.1,40.97,-0.36,0.65,0.25,-21.3,15.7,-10.6,36.27,,,,,,,,,,
15.47.08.361,-143.2,35.8,0,,,24408.1,40.97,0.12,0.7,0.12,8.8,12.9,3.5,35.9,,,,,,,,,,
15.47.08.369,-96.0,24.0,0,,,24408.1,40.97,-0.25,0.72,0.73,47.0,11.0,1.5,36.21,,,,,,,,,,
15.47.08.381,-158.7,39.7,0,,,24402.1,40.98,-0.07,0.08,0.89,8.2,-15.9,-0.3,36.24,,,,,,,,,,
15.47.08.393,-110.3,27.6,0,,,24402.1,40.98,-0.46,0.75,0.51,9.6,9.8,-10.6,36.17,,,,,,,,,,
15.47.08.403,-120.2,30.0,0,,,24402.1,40.98,-0.0,0.75,0.66,-3.0,-0.7,-5.5,36.21,,,,,,,,,,
15.47.08.411,-154.5,38.6,0,,,24402.1,40.98,-0.05,0.38,0.73,-8.3,-13.0,-1.2,35.91,,,,,,,,,,
15.47.08.421,-120.6,30.2,0,,,24396.2,40.99,-0.39,0.47,0.34,-28.4,26.8,-2.1,36.3,,,,,,,,,,
15.47.08.432,-136.8,34.2,0,,,24396.2,40.99,-0.45,0.03,0.65,19.9,-8.3,3.5,36.24,,,,,,,,,,
15.47.08.442,-200.9,50.2,0,,,24396.2,40.99,-0.07,0.57,0.93,15.7,12.1,-16.7,36.26,,,,,,,,,,
15.47.08.452,-120.9,30.2,0,,,24396.2,40.99,-0.1,0.9,0.74,-0.6,14.4,8.4,35.76,,,,,,,,,,
15.47.08.460,-185.7,46.4,0,,,24390.2,41.0,-0.2,0.39,0.88,8.4,-5.6,-0.8,36.38,,,,,,,,,,
15.47.08.471,-178.1,44.5,0,,,24390.2,41.0,-0.59,-0.07,-0.71,-8.7,5.4,-6.1,36.08,,,,,,,,,,
15.47.08.482,-215.6,53.9,0,,,24390.2,41.0,-0.51,0.41,-0.83,16.2,6.3,-19.7,36.2,,,,,,,,,,
15.47.08.491,43.0,10.8,0,,,24390.2,41.0,-0.56,0.08,0.54,-0.7,23.4,-7.8,36.21,,,,,,,,,,
15.47.08.498,93.8,23.4,0,,,24390.2,41.0,-0.44,0.22,0.16,-2.4,-5.7,10.8,36.01,,,,,,,,,,
15.47.08.507,220.0,55.0,0,,,24384.3,41.01,-0.59,0.41,-0.04,-17.4,14.8,-5.9,36.45,,,,,,,,,,
15.47.08.517,267.6,66.9,0,,,24384.3,41.01,-0.81,-0.7,-1.15,-8.4,11.9,-2.6,36.02,,,,,,,,,,
15.47.08.527,301.2,75.3,0,,,24384.3,41.01,-0.43,-0.0,0.41,-17.6,17.5,21.6,36.21,,,,,,,,,,
15.47.08.534,371.4,92.8,0,,,24384.3,41.01,-0.82,-0.43,-0.45,15.7,9.6,0.1,36.17,,,,,,,,,,
15.47.08.543,360.7,90.2,0,,,24378.4,41.02,-0.26,0.49,0.37,-11.6,-1.2,-8.2,36.1,,,,,,,,,,
15.47.08.553,438.1,109.5,1,18.0,149.6,24378.4,41.02,-0.63,-0.06,0.24,-7.8,-12.1,-4.2,35.96,,,,,,,,,,
15.47.08.562,430.8,107.7,0,,,24378.4,41.02,-0.73,0.58,0.01,-20.3,-12.4,4.9,36.21,,,,,,,,,,
15.47.08.574,464.9,116.2,0,,,24378.4,41.02,-0.49,0.69,-0.57,-13.3,10.7,-15.9,35.99,,,,,,,,,,
15.47.08.584,465.7,116.4,0,,,24372.4,41.03,-0.83,0.62,-0.33,-22.2,5.5,1.1,36.33,,,,,,,,,,
15.47.08.594,536.5,134.1,0,,,24372.4,41.03,-0.86,0.66,0.56,-4.5,4.4,-5.2,36.22,,,,,,,,,,
15.47.08.603,454.0,113.5,0,,,24372.4,41.03,-0.92,1.33,-0.41,1.3,-6.3,-6.9,36.46,,,,,,,,,,
15.47.08.610,443.5,110.9,0,,,24372.4,41.03,-0.68,0.89,0.48,-1.6,-17.2,3.6,36.24,,,,,,,,,,
15.47.08.620,387.5,96.9,0,,,24372.4,41.03,-0.62,0.58,0.31,-33.0,14.6,-17.0,36.24,,,,,,,,,,
15.47.08.629,396.4,99.1,0,,,24366.5,41.04,-1.1,0.38,0.22,32.2,29.3,-16.2,36.23,,,,,,,,,,
15.47.08.638,276.7,69.2,0,,,24366.5,41.04,-0.65,-0.07,0.02,6.1,2.5,0.2,36.52,,,,,,,,,,
15.47.08.647,335.5,83.9,0,,,24366.5,41.04,-0.27,0.47,1.05,10.2,-3.5,6.1,36.45,,,,,,,,,,
15.47.08.656,111.3,27.8,0,,,24366.5,41.04,-0.26,0.8,-0.23,5.7,-1.7,6.0,36.22,,,,,,,,,,
15.47.08.666,69.2,17.3,0,,,24360.5,41.05,-0.5,0.7,0.51,-40.9,11.7,3.3,36.35,,,,,,,,,,
15.47.08.675,64.1,16.0,0,,,24360.5,41.05,-0.73,0.96,0.53,3.5,1.7,11.7,36.34,,,,,,,,,,
15.47.08.685,-36.5,9.1,0,,,24360.5,41.05,-0.67,0.6,-0.08,-23.8,23.1,-18.1,36.02,,,,,,,,,,
15.47.08.694,57.3,14.3,0,,,24360.5,41.05,-0.39,1.0,-0.05,-12.1,7.0,-1.7,35.96,,,,,,,,,,
15.47.08.702,20.6,5.2,0,,,24360.5,41.05,-0.2,0.43,0.8,36.6,-2.3,3.2,36.19,,,,,,,,,,
15.47.08.712,91.0,22.8,0,,,24354.6,41.06,-0.5,0.63,0.37,13.7,0.3,-10.0,36.05,,,,,,,,,,
15.47.08.720,98.7,24.7,0,,,24354.6,41.06,-0.26,0.15,1.06,9.2,16.4,0.1,36.06,,,,,,,,,,
15.47.08.729,86.4,21.6,0,,,24354.6,41.06,-0.2,0.14,0.89,18.6,21.5,1.1,35.91,,,,,,,,,,
15.47.08.741,67.7,16.9,0,,,24354.6,41.06,-0.14,0.49,1.46,-9.3,7.2,-2.4,35.88,,,,,,,,,,
15.47.08.752,57.9,14.5,0,,,24348.7,41.07,-0.43,0.16,0.18,14.8,-1.8,-7.7,36.12,,,,,,,,,,
15.47.08.765,23.6,5.9,0,,,24348.7,41.07,-0.17,0.64,1.0,14.5,-3.6,9.0,36.2,,,,,,,,,,
15.47.08.773,24.6,6.2,0,,,24348.7,41.07,-0.55,0.3,0.74,1.9,4.3,-20.9,36.33,,,,,,,,,,
15.47.08.783,-7.6,1.9,0,,,24348.7,41.07,-0.67,0.46,0.37,-6.8,15.5,-5.7,36.1,,,,,,,,,,
15.47.08.792,66.4,16.6,0,,,24342.7,41.08,-0.5,0.18,0.92,-4.9,-22.5,4.4,35.8,,,,,,,,,,
15.47.08.803,-33.1,8.3,0,,,24342.7,41.08,-0.66,0.25,0.83,23.6,0.9,4.9,36.14,,,,,,,,,,
15.47.08.812,-21.6,5.4,0,,,24342.7,41.08,-0.62,0.37,0.58,0.6,-7.4,-3.2,35.95,,,,,,,,,,
15.47.08.821,-1.1,0.3,0,,,24342.7,41.08,-0.71,-0.2,0.01,-2.1,17.7,-11.9,36.27,,,,,,,,,,
15.47.08.829,-57.6,14.4,0,,,24336.8,41.09,-0.53,-0.11,0.03,3.6,14.3,2.6,36.15,,,,,,,,,,
15.47.08.839,-13.1,3.3,0,,,24336.8,41.09,-0.59,0.42,0.58,20.8,-16.2,-15.0,36.23,,,,,,,,,,
15.47.08.847,-76.2,19.0,0,,,24336.8,41.09,-0.33,0.26,-0.13,-16.1,1.4,2.2,36.25,,,,,,,,,,
15.47.08.859,-106.7,26.7,0,,,24336.8,41.09,-0.53,0.01,-0.4,-10.3,31.7,-6.5,36.17,,,,,,,,,,
15.47.08.871,-41.6,10.4,0,,,24330.9,41.1,-0.58,-0.29,0.19,-2.2,8.8,18.9,36.08,,,,,,,,,,
15.47.08.881,-33.3,8.3,0,,,24330.9,41.1,-0.81,0.67,0.6,8.8,27.7,5.4,36.0,,,,,,,,,,
15.47.08.891,-35.6,8.9,0,,,24330.9,41.1,-0.38,-0.22,-0.14,22.7,11.9,-13.4,35.94,,,,,,,,,,
15.47.08.903,-47.3,11.8,0,,,24330.9,41.1,-1.1,0.0,0.25,3.0,3.6,-8.6,36.1,,,,,,,,,,
15.47.08.910,-89.5,22.4,0,,,24325.0,41.11,-0.72,-0.53,-0.54,28.2,1.3,-7.1,36.05,,,,,,,,,,
15.47.08.920,-103.7,25.9,0,,,24325.0,41.11,-0.79,0.05,-0.65,11.1,-8.0,1.3,36.18,,36.12,,,,,,,,
15.47.08.926,-42.9,10.7,0,,,24325.0,41.11,-0.81,0.36,0.24,6.2,-0.4,-6.6,36.23,,,,,,,,,,
15.47.08.935,-136.3,34.1,0,,,24325.0,41.11,-0.69,1.12,0.25,15.0,5.0,-19.4,36.07,,,,,,,,,,
15.47.08.946,-141.4,35.4,0,,,24325.0,41.11,-0.83,0.01,-0.05,-6.5,1.0,-4.1,35.92,,,,,,,,,,
15.47.08.956,-75.3,18.8,0,,,24319.1,41.12,-0.47,0.29,0.03,10.8,6.7,-6.3,36.09,,,,,,,,,,
15.47.08.966,-161.8,40.4,0,,,24319.1,41.12,-0.75,0.92,-0.15,-4.3,0.9,-3.3,36.27,,,,,,,,,,
15.47.08.974,-115.5,28.9,0,,,24319.1,41.12,-0.85,0.22,0.84,17.8,6.8,-2.9,36.35,,,,,,,,,,
15.47.08.985,-163.4,40.8,0,,,24319.1,41.12,-0.76,1.04,0.09,7.1,-26.7,11.5,36.29,,,,,,,,,,
15.47.08.996,-142.7,35.7,0,,,24313.2,41.13,-1.0,-0.0,0.42,3.6,31.3,13.3,36.13,,,,,,,,,,
15.47.09.004,-180.3,45.1,0,,,24313.2,41.13,-0.43,0.63,0.52,3.4,8.6,23.1,35.87,,,,,,,,,,
15.47.09.012,-195.1,48.8,0,,,24313.2,41.13,-0.73,0.75,0.04,32.3,1.8,-0.2,36.14,,,,,,,,,,
15.47.09.020,-224.4,56.1,0,,,24319.1,41.12,-0.32,1.15,0.08,-15.0,21.4,18.0,36.28,,,,,,,,,,
15.47.09.029,-151.2,37.8,0,,,24319.1,41.12,-0.21,0.28,0.68,22.5,2.0,-15.7,35.97,,,,,,,,,,
15.47.09.039,-273.7,68.4,0,,,24319.1,41.12,-0.67,0.38,0.84,-16.4,-0.7,3.0,35.97,,,,,,,,,,
15.47.09.049,25.2,6.3,0,,,24319.1,41.12,-0.59,0.66,1.13,11.2,11.6,11.5,36.16,,,,,,,,,,
15.47.09.060,89.1,22.3,0,,,24319.1,41.12,0.39,-0.01,0.79,-5.6,-9.2,1.5,36.04,,,,,,,,,,
15.47.09.071,245.1,61.3,1,19.0,115.8,24319.1,41.12,-0.49,0.64,1.29,1.5,-11.3,-8.0,36.45,,,,,,,,,,
15.47.09.080,299.5,74.9,0,,,24319.1,41.12,0.1,0.39,1.22,8.9,-8.1,-0.2,36.21,,,,,,,,,,
15.47.09.090,244.7,61.2,0,,,24319.1,41.12,-0.39,0.66,0.82,-23.1,7.1,-5.1,36.17,,,,,,,,,,
15.47.09.100,442.6,110.6,0,,,24319.1,41.12,0.18,0.52,-0.11,0.0,14.4,-18.2,36.0,,,,,,,,,,
15.47.09.111,452.0,113.0,0,,,24325.0,41.11,-0.51,-0.12,0.61,-13.0,4.3,-8.0,36.07,,,,,,,,,,
15.47.09.121,506.2,126.6,0,,,24325.0,41.11,-0.44,-0.08,0.87,3.5,6.4,-6.6,36.1,,,,,,,,,,
15.47.09.130,417.8,104.4,0,,,24325.0,41.11,-0.14,-0.12,1.05,31.9,-10.2,-3.0,35.89,,,,,,,,,,
15.47.09.141,488.3,122.1,0,,,24325.0,41.11,-0.25,-0.63,-0.23,4.5,29.0,-7.3,36.12,,,,,,,,,,
15.47.09.152,417.9,104.5,0,,,24325.0,41.11,-0.39,-0.12,0.47,-8.7,15.9,-12.9,36.23,,,,,,,,,,
15.47.09.161,524.1,131.0,0,,,24325.0,41.11,-0.5,-0.11,0.08,1.6,-19.7,1.4,36.06,,,,,,,,,,
15.47.09.170,387.4,96.8,0,,,24325.0,41.11,-0.74,0.12,-0.84,28.4,0.7,-1.7,36.05,,,,,,,,,,
15.47.09.180,363.7,90.9,0,,,24325.0,41.11,-0.7,-0.84,1.07,25.0,42.9,2.8,36.26,,,,,,,,,,
15.47.09.191,310.6,77.6,0,,,24330.9,41.1,-0.49,0.26,-0.94,7.5,20.3,16.1,36.05,,,,,,,,,,
15.47.09.201,279.9,70.0,0,,,24330.9,41.1,-0.8,-0.49,-0.15,-7.5,12.2,2.7,36.14,,,,,,,,,,
15.47.09.211,251.8,63.0,0,,,24330.9,41.1,-0.55,0.59,-0.82,0.3,5.0,5.2,36.12,,,,,,,,,,
15.47.09.222,144.4,36.1,0,,,24330.9,41.1,-1.15,-0.07,-0.16,-14.1,-0.9,-20.9,36.13,,,,,,,,,,
15.47.09.233,-5.7,1.4,0,,,24330.9,41.1,-0.54,0.47,-0.19,-9.5,6.4,9.1,35.95,,,,,,,,,,
15.47.09.242,21.1,5.3,0,,,24330.9,41.1,-1.03,-0.55,-0.57,30.3,-7.9,3.1,35.98,,,,,,,,,,
15.47.09.254,36.8,9.2,0,,,24330.9,41.1,-0.78,0.15,-1.21,-2.0,-7.4,-5.6,36.35,,,,,,,,,,
15.47.09.263,82.3,20.6,0,,,24330.9,41.1,-0.88,0.61,-0.05,17.7,-1.1,11.4,36.11,,,,,,,,,,
15.47.09.274,96.9,24.2,0,,,24336.8,41.09,-0.42,0.37,0.12,17.1,13.5,-4.9,36.12,,,,,,,,,,
15.47.09.283,93.1,23.3,0,,,24336.8,41.09,-1.03,0.97,-0.46,-16.1,3.9,-16.2,36.24,,,,,,,,,,
15.47.09.293,30.1,7.5,0,,,24336.8,41.09,-0.73,0.35,-0.35,17.0,0.3,-1.2,36.4,,,,,,,,,,
15.47.09.301,150.8,37.7,0,,,24336.8,41.09,-0.66,0.17,0.37,25.9,-11.2,1.4,35.99,,,,,,,,,,
15.47.09.311,127.6,31.9,0,,,24336.8,41.09,-0.45,1.0,0.92,-6.4,-6.3,-6.8,36.24,,,,,,,,,,
15.47.09.320,40.4,10.1,0,,,24336.8,41.09,-0.93,0.36,-0.04,-2.6,15.9,-26.9,35.98,,,,,,,,,,
15.47.09.331,24.0,6.0,0,,,24336.8,41.09,-0.31,1.18,0.27,-4.9,-7.6,-11.7,35.91,,,,,,,,,,
15.47.09.342,28.7,7.2,0,,,24336.8,41.09,-0.53,0.62,0.13,-13.1,1.8,-7.7,35.94,,,,,,,,,,
15.47.09.354,23.7,5.9,0,,,24342.7,41.08,-0.32,1.07,-0.06,2.8,15.7,4.6,36.27,,,,,,,,,,
15.47.09.362,2.8,0.7,0,,,24342.7,41.08,-0.69,0.94,0.72,-3.4,-10.7,7.4,36.4,,,,,,,,,,
15.47.09.372,-36.5,9.1,0,,,24342.7,41.08,-0.74,0.7,0.31,20.4,-6.5,-2.5,35.95,,,,,,,,,,
15.47.09.384,-34.8,8.7,0,,,24342.7,41.08,-0.18,0.94,-0.21,17.8,8.7,0.9,36.27,,,,,,,,,,
15.47.09.394,-17.4,4.4,0,,,24342.7,41.08,-0.49,0.5,0.49,-18.8,-13.3,-4.6,36.07,,,,,,,,,,
15.47.09.402,-36.6,9.2,0,,,24342.7,41.08,-0.35,0.86,0.7,19.7,8.8,5.9,36.19,,,,,,,,,,
15.47.09.409,30.4,7.6,0,,,24342.7,41.08,-0.05,-0.2,0.8,-12.0,10.5,6.4,36.43,,,,,,,,,,
15.47.09.418,-119.5,29.9,0,,,24342.7,41.08,-0.26,0.3,0.99,17.6,33.2,1.3,36.08,,,,,,,,,,
15.47.09.429,-42.3,10.6,0,,,24342.7,41.08,-0.17,0.45,0.61,23.4,-0.8,-3.3,35.91,,,,,,,,,,
15.47.09.440,-43.8,11.0,0,,,24348.7,41.07,-0.5,0.89,0.98,12.5,19.9,-0.6,36.16,,,,,,,,,,
15.47.09.451,-60.3,15.1,0,,,24348.7,41.07,-0.61,0.66,0.51,2.1,9.7,15.3,36.01,,,,,,,,,,
15.47.09.460,-72.6,18.2,0,,,24348.7,41.07,-0.23,-0.01,0.32,-9.7,8.4,2.7,36.01,,,,,,,,,,
15.47.09.468,-125.4,31.4,0,,,24348.7,41.07,0.16,0.22,-0.29,8.0,19.7,0.9,36.2,,,,,,,,,,
15.47.09.479,-119.9,30.0,0,,,24348.7,41.07,-0.32,0.25,-0.27,15.4,8.6,-18.2,35.98,,,,,,,,,,
15.47.09.489,-37.7,9.4,0,,,24348.7,41.07,-0.35,-0.02,0.93,4.9,-0.3,11.8,36.15,,,,,,,,,,
15.47.09.498,-106.2,26.6,0,,,24348.7,41.07,-0.5,0.16,0.2,-3.5,1.6,-5.0,35.96,,,,,,,,,,
15.47.09.508,-164.4,41.1,0,,,24348.7,41.07,-0.48,0.37,0.79,-2.7,11.2,-5.6,36.07,,,,,,,,,,
15.47.09.520,-163.4,40.8,0,,,24354.6,41.06,-0.59,-0.28,1.16,4.8,-2.6,-4.9,36.26,,,,,,,,,,
15.47.09.530,-66.8,16.7,0,,,24354.6,41.06,-0.32,0.16,-0.03,-6.0,17.9,-19.0,36.28,,,,,,,,,,
15.47.09.542,-144.3,36.1,0,,,24354.6,41.06,-0.44,0.3,0.22,1.8,3.8,-0.1,35.86,,,,,,,,,,
15.47.09.553,-93.4,23.4,0,,,24354.6,41.06,-0.45,-0.19,0.67,-20.0,-3.2,-4.7,35.98,,,,,,,,,,
15.47.09.564,-248.4,62.1,1,20.0,121.7,24354.6,41.06,-0.62,-0.13,0.95,-23.1,-17.5,9.3,36.13,,,,,,,,,,
15.47.09.574,-142.1,35.5,0,,,24354.6,41.06,-0.69,-0.11,-0.0,13.7,23.5,9.3,35.96,,,,,,,,,,
15.47.09.586,-173.8,43.4,0,,,24354.6,41.06,-0.55,0.3,-0.88,11.1,-6.4,-0.5,36.35,,,,,,,,,,
15.47.09.596,-156.7,39.2,0,,,24354.6,41.06,-0.27,0.15,-0.3,2.2,7.0,-9.2,36.32,,,,,,,,,,
15.47.09.605,-68.7,17.2,0,,,24360.5,41.05,-0.7,-0.07,-0.55,10.4,18.1,5.0,36.24,,,,,,,,,,
15.47.09.614,74.9,18.7,0,,,24360.5,41.05,-0.49,-0.09,-0.98,21.0,12.2,8.8,36.22,,,,,,,,,,
15.47.09.624,110.1,27.5,0,,,24360.5,41.05,-0.69,0.39,0.14,-12.4,38.4,-7.2,36.14,,,,,,,,,,
15.47.09.633,185.4,46.4,0,,,24360.5,41.05,-1.19,1.08,-0.34,10.6,12.1,0.4,36.05,,,,,,,,,,
15.47.09.642,298.5,74.6,0,,,24360.5,41.05,-0.57,-0.05,-0.4,2.9,8.7,6.8,35.91,,,,,,,,,,
15.47.09.651,283.3,70.8,0,,,24360.5,41.05,-0.63,-0.15,0.41,0.1,16.6,0.5,36.32,,,,,,,,,,
15.47.09.661,394.5,98.6,0,,,24360.5,41.05,-0.94,0.4,-1.26,35.1,-9.4,-12.0,35.99,,,,,,,,,,
15.47.09.670,494.3,123.6,0,,,24360.5,41.05,-0.93,0.92,-0.15,0.3,13.5,13.9,36.18,,,,,,,,,,
15.47.09.680,516.5,129.1,0,,,24366.5,41.04,-0.59,0.55,0.62,6.6,-7.9,3.0,36.24,,,,,,,,,,
15.47.09.690,442.5,110.6,0,,,24366.5,41.04,-0.58,0.67,0.15,0.9,11.0,-11.1,36.05,,,,,,,,,,
15.47.09.700,460.3,115.1,0,,,24366.5,41.04,-0.67,0.59,-0.82,25.1,13.1,17.1,36.05,,,,,,,,,,
15.47.09.709,459.4,114.8,0,,,24366.5,41.04,-0.42,1.12,-0.35,5.0,32.6,-3.2,35.97,,,,,,,,,,
15.47.09.718,449.5,112.4,0,,,24366.5,41.04,-0.36,0.57,-0.15,58.3,-18.5,4.9,36.35,,,,,,,,,,
15.47.09.730,516.4,129.1,0,,,24366.5,41.04,-0.58,0.81,0.53,12.0,26.0,-11.2,36.2,,,,,,,,,,
15.47.09.739,413.7,103.4,0,,,24366.5,41.04,-0.18,1.0,0.2,8.1,-8.5,-6.3,36.03,,,,,,,,,,
15.47.09.749,314.6,78.6,0,,,24366.5,41.04,-0.18,0.76,0.07,-15.7,-13.4,-14.8,36.26,,,,,,,,,,
15.47.09.762,288.9,72.2,0,,,24366.5,41.04,-0.03,0.69,1.37,-18.9,-3.0,13.8,36.15,,,,,,,,,,
15.47.09.769,176.2,44.0,0,,,24372.4,41.03,-0.49,0.2,0.44,27.0,-23.9,-5.0,36.09,,,,,,,,,,
15.47.09.777,198.3,49.6,0,,,24372.4,41.03,0.23,0.52,1.35,12.5,24.6,1.8,35.9,,,,,,,,,,
15.47.09.786,79.0,19.8,0,,,24372.4,41.03,-0.45,0.76,-0.05,16.7,11.1,-10.2,36.23,,,,,,,,,,
15.47.09.794,78.6,19.6,0,,,24372.4,41.03,-0.41,0.5,0.37,-35.1,16.7,6.5,36.01,,,,,,,,,,
15.47.09.803,21.6,5.4,0,,,24372.4,41.03,0.18,0.25,0.55,3.5,15.5,-6.7,36.15,,,,,,,,,,
15.47.09.812,19.7,4.9,0,,,24372.4,41.03,-0.16,-0.35,0.33,-7.3,0.7,4.7,36.26,,,,,,,,,,
15.47.09.821,51.3,12.8,0,,,24372.4,41.03,-0.13,0.53,0.68,-21.6,18.0,-11.3,36.04,,,,,,,,,,
15.47.09.829,67.9,17.0,0,,,24372.4,41.03,-0.22,0.28,0.1,13.6,-6.4,1.2,36.26,,,,,,,,,,
15.47.09.837,143.5,35.9,0,,,24372.4,41.03,0.0,0.37,0.55,-2.2,-3.3,27.3,36.07,,,,,,,,,,
15.47.09.848,129.2,32.3,0,,,24378.4,41.02,-0.42,-0.16,0.99,-32.1,-3.2,-9.5,35.99,,,,,,,,,,
15.47.09.859,121.2,30.3,0,,,24378.4,41.02,-0.17,0.26,0.39,40.7,-8.8,8.4,35.93,,,,,,,,,,
15.47.09.868,83.4,20.8,0,,,24378.4,41.02,-0.43,0.36,0.33,-0.9,-1.1,14.4,36.23,,,,,,,,,,
15.47.09.877,39.3,9.8,0,,,24378.4,41.02,-0.74,0.67,0.65,-10.8,10.4,-6.4,36.06,,,,,,,,,,
15.47.09.889,169.8,42.4,0,,,24378.4,41.02,-0.67,-0.08,0.66,19.8,15.2,-0.4,36.24,,,,,,,,,,
15.47.09.897,13.8,3.4,0,,,24378.4,41.02,-0.45,-0.35,0.06,30.1,2.6,-7.6,36.37,,,,,,,,,,
15.47.09.905,16.5,4.1,0,,,24378.4,41.02,-0.47,0.47,-0.82,-35.6,-11.0,11.6,36.13,,,,,,,,,,
15.47.09.916,4.9,1.2,0,,,24378.4,41.02,-0.93,0.37,-0.08,-10.2,-1.6,-8.5,36.22,,,,,,,,,,
15.47.09.923,-22.1,5.5,0,,,24378.4,41.02,-0.73,0.22,0.24,-10.1,5.1,-17.3,36.0,,,,,,,,,,
15.47.09.932,14.8,3.7,0,,,24384.3,41.01,-0.92,0.3,0.29,-1.5,18.0,-8.4,36.13,,,,,,,,,,
15.47.09.941,29.3,7.3,0,,,24384.3,41.01,-0.47,-0.2,0.57,-2.0,-5.7,2.1,36.17,,,,,,,,,,
15.47.09.952,-26.0,6.5,0,,,24384.3,41.01,-0.75,0.07,0.26,25.3,13.7,-1.7,36.04,,,,,,,,,,
15.47.09.962,-30.0,7.5,0,,,24384.3,41.01,-0.45,0.42,-0.81,9.1,-11.6,-6.1,36.22,,,,,,,,,,
15.47.09.970,-22.1,5.5,0,,,24384.3,41.01,-0.7,0.5,-0.16,-26.0,33.2,-0.1,35.9,,,,,,,,,,
15.47.09.981,-87.5,21.9,0,,,24384.3,41.01,-0.71,0.31,0.31,-26.6,19.0,2.5,36.19,,,,,,,,,,
15.47.09.992,-70.6,17.6,0,,,24384.3,41.01,-0.94,1.07,-0.34,-7.9,-9.7,1.4,36.15,,,,,,,,,,
15.47.10.001,-78.9,19.7,0,,,24384.3,41.01,-0.74,0.2,-0.97,23.0,12.8,4.4,36.08,,,,,,,,,,
15.47.10.010,-46.0,11.5,0,,,24384.3,41.01,-0.94,0.92,-0.44,12.0,-6.9,-3.5,35.91,107.2,,,,,,,,,
15.47.10.021,-38.3,9.6,0,,,24390.2,41.0,-0.34,0.61,0.29,-11.0,-13.4,8.2,35.9,,,,,,,,,,
15.47.10.031,-128.2,32.0,0,,,24390.2,41.0,-0.56,1.39,0.45,2.9,10.8,5.2,36.05,,,,,,,,,,
15.47.10.040,-100.6,25.2,0,,,24390.2,41.0,-1.0,0.7,0.25,29.8,-0.5,-12.6,36.27,,,,,,,,,,
15.47.10.050,-100.1,25.0,1,21.0,123.5,24390.2,41.0,-0.86,0.46,0.02,-4.0,20.5,-3.6,36.0,,,,,,,,,,
15.47.10.061,-141.0,35.2,0,,,24390.2,41.0,-0.38,1.14,0.35,4.9,10.5,-1.1,36.15,,,,,,,,,,
15.47.10.069,-151.2,37.8,0,,,24390.2,41.0,-0.37,0.7,0.46,12.5,9.7,-19.4,36.11,,,,,,,,,,
15.47.10.078,-102.8,25.7,0,,,24390.2,41.0,-0.76,1.03,0.89,9.0,14.0,-14.7,36.03,,,,,,,,,,
15.47.10.087,-121.4,30.4,0,,,24390.2,41.0,-0.35,0.69,0.14,3.6,3.3,13.4,36.29,,,,,,,,,,
15.47.10.095,-85.6,21.4,0,,,24390.2,41.0,-0.03,0.03,0.27,9.7,-18.0,-0.2,36.35,,,,,,,,,,
15.47.10.103,-138.1,34.5,0,,,24390.2,41.0,0.08,0.48,1.01,3.1,17.7,2.1,36.29,,,,,,,,,,
15.47.10.112,-167.7,41.9,0,,,24390.2,41.0,-0.1,0.5,0.08,18.3,5.4,-10.0,36.19,,,,,,,,,,
15.47.10.126,-157.1,39.3,0,,,24390.2,41.0,0.1,0.1,1.02,6.7,13.8,1.4,36.19,,,,,,,,,,
15.47.10.136,-204.7,51.2,0,,,24390.2,41.0,-0.39,-0.24,0.56,-10.8,14.2,2.9,36.27,,,,,,,,,,
15.47.10.145,-183.4,45.8,0,,,24396.2,40.99,-0.05,-0.04,1.08,-31.0,-2.4,-7.6,36.16,,,,,,,,,,
15.47.10.154,-198.0,49.5,0,,,24396.2,40.99,0.06,0.1,0.15,-0.3,1.5,-2.7,36.05,,,,,,,,,,
15.47.10.164,42.7,10.7,0,,,24396.2,40.99,-0.48,0.37,0.28,25.4,-6.4,-14.1,36.05,,,,,,,,,,
15.47.10.174,118.9,29.7,0,,,24396.2,40.99,-0.06,0.3,0.82,-19.8,6.1,-0.1,36.33,,,,,,,,,,
15.47.10.183,228.7,57.2,0,,,24396.2,40.99,-0.24,0.35,0.85,10.7,13.8,8.0,35.82,,,,,,,,,,
15.47.10.194,220.0,55.0,0,,,24396.2,40.99,-0.33,0.44,0.42,-21.1,14.0,-11.1,36.13,,,,,,,,,,
15.47.10.202,332.8,83.2,0,,,24396.2,40.99,-0.54,0.07,-0.01,-16.1,13.4,22.2,36.02,,,,,,,,,,
15.47.10.211,396.9,99.2,0,,,24396.2,40.99,-0.61,-0.14,-0.09,16.9,5.6,-16.0,36.27,,,,,,,,,,
15.47.10.218,377.2,94.3,0,,,24396.2,40.99,-0.64,0.24,0.19,-18.3,-1.3,-5.2,36.15,,,,,,,,,,
15.47.10.227,376.9,94.2,0,,,24396.2,40.99,-0.12,0.03,0.12,21.9,-3.2,1.7,36.06,,,,,,,,,,
15.47.10.237,468.3,117.1,0,,,24396.2,40.99,-0.81,0.3,0.26,11.6,12.7,-0.4,36.03,,,,,,,,,,
15.47.10.247,556.3,139.1,0,,,24396.2,40.99,-0.81,0.24,0.51,-4.3,-1.0,11.3,35.95,,,,,,,,,,
15.47.10.256,505.1,126.3,0,,,24396.2,40.99,-0.54,-0.21,1.01,-13.5,-9.4,6.7,36.23,,,,,,,,,,
15.47.10.267,479.0,119.8,0,,,24396.2,40.99,-0.94,0.74,0.63,10.4,-0.4,15.9,36.11,,,,,,,,,,
15.47.10.278,487.0,121.8,0,,,24402.1,40.98,-0.97,0.35,-0.48,-18.9,-1.4,-4.0,36.03,,,,,,,,,,
15.47.10.288,442.8,110.7,0,,,24402.1,40.98,-0.69,0.32,0.15,-21.9,-6.6,-12.5,36.37,,,,,,,,,,
15.47.10.298,424.6,106.2,0,,,24402.1,40.98,-1.05,0.15,-0.15,-0.6,29.6,-9.8,36.01,,,,,,,,,,
15.47.10.307,336.6,84.2,0,,,24402.1,40.98,-0.74,0.75,-0.22,-13.4,23.5,11.2,36.26,,,,,,,,,,
15.47.10.317,290.9,72.7,0,,,24402.1,40.98,-0.6,0.49,-0.32,12.6,-17.1,-25.9,35.96,,,,,,,,,,
15.47.10.326,220.5,55.1,0,,,24402.1,40.98,-0.71,1.1,0.8,-25.1,7.6,-9.3,36.1,,,,,,,,,,
15.47.10.335,149.4,37.4,0,,,24402.1,40.98,-0.94,-0.1,0.32,33.4,22.5,6.7,35.99,,,,,,,,,,
15.47.10.345,113.1,28.3,0,,,24402.1,40.98,-0.77,0.94,-0.43,24.0,2.5,-9.2,36.32,,,,,,,,,,
15.47.10.355,35.7,8.9,0,,,24402.1,40.98,-0.54,0.99,-0.3,5.7,5.1,2.8,36.21,,,,,,,,,,
15.47.10.368,52.0,13.0,0,,,24402.1,40.98,-0.3,0.93,0.06,7.8,25.5,-8.0,36.22,,,,,,,,,,
15.47.10.377,110.8,27.7,0,,,24402.1,40.98,-0.82,0.98,0.62,0.0,3.3,-7.8,36.02,,,,,,,,,,
15.47.10.387,53.2,13.3,0,,,24402.1,40.98,-0.77,1.14,0.17,-30.0,33.8,7.1,36.16,,,,,,,,,,
15.47.10.394,122.8,30.7,0,,,24408.1,40.97,-0.5,1.44,0.62,26.3,3.9,6.0,35.93,,,,,,,,,,
15.47.10.404,72.9,18.2,0,,,24408.1,40.97,-0.22,0.64,0.36,-14.7,17.1,3.4,36.45,,,,,,,,,,
15.47.10.413,76.2,19.0,0,,,24408.1,40.97,-0.15,0.75,0.63,23.7,8.5,-7.3,36.36,,,,,,,,,,
15.47.10.423,118.6,29.6,0,,,24408.1,40.97,0.1,0.1,0.23,-18.5,3.2,13.5,36.25,,,,,,,,,,
15.47.10.434,37.0,9.2,0,,,24408.1,40.97,-0.09,1.17,0.85,5.4,15.7,-1.3,36.1,,,,,,,,,,
15.47.10.443,61.2,15.3,0,,,24408.1,40.97,-0.48,0.1,0.94,-19.7,-0.9,0.2,36.45,,,,,,,,,,
15.47.10.451,-5.0,1.2,0,,,24408.1,40.97,-0.14,0.46,0.19,-30.0,-13.5,18.2,36.07,,,,,,,,,,
15.47.10.460,50.5,12.6,0,,,24408.1,40.97,-0.07,0.8,1.27,10.8,-19.6,1.5,36.19,,,,,,,,,,
15.47.10.469,-19.3,4.8,0,,,24408.1,40.97,-0.45,0.81,1.0,18.4,7.0,-3.3,36.02,,,,,,,,,,
15.47.10.478,-6.9,1.7,0,,,24408.1,40.97,-0.54,0.52,0.55,6.2,-13.7,3.2,36.03,,,,,,,,,,
15.47.10.487,-37.1,9.3,0,,,24408.1,40.97,-0.35,0.23,1.05,-4.8,8.5,-24.1,36.04,,,,,,,,,,
15.47.10.497,28.6,7.2,1,22.0,134.2,24408.1,40.97,-0.05,0.92,-0.15,12.6,21.4,-2.4,36.14,,,,,,,,,,
15.47.10.507,-61.8,15.4,0,,,24408.1,40.97,-0.28,-0.59,0.62,4.9,24.7,-20.0,36.11,,,,,,,,,,
15.47.10.516,-53.1,13.3,0,,,24408.1,40.97,-0.49,0.27,0.85,30.1,18.7,-9.2,36.02,,,,,,,,,,
15.47.10.525,-6.1,1.5,0,,,24414.1,40.96,-0.48,-0.37,0.99,10.2,-2.7,15.3,36.3,,,,,,,,,,
15.47.10.535,-31.3,7.8,0,,,24414.1,40.96,-0.17,-0.36,0.03,37.9,3.4,1.3,36.14,,,,,,,,,,
15.47.10.545,-79.8,20.0,0,,,24414.1,40.96,-0.12,0.11,-1.21,-17.3,-7.2,11.6,36.1,,,,,,,,,,
15.47.10.556,-7.4,1.8,0,,,24414.1,40.96,-0.71,0.38,0.85,-1.3,9.8,13.6,36.01,,,,,,,,,,
15.47.10.565,-112.8,28.2,0,,,24414.1,40.96,-0.33,-0.04,0.56,-20.6,25.4,-12.7,35.97,,,,,,,,,,
15.47.10.575,-113.3,28.3,0,,,24414.1,40.96,-0.67,0.54,0.64,-7.8,11.0,4.9,36.3,,,,,,,,,,
15.47.10.583,-72.0,18.0,0,,,24414.1,40.96,-0.53,0.21,-0.7,10.5,-7.1,3.0,36.07,,,,,,,,,,
15.47.10.592,-96.8,24.2,0,,,24414.1,40.96,-0.54,-0.06,0.01,1.1,-13.3,-1.0,36.27,,,,,,,,,,
15.47.10.600,-75.5,18.9,0,,,24414.1,40.96,-0.5,-0.4,-0.42,2.9,7.4,-0.2,36.28,,,,,,,,,,
15.47.10.609,-98.9,24.7,0,,,24414.1,40.96,-0.59,0.81,-0.0,13.9,14.1,-0.0,36.38,,,,,,,,,,
15.47.10.620,-212.7,53.2,0,,,24414.1,40.96,-0.71,-0.22,-0.94,-9.8,20.1,1.2,36.33,,,,,,,,,,
15.47.10.629,-160.2,40.0,0,,,24414.1,40.96,-0.59,-0.13,0.48,13.0,-8.3,14.0,36.06,,,,,,,,,,
15.47.10.638,-129.6,32.4,0,,,24414.1,40.96,-0.69,0.27,0.07,19.3,-1.9,7.7,36.15,,,,,,,,,,
15.47.10.647,-166.2,41.6,0,,,24420.0,40.95,-0.83,0.6,-0.54,22.0,5.7,10.4,36.23,,,,,,,,,,
15.47.10.656,-101.2,25.3,0,,,24420.0,40.95,-0.53,0.87,0.31,-2.2,-3.4,-1.5,36.07,,,,,,,,,,
15.47.10.667,-186.2,46.6,0,,,24420.0,40.95,-0.78,-0.24,-0.49,5.9,30.3,-15.8,36.14,,,,,,,,,,
15.47.10.679,-127.2,31.8,0,,,24420.0,40.95,-0.72,0.52,-0.31,-15.6,3.5,21.6,36.23,,,,,,,,,,
15.47.10.690,,,0,,,,,,,,,,,,,,,,,,,,,
15.47.10.700,-156.1,39.0,0,,,24420.0,40.95,-0.49,0.15,0.03,17.5,22.6,15.5,36.26,,,,,,,,,,
15.47.10.709,-151.7,37.9,0,,,24420.0,40.95,-0.79,0.23,0.08,7.8,19.1,-0.3,36.02,,,,,,,,,,
15.47.10.717,-225.6,56.4,0,,,24420.0,40.95,-0.54,0.39,1.16,-48.9,8.2,1.7,36.42,,,,,,,,,,
15.47.10.725,57.3,14.3,0,,,24420.0,40.95,-0.79,1.01,0.69,-27.5,16.3,7.1,36.29,,,,,,,,,,
15.47.10.735,116.1,29.0,0,,,24420.0,40.95,-0.83,0.54,1.05,-11.7,2.7,10.5,36.0,,,,,,,,,,
15.47.10.746,203.7,50.9,0,,,24420.0,40.95,-0.75,1.47,1.07,19.1,14.4,0.0,36.37,,,,,,,,,,
15.47.10.756,318.3,79.6,0,,,24420.0,40.95,-0.32,0.47,0.32,-1.0,8.4,-12.2,35.87,,,,,,,,,,
15.47.10.767,344.8,86.2,0,,,24420.0,40.95,-1.01,0.68,0.44,-0.8,10.0,-9.0,36.1,,,,,,,,,,
15.47.10.777,399.9,100.0,0,,,24426.0,40.94,-0.48,-0.03,0.63,-4.0,-1.4,-10.2,36.03,,,,,,,,,,
15.47.10.789,475.7,118.9,0,,,24426.0,40.94,-0.18,0.68,0.99,-3.9,0.2,15.1,36.22,,,,,,,,,,
15.47.10.796,446.6,111.6,0,,,24426.0,40.94,-0.83,-0.02,1.43,18.2,26.3,-13.5,35.96,,,,,,,,,,
15.47.10.804,498.7,124.7,0,,,24426.0,40.94,-0.67,0.83,1.09,-19.3,21.2,4.1,36.25,,,,,,,,,,
15.47.10.812,525.1,131.3,0,,,24426.0,40.94,-0.57,0.23,0.85,-6.9,24.5,-3.5,36.14,,,,,,,,,,
15.47.10.821,506.6,126.6,0,,,24426.0,40.94,-0.36,0.24,0.84,-24.7,15.7,8.5,36.25,,,,,,,,,,
15.47.10.830,443.8,111.0,0,,,24426.0,40.94,-0.42,-0.34,0.58,4.4,-7.4,-24.5,36.24,,,,,,,,,,
15.47.10.840,454.1,113.5,0,,,24426.0,40.94,0.03,0.6,0.66,-21.8,34.2,-11.7,36.33,,,,,,,,,,
15.47.10.853,407.6,101.9,0,,,24426.0,40.94,-0.2,0.04,0.37,2.4,6.6,15.7,35.95,,,,,,,,,,
15.47.10.863,411.3,102.8,0,,,24426.0,40.94,-0.23,0.05,1.2,30.1,16.1,-2.3,36.19,,,,,,,,,,
15.47.10.872,272.1,68.0,0,,,24426.0,40.94,-0.58,0.27,-0.14,41.9,14.6,-28.0,36.18,,,,,,,,,,
15.47.10.883,276.0,69.0,0,,,24426.0,40.94,-0.47,-0.21,0.98,-11.5,12.1,-16.4,36.03,,,,,,,,,,
15.47.10.892,116.9,29.2,0,,,24426.0,40.94,-0.75,0.07,0.13,13.6,19.4,12.7,36.07,,,,,,,,,,
15.47.10.904,37.6,9.4,0,,,24432.0,40.93,-0.08,0.23,0.47,-7.9,0.5,-1.8,35.84,,,,,,,,,,
15.47.10.915,-1.8,0.4,0,,,24432.0,40.93,-0.73,0.38,0.18,-15.2,13.2,4.6,36.34,,,,,,,,,,
15.47.10.927,92.6,23.2,0,,,24432.0,40.93,-0.45,-0.05,0.82,18.5,16.7,8.2,36.01,,,,,,,,,,
15.47.10.938,67.6,16.9,0,,,24432.0,40.93,-0.7,0.43,0.46,-2.4,19.5,-2.7,36.39,,,,,,,,,,
15.47.10.947,83.4,20.8,0,,,24432.0,40.93,-0.7,0.42,-1.1,39.0,20.4,-1.0,36.31,,,,,,,,,,
15.47.10.957,87.8,22.0,0,,,24432.0,40.93,-0.64,0.09,-0.16,17.9,-12.2,-11.5,36.05,,,,,,,,,,
15.47.10.967,47.4,11.8,0,,,24432.0,40.93,-0.64,0.8,0.38,-11.1,7.7,7.7,36.12,,,,,,,,,,
15.47.10.978,129.7,32.4,0,,,24432.0,40.93,-0.66,0.81,-0.98,-15.9,4.1,5.8,36.16,,,,,,,,,,
15.47.10.987,44.5,11.1,0,,,24432.0,40.93,-0.53,0.76,-0.16,-3.0,-23.2,1.1,36.24,,,,,,,,,,
15.47.10.996,32.0,8.0,0,,,24432.0,40.93,-0.6,0.41,0.18,-5.9,-20.3,-26.3,35.9,,,,,,,,,,
15.47.11.005,25.7,6.4,1,23.0,118.1,24432.0,40.93,-0.51,0.33,0.74,21.0,-8.6,3.2,35.99,,,,,,,,,,
15.47.11.014,57.2,14.3,0,,,24432.0,40.93,-0.78,-0.03,-0.12,-17.0,26.4,15.2,36.23,,,,,,,,,,
15.47.11.024,9.0,2.2,0,,,24432.0,40.93,-0.53,0.82,-0.38,-17.5,21.3,-9.9,36.21,,,,,,,,,,
15.47.11.033,6.9,1.7,0,,,24432.0,40.93,-0.77,0.46,0.07,10.6,25.4,2.6,36.24,,,,,,,,,,
15.47.11.043,-19.2,4.8,0,,,24432.0,40.93,-0.88,1.02,-0.55,-3.1,-2.5,1.3,36.04,,,,,,,,,,
15.47.11.053,29.5,7.4,0,,,24432.0,40.93,-0.29,0.33,0.05,-29.6,8.0,0.9,36.03,,,,,,,,,,
15.47.11.062,-79.3,19.8,0,,,24432.0,40.93,-0.46,1.14,0.5,40.6,17.0,-9.7,36.55,,,,,,,,,,
15.47.11.073,-72.1,18.0,0,,,24432.0,40.93,-0.52,0.79,0.33,-10.6,16.1,7.9,36.13,,,,,,,,,,
15.47.11.082,-26.3,6.6,0,,,24432.0,40.93,-0.57,0.93,-0.15,-41.1,11.6,-14.9,36.45,,,,,,,,,,
15.47.11.090,-56.7,14.2,0,,,24432.0,40.93,-0.48,0.88,0.23,-10.9,19.7,10.5,36.28,,,,,,,,,,
15.47.11.099,-32.4,8.1,0,,,24432.0,40.93,-0.64,0.49,0.6,13.0,1.6,-0.9,35.98,,,,,,,,,,
15.47.11.108,-82.5,20.6,0,,,24432.0,40.93,-0.76,1.7,0.87,23.2,19.6,-18.5,36.15,,,,,,,,,,
15.47.11.119,-25.6,6.4,0,,,24432.0,40.93,-0.45,0.97,0.78,25.6,12.7,-5.8,36.23,,,,,,,,,,
15.47.11.126,33.5,8.4,0,,,24432.0,40.93,-0.08,0.14,0.92,5.0,-7.2,-1.9,35.91,,,,,,,,,,
15.47.11.136,-32.4,8.1,0,,,24432.0,40.93,-0.58,0.29,0.5,-0.9,1.8,-0.8,35.83,,,,,,,,,,
15.47.11.146,-101.9,25.5,0,,,24432.0,40.93,-0.79,1.04,0.49,-15.5,16.1,-0.5,36.04,,,,,,,,,,
15.47.11.156,-112.3,28.1,0,,,24426.0,40.94,-0.52,-0.08,1.49,-2.8,4.0,-9.2,36.2,,,,,,,,,,
15.47.11.166,-53.0,13.2,0,,,24426.0,40.94,-0.34,1.28,0.72,-42.2,3.3,8.0,35.99,,,,,,,,,,
15.47.11.176,-107.6,26.9,0,,,24426.0,40.94,-0.35,0.88,0.85,5.4,6.2,-21.6,35.9,,,,,,,,,,
15.47.11.186,-93.2,23.3,0,,,24426.0,40.94,-0.5,-0.29,0.81,9.2,-23.4,-9.2,36.36,,,,,,,,,,
15.47.11.195,-93.3,23.3,0,,,24426.0,40.94,-0.25,0.29,1.15,1.4,4.9,-0.6,36.15,,,,,,,,,,
15.47.11.206,-122.1,30.5,0,,,24426.0,40.94,-0.0,0.78,1.02,-19.7,6.1,-2.7,35.99,,,,,,,,,,
15.47.11.216,-191.9,48.0,0,,,24426.0,40.94,-0.33,-0.01,1.18,22.8,-7.0,6.3,36.07,,,,,,,,,,
15.47.11.228,-111.4,27.8,0,,,24426.0,40.94,-0.46,-0.52,0.61,-3.3,-8.4,-13.2,36.01,,,,,,,,,,
15.47.11.237,-150.5,37.6,0,,,24426.0,40.94,-0.51,-0.12,0.08,-11.0,0.1,-0.8,36.32,,,,,,,,,,
15.47.11.246,-124.2,31.0,0,,,24426.0,40.94,-0.56,-0.28,0.75,39.6,3.1,-5.1,35.91,,,,,,,,,,
15.47.11.255,-202.6,50.6,0,,,24426.0,40.94,-0.27,-0.15,0.93,24.5,2.3,1.8,36.13,,,,,,,,,,
15.47.11.264,-154.4,38.6,0,,,24426.0,40.94,-0.22,0.17,-0.25,8.5,13.6,1.6,36.28,,,,,,,,,,
15.47.11.276,-181.8,45.4,0,,,24426.0,40.94,-0.52,0.54,0.07,-9.2,13.1,-3.4,36.37,,,,,,,,,,
15.47.11.287,94.2,23.6,0,,,24426.0,40.94,-0.26,0.78,-0.37,0.7,15.1,-7.8,36.19,,,,,,,,,,
15.47.11.296,131.9,33.0,0,,,24426.0,40.94,-0.54,0.21,-0.45,2.5,-24.9,-9.7,36.15,,,,,,,,,,
15.47.11.306,204.9,51.2,0,,,24426.0,40.94,-0.84,0.24,0.18,-8.4,5.7,9.1,36.11,,,,,,,,,,
15.47.11.316,302.3,75.6,0,,,24426.0,40.94,-0.62,0.06,0.12,47.3,-11.1,-16.7,36.35,,,,,,,,,,
15.47.11.325,369.0,92.2,0,,,24426.0,40.94,-0.52,-0.08,-0.0,-6.9,-8.6,16.7,36.2,,,,,,,,,,
15.47.11.337,427.9,107.0,0,,,24420.0,40.95,-0.57,-0.26,-0.2,-5.6,2.1,7.8,36.09,,,,,,,,,,
15.47.11.346,476.0,119.0,0,,,24420.0,40.95,-0.77,0.47,-0.59,9.2,2.4,-0.5,36.12,,,,,,,,,,
15.47.11.355,565.2,141.3,0,,,24420.0,40.95,-0.43,0.36,-0.46,16.3,14.0,-7.5,35.73,,,,,,,,,,
15.47.11.365,526.4,131.6,0,,,24420.0,40.95,-0.59,-0.23,-1.07,0.4,9.9,2.2,36.37,,,,,,,,,,
15.47.11.375,442.1,110.5,0,,,24420.0,40.95,-1.01,1.19,-0.25,-1.8,-8.8,9.3,36.23,,,,,,,,,,
15.47.11.386,453.4,113.4,0,,,24420.0,40.95,-0.58,0.54,-0.34,23.7,7.3,-13.8,35.88,,,,,,,,,,
15.47.11.396,442.4,110.6,0,,,24420.0,40.95,-0.31,0.1,0.45,15.5,6.1,4.8,36.18,,,,,,,,,,
15.47.11.405,529.5,132.4,0,,,24420.0,40.95,-0.71,1.36,0.62,34.3,-12.4,-6.1,36.1,,,,,,,,,,
15.47.11.415,399.3,99.8,0,,,24420.0,40.95,-0.72,0.75,0.2,-7.9,17.2,-12.0,36.11,,,,,,,,,,
15.47.11.424,342.5,85.6,1,24.0,143.2,24420.0,40.95,-0.58,0.39,0.29,11.7,4.2,-13.6,36.18,,,,,,,,,,
15.47.11.433,334.1,83.5,0,,,24420.0,40.95,-0.23,0.57,0.5,-4.7,-5.6,13.8,36.27,,,,,,,,,,
15.47.11.439,236.1,59.0,0,,,24420.0,40.95,-0.35,1.22,0.57,4.2,0.8,-21.6,36.34,,,,,,,,,,
15.47.11.449,165.9,41.5,0,,,24420.0,40.95,-0.64,1.1,0.38,9.9,3.9,-23.6,35.93,,,,,,,,,,
15.47.11.460,68.0,17.0,0,,,24420.0,40.95,-0.31,0.48,0.35,0.5,12.2,-9.7,36.06,,,,,,,,,,
15.47.11.470,13.6,3.4,0,,,24420.0,40.95,-0.47,0.51,0.77,-8.9,0.3,6.1,36.42,,,,,,,,,,
15.47.11.482,63.5,15.9,0,,,24420.0,40.95,-0.11,0.44,0.68,-6.7,-23.1,1.8,35.96,,,,,,,,,,
15.47.11.493,80.2,20.0,0,,,24420.0,40.95,-0.45,-0.14,0.6,2.7,-13.2,13.5,36.17,,,,,,,,,,
15.47.11.500,73.5,18.4,0,,,24420.0,40.95,-0.39,0.44,1.85,-9.8,-0.6,2.4,36.24,,,,,,,,,,
15.47.11.511,123.5,30.9,0,,,24420.0,40.95,-0.39,0.27,1.43,-0.0,9.6,-6.4,36.03,,,,,,,,,,
15.47.11.519,98.2,24.6,0,,,24420.0,40.95,0.34,0.33,1.1,-2.3,6.2,3.7,36.38,,,,,,,,,,
15.47.11.531,51.1,12.8,0,,,24414.1,40.96,-0.73,-0.06,0.07,0.3,25.3,-20.8,35.95,,,,,,,,,,
15.47.11.543,96.2,24.0,0,,,24414.1,40.96,-0.03,0.36,0.79,-19.8,-3.0,1.7,36.36,,,,,,,,,,
15.47.11.553,63.4,15.8,0,,,24414.1,40.96,-0.57,-0.3,0.78,4.5,-2.9,1.4,36.07,,,,,,,,,,
15.47.11.561,81.0,20.2,0,,,24414.1,40.96,-0.43,0.38,0.34,23.9,-10.5,-14.0,36.29,,,,,,,,,,
15.47.11.570,2.8,0.7,0,,,24414.1,40.96,-0.51,-0.22,0.53,-19.7,3.2,-12.6,36.06,,,,,,,,,,
15.47.11.580,42.0,10.5,0,,,24414.1,40.96,-0.73,0.2,0.84,-12.2,24.8,5.8,36.44,,,,,,,,,,
15.47.11.588,8.8,2.2,0,,,24414.1,40.96,-0.09,-0.0,0.35,-11.2,30.0,11.1,36.17,,,,,,,,,,
15.47.11.598,-70.5,17.6,0,,,24414.1,40.96,-0.67,-0.11,-0.37,-3.7,20.0,-1.3,36.28,,,,,,,,,,
15.47.11.607,-25.3,6.3,0,,,24414.1,40.96,-0.66,0.41,-0.59,7.0,10.6,-12.5,36.25,,,,,,,,,,
15.47.11.617,-38.4,9.6,0,,,24414.1,40.96,-0.37,0.06,-0.36,-27.1,20.6,-17.7,36.12,,,,,,,,,,
15.47.11.627,-7.8,2.0,0,,,24414.1,40.96,-0.57,0.2,-0.04,-22.8,0.5,5.9,36.32,,,,,,,,,,
15.47.11.636,-24.4,6.1,0,,,24414.1,40.96,-0.88,-0.03,-0.21,-12.6,7.5,-15.9,36.22,,,,,,,,,,
15.47.11.645,-88.0,22.0,0,,,24414.1,40.96,-0.43,-0.24,0.22,13.9,0.1,-26.3,35.97,,,,,,,,,,
15.47.11.655,-41.9,10.5,0,,,24414.1,40.96,-0.98,-0.16,-0.24,13.5,17.5,-6.3,36.22,,,,,,,,,,
15.47.11.665,-85.3,21.3,0,,,24414.1,40.96,-0.51,0.3,0.21,3.0,5.3,1.1,36.16,,,,,,,,,,
15.47.11.675,-85.9,21.5,0,,,24414.1,40.96,-0.88,0.38,-0.65,-22.1,26.5,4.0,36.1,,,,,,,,,,
15.47.11.686,-126.6,31.6,0,,,24414.1,40.96,-0.52,0.89,-0.35,-3.4,2.4,1.1,36.22,,,,,,,,,,
15.47.11.697,-81.5,20.4,0,,,24414.1,40.96,-1.01,0.39,-0.26,-28.3,13.9,11.5,36.34,,,,,,,,,,
15.47.11.708,-97.2,24.3,0,,,24408.1,40.97,-1.03,0.34,-0.07,-5.8,17.4,-5.6,36.06,,,,,,,,,,
15.47.11.719,-71.8,18.0,0,,,24408.1,40.97,-0.82,0.68,-0.55,-25.2,-15.4,18.6,36.25,,,,,,,,,,
15.47.11.727,-109.9,27.5,0,,,24408.1,40.97,-1.07,0.37,-0.11,23.9,9.2,-15.0,36.42,,,,,,,,,,
15.47.11.735,-151.0,37.8,0,,,24408.1,40.97,-0.65,0.81,0.17,8.9,-19.9,-6.0,36.09,,,,,,,,,,
15.47.11.743,-143.8,36.0,0,,,24408.1,40.97,-0.86,0.79,-0.15,-24.5,-8.6,13.0,36.17,,,,,,,,,,
15.47.11.751,-93.9,23.5,0,,,24408.1,40.97,-0.19,0.22,-0.15,-14.0,14.2,2.0,35.99,,,,,,,,,,
15.47.11.760,-106.1,26.5,0,,,24408.1,40.97,-0.49,1.36,-0.71,-2.8,0.1,-21.8,36.04,,,,,,,,,,
15.47.11.770,-98.4,24.6,0,,,24408.1,40.97,-0.8,0.52,0.18,-11.1,3.4,3.3,36.13,,,,,,,,,,
15.47.11.780,-159.9,40.0,0,,,24408.1,40.97,-0.53,0.79,0.02,5.5,-4.0,19.1,36.31,,,,,,,,,,
15.47.11.788,-181.6,45.4,0,,,24408.1,40.97,-0.2,0.51,0.43,-7.3,-9.9,16.2,36.05,,,,,,,,,,
15.47.11.797,-200.4,50.1,0,,,24408.1,40.97,-0.2,0.41,0.83,9.5,23.7,8.9,36.25,,,,,,,,,,
15.47.11.807,-177.0,44.2,0,,,24408.1,40.97,-0.59,0.66,1.1,-20.8,20.1,-15.5,35.93,,,,,,,,,,
15.47.11.816,-131.5,32.9,0,,,24408.1,40.97,-0.42,0.86,0.97,10.7,0.8,-0.2,36.13,,,,,,,,,,
15.47.11.825,-185.0,46.2,0,,,24408.1,40.97,-0.36,1.23,0.54,-24.5,26.3,26.4,36.07,,,,,,,,,,
15.47.11.834,-4.3,1.1,0,,,24408.1,40.97,-0.36,0.41,1.57,7.6,24.9,16.2,36.08,,,,,,,,,,
15.47.11.844,75.4,18.8,0,,,24408.1,40.97,-0.6,0.25,0.7,16.6,-27.6,20.2,36.19,,,,,,,,,,
15.47.11.853,179.9,45.0,0,,,24408.1,40.97,-0.2,0.24,-0.02,4.6,-7.1,8.6,36.38,,,,,,,,,,
15.47.11.861,203.9,51.0,0,,,24408.1,40.97,-0.35,0.71,0.89,-9.5,13.4,8.4,36.18,,,,,,,,,,
15.47.11.871,249.5,62.4,0,,,24408.1,40.97,0.02,0.45,1.22,5.3,12.2,-13.8,36.04,,,,,,,,,,
15.47.11.881,338.7,84.7,0,,,24408.1,40.97,-0.5,0.07,1.21,-12.9,0.0,-2.4,36.13,,,,,,,,,,
15.47.11.891,399.5,99.9,0,,,24402.1,40.98,-0.07,0.07,0.69,29.3,20.7,0.4,35.99,,,,,,,,,,
15.47.11.902,447.2,111.8,0,,,24402.1,40.98,-0.36,0.53,0.25,10.4,1.6,-16.4,36.04,,,,,,,,,,
15.47.11.912,452.5,113.1,0,,,24402.1,40.98,-0.25,0.13,0.18,-16.7,22.6,-7.6,36.01,,,,,,,,,,
15.47.11.924,545.6,136.4,1,25.0,120.0,24402.1,40.98,-0.38,0.53,0.88,-37.1,-4.7,2.6,36.19,,,,,,,,,,
15.47.11.937,525.4,131.4,0,,,24402.1,40.98,-0.51,0.43,0.7,5.1,0.1,-19.7,36.17,,,,,,,,,,
15.47.11.949,539.1,134.8,0,,,24402.1,40.98,-0.62,0.23,0.43,14.2,-23.9,-10.9,36.03,,,,,,,,,,
15.47.11.959,442.1,110.5,0,,,24402.1,40.98,0.03,0.33,0.27,-29.3,6.8,-9.3,36.21,,,,,,,,,,
15.47.11.970,399.9,100.0,0,,,24402.1,40.98,-0.85,0.32,0.3,33.6,8.9,4.1,36.04,,,,,,,,,,
15.47.11.982,362.3,90.6,0,,,24402.1,40.98,-0.48,0.12,0.54,6.7,-2.5,22.1,36.2,,,,,,,,,,
15.47.11.990,261.7,65.4,0,,,24402.1,40.98,-1.03,-0.02,0.01,17.5,17.1,-5.8,36.12,,,,,,,,,,
15.47.12.001,183.2,45.8,0,,,24402.1,40.98,-0.63,0.22,0.45,8.5,4.5,4.0,35.98,,,,,,,,,,
15.47.12.010,98.4,24.6,0,,,24402.1,40.98,-0.52,0.61,0.64,-42.8,17.5,-11.3,36.35,,,,,,,,,,
15.47.12.018,55.6,13.9,0,,,24402.1,40.98,-0.58,0.67,0.33,24.7,19.6,-4.3,36.14,,,,,,,,,,
15.47.12.026,15.4,3.8,0,,,24402.1,40.98,-0.45,0.39,0.79,-5.1,11.7,0.6,36.33,,,,,,,,,,
15.47.12.036,11.8,3.0,0,,,24402.1,40.98,-0.48,0.03,-0.93,20.3,5.6,19.8,36.13,,,,,,,,,,
15.47.12.046,27.6,6.9,0,,,24402.1,40.98,-0.78,0.29,-0.02,-21.6,0.7,-8.2,36.06,,,,,,,,,,
15.47.12.056,24.6,6.2,0,,,24408.1,40.97,-0.64,0.62,-0.85,-2.8,16.2,0.3,35.95,,,,,,,,,,
15.47.12.067,79.2,19.8,0,,,24408.1,40.97,-0.65,0.53,-0.3,16.3,-2.0,-1.8,36.21,,,,,,,,,,
15.47.12.076,56.7,14.2,0,,,24408.1,40.97,-0.61,0.18,0.73,12.0,24.7,-13.0,36.33,,,,,,,,,,
15.47.12.086,87.0,21.8,0,,,24408.1,40.97,-0.67,1.12,0.07,1.7,13.4,7.6,36.08,,,,,,,,,,
15.47.12.096,84.0,21.0,0,,,24408.1,40.97,-0.96,0.54,-0.72,1.3,8.0,-19.3,36.3,,,,,,,,,,
15.47.12.106,-2.9,0.7,0,,,24408.1,40.97,-0.53,-0.11,-0.27,-4.5,6.3,-12.8,36.08,,,,,,,,,,
15.47.12.116,37.3,9.3,0,,,24408.1,40.97,-0.49,1.1,0.38,-0.3,7.4,-12.3,36.21,,,,,,,,,,
15.47.12.125,55.8,14.0,0,,,24408.1,40.97,-0.87,0.85,0.14,-20.7,0.7,15.5,36.13,,,,,,,,,,
15.47.12.134,-6.3,1.6,0,,,24408.1,40.97,-0.81,0.62,0.11,6.1,23.4,-9.3,36.15,,,,,,,,,,
15.47.12.143,-2.9,0.7,0,,,24414.1,40.96,-0.46,0.77,0.32,-1.1,8.8,-11.3,36.1,,,,,,,,,,
15.47.12.151,-35.7,8.9,0,,,24414.1,40.96,-0.33,0.85,0.52,10.1,-0.9,2.7,36.42,,,,,,,,,,
15.47.12.161,-27.4,6.8,0,,,24414.1,40.96,-0.28,0.01,0.71,2.5,13.1,13.2,36.17,,,,,,,,,,
15.47.12.170,-16.8,4.2,0,,,24414.1,40.96,0.14,0.99,0.57,-18.8,1.8,-19.2,35.99,,,,,,,,,,
15.47.12.178,-9.3,2.3,0,,,24414.1,40.96,-0.46,0.43,0.24,4.2,25.6,19.0,36.02,,,,,,,,,,
15.47.12.187,-16.5,4.1,0,,,24414.1,40.96,-0.13,0.15,0.02,35.4,26.8,-13.5,36.17,,,,,,,,,,
15.47.12.196,-26.7,6.7,0,,,24414.1,40.96,-0.04,0.49,1.04,21.8,18.5,-4.4,36.11,,,,,,,,,,
15.47.12.208,-68.7,17.2,0,,,24414.1,40.96,-0.52,0.19,0.55,-10.6,-12.7,-6.5,36.18,,,,,,,,,,
15.47.12.218,-65.0,16.2,0,,,24414.1,40.96,-0.77,-0.17,0.82,1.4,9.7,4.1,36.35,,,,,,,,,,
15.47.12.228,-77.9,19.5,0,,,24420.0,40.95,0.01,0.04,1.04,-4.7,13.0,-0.1,36.02,,,,,,,,,,
15.47.12.239,-35.3,8.8,0,,,24420.0,40.95,-0.36,0.01,1.45,5.1,-18.7,10.3,36.24,,,,,,,,,,
15.47.12.247,-45.9,11.5,0,,,24420.0,40.95,-0.14,0.6,0.48,-26.2,28.5,-19.9,36.21,,,,,,,,,,
15.47.12.259,-96.5,24.1,0,,,24420.0,40.95,-0.56,0.18,1.0,-9.9,17.7,-1.7,36.15,,,,,,,,,,
15.47.12.267,-113.5,28.4,0,,,24420.0,40.95,-0.22,-0.05,0.71,-10.6,-8.0,7.2,36.39,,,,,,,,,,
15.47.12.277,-104.7,26.2,0,,,24420.0,40.95,-0.47,-0.09,-0.84,-46.5,-3.0,21.8,35.95,,,,,,,,,,
15.47.12.285,-93.2,23.3,0,,,24420.0,40.95,-0.45,0.07,0.06,17.9,24.4,5.3,36.06,,,,,,,,,,
15.47.12.293,-108.3,27.1,0,,,24420.0,40.95,-0.54,-0.99,0.07,9.7,-16.4,-4.2,36.25,,,,,,,,,,
15.47.12.300,-132.7,33.2,0,,,24420.0,40.95,-0.55,0.43,-0.42,36.9,11.0,-15.5,36.09,,,,,,,,,,
15.47.12.311,-152.0,38.0,0,,,24426.0,40.94,-0.93,-0.0,0.7,21.3,3.6,-6.6,36.25,,,,,,,,,,
15.47.12.323,-185.4,46.4,0,,,24426.0,40.94,-0.45,0.22,0.25,7.2,-6.6,2.5,36.11,,,,,,,,,,
15.47.12.333,-199.2,49.8,0,,,24426.0,40.94,-0.66,0.15,-0.14,-18.9,10.3,-23.2,36.11,,,,,,,,,,
15.47.12.343,-146.6,36.6,0,,,24426.0,40.94,-0.39,0.28,-0.8,9.4,-3.8,-18.3,36.21,,,,,,,,,,
15.47.12.352,-149.3,37.3,0,,,24426.0,40.94,-0.66,-0.54,-0.02,24.5,-3.0,-9.4,36.21,,,,,,,,,,
15.47.12.361,-216.1,54.0,0,,,24426.0,40.94,-0.66,0.12,0.28,-6.8,16.6,19.3,36.19,,,,,,,,,,
15.47.12.370,-192.7,48.2,0,,,24426.0,40.94,-0.48,0.07,0.13,-0.2,8.7,13.3,36.27,,,,,,,,,,
15.47.12.380,-246.5,61.6,0,,,24426.0,40.94,-0.71,0.46,-0.11,9.9,1.0,-8.4,35.95,,,,,,,,,,
15.47.12.390,6.0,1.5,0,,,24432.0,40.93,-0.77,-0.02,-0.24,-6.6,-22.8,-11.9,36.18,,,,,,,,,,
15.47.12.399,99.6,24.9,0,,,24432.0,40.93,-0.81,0.44,-0.28,-4.3,-5.5,4.8,36.37,,,,,,,,,,
15.47.12.411,153.6,38.4,1,26.0,123.2,24432.0,40.93,-0.71,0.54,-0.29,-5.0,9.1,-4.2,36.31,,,,,,,,,,
15.47.12.421,281.7,70.4,0,,,24432.0,40.93,-0.87,0.79,0.08,-6.6,23.8,-15.9,36.37,,,,,,,,,,
15.47.12.430,337.3,84.3,0,,,24432.0,40.93,-0.57,0.34,-0.55,26.4,14.7,-8.1,36.36,,,,,,,,,,
15.47.12.439,386.0,96.5,0,,,24432.0,40.93,-0.8,0.89,0.63,-24.7,1.6,-10.3,36.33,,,,,,,,,,
15.47.12.448,410.9,102.7,0,,,24432.0,40.93,-0.54,0.96,0.48,18.6,-5.5,-1.7,36.1,,,,,,,,,,
15.47.12.456,423.4,105.8,0,,,24432.0,40.93,-0.43,1.09,-0.51,22.5,-12.8,7.7,36.27,,,,,,,,,,
15.47.12.466,501.1,125.3,0,,,24432.0,40.93,-0.28,1.37,0.03,8.0,-0.5,-8.2,35.96,,,,,,,,,,
15.47.12.475,465.3,116.3,0,,,24437.9,40.92,-0.42,0.5,0.79,-19.8,0.1,-15.5,36.25,,,,,,,,,,
15.47.12.485,482.6,120.6,0,,,24437.9,40.92,-0.14,0.64,0.66,-7.8,-13.8,1.8,36.11,,,,,,,,,,
15.47.12.495,524.2,131.0,0,,,24437.9,40.92,-0.23,1.09,0.63,-3.4,7.7,0.2,36.32,,,,,,,,,,
15.47.12.504,514.0,128.5,0,,,24437.9,40.92,-0.21,0.82,-0.21,15.2,30.6,3.4,36.11,,,,,,,,,,
15.47.12.513,445.2,111.3,0,,,24437.9,40.92,-0.2,0.75,-0.05,-23.4,-1.9,2.8,36.29,,,,,,,,,,
15.47.12.524,435.3,108.8,0,,,24437.9,40.92,-0.23,0.24,1.52,-6.8,7.6,6.1,36.29,,,,,,,,,,
15.47.12.534,354.0,88.5,0,,,24437.9,40.92,-0.25,0.79,0.32,-10.3,-6.9,12.1,36.02,,,,,,,,,,
15.47.12.542,331.3,82.8,0,,,24437.9,40.92,-0.22,0.73,0.21,13.5,5.6,-1.9,36.11,,,,,,,,,,
15.47.12.551,214.2,53.6,0,,,24437.9,40.92,-0.36,0.11,0.73,10.8,5.6,29.2,36.04,,,,,,,,,,
15.47.12.561,208.1,52.0,0,,,24443.9,40.91,-0.46,0.19,0.48,23.3,9.4,4.2,36.19,,,,,,,,,,
15.47.12.570,94.9,23.7,0,,,24443.9,40.91,-0.18,0.41,0.84,5.0,-7.7,-19.5,35.92,,,,,,,,,,
15.47.12.582,-56.9,14.2,0,,,24443.9,40.91,-0.43,0.12,1.25,-12.5,-4.9,-11.1,36.1,,,,,,,,,,
15.47.12.592,49.2,12.3,0,,,24443.9,40.91,-0.3,0.55,0.54,-25.7,0.7,-10.5,35.89,,,,,,,,,,
15.47.12.602,119.7,29.9,0,,,24443.9,40.91,-0.18,-0.18,1.2,20.2,12.8,25.8,36.13,,,,,,,,,,
15.47.12.612,63.6,15.9,0,,,24443.9,40.91,-0.64,0.51,1.03,9.4,17.2,-4.7,36.09,,,,,,,,,,
15.47.12.622,97.3,24.3,0,,,24443.9,40.91,-0.63,0.62,0.85,1.3,9.3,-5.0,36.32,,,,,,,,,,
15.47.12.631,126.4,31.6,0,,,24443.9,40.91,-0.68,0.35,-0.05,-30.8,1.7,5.2,35.99,,,,,,,,,,
15.47.12.641,93.3,23.3,0,,,24443.9,40.91,-0.33,0.21,0.52,-16.4,17.7,-4.2,36.08,,,,,,,,,,
15.47.12.652,95.3,23.8,0,,,24449.9,40.9,-0.83,0.25,0.36,6.7,16.0,-4.9,36.28,,,,,,,,,,
15.47.12.662,77.5,19.4,0,,,24449.9,40.9,-0.93,0.2,-0.11,33.2,19.3,-11.5,36.19,,,,,,,,,,
15.47.12.672,5.7,1.4,0,,,24449.9,40.9,-0.67,0.02,-0.55,-5.1,-16.1,13.7,36.19,,,,,,,,,,
15.47.12.682,37.5,9.4,0,,,24449.9,40.9,-0.67,-0.53,-0.26,-14.9,-14.8,3.9,36.13,,,,,,,,,,
15.47.12.690,26.7,6.7,0,,,24449.9,40.9,-0.79,0.21,-0.32,-0.2,0.6,0.0,36.15,,,,,,,,,,
15.47.12.699,27.1,6.8,0,,,24449.9,40.9,-0.64,0.44,-0.33,4.9,-5.5,-25.2,36.27,,,,,,,,,,
15.47.12.709,5.0,1.2,0,,,24449.9,40.9,-0.99,0.39,0.26,-1.1,3.3,-2.7,35.68,,,,,,,,,,
15.47.12.719,-69.1,17.3,0,,,24449.9,40.9,-0.58,0.68,-0.13,-10.1,0.7,-4.4,36.13,,,,,,,,,,
15.47.12.731,-8.2,2.0,0,,,24455.9,40.89,-0.43,0.83,0.16,-17.8,1.5,3.6,36.24,,,,,,,,,,
15.47.12.741,16.2,4.0,0,,,24455.9,40.89,-0.92,0.08,-0.45,25.9,-15.2,17.3,36.31,,,,,,,,,,
15.47.12.751,-3.2,0.8,0,,,24455.9,40.89,-0.91,0.75,-0.47,-8.1,4.3,2.9,35.98,,,,,,,,,,
15.47.12.760,-122.5,30.6,0,,,24455.9,40.89,-0.38,0.09,-0.09,-8.5,0.1,10.2,36.04,,,,,,,,,,
15.47.12.771,-88.5,22.1,0,,,24455.9,40.89,-0.26,0.54,0.64,8.4,4.3,5.4,36.28,,,,,,,,,,
15.47.12.779,-72.1,18.0,0,,,24455.9,40.89,-0.76,0.71,0.02,-1.4,-0.2,-3.7,36.29,,,,,,,,,,
15.47.12.787,-108.8,27.2,0,,,24455.9,40.89,-0.99,0.45,0.36,-13.2,27.3,5.2,36.05,,,,,,,,,,
15.47.12.796,-177.2,44.3,0,,,24455.9,40.89,-0.58,0.86,0.27,17.9,27.0,2.0,36.15,,,,,,,,,,
15.47.12.806,-55.5,13.9,0,,,24455.9,40.89,-0.71,0.54,1.23,17.4,-11.0,-27.2,36.05,,,,,,,,,,
15.47.12.815,-95.3,23.8,0,,,24461.8,40.88,-0.72,0.91,-0.11,7.7,16.2,25.9,36.14,,,,,,,,,,
15.47.12.824,-94.7,23.7,0,,,24461.8,40.88,-0.33,0.62,0.15,-1.8,4.1,-10.6,36.02,,,,,,,,,,
15.47.12.831,-147.7,36.9,0,,,24461.8,40.88,0.1,1.19,0.74,9.6,-10.4,1.1,36.18,,,,,,,,,,
15.47.12.840,-155.9,39.0,0,,,24461.8,40.88,-0.41,1.01,0.74,6.5,-15.9,-19.9,36.26,,,,,,,,,,
15.47.12.851,-118.1,29.5,0,,,24461.8,40.88,-0.64,1.13,0.88,4.8,22.7,-5.4,36.26,,,,,,,,,,
15.47.12.860,-74.5,18.6,0,,,24461.8,40.88,-0.56,0.45,0.99,30.9,24.5,-0.1,36.13,,,,,,,,,,
15.47.12.870,-185.8,46.4,0,,,24461.8,40.88,-0.18,0.72,0.94,31.9,3.6,3.6,36.09,,,,,,,,,,
15.47.12.881,-136.1,34.0,1,27.0,127.7,24461.8,40.88,-0.08,0.6,0.47,1.6,14.5,-0.2,36.18,,,,,,,,,,
15.47.12.891,,,0,,,,,,,,,,,,,,,,,,,,,
15.47.12.899,-127.0,31.8,0,,,24467.8,40.87,-0.44,0.55,1.08,18.3,4.7,-7.3,36.24,,,,,,,,,,
15.47.12.909,-169.0,42.2,0,,,24467.8,40.87,-0.33,-0.03,1.54,-5.1,25.2,-1.2,36.15,,,,,,,,,,
15.47.12.918,-213.5,53.4,0,,,24467.8,40.87,-0.42,0.33,0.76,-7.6,-4.5,4.7,36.08,,,,,,,,,,
15.47.12.929,-220.8,55.2,0,,,24467.8,40.87,-0.22,-0.07,0.58,5.9,7.9,10.1,36.23,,,,,,,,,,
15.47.12.936,-193.0,48.2,0,,,24467.8,40.87,-0.2,-0.27,1.31,7.9,24.5,3.7,35.78,,,,,,,,,,
15.47.12.947,47.0,11.8,0,,,24467.8,40.87,-0.28,-0.22,0.45,20.2,5.2,2.3,36.01,,,,,,,,,,
15.47.12.958,157.6,39.4,0,,,24467.8,40.87,-0.48,0.51,0.69,-19.4,-4.0,16.8,36.08,,,,,,,,,,
15.47.12.969,233.2,58.3,0,,,24467.8,40.87,-0.94,-0.25,0.75,4.5,16.2,-8.5,36.0,,,,,,,,,,
15.47.12.980,257.5,64.4,0,,,24473.8,40.86,-0.7,-0.28,0.41,10.5,-23.6,11.9,36.29,,,,,,,,,,
15.47.12.989,326.8,81.7,0,,,24473.8,40.86,-0.14,-0.38,0.0,29.3,7.5,-10.3,36.36,,,,,,,,,,
15.47.12.998,389.2,97.3,0,,,24473.8,40.86,-0.58,0.11,0.54,9.7,15.6,3.7,36.33,,,,,,,,,,
15.47.13.007,356.1,89.0,0,,,24473.8,40.86,-0.7,0.13,0.07,-1.2,19.9,4.4,36.16,,,,,,,,,,
15.47.13.018,441.4,110.4,0,,,24473.8,40.86,-0.84,0.61,-0.1,-27.7,17.8,1.2,35.94,,,,,,,,,,
15.47.13.028,494.2,123.6,0,,,24473.8,40.86,-0.71,0.26,0.0,24.1,19.2,3.9,36.08,,,,,,,,,,
15.47.13.037,503.1,125.8,0,,,24473.8,40.86,-1.02,0.58,0.39,-17.9,-6.3,-5.6,35.9,,,,,,,,,,
15.47.13.046,531.7,132.9,0,,,24473.8,40.86,-0.92,0.2,-0.94,-3.4,13.4,9.8,36.14,,,,,,,,,,
15.47.13.056,483.6,120.9,0,,,24479.8,40.85,-0.84,0.49,-0.4,6.6,8.1,0.7,36.13,,,,,,,,,,
15.47.13.063,437.9,109.5,0,,,24479.8,40.85,-1.02,0.5,0.46,40.6,7.2,13.8,36.17,,,,,,,,,,
15.47.13.073,407.8,102.0,0,,,24479.8,40.85,-0.43,0.35,-0.66,-3.3,1.8,-8.1,36.03,,,,,,,,,,
15.47.13.082,393.7,98.4,0,,,24479.8,40.85,-0.89,0.69,-0.0,14.4,6.5,1.7,36.21,,,,,,,,,,
15.47.13.090,355.4,88.8,0,,,24479.8,40.85,-0.84,0.84,-0.46,-16.8,6.1,9.8,36.33,,,,,,,,,,
