timestamp,ppg,threshold,beat,beat_count,inst_bpm,gsr_resistance_ohm,gsr_conductance_us,accel_x,accel_y,accel_z,gyro_x,gyro_y,gyro_z,temp_c,window_bpm,window_temp_c,status_message,SpO2,bmi,age,height,weight,env_temp_c,env_humidity_pct
13.38.38.000,0.0,0.0,0,,,101010.1,9.9,-0.35,0.54,0.43,-6.6,-11.0,6.0,36.01,71.0,,,100.0,22.1,23.0,175.26,68.0,29.23,32.0
13.38.38.011,40.5,10.1,0,,,101010.1,9.9,-0.58,0.61,0.58,3.6,11.0,-0.9,36.08,,,,,,,,,,
13.38.38.022,71.1,17.8,0,,,101010.1,9.9,-0.56,0.64,0.49,6.5,0.8,-7.6,35.82,,,,,,,,,,
13.38.38.029,96.9,24.2,0,,,101010.1,9.9,-0.46,0.7,0.4,1.2,12.7,-4.1,35.99,,,,,,,,,,
13.38.38.037,129.4,32.4,0,,,100908.2,9.91,-0.43,0.59,0.64,-8.2,-1.5,-3.5,36.18,,,,,,,,,,
13.38.38.047,146.0,36.5,0,,,100908.2,9.91,-0.39,0.65,0.6,5.5,2.6,-5.7,36.07,,,,,,,,,,
13.38.38.056,182.1,45.5,0,,,100908.2,9.91,-0.4,0.66,0.61,4.3,7.5,-4.9,36.12,,,,,,,,,,
13.38.38.066,208.4,52.1,0,,,100908.2,9.91,-0.55,0.62,0.63,-3.5,6.4,5.0,36.09,,,,,,,,,,
13.38.38.075,238.3,59.6,0,,,100908.2,9.91,-0.43,0.75,0.69,10.8,2.7,-1.9,35.96,,,,,,,,,,
13.38.38.086,246.1,61.5,0,,,100908.2,9.91,-0.39,0.74,0.56,-0.7,-7.6,5.2,35.67,,,,,,,,,,
13.38.38.097,291.6,72.9,0,,,100908.2,9.91,-0.47,0.67,0.47,-0.6,9.5,10.3,35.89,,,,,,,,,,
13.38.38.107,293.1,73.3,0,,,100908.2,9.91,-0.47,0.52,0.49,9.4,11.9,-11.0,36.45,,,,,,,,,,
13.38.38.118,317.1,79.3,0,,,100908.2,9.91,-0.37,0.75,0.47,12.4,7.6,-6.7,36.2,,,,,,,,,,
13.38.38.128,296.4,74.1,0,,,100908.2,9.91,-0.5,0.57,0.67,6.3,6.0,-16.7,36.0,,,,,,,,,,
13.38.38.137,330.8,82.7,0,,,100908.2,9.91,-0.51,0.7,0.53,2.6,-5.9,-3.1,36.05,,,,,,,,,,
13.38.38.147,335.8,84.0,0,,,100908.2,9.91,-0.39,0.55,0.67,25.0,25.4,-4.3,36.18,,,,,,,,,,
13.38.38.156,322.7,80.7,0,,,100908.2,9.91,-0.48,0.81,0.51,1.8,10.0,1.9,36.23,,,,,,,,,,
13.38.38.167,330.0,82.5,0,,,100908.2,9.91,-0.38,0.57,0.52,-0.0,8.2,1.2,36.01,,,,,,,,,,
13.38.38.177,285.2,71.3,0,,,100908.2,9.91,-0.53,0.65,0.44,7.1,3.2,-12.7,36.03,,,,,,,,,,
13.38.38.186,311.7,77.9,0,,,100908.2,9.91,-0.47,0.71,0.58,-13.7,13.6,-9.9,36.33,,,,,,,,,,
13.38.38.195,,,0,,,,,,,,,,,,,,,,,,,,,
13.38.38.206,267.9,67.0,0,,,100908.2,9.91,-0.33,0.65,0.53,-0.8,0.2,5.8,36.28,,,,,,,,,,
13.38.38.216,247.1,61.8,0,,,100908.2,9.91,-0.5,0.52,0.55,-3.9,3.9,-5.9,36.24,,,,,,,,,,
13.38.38.225,199.1,49.8,0,,,100908.2,9.91,-0.42,0.55,0.43,0.1,13.9,13.3,36.15,,,,,,,,,,
13.38.38.234,197.4,49.4,0,,,100908.2,9.91,-0.45,0.57,0.74,-2.8,5.4,-2.2,36.09,,,,,,,,,,
13.38.38.244,149.4,37.4,0,,,100908.2,9.91,-0.48,0.71,0.78,3.5,2.7,4.6,36.06,,,,,,,,,,
13.38.38.254,116.0,29.0,0,,,100908.2,9.91,-0.36,0.73,0.59,0.1,6.2,2.5,36.1,,,,,,,,,,
13.38.38.264,80.2,20.0,0,,,100908.2,9.91,-0.39,0.68,0.51,1.0,14.2,1.6,35.9,,,,,,,,,,
13.38.38.274,59.9,15.0,0,,,100908.2,9.91,-0.39,0.82,0.57,-2.9,-6.3,2.1,35.92,,,,,,,,,,
13.38.38.286,23.9,6.0,0,,,100908.2,9.91,-0.46,0.63,0.48,1.4,15.0,-0.9,36.26,,,,,,,,,,
13.38.38.295,1.9,0.5,0,,,100908.2,9.91,-0.46,0.69,0.57,-6.3,8.1,9.1,36.46,,,,,,,,,,
13.38.38.304,16.9,4.2,0,,,100908.2,9.91,-0.37,0.65,0.63,-2.1,7.3,0.8,36.38,,,,,,,,,,
13.38.38.313,23.9,6.0,0,,,100908.2,9.91,-0.34,0.59,0.54,5.0,-4.6,-6.7,36.4,,,,,,,,,,
13.38.38.323,35.4,8.8,0,,,100908.2,9.91,-0.47,0.62,0.62,2.3,10.0,-5.8,36.04,,,,,,,,,,
13.38.38.334,46.2,11.6,0,,,100908.2,9.91,-0.48,0.78,0.66,-3.8,-5.7,9.2,36.2,,,,,,,,,,
13.38.38.344,55.4,13.8,0,,,100908.2,9.91,-0.55,0.74,0.58,-7.7,1.8,-2.2,35.89,,,,,,,,,,
13.38.38.353,55.8,14.0,0,,,100908.2,9.91,-0.53,0.66,0.67,7.1,0.9,-1.4,36.12,,,,,,,,,,
13.38.38.362,53.8,13.4,0,,,100908.2,9.91,-0.4,0.52,0.59,-6.0,10.6,-5.0,36.05,,,,,,,,,,
13.38.38.372,65.6,16.4,0,,,100908.2,9.91,-0.59,0.63,0.59,-10.2,8.8,1.4,36.25,,,,,,,,,,
13.38.38.383,55.9,14.0,0,,,100908.2,9.91,-0.4,0.62,0.61,-23.2,10.9,-7.8,35.99,,,,,,,,,,
13.38.38.393,57.1,14.3,0,,,100908.2,9.91,-0.47,0.68,0.58,7.6,-1.4,7.5,36.07,,,,,,,,,,
13.38.38.402,34.3,8.6,0,,,100908.2,9.91,-0.52,0.49,0.57,-13.6,10.9,5.9,36.22,,,,,,,,,,
13.38.38.412,52.2,13.0,0,,,100908.2,9.91,-0.46,0.8,0.54,-4.6,6.2,-0.5,36.19,,,,,,,,,,
13.38.38.422,38.5,9.6,0,,,100908.2,9.91,-0.52,0.58,0.6,5.5,-1.0,-2.3,36.01,,,,,,,,,,
13.38.38.432,24.1,6.0,0,,,100908.2,9.91,-0.56,0.69,0.53,9.5,6.2,-1.7,36.06,,,,,,,,,,
13.38.38.443,25.0,6.2,0,,,100908.2,9.91,-0.47,0.57,0.56,-5.1,5.4,-4.8,36.11,,,,,,,,,,
13.38.38.453,6.1,1.5,0,,,100908.2,9.91,-0.39,0.66,0.51,13.0,7.5,-8.7,36.16,,,,,,,,,,
13.38.38.464,-5.0,1.2,0,,,100908.2,9.91,-0.48,0.66,0.5,-5.6,5.2,-9.2,36.07,,,,,,,,,,
13.38.38.474,-16.6,4.2,0,,,100908.2,9.91,-0.56,0.53,0.58,11.9,15.2,-4.2,36.08,,,,,,,,,,
13.38.38.484,-8.2,2.0,0,,,100908.2,9.91,-0.36,0.72,0.65,2.2,2.8,8.6,36.19,,,,,,,,,,
13.38.38.494,-12.3,3.1,0,,,100908.2,9.91,-0.53,0.73,0.44,2.3,6.1,-2.5,36.32,,,,,,,,,,
13.38.38.502,-11.7,2.9,0,,,100908.2,9.91,-0.41,0.62,0.61,-0.6,16.4,-5.2,36.1,,,,,,,,,,
13.38.38.511,-23.1,5.8,0,,,100908.2,9.91,-0.31,0.67,0.49,6.8,4.5,-0.1,36.06,,,,,,,,,,
13.38.38.520,-14.7,3.7,0,,,100908.2,9.91,-0.61,0.68,0.48,12.7,0.1,4.3,36.44,,,,,,,,,,
13.38.38.529,-28.4,7.1,0,,,100908.2,9.91,-0.61,0.58,0.65,-4.2,12.3,-2.5,35.97,,,,,,,,,,
13.38.38.538,-23.8,6.0,0,,,100908.2,9.91,-0.37,0.68,0.54,-4.7,5.3,-4.4,35.88,,,,,,,,,,
13.38.38.550,-33.2,8.3,0,,,100908.2,9.91,-0.32,0.66,0.47,2.8,12.8,6.1,35.86,,,,,,,,,,
13.38.38.559,-38.0,9.5,0,,,100908.2,9.91,-0.38,0.74,0.48,-0.7,21.7,-2.4,35.96,,,,,,,,,,
13.38.38.570,-30.8,7.7,0,,,100908.2,9.91,-0.43,0.71,0.57,3.9,19.2,3.6,36.2,,,,,,,,,,
13.38.38.578,-49.7,12.4,0,,,100908.2,9.91,-0.3,0.59,0.5,-8.6,8.9,3.6,36.25,,,,,,,,,,
13.38.38.587,-37.8,9.4,0,,,100908.2,9.91,-0.4,0.51,0.58,3.0,2.7,8.8,36.13,,,,,,,,,,
13.38.38.597,-45.4,11.4,0,,,100908.2,9.91,-0.51,0.62,0.68,-11.5,4.7,-6.3,35.95,,,,,,,,,,
13.38.38.607,-44.4,11.1,0,,,100806.5,9.92,-0.28,0.61,0.68,-12.2,-3.2,-2.2,35.98,,,,,,,,,,
13.38.38.618,-56.1,14.0,0,,,100806.5,9.92,-0.42,0.69,0.58,13.8,-4.4,0.7,36.07,,,,,,,,,,
13.38.38.629,-59.9,15.0,0,,,100806.5,9.92,-0.44,0.58,0.61,8.5,9.5,5.0,36.46,,,,,,,,,,
13.38.38.638,-69.3,17.3,0,,,100806.5,9.92,-0.58,0.68,0.5,18.5,6.3,3.8,35.94,,,,,,,,,,
13.38.38.647,-59.8,15.0,0,,,100806.5,9.92,-0.35,0.75,0.58,2.4,5.7,-14.9,36.01,,,,,,,,,,
13.38.38.658,-71.7,17.9,0,,,100806.5,9.92,-0.51,0.61,0.52,-8.2,21.8,-2.7,36.08,,,,,,,,,,
13.38.38.667,-68.2,17.0,0,,,100806.5,9.92,-0.53,0.66,0.48,-10.2,9.9,1.4,36.17,,,,,,,,,,
13.38.38.675,-78.9,19.7,0,,,100806.5,9.92,-0.56,0.61,0.56,2.3,9.4,-6.1,36.13,,,,,,,,,,
13.38.38.683,-79.5,19.9,0,,,100806.5,9.92,-0.44,0.7,0.46,-1.3,3.1,-9.9,35.89,,,,,,,,,,
13.38.38.692,-77.2,19.3,0,,,100806.5,9.92,-0.51,0.74,0.64,-1.3,-3.2,11.5,35.96,,,,,,,,,,
13.38.38.702,-83.8,21.0,0,,,100806.5,9.92,-0.52,0.58,0.63,-0.7,0.5,-4.7,35.91,,,,,,,,,,
13.38.38.712,-95.4,23.8,0,,,100806.5,9.92,-0.52,0.71,0.7,6.9,3.8,-0.7,36.08,,,,,,,,,,
13.38.38.723,-90.2,22.6,0,,,100806.5,9.92,-0.48,0.71,0.61,-6.4,17.6,-4.7,36.05,,,,,,,,,,
13.38.38.732,-98.1,24.5,0,,,100806.5,9.92,-0.56,0.46,0.48,3.1,6.9,-5.9,36.07,,,,,,,,,,
13.38.38.742,-101.2,25.3,0,,,100806.5,9.92,-0.41,0.73,0.63,0.7,12.3,-13.1,36.01,,,,,,,,,,
13.38.38.752,-87.0,21.8,0,,,100806.5,9.92,-0.51,0.67,0.7,-3.1,13.2,3.3,35.93,,,,,,,,,,
13.38.38.761,-105.2,26.3,0,,,100806.5,9.92,-0.52,0.6,0.48,-10.9,2.1,1.8,36.04,,,,,,,,,,
13.38.38.771,-105.9,26.5,0,,,100806.5,9.92,-0.58,0.65,0.57,-0.7,-8.6,-2.9,36.35,,,,,,,,,,
13.38.38.780,-99.3,24.8,0,,,100806.5,9.92,-0.31,0.64,0.59,9.9,5.7,4.5,36.07,,,,,,,,,,
13.38.38.789,-110.3,27.6,0,,,100806.5,9.92,-0.47,0.68,0.74,2.3,10.5,-2.3,36.12,,,,,,,,,,
13.38.38.798,-132.1,33.0,0,,,100806.5,9.92,-0.49,0.69,0.6,-6.8,9.6,-4.8,36.1,,,,,,,,,,
13.38.38.806,-115.3,28.8,0,,,100806.5,9.92,-0.52,0.6,0.51,-12.6,7.2,-4.3,35.98,,,,,,,,,,
13.38.38.816,-132.4,33.1,0,,,100806.5,9.92,-0.34,0.71,0.57,-3.6,-3.4,10.2,35.99,,,,,,,,,,
13.38.38.825,-125.2,31.3,0,,,100806.5,9.92,-0.42,0.79,0.63,-14.9,-8.1,5.6,35.96,,,,,,,,,,
13.38.38.835,24.1,6.0,1,1.0,,100806.5,9.92,-0.38,0.72,0.56,-1.7,1.8,-3.8,36.3,,,,,,,,,,
13.38.38.845,47.7,11.9,0,,,100806.5,9.92,-0.41,0.59,0.56,9.4,3.9,-10.3,36.05,,,,,,,,,,
13.38.38.855,91.6,22.9,0,,,100806.5,9.92,-0.39,0.55,0.65,1.8,4.8,-4.9,35.79,,,,,,,,,,
13.38.38.866,122.2,30.6,0,,,100806.5,9.92,-0.48,0.68,0.72,1.9,14.5,-0.7,36.13,,,,,,,,,,
13.38.38.876,148.7,37.2,0,,,100806.5,9.92,-0.4,0.72,0.51,-6.8,5.7,-4.4,36.09,,,,,,,,,,
13.38.38.885,174.2,43.6,0,,,100806.5,9.92,-0.37,0.51,0.5,-11.4,7.4,3.6,36.15,,,,,,,,,,
13.38.38.895,197.0,49.2,0,,,100806.5,9.92,-0.39,0.71,0.57,-22.1,16.6,-9.1,35.97,,,,,,,,,,
13.38.38.903,200.9,50.2,0,,,100806.5,9.92,-0.39,0.68,0.66,0.2,14.0,-3.1,36.23,,,,,,,,,,
13.38.38.911,233.3,58.3,0,,,100806.5,9.92,-0.45,0.68,0.59,-5.9,1.7,-2.8,36.12,,,,,,,,,,
13.38.38.919,243.3,60.8,0,,,100806.5,9.92,-0.47,0.64,0.5,3.9,0.9,-4.2,36.18,,,,,,,,,,
13.38.38.927,277.9,69.5,0,,,100806.5,9.92,-0.4,0.68,0.69,-4.2,7.8,-4.0,36.61,,,,,,,,,,
13.38.38.937,296.5,74.1,0,,,100806.5,9.92,-0.41,0.59,0.59,-7.8,1.6,0.8,35.92,,,,,,,,,,
13.38.38.946,296.1,74.0,0,,,100806.5,9.92,-0.44,0.7,0.59,-0.8,-0.9,-3.9,36.32,,,,,,,,,,
13.38.38.955,321.2,80.3,0,,,100806.5,9.92,-0.38,0.66,0.56,13.7,6.8,-15.1,36.29,,,,,,,,,,
13.38.38.966,326.7,81.7,0,,,100806.5,9.92,-0.43,0.66,0.56,6.1,4.3,-4.9,35.98,,,,,,,,,,
13.38.38.975,340.5,85.1,0,,,100806.5,9.92,-0.52,0.48,0.71,0.5,-6.8,-2.3,36.12,,,,,,,,,,
13.38.38.986,322.0,80.5,0,,,100806.5,9.92,-0.53,0.45,0.54,-13.1,8.1,-4.6,35.72,,,,,,,,,,
13.38.38.995,323.5,80.9,0,,,100806.5,9.92,-0.41,0.77,0.64,3.8,-0.5,-2.2,36.41,,,,,,,,,,
13.38.39.004,295.3,73.8,0,,,100806.5,9.92,-0.49,0.66,0.65,-8.4,7.5,-4.6,36.31,,,,,,,,,,
13.38.39.013,309.5,77.4,0,,,100806.5,9.92,-0.31,0.48,0.56,12.5,20.2,-0.2,35.97,,,,,,,,,,
13.38.39.022,281.5,70.4,0,,,100806.5,9.92,-0.44,0.63,0.65,2.8,7.6,6.9,36.01,,,,,,,,,,
13.38.39.033,252.1,63.0,0,,,100806.5,9.92,-0.51,0.66,0.63,-14.4,16.2,-2.3,36.24,,,,,,,,,,
13.38.39.041,262.5,65.6,0,,,100806.5,9.92,-0.55,0.69,0.6,0.9,9.5,5.1,35.99,,,,,,,,,,
13.38.39.051,222.3,55.6,0,,,100806.5,9.92,-0.34,0.56,0.59,1.7,3.6,3.4,35.91,,,,,,,,,,
13.38.39.061,192.4,48.1,0,,,100806.5,9.92,-0.58,0.71,0.51,-1.3,0.3,7.3,36.19,,,,,,,,,,
13.38.39.070,165.1,41.3,0,,,100806.5,9.92,-0.44,0.81,0.47,-16.4,0.1,-1.8,36.15,,,,,,,,,,
13.38.39.078,150.7,37.7,0,,,100806.5,9.92,-0.41,0.72,0.67,-8.7,1.1,0.7,36.18,,,,,,,,,,
13.38.39.088,101.3,25.3,0,,,100806.5,9.92,-0.59,0.82,0.53,8.9,6.3,-6.6,36.13,,,,,,,,,,
13.38.39.097,85.5,21.4,0,,,100806.5,9.92,-0.54,0.53,0.69,9.5,-2.4,3.5,36.02,,,,,,,,,,
13.38.39.107,52.4,13.1,0,,,100806.5,9.92,-0.52,0.56,0.49,1.3,8.6,-5.3,36.17,,,,,,,,,,
13.38.39.117,12.2,3.0,0,,,100806.5,9.92,-0.28,0.57,0.51,9.0,2.8,-2.2,35.82,,,,,,,,,,
13.38.39.129,0.8,0.2,0,,,100806.5,9.92,-0.45,0.61,0.65,6.2,1.3,-4.2,35.87,,,,,,,,,,
13.38.39.138,20.4,5.1,0,,,100806.5,9.92,-0.42,0.75,0.44,11.8,13.8,-10.9,36.06,,,,,,,,,,
13.38.39.146,29.3,7.3,0,,,100806.5,9.92,-0.32,0.71,0.45,6.1,3.3,5.3,36.13,,,,,,,,,,
13.38.39.156,43.0,10.8,0,,,100806.5,9.92,-0.48,0.6,0.6,-4.9,7.4,-3.2,36.3,,,,,,,,,,
13.38.39.166,53.9,13.5,0,,,100806.5,9.92,-0.63,0.86,0.55,14.9,5.7,-5.2,36.09,,,,,,,,,,
13.38.39.177,49.2,12.3,0,,,100806.5,9.92,-0.65,0.53,0.63,-3.4,9.8,-7.2,36.04,,,,,,,,,,
13.38.39.188,40.2,10.0,0,,,100806.5,9.92,-0.53,0.57,0.56,-4.1,14.8,-3.5,36.32,,,,,,,,,,
13.38.39.198,61.5,15.4,0,,,100806.5,9.92,-0.4,0.78,0.56,-1.2,13.9,4.2,36.19,,,,,,,,,,
13.38.39.209,61.9,15.5,0,,,100806.5,9.92,-0.32,0.63,0.39,0.3,2.1,-7.0,36.22,,,,,,,,,,
13.38.39.217,44.9,11.2,0,,,100806.5,9.92,-0.4,0.64,0.63,-9.6,6.7,0.9,36.27,,,,,,,,,,
13.38.39.226,52.6,13.2,0,,,100806.5,9.92,-0.5,0.58,0.55,9.0,6.1,1.0,35.94,,,,,,,,,,
13.38.39.235,50.5,12.6,0,,,100806.5,9.92,-0.52,0.86,0.52,-8.8,4.4,-10.0,36.2,,,,,,,,,,
13.38.39.244,48.0,12.0,0,,,100806.5,9.92,-0.3,0.7,0.59,6.9,8.7,-11.4,36.02,,,,,,,,,,
13.38.39.252,37.5,9.4,0,,,100806.5,9.92,-0.23,0.56,0.57,1.9,7.3,1.9,35.92,,,,,,,,,,
13.38.39.262,31.2,7.8,0,,,100806.5,9.92,-0.44,0.67,0.53,18.7,-0.8,11.8,36.08,,,,,,,,,,
13.38.39.271,18.0,4.5,0,,,100806.5,9.92,-0.4,0.59,0.56,-11.7,-0.7,-6.8,35.95,,,,,,,,,,
13.38.39.279,6.3,1.6,0,,,100806.5,9.92,-0.44,0.71,0.61,6.3,-5.6,-0.8,36.31,,,,,,,,,,
13.38.39.287,1.7,0.4,0,,,100806.5,9.92,-0.47,0.55,0.52,-2.9,17.1,-0.2,36.17,,,,,,,,,,
13.38.39.297,-12.0,3.0,0,,,100806.5,9.92,-0.45,0.61,0.56,1.5,5.2,12.3,35.97,,,,,,,,,,
13.38.39.308,-11.4,2.8,0,,,100806.5,9.92,-0.57,0.72,0.54,2.2,2.6,1.3,36.01,,,,,,,,,,
13.38.39.320,-9.9,2.5,0,,,100806.5,9.92,-0.52,0.53,0.74,-4.1,19.1,-7.7,36.14,,,,,,,,,,
13.38.39.333,-16.3,4.1,0,,,100806.5,9.92,-0.42,0.61,0.54,-8.2,3.4,-5.1,36.08,,,,,,,,,,
13.38.39.343,-16.3,4.1,0,,,100806.5,9.92,-0.34,0.69,0.52,14.2,13.9,-0.9,35.99,,,,,,,,,,
13.38.39.351,-32.0,8.0,0,,,100806.5,9.92,-0.45,0.7,0.45,-3.9,-5.2,-0.9,35.93,,,,,,,,,,
13.38.39.358,-22.6,5.6,0,,,100806.5,9.92,-0.23,0.66,0.56,1.7,11.0,8.2,36.29,,,,,,,,,,
13.38.39.368,-30.6,7.6,0,,,100806.5,9.92,-0.52,0.66,0.53,0.7,7.4,-4.1,36.44,,,,,,,,,,
13.38.39.377,-21.7,5.4,0,,,100806.5,9.92,-0.43,0.76,0.47,0.2,-0.9,-0.9,36.01,,,,,,,,,,
13.38.39.386,-24.0,6.0,0,,,100806.5,9.92,-0.37,0.6,0.48,21.7,6.2,-4.3,35.75,,,,,,,,,,
13.38.39.395,-34.0,8.5,0,,,100806.5,9.92,-0.49,0.67,0.54,-11.0,16.2,-4.9,36.51,,,,,,,,,,
13.38.39.405,-41.6,10.4,0,,,100806.5,9.92,-0.35,0.59,0.5,9.6,18.2,-9.5,36.24,,,,,,,,,,
13.38.39.416,-41.0,10.2,0,,,100806.5,9.92,-0.27,0.62,0.59,2.2,13.9,2.1,35.94,,,,,,,,,,
13.38.39.426,-49.8,12.4,0,,,100806.5,9.92,-0.55,0.68,0.63,-5.3,4.8,2.1,36.31,,,,,,,,,,
13.38.39.436,-33.3,8.3,0,,,100806.5,9.92,-0.47,0.38,0.6,-5.9,3.6,8.6,36.15,,,,,,,,,,
13.38.39.444,-53.7,13.4,0,,,100806.5,9.92,-0.56,0.82,0.67,1.9,-4.7,-4.0,36.21,,,,,,,,,,
13.38.39.452,-58.6,14.6,0,,,100806.5,9.92,-0.56,0.66,0.52,-3.6,3.9,-2.4,35.95,,,,,,,,,,
13.38.39.461,-52.9,13.2,0,,,100806.5,9.92,-0.35,0.48,0.56,-11.3,12.1,2.0,36.26,,,,,,,,,,
13.38.39.471,-44.7,11.2,0,,,100806.5,9.92,-0.39,0.6,0.62,7.8,20.9,-8.4,36.27,,,,,,,,,,
13.38.39.483,-64.7,16.2,0,,,100806.5,9.92,-0.51,0.34,0.59,-19.3,5.0,-6.1,35.76,,,,,,,,,,
13.38.39.493,-63.1,15.8,0,,,100806.5,9.92,-0.39,0.48,0.6,2.7,6.0,10.1,36.25,,,,,,,,,,
13.38.39.504,-81.6,20.4,0,,,100806.5,9.92,-0.58,0.66,0.57,18.8,-0.6,10.7,36.22,,,,,,,,,,
13.38.39.513,-72.7,18.2,0,,,100806.5,9.92,-0.44,0.68,0.39,3.7,22.3,-5.1,35.71,,,,,,,,,,
13.38.39.521,-78.1,19.5,0,,,100806.5,9.92,-0.48,0.59,0.6,-15.3,5.0,-12.6,36.16,,,,,,,,,,
13.38.39.530,-90.5,22.6,0,,,100806.5,9.92,-0.44,0.7,0.65,-2.1,-2.8,3.9,36.21,,,,,,,,,,
13.38.39.539,-82.9,20.7,0,,,100806.5,9.92,-0.48,0.64,0.58,-6.8,17.9,-2.9,36.01,,,,,,,,,,
13.38.39.551,-93.3,23.3,0,,,100806.5,9.92,-0.5,0.62,0.44,1.7,8.7,5.0,35.79,,,,,,,,,,
13.38.39.560,-96.2,24.0,0,,,100806.5,9.92,-0.37,0.76,0.52,6.2,-6.1,-2.7,36.31,,,,,,,,,,
13.38.39.571,-100.3,25.1,0,,,100806.5,9.92,-0.46,0.67,0.61,7.1,2.5,-2.1,36.19,,,,,,,,,,
13.38.39.580,-89.0,22.2,0,,,100806.5,9.92,-0.42,0.49,0.56,12.2,9.5,1.0,36.21,,,,,,,,,,
13.38.39.591,-107.4,26.8,0,,,100806.5,9.92,-0.51,0.72,0.66,-9.3,-3.7,3.4,36.16,,,,,,,,,,
13.38.39.601,-113.2,28.3,0,,,100806.5,9.92,-0.59,0.8,0.64,-7.5,2.6,-0.1,35.98,,,,,,,,,,
13.38.39.611,-119.8,30.0,0,,,100806.5,9.92,-0.48,0.66,0.58,-0.8,4.7,7.1,35.68,,,,,,,,,,
13.38.39.621,-125.7,31.4,0,,,100806.5,9.92,-0.56,0.71,0.53,4.9,1.4,1.2,36.12,,,,,,,,,,
13.38.39.630,-126.3,31.6,0,,,100806.5,9.92,-0.47,0.79,0.64,-15.4,4.3,5.7,36.01,,,,,,,,,,
13.38.39.640,-117.8,29.4,0,,,100806.5,9.92,-0.37,0.72,0.57,1.9,-0.1,-0.6,35.95,,,,,,,,,,
13.38.39.649,-123.4,30.8,1,2.0,73.7,100806.5,9.92,-0.51,0.8,0.65,7.3,8.9,-8.6,35.69,,,,,,,,,,
13.38.39.657,-134.7,33.7,0,,,100806.5,9.92,-0.34,0.58,0.55,16.0,-0.3,-9.3,36.31,,,,,,,,,,
13.38.39.665,19.9,5.0,0,,,100806.5,9.92,-0.43,0.63,0.41,1.7,4.5,-0.5,36.31,,,,,,,,,,
13.38.39.675,49.6,12.4,0,,,100806.5,9.92,-0.27,0.71,0.6,-15.8,10.3,-2.1,36.14,,,,,,,,,,
13.38.39.687,87.4,21.8,0,,,100806.5,9.92,-0.44,0.47,0.54,7.0,10.0,6.7,36.13,,,,,,,,,,
13.38.39.697,121.7,30.4,0,,,100806.5,9.92,-0.41,0.78,0.62,-2.3,17.1,-4.0,35.95,,,,,,,,,,
13.38.39.707,150.3,37.6,0,,,100806.5,9.92,-0.62,0.43,0.55,14.4,15.4,-5.5,35.9,,,,,,,,,,
13.38.39.717,192.3,48.1,0,,,100806.5,9.92,-0.51,0.67,0.58,-1.3,13.0,8.2,36.2,,,,,,,,,,
13.38.39.728,213.9,53.5,0,,,100806.5,9.92,-0.49,0.66,0.64,-16.2,5.8,-2.2,36.01,,,,,,,,,,
13.38.39.738,249.6,62.4,0,,,100806.5,9.92,-0.31,0.69,0.54,-11.7,-6.0,1.4,35.91,,,,,,,,,,
13.38.39.747,244.2,61.0,0,,,100806.5,9.92,-0.51,0.7,0.44,-5.1,6.9,-1.4,36.18,,,,,,,,,,
13.38.39.758,305.8,76.4,0,,,100806.5,9.92,-0.35,0.6,0.55,3.6,9.0,-4.8,36.13,,,,,,,,,,
13.38.39.768,319.2,79.8,0,,,100806.5,9.92,-0.34,0.56,0.55,8.2,6.6,-5.5,36.17,,,,,,,,,,
13.38.39.780,349.2,87.3,0,,,100806.5,9.92,-0.53,0.67,0.64,-2.3,-5.4,6.2,36.03,,,,,,,,,,
13.38.39.790,339.0,84.8,0,,,100806.5,9.92,-0.4,0.74,0.41,-3.3,6.8,2.0,36.31,,,,,,,,,,
13.38.39.798,312.5,78.1,0,,,100806.5,9.92,-0.45,0.57,0.61,3.6,-2.9,1.3,36.11,,,,,,,,,,
13.38.39.806,327.1,81.8,0,,,100806.5,9.92,-0.4,0.76,0.59,18.8,-1.0,-4.8,36.12,,,,,,,,,,
13.38.39.818,324.7,81.2,0,,,100806.5,9.92,-0.44,0.62,0.71,-0.6,3.4,7.8,36.38,,,,,,,,,,
13.38.39.830,273.3,68.3,0,,,100806.5,9.92,-0.48,0.49,0.55,8.8,-0.2,-0.8,36.15,,,,,,,,,,
13.38.39.839,295.8,74.0,0,,,100806.5,9.92,-0.54,0.58,0.58,10.7,10.6,-3.1,36.01,,,,,,,,,,
13.38.39.848,278.9,69.7,0,,,100806.5,9.92,-0.37,0.62,0.62,-1.2,6.7,2.5,35.96,,,,,,,,,,
13.38.39.859,285.8,71.4,0,,,100806.5,9.92,-0.56,0.59,0.46,-2.6,-7.3,4.8,36.0,,,,,,,,,,
13.38.39.867,265.2,66.3,0,,,100806.5,9.92,-0.38,0.69,0.56,8.2,9.3,0.4,35.91,,,,,,,,,,
13.38.39.876,248.2,62.0,0,,,100806.5,9.92,-0.49,0.65,0.58,15.1,3.7,-4.8,36.14,,,,,,,,,,
13.38.39.886,205.7,51.4,0,,,100806.5,9.92,-0.33,0.79,0.49,-5.7,-7.4,9.2,35.89,,,,,,,,,,
13.38.39.895,182.9,45.7,0,,,100806.5,9.92,-0.37,0.76,0.78,-6.3,6.6,-3.0,36.03,,,,,,,,,,
13.38.39.905,166.5,41.6,0,,,100806.5,9.92,-0.38,0.81,0.57,-14.9,20.3,-0.8,36.27,,,,,,,,,,
13.38.39.914,127.7,31.9,0,,,100806.5,9.92,-0.44,0.77,0.54,6.7,9.4,-10.0,36.11,,,,,,,,,,
13.38.39.924,86.1,21.5,0,,,100806.5,9.92,-0.4,0.58,0.54,9.5,10.8,1.0,36.06,,,,,,,,,,
13.38.39.935,48.7,12.2,0,,,100806.5,9.92,-0.44,0.78,0.56,0.3,0.0,9.5,36.16,,,,,,,,,,
13.38.39.945,29.1,7.3,0,,,100806.5,9.92,-0.45,0.6,0.53,13.9,1.6,0.2,35.9,,,,,,,,,,
13.38.39.955,0.1,0.0,0,,,100806.5,9.92,-0.36,0.64,0.44,-4.2,-3.1,-1.8,36.16,,,,,,,,,,
13.38.39.962,6.5,1.6,0,,,100806.5,9.92,-0.44,0.65,0.38,-4.1,16.9,-13.7,36.08,,,,,,,,,,
13.38.39.972,24.1,6.0,0,,,100806.5,9.92,-0.43,0.72,0.63,-18.1,10.9,2.0,36.17,,,,,,,,,,
13.38.39.981,21.5,5.4,0,,,100806.5,9.92,-0.32,0.5,0.53,3.6,10.0,-1.0,36.23,,,,,,,,,,
13.38.39.989,32.4,8.1,0,,,100806.5,9.92,-0.32,0.66,0.62,-9.9,0.2,-0.1,35.91,,,,,,,,,,
13.38.39.998,42.4,10.6,0,,,100806.5,9.92,-0.59,0.62,0.68,7.9,7.0,-2.5,35.83,,,,,,,,,,
13.38.40.007,48.7,12.2,0,,,100806.5,9.92,-0.65,0.77,0.65,0.6,13.1,-1.1,36.02,,,,,,,,,,
13.38.40.018,52.2,13.0,0,,,100806.5,9.92,-0.36,0.61,0.61,8.0,14.5,10.3,36.31,,,,,,,,,,
13.38.40.026,48.5,12.1,0,,,100806.5,9.92,-0.35,0.63,0.56,3.4,8.4,1.5,36.29,,,,,,,,,,
13.38.40.036,56.4,14.1,0,,,100806.5,9.92,-0.49,0.65,0.64,9.4,8.1,0.8,36.21,,,,,,,,,,
13.38.40.045,55.2,13.8,0,,,100806.5,9.92,-0.34,0.57,0.63,-0.0,18.0,3.3,35.99,,,,,,,,,,
13.38.40.054,49.1,12.3,0,,,100806.5,9.92,-0.5,0.54,0.62,2.0,-4.0,7.6,36.06,,,,,,,,,,
13.38.40.065,49.1,12.3,0,,,100806.5,9.92,-0.49,0.61,0.55,4.8,10.1,4.2,36.16,,,,,,,,,,
13.38.40.075,32.8,8.2,0,,,100806.5,9.92,-0.33,0.56,0.62,-8.3,7.7,-15.1,36.02,,,,,,,,,,
13.38.40.086,34.1,8.5,0,,,100806.5,9.92,-0.52,0.65,0.58,11.7,14.4,1.0,36.17,,,,,,,,,,
13.38.40.096,21.9,5.5,0,,,100806.5,9.92,-0.47,0.75,0.81,-5.8,11.8,-6.4,36.3,,,,,,,,,,
13.38.40.105,7.5,1.9,0,,,100806.5,9.92,-0.45,0.67,0.63,-2.7,3.7,-11.7,36.13,,,,,,,,,,
13.38.40.114,12.0,3.0,0,,,100806.5,9.92,-0.37,0.63,0.7,14.2,-1.9,-3.0,36.15,,,,,,,,,,
13.38.40.124,-10.7,2.7,0,,,100806.5,9.92,-0.52,0.6,0.69,-1.1,1.1,4.2,35.87,,,,,,,,,,
13.38.40.134,1.0,0.2,0,,,100806.5,9.92,-0.53,0.64,0.59,2.8,2.2,-3.0,35.87,,,,,,,,,,
13.38.40.142,-14.7,3.7,0,,,100806.5,9.92,-0.48,0.69,0.6,-3.3,3.0,-10.5,35.88,,,,,,,,,,
13.38.40.152,-11.3,2.8,0,,,100806.5,9.92,-0.48,0.6,0.67,-3.0,10.2,5.3,36.0,,,,,,,,,,
13.38.40.162,-23.6,5.9,0,,,100806.5,9.92,-0.42,0.71,0.66,-0.0,-1.9,3.0,36.09,,,,,,,,,,
13.38.40.175,-23.0,5.8,0,,,100806.5,9.92,-0.53,0.51,0.48,-2.7,0.4,1.9,36.0,,,,,,,,,,
13.38.40.187,-20.2,5.0,0,,,100806.5,9.92,-0.45,0.62,0.46,-4.4,-4.6,0.3,35.92,,,,,,,,,,
13.38.40.196,-26.4,6.6,0,,,100806.5,9.92,-0.49,0.77,0.53,-16.6,3.6,0.2,36.1,,,,,,,,,,
13.38.40.205,-31.0,7.8,0,,,100806.5,9.92,-0.46,0.59,0.72,9.9,-1.8,8.5,35.85,,,,,,,,,,
13.38.40.213,-30.2,7.6,0,,,100806.5,9.92,-0.38,0.51,0.4,16.4,8.2,11.4,36.22,,,,,,,,,,
13.38.40.222,-31.2,7.8,0,,,100806.5,9.92,-0.34,0.65,0.55,22.6,5.7,8.4,36.25,,,,,,,,,,
13.38.40.232,-39.4,9.8,0,,,100806.5,9.92,-0.44,0.67,0.48,-3.0,11.2,-5.9,35.83,,,,,,,,,,
13.38.40.243,-49.5,12.4,0,,,100806.5,9.92,-0.34,0.64,0.48,-18.2,9.1,3.1,35.89,,,,,,,,,,
13.38.40.252,-54.4,13.6,0,,,100806.5,9.92,-0.57,0.66,0.51,-14.3,3.7,3.4,35.99,,,,,,,,,,
13.38.40.261,-53.4,13.4,0,,,100806.5,9.92,-0.42,0.68,0.39,1.5,6.1,-1.3,35.95,,,,,,,,,,
13.38.40.268,-52.9,13.2,0,,,100806.5,9.92,-0.33,0.55,0.59,-7.7,0.0,-4.8,36.22,,,,,,,,,,
13.38.40.278,-46.9,11.7,0,,,100806.5,9.92,-0.46,0.77,0.68,0.4,2.3,6.8,36.02,,,,,,,,,,
13.38.40.286,-60.4,15.1,0,,,100806.5,9.92,-0.36,0.73,0.58,1.4,3.2,-3.0,35.87,,,,,,,,,,
13.38.40.295,-62.2,15.6,0,,,100806.5,9.92,-0.46,0.63,0.48,16.3,12.6,0.9,36.24,,,,,,,,,,
13.38.40.304,-61.2,15.3,0,,,100806.5,9.92,-0.42,0.63,0.71,-5.5,5.1,7.9,36.04,,,,,,,,,,
13.38.40.314,-63.3,15.8,0,,,100806.5,9.92,-0.46,0.64,0.59,-6.4,19.2,-3.2,36.12,,,,,,,,,,
13.38.40.322,-63.8,16.0,0,,,100806.5,9.92,-0.57,0.69,0.69,-0.3,-10.5,-1.4,36.23,,,,,,,,,,
13.38.40.330,-66.0,16.5,0,,,100806.5,9.92,-0.44,0.51,0.64,13.1,0.7,-5.0,36.05,,,,,,,,,,
13.38.40.342,-89.4,22.4,0,,,100806.5,9.92,-0.41,0.77,0.53,-3.5,6.1,2.5,36.06,,,,,,,,,,
13.38.40.350,-79.4,19.8,0,,,100806.5,9.92,-0.51,0.55,0.67,5.5,5.1,1.6,36.13,,,,,,,,,,
13.38.40.358,-77.9,19.5,0,,,100806.5,9.92,-0.47,0.47,0.57,-24.7,0.2,-10.7,36.04,,,,,,,,,,
13.38.40.370,-92.5,23.1,0,,,100806.5,9.92,-0.48,0.57,0.56,1.4,1.7,4.2,35.75,,,,,,,,,,
13.38.40.383,-91.9,23.0,0,,,100806.5,9.92,-0.39,0.54,0.57,5.4,4.2,-3.5,35.99,,,,,,,,,,
13.38.40.391,-87.1,21.8,0,,,100806.5,9.92,-0.38,0.76,0.62,2.5,-0.8,1.0,36.29,,,,,,,,,,
13.38.40.400,-76.4,19.1,0,,,100806.5,9.92,-0.47,0.72,0.53,-9.6,6.9,-10.7,36.18,,,,,,,,,,
13.38.40.410,-110.4,27.6,0,,,100806.5,9.92,-0.51,0.48,0.48,-11.1,25.4,-2.0,36.13,,,,,,,,,,
13.38.40.422,-107.5,26.9,0,,,100806.5,9.92,-0.36,0.52,0.57,5.4,-2.6,2.8,36.13,,,,,,,,,,
13.38.40.430,-101.6,25.4,0,,,100806.5,9.92,-0.46,0.79,0.54,20.9,9.0,0.3,36.01,,,,,,,,,,
13.38.40.439,-118.4,29.6,0,,,100806.5,9.92,-0.34,0.72,0.62,6.2,6.5,3.2,36.14,,,,,,,,,,
13.38.40.450,-112.5,28.1,0,,,100806.5,9.92,-0.52,0.67,0.66,19.0,8.5,-2.0,36.01,,,,,,,,,,
13.38.40.460,-109.6,27.4,1,3.0,74.0,100806.5,9.92,-0.42,0.68,0.54,13.9,3.6,-0.2,36.02,,,,,,,,,,
13.38.40.469,-127.2,31.8,0,,,100806.5,9.92,-0.52,0.73,0.51,2.7,9.7,-7.3,36.04,,,,,,,,,,
13.38.40.479,-109.5,27.4,0,,,100704.9,9.93,-0.51,0.52,0.51,-6.2,1.3,0.3,36.02,,,,,,,,,,
13.38.40.487,-138.4,34.6,0,,,100704.9,9.93,-0.38,0.51,0.56,16.0,12.6,-6.0,36.19,,,,,,,,,,
13.38.40.496,22.7,5.7,0,,,100704.9,9.93,-0.55,0.59,0.46,-0.5,2.3,0.7,35.93,,,,,,,,,,
13.38.40.505,47.0,11.8,0,,,100704.9,9.93,-0.41,0.48,0.58,12.0,9.1,-0.5,36.25,,,,,,,,,,
13.38.40.515,87.8,22.0,0,,,100704.9,9.93,-0.38,0.55,0.51,-6.1,7.8,1.7,36.19,,,,,,,,,,
13.38.40.524,103.7,25.9,0,,,100704.9,9.93,-0.44,0.69,0.56,-15.7,1.7,-3.9,36.18,,,,,,,,,,
13.38.40.534,142.5,35.6,0,,,100704.9,9.93,-0.46,0.64,0.6,0.5,2.6,4.6,36.46,,,,,,,,,,
13.38.40.545,177.7,44.4,0,,,100704.9,9.93,-0.39,0.77,0.61,8.9,9.6,2.1,35.75,,,,,,,,,,
13.38.40.555,201.5,50.4,0,,,100704.9,9.93,-0.6,0.63,0.58,-0.9,6.3,-2.7,35.75,,,,,,,,,,
13.38.40.565,228.3,57.1,0,,,100704.9,9.93,-0.33,0.55,0.56,9.9,7.8,-1.0,36.01,,,,,,,,,,
13.38.40.575,284.3,71.1,0,,,100704.9,9.93,-0.41,0.68,0.61,9.9,8.3,-9.5,36.22,,,,,,,,,,
13.38.40.585,300.6,75.2,0,,,100704.9,9.93,-0.43,0.63,0.58,-11.7,10.4,4.4,36.06,,,,,,,,,,
13.38.40.594,291.7,72.9,0,,,100704.9,9.93,-0.48,0.66,0.5,-19.9,0.9,-3.2,36.08,,,,,,,,,,
13.38.40.604,279.8,70.0,0,,,100704.9,9.93,-0.43,0.74,0.66,-3.4,9.6,-3.3,36.15,,,,,,,,,,
13.38.40.614,306.0,76.5,0,,,100704.9,9.93,-0.31,0.55,0.46,-4.1,4.2,-4.7,36.03,,,,,,,,,,
13.38.40.626,318.4,79.6,0,,,100704.9,9.93,-0.37,0.57,0.63,27.7,-2.0,-2.8,35.96,,,,,,,,,,
13.38.40.638,326.4,81.6,0,,,100704.9,9.93,-0.54,0.56,0.64,-4.8,18.6,-3.0,35.86,,,,,,,,,,
13.38.40.648,310.5,77.6,0,,,100704.9,9.93,-0.53,0.68,0.74,9.4,-3.5,-4.1,36.1,,,,,,,,,,
13.38.40.657,319.3,79.8,0,,,100704.9,9.93,-0.44,0.64,0.54,3.2,12.9,-7.3,36.1,,,,,,,,,,
13.38.40.665,326.3,81.6,0,,,100704.9,9.93,-0.53,0.71,0.64,13.5,1.4,-3.4,35.99,,,,,,,,,,
13.38.40.676,296.8,74.2,0,,,100704.9,9.93,-0.53,0.44,0.61,-9.8,7.3,1.7,36.22,,,,,,,,,,
13.38.40.686,278.1,69.5,0,,,100704.9,9.93,-0.43,0.65,0.61,-6.0,2.4,6.7,36.29,,,,,,,,,,
13.38.40.696,259.5,64.9,0,,,100704.9,9.93,-0.44,0.79,0.56,-8.7,7.0,2.5,36.24,,,,,,,,,,
13.38.40.704,266.2,66.6,0,,,100704.9,9.93,-0.43,0.67,0.64,-7.1,-4.7,1.0,36.08,,,,,,,,,,
13.38.40.715,190.7,47.7,0,,,100704.9,9.93,-0.42,0.63,0.42,-7.3,9.9,-3.6,35.96,,,,,,,,,,
13.38.40.725,185.0,46.2,0,,,100704.9,9.93,-0.51,0.62,0.65,-5.1,11.8,4.2,36.13,,,,,,,,,,
13.38.40.733,162.4,40.6,0,,,100704.9,9.93,-0.51,0.54,0.76,-1.6,-2.7,2.3,36.21,,,,,,,,,,
13.38.40.742,138.8,34.7,0,,,100704.9,9.93,-0.5,0.74,0.5,12.4,3.1,-2.6,35.93,,,,,,,,,,
13.38.40.752,101.8,25.4,0,,,100704.9,9.93,-0.3,0.59,0.6,-3.9,3.9,-1.8,36.05,,,,,,,,,,
13.38.40.762,74.4,18.6,0,,,100704.9,9.93,-0.52,0.56,0.62,-13.1,10.4,4.3,36.02,,,,,,,,,,
13.38.40.771,33.5,8.4,0,,,100704.9,9.93,-0.52,0.5,0.63,-26.7,0.4,-7.8,36.01,,,,,,,,,,
13.38.40.781,2.9,0.7,0,,,100704.9,9.93,-0.66,0.48,0.54,-8.0,11.6,-5.0,36.2,,,,,,,,,,
13.38.40.790,12.1,3.0,0,,,100704.9,9.93,-0.45,0.64,0.61,-2.3,-1.0,3.8,36.21,,,,,,,,,,
13.38.40.800,9.8,2.4,0,,,100704.9,9.93,-0.5,0.63,0.58,-11.5,1.7,-4.6,36.19,,,,,,,,,,
13.38.40.812,29.8,7.4,0,,,100704.9,9.93,-0.38,0.63,0.61,13.7,18.8,-7.2,36.09,,,,,,,,,,
13.38.40.819,29.7,7.4,0,,,100704.9,9.93,-0.47,0.66,0.6,1.8,11.2,-2.6,36.14,,,,,,,,,,
13.38.40.828,54.4,13.6,0,,,100704.9,9.93,-0.48,0.53,0.61,5.4,7.5,-1.0,36.27,,,,,,,,,,
13.38.40.838,49.7,12.4,0,,,100704.9,9.93,-0.45,0.69,0.41,-4.1,9.7,-3.3,36.14,,,,,,,,,,
13.38.40.848,53.2,13.3,0,,,100704.9,9.93,-0.54,0.52,0.73,0.4,12.6,1.1,36.16,,,,,,,,,,
13.38.40.857,52.7,13.2,0,,,100704.9,9.93,-0.53,0.66,0.57,23.3,-1.7,-6.6,36.23,,,,,,,,,,
13.38.40.865,67.3,16.8,0,,,100704.9,9.93,-0.4,0.73,0.49,6.6,-2.9,0.9,36.44,,,,,,,,,,
13.38.40.875,57.6,14.4,0,,,100704.9,9.93,-0.51,0.71,0.55,5.7,-3.1,0.3,36.25,,,,,,,,,,
13.38.40.887,56.3,14.1,0,,,100704.9,9.93,-0.51,0.43,0.62,-11.0,4.0,1.1,36.11,,,,,,,,,,
13.38.40.895,51.4,12.8,0,,,100704.9,9.93,-0.41,0.7,0.53,5.3,14.2,1.9,36.13,,,,,,,,,,
13.38.40.906,49.2,12.3,0,,,100704.9,9.93,-0.34,0.35,0.62,2.7,-1.9,-2.2,36.14,,,,,,,,,,
13.38.40.915,39.2,9.8,0,,,100704.9,9.93,-0.46,0.61,0.71,-9.9,11.5,-10.2,36.38,,,,,,,,,,
13.38.40.925,26.9,6.7,0,,,100704.9,9.93,-0.38,0.7,0.61,-2.9,9.2,-1.5,36.18,,,,,,,,,,
13.38.40.933,12.1,3.0,0,,,100704.9,9.93,-0.58,0.66,0.52,-0.3,-1.9,-3.0,35.93,,,,,,,,,,
13.38.40.942,10.2,2.6,0,,,100704.9,9.93,-0.43,0.66,0.42,-3.6,15.5,14.8,36.29,,,,,,,,,,
13.38.40.953,-3.3,0.8,0,,,100704.9,9.93,-0.27,0.71,0.62,-0.0,11.9,-4.7,35.72,,,,,,,,,,
13.38.40.963,-4.0,1.0,0,,,100704.9,9.93,-0.45,0.7,0.59,7.7,16.7,-11.3,36.04,,,,,,,,,,
13.38.40.975,-7.4,1.8,0,,,100704.9,9.93,-0.43,0.83,0.66,6.5,3.3,-4.9,36.01,,,,,,,,,,
13.38.40.986,-9.8,2.4,0,,,100704.9,9.93,-0.56,0.65,0.54,1.1,18.3,-15.3,35.91,,,,,,,,,,
13.38.40.996,-11.6,2.9,0,,,100704.9,9.93,-0.52,0.6,0.58,4.5,-10.1,-3.4,36.06,,,,,,,,,,
13.38.41.008,-24.1,6.0,0,,,100704.9,9.93,-0.45,0.69,0.54,-1.4,-3.3,2.1,36.07,,,,,,,,,,
13.38.41.018,-18.9,4.7,0,,,100704.9,9.93,-0.56,0.57,0.46,-0.8,9.8,3.8,35.96,,,,,,,,,,
13.38.41.029,-27.6,6.9,0,,,100704.9,9.93,-0.44,0.52,0.56,-12.3,13.1,0.7,36.08,,,,,,,,,,
13.38.41.038,-24.7,6.2,0,,,100704.9,9.93,-0.39,0.65,0.55,-7.0,2.2,5.0,36.18,,,,,,,,,,
13.38.41.048,-28.2,7.0,0,,,100704.9,9.93,-0.54,0.59,0.63,-2.8,-2.9,-0.8,36.36,,,,,,,,,,
13.38.41.057,-26.6,6.6,0,,,100704.9,9.93,-0.49,0.56,0.49,11.8,2.0,-6.2,36.19,,,,,,,,,,
13.38.41.068,-32.8,8.2,0,,,100704.9,9.93,-0.49,0.85,0.56,-1.9,5.6,-1.6,36.03,,,,,,,,,,
13.38.41.076,-38.2,9.6,0,,,100704.9,9.93,-0.53,0.86,0.6,-0.5,7.5,6.4,35.71,,,,,,,,,,
13.38.41.087,-46.0,11.5,0,,,100704.9,9.93,-0.46,0.5,0.57,8.2,17.4,-5.3,36.03,,,,,,,,,,
13.38.41.096,-52.0,13.0,0,,,100704.9,9.93,-0.47,0.49,0.5,-2.4,16.0,-9.6,36.14,,,,,,,,,,
13.38.41.107,-61.5,15.4,0,,,100704.9,9.93,-0.23,0.68,0.54,-2.1,8.4,-7.0,36.27,,,,,,,,,,
13.38.41.118,-52.5,13.1,0,,,100704.9,9.93,-0.58,0.6,0.42,4.2,10.6,7.1,36.03,,,,,,,,,,
13.38.41.130,-68.0,17.0,0,,,100704.9,9.93,-0.53,0.63,0.59,-3.1,-1.7,-1.4,35.97,,,,,,,,,,
13.38.41.141,-69.6,17.4,0,,,100704.9,9.93,-0.59,0.67,0.59,-10.5,16.2,5.8,36.1,,,,,,,,,,
13.38.41.149,-70.3,17.6,0,,,100704.9,9.93,-0.45,0.59,0.61,-13.4,5.4,-5.7,36.07,,,,,,,,,,
13.38.41.159,-73.8,18.4,0,,,100704.9,9.93,-0.46,0.52,0.6,-10.4,13.3,-11.4,36.21,,,,,,,,,,
13.38.41.167,-73.8,18.4,0,,,100704.9,9.93,-0.43,0.63,0.58,-0.1,-4.5,6.7,36.12,,,,,,,,,,
13.38.41.176,-85.8,21.4,0,,,100704.9,9.93,-0.47,0.8,0.54,13.7,4.7,-0.4,35.93,,,,,,,,,,
13.38.41.188,-90.3,22.6,0,,,100704.9,9.93,-0.35,0.73,0.52,-17.2,12.7,1.2,35.9,,,,,,,,,,
13.38.41.198,-83.0,20.8,0,,,100704.9,9.93,-0.43,0.69,0.52,-3.8,13.5,3.4,36.01,,,,,,,,,,
13.38.41.207,-96.5,24.1,0,,,100704.9,9.93,-0.33,0.7,0.69,7.2,3.7,-9.2,36.37,,,,,,,,,,
13.38.41.215,-97.4,24.4,0,,,100704.9,9.93,-0.35,0.71,0.73,-2.3,10.5,-2.8,36.36,,,,,,,,,,
13.38.41.225,-81.1,20.3,0,,,100704.9,9.93,-0.5,0.69,0.69,2.5,6.3,-3.0,35.95,,,,,,,,,,
13.38.41.233,-94.0,23.5,0,,,100704.9,9.93,-0.57,0.72,0.86,-2.6,3.4,-3.1,36.18,,,,,,,,,,
13.38.41.242,-80.9,20.2,0,,,100704.9,9.93,-0.39,0.64,0.59,-3.9,-6.3,-1.3,36.12,,,,,,,,,,
13.38.41.252,-110.5,27.6,0,,,100704.9,9.93,-0.47,0.42,0.53,-13.3,12.1,0.9,36.23,,,,,,,,,,
13.38.41.263,-104.6,26.2,0,,,100704.9,9.93,-0.42,0.61,0.45,1.3,4.6,-0.5,36.02,,,,,,,,,,
13.38.41.273,-111.3,27.8,1,4.0,73.8,100704.9,9.93,-0.47,0.8,0.51,-6.8,1.0,-5.9,36.19,,,,,,,,,,
13.38.41.280,-117.6,29.4,0,,,100704.9,9.93,-0.4,0.64,0.53,0.7,15.5,1.4,36.1,,,,,,,,,,
13.38.41.290,-109.9,27.5,0,,,100704.9,9.93,-0.57,0.71,0.55,-5.8,12.3,-5.8,36.22,,,,,,,,,,
13.38.41.300,-117.0,29.2,0,,,100704.9,9.93,-0.37,0.6,0.56,11.1,28.6,-0.8,36.13,,,,,,,,,,
13.38.41.310,-140.4,35.1,0,,,100704.9,9.93,-0.44,0.77,0.35,9.9,17.1,-4.3,36.1,,,,,,,,,,
13.38.41.322,-0.2,0.0,0,,,100704.9,9.93,-0.46,0.74,0.52,7.9,8.8,2.6,36.03,,,,,,,,,,
13.38.41.329,15.4,3.8,0,,,100704.9,9.93,-0.35,0.61,0.54,-17.9,12.0,-2.4,36.07,,,,,,,,,,
13.38.41.338,60.5,15.1,0,,,100704.9,9.93,-0.55,0.77,0.57,0.3,10.2,-7.2,35.91,,,,,,,,,,
13.38.41.348,88.9,22.2,0,,,100704.9,9.93,-0.64,0.86,0.48,13.5,5.0,-5.6,36.0,,,,,,,,,,
13.38.41.356,111.0,27.8,0,,,100704.9,9.93,-0.5,0.65,0.48,3.3,-0.0,-6.4,36.24,,,,,,,,,,
13.38.41.368,140.9,35.2,0,,,100704.9,9.93,-0.44,0.78,0.53,-0.3,-3.3,-4.1,36.35,,,,,,,,,,
13.38.41.378,184.5,46.1,0,,,100704.9,9.93,-0.41,0.63,0.52,6.5,-1.7,3.8,36.05,,,,,,,,,,
13.38.41.389,214.1,53.5,0,,,100704.9,9.93,-0.35,0.58,0.54,8.5,7.8,-5.6,36.27,,,,,,,,,,
13.38.41.398,240.7,60.2,0,,,100704.9,9.93,-0.35,0.76,0.64,9.2,1.0,3.0,36.1,,,,,,,,,,
13.38.41.409,254.2,63.6,0,,,100704.9,9.93,-0.42,0.56,0.69,6.0,8.8,-3.2,36.06,,,,,,,,,,
13.38.41.420,288.0,72.0,0,,,100704.9,9.93,-0.4,0.59,0.39,-10.8,4.5,-1.8,36.13,,,,,,,,,,
13.38.41.430,294.9,73.7,0,,,100704.9,9.93,-0.55,0.77,0.57,-0.5,11.1,-7.7,36.23,,,,,,,,,,
13.38.41.440,303.4,75.8,0,,,100704.9,9.93,-0.4,0.54,0.55,-2.6,-3.2,-3.1,35.94,,,,,,,,,,
13.38.41.450,323.0,80.8,0,,,100704.9,9.93,-0.4,0.44,0.59,6.3,5.7,-15.8,36.13,,,,,,,,,,
13.38.41.459,329.6,82.4,0,,,100704.9,9.93,-0.4,0.66,0.49,-4.2,-9.7,-3.2,36.37,,,,,,,,,,
13.38.41.469,321.8,80.4,0,,,100704.9,9.93,-0.58,0.51,0.51,13.7,11.4,-4.3,36.16,,,,,,,,,,
13.38.41.479,322.9,80.7,0,,,100704.9,9.93,-0.46,0.72,0.63,-20.6,14.4,9.8,36.05,,,,,,,,,,
13.38.41.489,308.9,77.2,0,,,100704.9,9.93,-0.39,0.84,0.67,3.5,0.1,2.8,36.04,,,,,,,,,,
13.38.41.500,285.8,71.4,0,,,100704.9,9.93,-0.62,0.77,0.59,7.7,11.3,-2.1,36.41,,,,,,,,,,
13.38.41.508,262.1,65.5,0,,,100704.9,9.93,-0.47,0.57,0.5,14.7,10.8,-7.3,35.94,,,,,,,,,,
13.38.41.518,261.8,65.4,0,,,100704.9,9.93,-0.5,0.76,0.73,-17.2,6.0,-4.6,36.08,,,,,,,,,,
13.38.41.530,228.6,57.2,0,,,100704.9,9.93,-0.43,0.53,0.55,-5.3,-8.6,-7.6,35.98,,,,,,,,,,
13.38.41.539,237.3,59.3,0,,,100704.9,9.93,-0.45,0.69,0.62,-11.0,-2.1,-11.1,36.12,,,,,,,,,,
13.38.41.548,181.0,45.2,0,,,100704.9,9.93,-0.5,0.56,0.44,-12.9,-0.9,-0.4,36.09,,,,,,,,,,
13.38.41.558,192.0,48.0,0,,,100704.9,9.93,-0.51,0.52,0.62,5.8,10.1,-13.1,36.29,,,,,,,,,,
13.38.41.569,146.9,36.7,0,,,100704.9,9.93,-0.43,0.46,0.54,-3.6,8.8,-4.5,36.18,,,,,,,,,,
13.38.41.579,110.7,27.7,0,,,100704.9,9.93,-0.54,0.77,0.5,-5.7,7.3,1.9,36.26,,,,,,,,,,
13.38.41.590,61.4,15.4,0,,,100704.9,9.93,-0.47,0.71,0.55,-13.1,12.4,-1.7,36.09,,,,,,,,,,
13.38.41.601,43.1,10.8,0,,,100704.9,9.93,-0.51,0.84,0.65,-5.7,12.5,-8.1,35.78,,,,,,,,,,
13.38.41.612,11.3,2.8,0,,,100704.9,9.93,-0.45,0.57,0.77,4.1,14.0,-6.7,36.07,,,,,,,,,,
13.38.41.622,8.5,2.1,0,,,100704.9,9.93,-0.55,0.6,0.74,2.9,2.3,-1.5,36.33,,,,,,,,,,
13.38.41.635,30.7,7.7,0,,,100704.9,9.93,-0.47,0.61,0.69,8.5,5.9,-7.2,35.98,,,,,,,,,,
13.38.41.644,30.5,7.6,0,,,100704.9,9.93,-0.47,0.76,0.63,12.9,21.1,-8.7,36.02,,,,,,,,,,
13.38.41.651,40.7,10.2,0,,,100704.9,9.93,-0.37,0.57,0.42,-14.3,5.9,-8.6,36.01,,,,,,,,,,
13.38.41.663,42.4,10.6,0,,,100704.9,9.93,-0.4,0.68,0.67,2.7,5.4,-7.3,36.19,,,,,,,,,,
13.38.41.672,51.5,12.9,0,,,100704.9,9.93,-0.3,0.66,0.55,7.3,7.0,-8.6,36.41,,,,,,,,,,
13.38.41.682,62.5,15.6,0,,,100704.9,9.93,-0.44,0.65,0.62,3.1,5.1,7.0,36.3,,,,,,,,,,
13.38.41.693,54.2,13.6,0,,,100704.9,9.93,-0.41,0.7,0.49,-3.0,9.8,-0.8,36.22,,,,,,,,,,
13.38.41.701,47.8,12.0,0,,,100704.9,9.93,-0.53,0.67,0.6,-26.4,18.9,-0.2,36.24,,,,,,,,,,
13.38.41.709,56.7,14.2,0,,,100704.9,9.93,-0.32,0.69,0.6,2.9,6.3,-7.2,36.21,,,,,,,,,,
13.38.41.717,55.3,13.8,0,,,100704.9,9.93,-0.32,0.65,0.43,-4.5,0.3,-8.2,35.92,,,,,,,,,,
13.38.41.726,47.2,11.8,0,,,100704.9,9.93,-0.45,0.79,0.52,7.0,10.3,-5.1,36.0,,,,,,,,,,
13.38.41.736,36.1,9.0,0,,,100704.9,9.93,-0.38,0.56,0.53,-3.1,1.1,-0.5,36.22,,,,,,,,,,
13.38.41.746,26.8,6.7,0,,,100704.9,9.93,-0.47,0.45,0.47,-0.0,12.3,-6.6,36.2,,,,,,,,,,
13.38.41.756,31.0,7.8,0,,,100704.9,9.93,-0.51,0.41,0.58,-4.3,5.7,-2.5,36.12,,,,,,,,,,
13.38.41.764,13.6,3.4,0,,,100704.9,9.93,-0.45,0.52,0.52,1.9,10.4,-3.6,36.27,,,,,,,,,,
13.38.41.771,13.1,3.3,0,,,100704.9,9.93,-0.38,0.63,0.6,-8.8,11.9,-2.0,36.06,,,,,,,,,,
13.38.41.781,-9.0,2.2,0,,,100704.9,9.93,-0.42,0.63,0.44,-8.9,-5.4,5.6,35.98,,,,,,,,,,
13.38.41.790,-6.7,1.7,0,,,100704.9,9.93,-0.44,0.69,0.66,2.9,2.9,-12.0,36.34,,,,,,,,,,
13.38.41.800,-1.3,0.3,0,,,100704.9,9.93,-0.31,0.46,0.41,-8.7,-0.2,-5.8,36.08,,,,,,,,,,
13.38.41.811,-7.4,1.8,0,,,100704.9,9.93,-0.42,0.51,0.73,-4.9,1.7,2.2,36.19,,,,,,,,,,
13.38.41.821,-22.7,5.7,0,,,100704.9,9.93,-0.29,0.7,0.56,-3.4,18.2,-8.5,35.83,,,,,,,,,,
13.38.41.832,-20.8,5.2,0,,,100704.9,9.93,-0.38,0.57,0.56,6.0,3.3,0.1,36.12,,,,,,,,,,
13.38.41.842,-17.9,4.5,0,,,100704.9,9.93,-0.4,0.52,0.65,-5.8,9.0,-5.9,36.08,,,,,,,,,,
13.38.41.852,-26.2,6.6,0,,,100704.9,9.93,-0.39,0.81,0.56,1.1,-5.1,-6.0,36.05,,,,,,,,,,
13.38.41.861,-34.7,8.7,0,,,100704.9,9.93,-0.49,0.49,0.58,18.3,4.6,2.6,36.2,,,,,,,,,,
13.38.41.870,-24.1,6.0,0,,,100704.9,9.93,-0.49,0.71,0.53,-12.0,5.0,-4.5,35.93,,,,,,,,,,
13.38.41.880,-15.5,3.9,0,,,100704.9,9.93,-0.45,0.44,0.63,-3.3,9.9,8.6,36.04,,,,,,,,,,
13.38.41.891,-41.4,10.4,0,,,100704.9,9.93,-0.28,0.48,0.74,3.7,10.1,5.9,36.01,,,,,,,,,,
13.38.41.900,-42.2,10.6,0,,,100704.9,9.93,-0.43,0.53,0.55,-11.9,3.5,-3.4,36.31,,,,,,,,,,
13.38.41.910,-42.5,10.6,0,,,100704.9,9.93,-0.49,0.68,0.58,-26.9,3.7,-0.4,36.04,,,,,,,,,,
13.38.41.919,-42.4,10.6,0,,,100704.9,9.93,-0.38,0.56,0.48,-6.3,1.7,1.5,35.94,,,,,,,,,,
13.38.41.929,-47.0,11.8,0,,,100704.9,9.93,-0.43,0.59,0.45,4.5,6.3,4.7,36.16,,,,,,,,,,
13.38.41.940,-58.5,14.6,0,,,100704.9,9.93,-0.45,0.73,0.58,-11.6,9.3,-1.9,36.14,,,,,,,,,,
13.38.41.947,-63.9,16.0,0,,,100704.9,9.93,-0.51,0.77,0.72,-7.0,10.3,1.0,36.26,,,,,,,,,,
13.38.41.955,-50.4,12.6,0,,,100704.9,9.93,-0.55,0.62,0.54,0.8,-8.2,-13.5,36.12,,,,,,,,,,
13.38.41.963,-64.9,16.2,0,,,100704.9,9.93,-0.39,0.67,0.56,16.0,9.9,9.0,36.38,,,,,,,,,,
13.38.41.970,-65.3,16.3,0,,,100704.9,9.93,-0.49,0.75,0.44,3.2,8.1,-0.5,36.01,,,,,,,,,,
13.38.41.979,-70.3,17.6,0,,,100704.9,9.93,-0.57,0.71,0.56,-3.1,-4.2,3.9,35.71,,,,,,,,,,
13.38.41.990,-68.6,17.2,0,,,100704.9,9.93,-0.36,0.67,0.74,4.2,19.6,8.0,36.13,,,,,,,,,,
13.38.41.999,-73.3,18.3,0,,,100704.9,9.93,-0.5,0.65,0.57,8.1,-10.4,-13.2,36.09,,,,,,,,,,
13.38.42.009,-85.8,21.4,0,,,100704.9,9.93,-0.44,0.72,0.62,5.9,3.8,0.9,35.98,,,,,,,,,,
13.38.42.020,-76.4,19.1,0,,,100704.9,9.93,-0.49,0.52,0.69,-7.6,0.6,-6.3,36.07,,,,,,,,,,
13.38.42.031,-74.7,18.7,0,,,100704.9,9.93,-0.31,0.57,0.56,-5.4,0.5,-3.4,36.2,,,,,,,,,,
13.38.42.041,-88.9,22.2,0,,,100704.9,9.93,-0.48,0.68,0.75,-3.1,8.8,-9.3,35.98,,,,,,,,,,
13.38.42.052,-94.1,23.5,0,,,100704.9,9.93,-0.35,0.7,0.67,-0.2,10.3,-6.6,36.1,,,,,,,,,,
13.38.42.062,-89.6,22.4,0,,,100704.9,9.93,-0.33,0.72,0.6,-8.6,9.4,-1.3,36.3,,,,,,,,,,
13.38.42.071,-105.7,26.4,0,,,100704.9,9.93,-0.43,0.59,0.44,8.5,10.3,-0.3,35.82,,,,,,,,,,
13.38.42.080,-104.2,26.0,0,,,100704.9,9.93,-0.51,0.62,0.63,5.9,12.8,-0.9,35.93,,,,,,,,,,
13.38.42.088,-95.5,23.9,0,,,100704.9,9.93,-0.6,0.62,0.56,16.2,12.1,-8.7,35.96,,,,,,,,,,
13.38.42.097,-111.6,27.9,1,5.0,72.8,100704.9,9.93,-0.43,0.67,0.56,-11.8,4.5,-9.7,36.07,,,,,,,,,,
13.38.42.106,-126.2,31.6,0,,,100704.9,9.93,-0.32,0.7,0.41,5.6,11.8,-0.2,36.1,,,,,,,,,,
13.38.42.117,-101.5,25.4,0,,,100704.9,9.93,-0.51,0.62,0.56,8.1,11.2,6.8,36.13,,,,,,,,,,
13.38.42.129,-120.9,30.2,0,,,100704.9,9.93,-0.36,0.65,0.5,11.3,10.8,-0.7,36.13,,,,,,,,,,
13.38.42.137,-122.7,30.7,0,,,100704.9,9.93,-0.48,0.51,0.49,-1.1,2.4,5.2,36.02,,,,,,,,,,
13.38.42.147,-131.7,32.9,0,,,100704.9,9.93,-0.38,0.68,0.45,-12.2,3.9,0.7,35.93,,,,,,,,,,
13.38.42.155,9.7,2.4,0,,,100704.9,9.93,-0.35,0.47,0.66,-4.0,-3.1,-4.7,36.14,,,,,,,,,,
13.38.42.165,48.8,12.2,0,,,100704.9,9.93,-0.45,0.56,0.48,17.5,-3.2,2.6,35.78,,,,,,,,,,
13.38.42.175,91.5,22.9,0,,,100704.9,9.93,-0.39,0.56,0.52,7.6,2.1,7.4,36.06,,,,,,,,,,
13.38.42.182,113.7,28.4,0,,,100704.9,9.93,-0.45,0.61,0.59,-8.9,4.6,-0.7,36.04,,,,,,,,,,
13.38.42.193,134.1,33.5,0,,,100704.9,9.93,-0.5,0.5,0.63,0.3,6.7,-0.2,36.2,,,,,,,,,,
13.38.42.202,159.2,39.8,0,,,100704.9,9.93,-0.6,0.66,0.52,-6.5,1.3,-6.0,35.86,,,,,,,,,,
13.38.42.211,188.8,47.2,0,,,100704.9,9.93,-0.58,0.56,0.63,-5.6,2.6,0.1,36.37,,,,,,,,,,
13.38.42.219,215.9,54.0,0,,,100704.9,9.93,-0.54,0.8,0.57,5.3,14.4,-1.2,36.05,,,,,,,,,,
13.38.42.228,222.3,55.6,0,,,100704.9,9.93,-0.31,0.63,0.5,-3.4,16.5,-2.7,36.17,,,,,,,,,,
13.38.42.238,246.3,61.6,0,,,100704.9,9.93,-0.43,0.67,0.48,-11.1,15.8,0.2,35.91,,,,,,,,,,
13.38.42.247,277.9,69.5,0,,,100704.9,9.93,-0.44,0.65,0.54,0.7,4.8,-3.3,35.89,,,,,,,,,,
13.38.42.257,306.0,76.5,0,,,100704.9,9.93,-0.45,0.67,0.49,10.1,15.2,-3.3,36.12,,,,,,,,,,
13.38.42.267,305.4,76.4,0,,,100704.9,9.93,-0.53,0.78,0.57,11.2,11.3,-5.8,35.84,,,,,,,,,,
13.38.42.278,320.6,80.2,0,,,100704.9,9.93,-0.45,0.64,0.43,-7.1,11.8,-8.1,35.97,,,,,,,,,,
13.38.42.287,332.1,83.0,0,,,100704.9,9.93,-0.54,0.66,0.62,-8.6,10.3,-8.4,36.19,,,,,,,,,,
13.38.42.295,329.7,82.4,0,,,100704.9,9.93,-0.41,0.48,0.62,-7.6,2.2,1.6,36.12,,,,,,,,,,
13.38.42.306,291.8,73.0,0,,,100704.9,9.93,-0.57,0.71,0.54,-3.0,6.2,4.6,35.94,,,,,,,,,,
13.38.42.315,344.7,86.2,0,,,100704.9,9.93,-0.47,0.67,0.44,12.0,4.7,2.7,36.11,,,,,,,,,,
13.38.42.326,286.4,71.6,0,,,100704.9,9.93,-0.39,0.66,0.65,-1.9,4.2,-0.9,36.23,,,,,,,,,,
13.38.42.336,280.3,70.1,0,,,100704.9,9.93,-0.4,0.58,0.56,11.1,-2.1,0.6,36.09,,,,,,,,,,
13.38.42.346,276.2,69.0,0,,,100704.9,9.93,-0.44,0.66,0.61,-8.8,3.2,-2.1,36.0,,,,,,,,,,
13.38.42.356,243.2,60.8,0,,,100704.9,9.93,-0.45,0.66,0.53,-4.6,-0.2,1.4,36.11,,,,,,,,,,
13.38.42.368,234.7,58.7,0,,,100704.9,9.93,-0.34,0.43,0.5,7.2,4.9,7.0,36.1,,,,,,,,,,
13.38.42.380,190.7,47.7,0,,,100704.9,9.93,-0.44,0.63,0.57,-3.3,7.4,-2.5,36.28,,,,,,,,,,
13.38.42.390,151.6,37.9,0,,,100704.9,9.93,-0.51,0.71,0.52,0.2,1.6,1.5,36.18,,,,,,,,,,
13.38.42.400,132.0,33.0,0,,,100704.9,9.93,-0.42,0.79,0.48,0.6,1.0,-9.6,36.19,,,,,,,,,,
13.38.42.411,113.9,28.5,0,,,100704.9,9.93,-0.46,0.65,0.61,-11.7,10.2,4.9,36.11,,,,,,,,,,
13.38.42.420,78.0,19.5,0,,,100704.9,9.93,-0.47,0.68,0.67,2.9,6.4,-9.4,36.11,,,,,,,,,,
13.38.42.430,37.9,9.5,0,,,100704.9,9.93,-0.43,0.6,0.59,1.1,-2.5,-13.2,36.2,,,,,,,,,,
13.38.42.440,1.9,0.5,0,,,100704.9,9.93,-0.52,0.7,0.57,2.8,12.0,-4.6,35.9,,,,,,,,,,
13.38.42.450,22.1,5.5,0,,,100704.9,9.93,-0.55,0.71,0.53,-10.4,4.6,-3.0,36.09,,,,,,,,,,
13.38.42.459,26.3,6.6,0,,,100704.9,9.93,-0.5,0.66,0.52,-24.3,-1.4,-0.5,36.35,,,,,,,,,,
13.38.42.467,24.7,6.2,0,,,100704.9,9.93,-0.61,0.79,0.63,1.3,11.1,-1.4,35.89,,,,,,,,,,
13.38.42.474,32.2,8.0,0,,,100704.9,9.93,-0.33,0.6,0.59,-3.7,6.7,-6.5,36.16,,,,,,,,,,
13.38.42.482,41.0,10.2,0,,,100704.9,9.93,-0.31,0.68,0.57,-4.1,-0.7,1.1,36.12,,,,,,,,,,
13.38.42.491,52.2,13.0,0,,,100704.9,9.93,-0.44,0.64,0.53,-9.4,4.4,-0.7,36.09,,,,,,,,,,
13.38.42.500,55.2,13.8,0,,,100704.9,9.93,-0.53,0.68,0.71,-2.8,-0.9,1.2,36.05,,,,,,,,,,
13.38.42.512,56.7,14.2,0,,,100704.9,9.93,-0.39,0.75,0.55,-10.7,8.1,-9.8,35.93,,,,,,,,,,
13.38.42.523,52.5,13.1,0,,,100704.9,9.93,-0.41,0.59,0.8,6.2,9.0,-3.2,36.06,,,,,,,,,,
13.38.42.532,63.7,15.9,0,,,100704.9,9.93,-0.31,0.55,0.59,-5.5,12.5,-1.5,36.17,,,,,,,,,,
13.38.42.542,51.6,12.9,0,,,100704.9,9.93,-0.55,1.05,0.46,-9.2,6.4,0.5,36.26,,,,,,,,,,
13.38.42.551,53.5,13.4,0,,,100704.9,9.93,-0.54,0.62,0.58,7.7,8.6,-7.4,36.3,,,,,,,,,,
13.38.42.560,38.5,9.6,0,,,100704.9,9.93,-0.56,0.5,0.56,11.9,13.7,-1.8,36.14,,,,,,,,,,
13.38.42.570,44.0,11.0,0,,,100704.9,9.93,-0.48,0.48,0.53,-7.8,15.4,-2.5,36.08,,,,,,,,,,
13.38.42.580,35.3,8.8,0,,,100704.9,9.93,-0.54,0.63,0.6,-9.2,4.6,10.3,36.0,,,,,,,,,,
13.38.42.589,14.7,3.7,0,,,100704.9,9.93,-0.42,0.66,0.54,16.6,1.1,-13.0,35.97,,,,,,,,,,
13.38.42.600,9.9,2.5,0,,,100704.9,9.93,-0.28,0.58,0.56,-7.0,10.5,-9.5,36.3,,,,,,,,,,
13.38.42.608,10.1,2.5,0,,,100704.9,9.93,-0.34,0.76,0.45,-2.1,8.2,2.6,36.29,,,,,,,,,,
13.38.42.618,-4.4,1.1,0,,,100704.9,9.93,-0.57,0.53,0.51,-1.6,15.7,0.3,35.99,,,,,,,,,,
13.38.42.631,-14.4,3.6,0,,,100704.9,9.93,-0.41,0.76,0.59,-18.0,14.2,-6.8,36.22,,,,,,,,,,
13.38.42.641,-4.1,1.0,0,,,100704.9,9.93,-0.43,0.74,0.67,-6.4,17.5,11.1,36.02,,,,,,,,,,
13.38.42.652,-6.6,1.6,0,,,100704.9,9.93,-0.38,0.83,0.59,8.7,1.1,-4.7,36.29,,,,,,,,,,
13.38.42.662,-30.4,7.6,0,,,100704.9,9.93,-0.45,0.67,0.56,-5.6,11.1,-4.3,36.08,,,,,,,,,,
13.38.42.672,-24.5,6.1,0,,,100704.9,9.93,-0.48,0.49,0.53,0.4,-1.2,-4.9,36.05,,,,,,,,,,
13.38.42.682,-14.7,3.7,0,,,100704.9,9.93,-0.48,0.64,0.41,2.3,1.7,4.6,36.08,,,,,,,,,,
13.38.42.691,-32.4,8.1,0,,,100704.9,9.93,-0.62,0.62,0.69,3.8,11.4,1.7,35.98,,,,,,,,,,
13.38.42.700,-31.6,7.9,0,,,100704.9,9.93,-0.48,0.63,0.51,-2.5,5.7,-4.1,36.16,,,,,,,,,,
13.38.42.710,-36.9,9.2,0,,,100704.9,9.93,-0.46,0.71,0.53,10.9,3.4,2.7,36.02,,,,,,,,,,
13.38.42.719,-41.1,10.3,0,,,100704.9,9.93,-0.39,0.67,0.54,-3.8,-1.9,-0.4,36.39,,,,,,,,,,
13.38.42.730,-37.4,9.4,0,,,100704.9,9.93,-0.43,0.61,0.54,-2.2,4.2,-9.2,36.18,,,,,,,,,,
13.38.42.741,-41.9,10.5,0,,,100704.9,9.93,-0.49,0.67,0.59,9.8,11.7,3.6,36.05,,,,,,,,,,
13.38.42.751,-42.0,10.5,0,,,100603.6,9.94,-0.37,0.62,0.5,-2.9,-3.4,17.8,36.39,,,,,,,,,,
13.38.42.760,-50.9,12.7,0,,,100603.6,9.94,-0.43,0.48,0.67,3.2,4.4,1.6,36.18,,,,,,,,,,
13.38.42.770,-56.1,14.0,0,,,100603.6,9.94,-0.55,0.57,0.53,3.3,16.7,3.7,36.0,,,,,,,,,,
13.38.42.779,-54.6,13.6,0,,,100603.6,9.94,-0.5,0.69,0.58,-4.1,6.3,-2.7,35.84,,,,,,,,,,
13.38.42.790,-65.4,16.4,0,,,100603.6,9.94,-0.51,0.48,0.43,-10.7,10.3,2.4,36.14,,,,,,,,,,
13.38.42.797,-62.5,15.6,0,,,100603.6,9.94,-0.44,0.64,0.6,10.8,2.2,3.1,36.1,,,,,,,,,,
13.38.42.806,-63.9,16.0,0,,,100603.6,9.94,-0.53,0.6,0.58,-4.6,3.9,-0.2,36.0,,,,,,,,,,
13.38.42.813,-81.1,20.3,0,,,100603.6,9.94,-0.38,0.64,0.52,-2.9,0.5,-7.4,36.23,,,,,,,,,,
13.38.42.821,-75.0,18.8,0,,,100603.6,9.94,-0.42,0.69,0.64,-6.8,10.4,3.6,36.2,,,,,,,,,,
13.38.42.832,-69.0,17.2,0,,,100603.6,9.94,-0.48,0.77,0.61,-3.0,-0.0,-1.9,36.14,,,,,,,,,,
13.38.42.843,-79.0,19.8,0,,,100603.6,9.94,-0.45,0.6,0.47,1.5,8.3,3.5,35.98,,,,,,,,,,
13.38.42.852,-92.0,23.0,0,,,100603.6,9.94,-0.49,0.65,0.54,3.6,11.8,13.2,36.24,,,,,,,,,,
13.38.42.860,-85.2,21.3,0,,,100603.6,9.94,-0.44,0.59,0.52,-3.1,1.5,-4.1,36.16,,,,,,,,,,
13.38.42.866,-83.9,21.0,0,,,100603.6,9.94,-0.47,0.69,0.53,-6.5,-2.9,-0.5,36.39,,,,,,,,,,
13.38.42.875,-95.3,23.8,0,,,100603.6,9.94,-0.36,0.78,0.49,-1.9,8.0,-0.6,35.89,,,,,,,,,,
13.38.42.888,-92.4,23.1,0,,,100603.6,9.94,-0.57,0.67,0.5,-9.2,11.7,8.0,36.11,,,,,,,,,,
13.38.42.898,-96.2,24.0,0,,,100603.6,9.94,-0.49,0.66,0.57,2.4,10.5,-2.7,36.21,,,,,,,,,,
13.38.42.907,-111.8,28.0,0,,,100603.6,9.94,-0.43,0.55,0.55,-9.9,5.2,-0.4,36.29,,,,,,,,,,
13.38.42.917,-89.1,22.3,1,6.0,73.2,100603.6,9.94,-0.62,0.64,0.52,11.0,8.4,5.3,36.09,,,,,,,,,,
13.38.42.925,-112.5,28.1,0,,,100603.6,9.94,-0.38,0.57,0.51,-10.5,13.0,-5.7,36.06,,,,,,,,,,
13.38.42.934,-110.2,27.6,0,,,100603.6,9.94,-0.42,0.46,0.53,5.0,-0.7,-0.2,36.09,,,,,,,,,,
13.38.42.944,-99.4,24.8,0,,,100603.6,9.94,-0.39,0.68,0.51,-2.6,14.1,-4.4,36.17,,,,,,,,,,
13.38.42.954,-120.1,30.0,0,,,100603.6,9.94,-0.66,0.64,0.45,-1.5,12.5,1.5,36.19,,,,,,,,,,
13.38.42.965,-113.6,28.4,0,,,100603.6,9.94,-0.37,0.64,0.69,5.0,0.5,-6.9,36.1,,,,,,,,,,
13.38.42.975,-125.5,31.4,0,,,100603.6,9.94,-0.33,0.67,0.62,7.8,17.9,-6.1,36.29,,,,,,,,,,
13.38.42.986,9.3,2.3,0,,,100603.6,9.94,-0.4,0.43,0.49,18.3,8.5,0.9,36.5,,,,,,,,,,
13.38.42.995,43.8,11.0,0,,,100603.6,9.94,-0.36,0.58,0.49,16.8,-5.8,0.0,35.88,,,,,,,,,,
13.38.43.006,84.1,21.0,0,,,100603.6,9.94,-0.44,0.67,0.65,1.0,1.2,-1.5,36.1,68.7,,,,,,,,,
13.38.43.018,111.9,28.0,0,,,100603.6,9.94,-0.42,0.61,0.58,-3.6,7.1,1.0,36.27,,,,,,,,,,
13.38.43.027,153.9,38.5,0,,,100603.6,9.94,-0.43,0.68,0.73,2.9,-11.3,0.2,36.02,,,,,,,,,,
13.38.43.036,195.9,49.0,0,,,100603.6,9.94,-0.21,0.56,0.53,16.3,12.5,-6.4,36.25,,,,,,,,,,
13.38.43.047,211.7,52.9,0,,,100603.6,9.94,-0.45,0.66,0.54,-1.9,6.8,-3.7,36.08,,,,,,,,,,
13.38.43.056,247.0,61.8,0,,,100603.6,9.94,-0.48,0.85,0.61,2.4,2.0,-1.7,35.92,,,,,,,,,,
13.38.43.067,244.9,61.2,0,,,100603.6,9.94,-0.49,0.52,0.46,-10.1,12.5,10.6,36.11,,,,,,,,,,
13.38.43.076,281.3,70.3,0,,,100603.6,9.94,-0.33,0.74,0.44,3.6,6.0,-0.4,36.11,,,,,,,,,,
13.38.43.087,284.3,71.1,0,,,100603.6,9.94,-0.48,0.68,0.55,-4.4,5.4,4.4,36.11,,,,,,,,,,
13.38.43.097,289.8,72.4,0,,,100603.6,9.94,-0.39,0.57,0.66,-1.7,7.2,-5.7,35.93,,,,,,,,,,
13.38.43.107,331.1,82.8,0,,,100603.6,9.94,-0.49,0.79,0.56,0.5,4.3,-1.4,36.23,,,,,,,,,,
13.38.43.119,333.7,83.4,0,,,100603.6,9.94,-0.34,0.52,0.52,-12.1,-6.9,-2.4,35.92,,,,,,,,,,
13.38.43.128,326.2,81.6,0,,,100603.6,9.94,-0.38,0.65,0.51,5.4,4.5,-6.3,36.22,,,,,,,,,,
13.38.43.137,323.3,80.8,0,,,100603.6,9.94,-0.4,0.57,0.72,-8.1,4.0,8.0,35.99,,,,,,,,,,
13.38.43.146,294.8,73.7,0,,,100603.6,9.94,-0.3,0.4,0.56,21.7,7.8,-1.6,36.04,,,,,,,,,,
13.38.43.156,323.6,80.9,0,,,100603.6,9.94,-0.55,0.54,0.48,-2.5,15.0,1.0,36.04,,,,,,,,,,
13.38.43.164,293.8,73.4,0,,,100603.6,9.94,-0.29,0.67,0.52,-19.5,-2.3,-8.8,36.11,,,,,,,,,,
13.38.43.174,288.2,72.0,0,,,100603.6,9.94,-0.33,0.67,0.55,0.5,3.3,-4.6,36.04,,,,,,,,,,
13.38.43.183,279.9,70.0,0,,,100603.6,9.94,-0.36,0.71,0.59,2.2,4.4,-3.2,35.98,,,,,,,,,,
13.38.43.194,231.1,57.8,0,,,100603.6,9.94,-0.44,0.49,0.46,8.1,9.4,2.4,36.03,,,,,,,,,,
13.38.43.201,228.1,57.0,0,,,100603.6,9.94,-0.35,0.82,0.56,-3.0,0.8,2.6,36.13,,,,,,,,,,
13.38.43.210,187.1,46.8,0,,,100603.6,9.94,-0.42,0.58,0.68,2.9,7.0,5.6,36.22,,,,,,,,,,
13.38.43.218,179.6,44.9,0,,,100603.6,9.94,-0.41,0.71,0.44,3.3,2.8,0.8,36.06,,,,,,,,,,
13.38.43.227,162.6,40.6,0,,,100603.6,9.94,-0.24,0.83,0.45,6.7,7.6,-2.8,36.07,,,,,,,,,,
13.38.43.237,122.3,30.6,0,,,100603.6,9.94,-0.49,0.54,0.68,15.4,-11.1,-5.7,36.03,,,,,,,,,,
13.38.43.246,80.1,20.0,0,,,100603.6,9.94,-0.51,0.66,0.56,-13.4,20.7,-1.6,36.03,,,,,,,,,,
13.38.43.255,59.0,14.8,0,,,100603.6,9.94,-0.44,0.67,0.59,-3.7,-3.1,8.0,36.01,,,,,,,,,,
13.38.43.265,27.8,7.0,0,,,100603.6,9.94,-0.53,0.58,0.7,10.8,9.1,-5.5,36.0,,,,,,,,,,
13.38.43.275,-1.9,0.5,0,,,100603.6,9.94,-0.51,0.62,0.62,-11.6,7.3,-5.1,35.97,,,,,,,,,,
13.38.43.283,7.2,1.8,0,,,100603.6,9.94,-0.44,0.65,0.55,2.3,17.1,-1.6,36.04,,,,,,,,,,
13.38.43.294,27.8,7.0,0,,,100603.6,9.94,-0.43,0.58,0.55,-9.2,19.3,0.8,35.99,,,,,,,,,,
13.38.43.305,45.9,11.5,0,,,100603.6,9.94,-0.3,0.66,0.5,-26.8,0.4,2.9,36.22,,,,,,,,,,
13.38.43.315,31.9,8.0,0,,,100603.6,9.94,-0.51,0.5,0.49,18.3,6.4,2.5,36.06,,,,,,,,,,
13.38.43.325,44.0,11.0,0,,,100603.6,9.94,-0.41,0.7,0.69,3.5,3.7,7.0,35.89,,,,,,,,,,
13.38.43.335,45.7,11.4,0,,,100603.6,9.94,-0.58,0.62,0.6,-0.2,4.7,-5.3,36.37,,,,,,,,,,
13.38.43.347,57.4,14.4,0,,,100603.6,9.94,-0.39,0.77,0.52,0.4,-3.6,-8.1,36.24,,,,,,,,,,
13.38.43.357,56.1,14.0,0,,,100603.6,9.94,-0.41,0.59,0.49,9.2,11.4,-0.2,36.13,,,,,,,,,,
13.38.43.366,55.4,13.8,0,,,100603.6,9.94,-0.53,0.74,0.48,17.3,6.0,0.4,36.16,,,,,,,,,,
13.38.43.375,52.0,13.0,0,,,100603.6,9.94,-0.42,0.62,0.71,4.0,0.9,-5.4,35.99,,,,,,,,,,
13.38.43.383,46.6,11.6,0,,,100603.6,9.94,-0.5,0.64,0.58,-15.9,10.6,-0.2,36.18,,,,,,,,,,
13.38.43.391,50.3,12.6,0,,,100603.6,9.94,-0.69,0.74,0.61,-13.0,10.7,-9.3,35.88,,,,,,,,,,
13.38.43.400,36.3,9.1,0,,,100603.6,9.94,-0.59,0.45,0.52,5.6,3.3,11.8,36.19,,,,,,,,,,
13.38.43.410,31.3,7.8,0,,,100603.6,9.94,-0.6,0.57,0.68,14.3,-0.8,-4.9,36.09,,,,,,,,,,
13.38.43.420,20.4,5.1,0,,,100603.6,9.94,-0.42,0.74,0.62,9.8,-2.3,2.6,36.12,,,,,,,,,,
13.38.43.430,11.1,2.8,0,,,100603.6,9.94,-0.49,0.68,0.65,-11.8,7.2,-0.2,35.98,,,,,,,,,,
13.38.43.439,-1.0,0.2,0,,,100603.6,9.94,-0.44,0.58,0.54,-3.9,13.6,-4.5,36.05,,,,,,,,,,
13.38.43.450,-15.8,4.0,0,,,100603.6,9.94,-0.43,0.64,0.66,-8.6,19.8,-0.2,36.05,,,,,,,,,,
13.38.43.461,-4.3,1.1,0,,,100603.6,9.94,-0.46,0.48,0.66,8.3,3.4,-3.8,35.94,,,,,,,,,,
13.38.43.471,-18.8,4.7,0,,,100603.6,9.94,-0.47,0.81,0.53,-11.0,6.5,-9.0,35.99,,,,,,,,,,
13.38.43.480,-21.8,5.4,0,,,100603.6,9.94,-0.38,0.53,0.5,-2.8,2.3,-0.9,36.06,,,,,,,,,,
13.38.43.490,-15.7,3.9,0,,,100603.6,9.94,-0.55,0.51,0.63,-4.0,3.5,6.8,36.14,,,,,,,,,,
13.38.43.500,-23.3,5.8,0,,,100603.6,9.94,-0.44,0.56,0.56,-6.6,10.3,9.4,35.98,,,,,,,,,,
13.38.43.508,-23.5,5.9,0,,,100603.6,9.94,-0.41,0.6,0.57,-7.8,18.4,-8.0,36.25,,,,,,,,,,
13.38.43.518,-22.8,5.7,0,,,100603.6,9.94,-0.41,0.61,0.56,7.4,3.8,2.2,36.0,,,,,,,,,,
13.38.43.528,-25.4,6.4,0,,,100603.6,9.94,-0.54,0.63,0.66,-0.6,8.4,3.5,36.14,,,,,,,,,,
13.38.43.537,-32.8,8.2,0,,,100603.6,9.94,-0.53,0.76,0.58,6.8,2.0,6.7,35.96,,,,,,,,,,
13.38.43.547,-31.3,7.8,0,,,100603.6,9.94,-0.56,0.71,0.46,-7.6,12.4,2.5,36.0,,,,,,,,,,
13.38.43.555,-40.1,10.0,0,,,100603.6,9.94,-0.53,0.56,0.63,0.1,8.8,0.8,35.95,,,,,,,,,,
13.38.43.566,-40.1,10.0,0,,,100603.6,9.94,-0.41,0.56,0.63,2.5,11.7,-2.7,35.97,,,,,,,,,,
13.38.43.577,-53.4,13.4,0,,,100603.6,9.94,-0.41,0.42,0.49,14.0,-9.4,2.6,36.36,,,,,,,,,,
13.38.43.586,-53.3,13.3,0,,,100603.6,9.94,-0.48,0.71,0.55,9.8,10.3,6.5,36.14,,,,,,,,,,
13.38.43.596,-48.7,12.2,0,,,100603.6,9.94,-0.48,0.57,0.57,10.1,3.6,2.1,36.13,,,,,,,,,,
13.38.43.603,-58.9,14.7,0,,,100603.6,9.94,-0.55,0.66,0.71,3.5,-1.1,-2.5,36.0,,,,,,,,,,
13.38.43.611,-62.6,15.6,0,,,100603.6,9.94,-0.36,0.53,0.44,2.4,9.3,-2.7,36.28,,,,,,,,,,
13.38.43.620,-67.6,16.9,0,,,100603.6,9.94,-0.69,0.55,0.6,-1.1,14.7,-1.4,36.2,,,,,,,,,,
13.38.43.628,-61.6,15.4,0,,,100603.6,9.94,-0.35,0.84,0.48,-11.8,15.7,4.9,36.12,,,,,,,,,,
13.38.43.639,-76.4,19.1,0,,,100603.6,9.94,-0.34,0.69,0.63,-1.8,-14.9,6.9,36.31,,,,,,,,,,
13.38.43.651,-69.0,17.2,0,,,100603.6,9.94,-0.49,0.61,0.59,-10.3,12.0,-1.2,36.02,,,,,,,,,,
13.38.43.659,-82.4,20.6,0,,,100603.6,9.94,-0.41,0.64,0.48,-4.1,17.3,-2.8,36.08,,,,,,,,,,
13.38.43.668,-80.3,20.1,0,,,100603.6,9.94,-0.39,0.7,0.46,-8.5,-7.1,-10.5,36.43,,,,,,,,,,
13.38.43.678,-90.7,22.7,0,,,100603.6,9.94,-0.45,0.61,0.5,10.9,11.9,-4.7,36.06,,,,,,,,,,
13.38.43.690,-72.5,18.1,0,,,100603.6,9.94,-0.46,0.56,0.53,11.1,9.1,-0.5,36.22,,,,,,,,,,
13.38.43.698,-85.0,21.2,0,,,100603.6,9.94,-0.39,0.39,0.6,-12.2,7.9,5.1,36.28,,,,,,,,,,
13.38.43.708,-97.3,24.3,0,,,100603.6,9.94,-0.52,0.54,0.52,7.9,0.9,-3.3,36.21,,,,,,,,,,
13.38.43.720,-104.0,26.0,0,,,100603.6,9.94,-0.47,0.56,0.52,-1.8,10.4,0.7,35.96,,,,,,,,,,
13.38.43.728,-103.6,25.9,0,,,100603.6,9.94,-0.38,0.53,0.48,3.1,3.5,0.1,36.03,,,,,,,,,,
13.38.43.736,-101.2,25.3,0,,,100603.6,9.94,-0.41,0.56,0.49,-8.7,9.4,4.2,36.02,,,,,,,,,,
13.38.43.745,-108.3,27.1,1,7.0,72.5,100603.6,9.94,-0.45,0.77,0.49,-7.0,4.0,9.3,36.21,,,,,,,,,,
13.38.43.754,-102.4,25.6,0,,,100603.6,9.94,-0.4,0.63,0.63,-2.7,13.9,-2.2,36.13,,,,,,,,,,
13.38.43.765,-117.2,29.3,0,,,100603.6,9.94,-0.5,0.72,0.64,2.0,7.3,-3.0,36.1,,,,,,,,,,
13.38.43.775,-105.2,26.3,0,,,100603.6,9.94,-0.45,0.56,0.47,3.5,5.9,-0.1,35.83,,,,,,,,,,
13.38.43.783,-133.2,33.3,0,,,100603.6,9.94,-0.32,0.62,0.6,-16.4,11.5,-2.2,35.98,,,,,,,,,,
13.38.43.793,-131.5,32.9,0,,,100603.6,9.94,-0.25,0.66,0.64,-12.0,8.3,0.5,35.87,,,,,,,,,,
13.38.43.802,-122.0,30.5,0,,,100603.6,9.94,-0.47,0.59,0.64,11.3,12.3,1.3,35.93,,,,,,,,,,
13.38.43.813,11.1,2.8,0,,,100603.6,9.94,-0.36,0.85,0.43,-7.0,4.0,0.6,36.05,,,,,,,,,,
13.38.43.822,42.4,10.6,0,,,100603.6,9.94,-0.52,0.71,0.55,-5.1,15.3,1.1,35.92,,,,,,,,,,
13.38.43.831,67.5,16.9,0,,,100603.6,9.94,-0.45,0.56,0.55,-8.2,10.3,3.6,36.23,,,,,,,,,,
13.38.43.841,107.3,26.8,0,,,100603.6,9.94,-0.47,0.68,0.67,-5.0,15.5,-2.6,35.94,,,,,,,,,,
13.38.43.852,133.4,33.4,0,,,100603.6,9.94,-0.5,0.56,0.59,0.0,4.4,-16.5,36.17,,,,,,,,,,
13.38.43.862,168.2,42.0,0,,,100603.6,9.94,-0.37,0.67,0.56,9.3,15.5,-4.2,36.22,,,,,,,,,,
13.38.43.870,173.2,43.3,0,,,100603.6,9.94,-0.46,0.62,0.54,13.9,10.1,-3.4,36.08,,,,,,,,,,
13.38.43.880,204.8,51.2,0,,,100603.6,9.94,-0.41,0.56,0.49,3.3,1.5,-2.3,36.03,,,,,,,,,,
13.38.43.888,253.9,63.5,0,,,100603.6,9.94,-0.29,0.59,0.67,-4.9,5.0,0.8,36.02,,,,,,,,,,
13.38.43.898,244.8,61.2,0,,,100603.6,9.94,-0.49,0.54,0.65,1.9,3.4,1.6,35.86,,,,,,,,,,
13.38.43.906,289.6,72.4,0,,,100603.6,9.94,-0.39,0.82,0.44,-0.8,6.9,-0.3,36.39,,,,,,,,,,
13.38.43.916,270.4,67.6,0,,,100603.6,9.94,-0.5,0.6,0.59,-3.5,22.8,-3.3,36.15,,,,,,,,,,
13.38.43.925,296.5,74.1,0,,,100603.6,9.94,-0.46,0.5,0.46,8.6,12.4,0.9,35.97,,,,,,,,,,
13.38.43.933,315.9,79.0,0,,,100603.6,9.94,-0.35,0.64,0.59,3.7,7.2,-5.5,36.0,,,,,,,,,,
13.38.43.944,310.3,77.6,0,,,100603.6,9.94,-0.46,0.45,0.38,-1.9,19.5,-2.2,36.01,,,,,,,,,,
13.38.43.954,298.8,74.7,0,,,100603.6,9.94,-0.45,0.66,0.66,-7.2,4.9,-4.0,35.81,,,,,,,,,,
13.38.43.963,342.6,85.6,0,,,100603.6,9.94,-0.42,0.67,0.48,9.3,-4.0,3.4,36.09,,,,,,,,,,
13.38.43.974,323.5,80.9,0,,,100603.6,9.94,-0.51,0.74,0.55,14.7,15.3,0.0,36.32,,,,,,,,,,
13.38.43.983,309.0,77.2,0,,,100603.6,9.94,-0.51,0.82,0.6,14.5,-0.1,-11.4,36.21,,,,,,,,,,
13.38.43.993,294.4,73.6,0,,,100603.6,9.94,-0.36,0.64,0.64,-3.4,10.7,-1.6,36.22,,,,,,,,,,
13.38.44.003,254.9,63.7,0,,,100603.6,9.94,-0.36,0.84,0.55,4.2,5.5,-9.7,36.21,,,,,,,,,,
13.38.44.012,280.4,70.1,0,,,100603.6,9.94,-0.34,0.53,0.64,4.6,-0.7,4.9,35.91,,,,,,,,,,
13.38.44.022,225.6,56.4,0,,,100603.6,9.94,-0.5,0.76,0.48,0.7,-4.2,1.1,36.19,,,,,,,,,,
13.38.44.031,220.6,55.2,0,,,100603.6,9.94,-0.41,0.65,0.56,-20.4,-6.7,6.3,36.11,,,,,,,,,,
13.38.44.040,189.4,47.4,0,,,100603.6,9.94,-0.31,0.61,0.54,5.3,-0.5,0.7,36.1,,,,,,,,,,
13.38.44.051,175.0,43.8,0,,,100603.6,9.94,-0.36,0.49,0.52,1.7,3.3,13.5,36.09,,,,,,,,,,
13.38.44.059,146.3,36.6,0,,,100603.6,9.94,-0.51,0.81,0.51,5.3,3.3,-2.8,36.1,,,,,,,,,,
13.38.44.066,110.5,27.6,0,,,100603.6,9.94,-0.42,0.64,0.69,0.2,-3.9,10.6,36.11,,,,,,,,,,
13.38.44.078,85.7,21.4,0,,,100603.6,9.94,-0.56,0.61,0.65,-1.8,2.3,-3.8,35.94,,,,,,,,,,
13.38.44.091,37.0,9.2,0,,,100603.6,9.94,-0.4,0.58,0.64,18.3,3.3,6.1,35.94,,,,,,,,,,
13.38.44.100,18.6,4.6,0,,,100603.6,9.94,-0.37,0.89,0.68,-0.9,-2.0,-1.7,35.83,,,,,,,,,,
13.38.44.107,4.7,1.2,0,,,100603.6,9.94,-0.41,0.69,0.52,-13.3,3.3,3.8,36.2,,,,,,,,,,
13.38.44.116,21.0,5.2,0,,,100603.6,9.94,-0.48,0.66,0.45,-16.3,11.2,-4.8,36.11,,,,,,,,,,
13.38.44.125,23.5,5.9,0,,,100603.6,9.94,-0.49,0.6,0.53,-7.6,4.3,7.8,35.99,,,,,,,,,,
13.38.44.134,28.5,7.1,0,,,100603.6,9.94,-0.35,0.59,0.62,-10.4,10.4,-5.3,35.84,,,,,,,,,,
13.38.44.142,49.7,12.4,0,,,100603.6,9.94,-0.5,0.63,0.62,-3.6,10.3,2.6,35.94,,,,,,,,,,
13.38.44.152,50.3,12.6,0,,,100603.6,9.94,-0.39,0.63,0.58,2.8,6.8,-5.5,36.06,,,,,,,,,,
13.38.44.162,50.4,12.6,0,,,100603.6,9.94,-0.29,0.6,0.52,-8.2,9.4,0.4,36.01,,,,,,,,,,
13.38.44.170,45.2,11.3,0,,,100603.6,9.94,-0.41,0.57,0.51,-13.2,7.2,3.1,36.3,,,,,,,,,,
13.38.44.181,56.8,14.2,0,,,100603.6,9.94,-0.49,0.82,0.43,-6.0,3.4,-3.1,36.03,,,,,,,,,,
13.38.44.193,44.7,11.2,0,,,100603.6,9.94,-0.38,0.64,0.56,-2.1,14.1,1.7,36.21,,,,,,,,,,
13.38.44.203,52.0,13.0,0,,,100603.6,9.94,-0.61,0.63,0.58,-2.9,-5.8,3.9,36.18,,,,,,,,,,
13.38.44.212,41.6,10.4,0,,,100603.6,9.94,-0.44,0.69,0.69,-3.6,9.3,-1.7,36.02,,,,,,,,,,
13.38.44.222,43.5,10.9,0,,,100603.6,9.94,-0.52,0.58,0.51,-5.8,6.2,-7.1,36.29,,,,,,,,,,
13.38.44.232,45.0,11.2,0,,,100603.6,9.94,-0.47,0.68,0.53,3.7,4.2,7.8,35.97,,,,,,,,,,
13.38.44.240,24.7,6.2,0,,,100603.6,9.94,-0.62,0.57,0.7,-13.6,8.3,1.2,36.1,,,,,,,,,,
13.38.44.250,13.0,3.2,0,,,100603.6,9.94,-0.36,0.58,0.45,-4.3,10.1,-2.2,36.34,,,,,,,,,,
13.38.44.259,8.8,2.2,0,,,100603.6,9.94,-0.56,0.69,0.64,11.1,0.0,1.4,36.09,,,,,,,,,,
13.38.44.271,0.2,0.0,0,,,100603.6,9.94,-0.44,0.74,0.5,12.2,-4.1,8.4,36.01,,,,,,,,,,
13.38.44.280,-7.7,1.9,0,,,100603.6,9.94,-0.42,0.63,0.65,-9.1,16.4,-8.0,36.01,,,,,,,,,,
13.38.44.292,-4.0,1.0,0,,,100603.6,9.94,-0.39,0.41,0.56,-8.3,17.2,-4.7,36.11,,,,,,,,,,
13.38.44.300,-6.2,1.6,0,,,100603.6,9.94,-0.53,0.7,0.7,2.7,-0.5,-3.9,35.9,,,,,,,,,,
13.38.44.310,-9.6,2.4,0,,,100603.6,9.94,-0.46,0.78,0.65,3.3,-4.6,-1.1,36.07,,,,,,,,,,
13.38.44.320,-13.3,3.3,0,,,100603.6,9.94,-0.45,0.6,0.67,2.0,0.2,0.6,36.17,,,,,,,,,,
13.38.44.329,-22.9,5.7,0,,,100603.6,9.94,-0.45,0.66,0.7,10.6,11.2,-9.6,36.21,,,,,,,,,,
13.38.44.339,-28.0,7.0,0,,,100603.6,9.94,-0.44,0.72,0.63,7.8,6.9,0.8,36.39,,,,,,,,,,
13.38.44.350,-31.6,7.9,0,,,100603.6,9.94,-0.36,0.54,0.55,2.3,5.9,2.3,36.1,,,,,,,,,,
13.38.44.359,-28.9,7.2,0,,,100603.6,9.94,-0.5,0.57,0.56,21.9,0.8,-0.1,35.95,,,,,,,,,,
13.38.44.367,-33.9,8.5,0,,,100603.6,9.94,-0.51,0.75,0.57,-4.0,2.8,-15.1,36.01,,,,,,,,,,
13.38.44.377,-48.5,12.1,0,,,100603.6,9.94,-0.35,0.6,0.41,4.9,4.7,1.8,36.23,,,,,,,,,,
13.38.44.386,-35.1,8.8,0,,,100603.6,9.94,-0.32,0.51,0.53,11.7,0.2,-8.9,36.17,,,,,,,,,,
13.38.44.395,-45.9,11.5,0,,,100603.6,9.94,-0.31,0.63,0.6,2.7,1.8,-7.2,36.09,,,,,,,,,,
13.38.44.405,-48.8,12.2,0,,,100603.6,9.94,-0.46,0.5,0.53,-2.4,4.7,-2.3,36.17,,,,,,,,,,
13.38.44.413,-43.1,10.8,0,,,100603.6,9.94,-0.46,0.66,0.67,6.4,8.5,3.2,36.01,,,,,,,,,,
13.38.44.421,-56.0,14.0,0,,,100603.6,9.94,-0.51,0.52,0.44,-11.0,13.5,4.7,36.16,,,,,,,,,,
13.38.44.431,-51.6,12.9,0,,,100603.6,9.94,-0.49,0.54,0.49,-1.0,-1.0,-7.5,35.91,,,,,,,,,,
13.38.44.440,-70.8,17.7,0,,,100603.6,9.94,-0.48,0.63,0.52,-2.5,15.4,-11.7,36.21,,,,,,,,,,
13.38.44.447,-53.0,13.2,0,,,100603.6,9.94,-0.41,0.6,0.44,-10.2,3.6,-0.8,35.98,,,,,,,,,,
13.38.44.458,-65.6,16.4,0,,,100603.6,9.94,-0.47,0.7,0.58,7.7,9.9,-1.6,35.96,,,,,,,,,,
13.38.44.468,-63.7,15.9,0,,,100603.6,9.94,-0.52,0.75,0.53,-7.5,-0.8,7.5,36.23,,,,,,,,,,
13.38.44.477,-71.4,17.8,0,,,100603.6,9.94,-0.57,0.53,0.55,-18.3,2.3,-4.3,35.96,,,,,,,,,,
13.38.44.485,-72.9,18.2,0,,,100603.6,9.94,-0.32,0.65,0.67,0.5,3.6,-5.4,36.04,,,,,,,,,,
13.38.44.496,-73.2,18.3,0,,,100603.6,9.94,-0.45,0.67,0.68,-12.7,13.4,4.5,36.23,,,,,,,,,,
13.38.44.506,-73.6,18.4,0,,,100603.6,9.94,-0.44,0.73,0.58,-12.6,3.4,-10.7,36.11,,,,,,,,,,
13.38.44.519,-94.0,23.5,0,,,100603.6,9.94,-0.62,0.51,0.62,-3.2,-0.5,-3.7,36.2,,,,,,,,,,
13.38.44.529,-93.5,23.4,0,,,100603.6,9.94,-0.55,0.7,0.51,-2.3,9.5,0.4,36.01,,,,,,,,,,
13.38.44.539,-93.9,23.5,0,,,100603.6,9.94,-0.4,0.77,0.54,-17.7,8.5,-4.0,35.85,,,,,,,,,,
13.38.44.548,-100.0,25.0,0,,,100603.6,9.94,-0.57,0.59,0.62,-2.4,-2.8,-12.2,36.08,,,,,,,,,,
13.38.44.559,-92.4,23.1,0,,,100603.6,9.94,-0.51,0.63,0.63,-1.0,5.7,3.1,35.94,,,,,,,,,,
13.38.44.569,-88.9,22.2,0,,,100603.6,9.94,-0.46,0.63,0.57,-2.8,3.0,-4.3,36.24,,,,,,,,,,
13.38.44.580,-124.5,31.1,1,8.0,71.9,100603.6,9.94,-0.57,0.61,0.67,-8.7,9.4,-0.8,36.12,,,,,,,,,,
13.38.44.589,-100.5,25.1,0,,,100603.6,9.94,-0.39,0.72,0.61,7.3,7.2,-4.8,36.15,,,,,,,,,,
13.38.44.598,-113.9,28.5,0,,,100603.6,9.94,-0.46,0.66,0.45,-14.2,7.2,6.4,36.02,,,,,,,,,,
13.38.44.607,-119.3,29.8,0,,,100603.6,9.94,-0.49,0.58,0.53,-3.3,9.4,3.4,36.04,,,,,,,,,,
13.38.44.618,-118.7,29.7,0,,,100603.6,9.94,-0.45,0.48,0.5,-6.2,8.8,2.6,36.09,,,,,,,,,,
13.38.44.630,-127.1,31.8,0,,,100603.6,9.94,-0.48,0.7,0.44,-2.3,5.2,-6.3,35.95,,,,,,,,,,
13.38.44.639,-133.0,33.2,0,,,100603.6,9.94,-0.34,0.61,0.59,7.3,5.7,-0.4,36.23,,,,,,,,,,
13.38.44.648,22.7,5.7,0,,,100603.6,9.94,-0.38,0.73,0.55,-2.7,-1.2,2.5,35.96,,,,,,,,,,
13.38.44.658,52.2,13.0,0,,,100603.6,9.94,-0.24,0.8,0.59,-10.1,2.2,3.6,36.18,,,,,,,,,,
13.38.44.667,71.8,18.0,0,,,100603.6,9.94,-0.45,0.71,0.45,-7.3,10.6,5.6,36.2,,,,,,,,,,
13.38.44.678,130.2,32.6,0,,,100603.6,9.94,-0.27,0.74,0.48,17.9,5.4,6.6,35.77,,,,,,,,,,
13.38.44.685,153.8,38.4,0,,,100603.6,9.94,-0.52,0.67,0.55,-13.4,8.0,6.3,35.99,,,,,,,,,,
13.38.44.694,177.1,44.3,0,,,100603.6,9.94,-0.35,0.63,0.44,-3.9,5.0,-0.7,35.89,,,,,,,,,,
13.38.44.703,203.6,50.9,0,,,100603.6,9.94,-0.44,0.53,0.62,-2.7,0.2,-5.2,36.13,,,,,,,,,,
13.38.44.710,211.3,52.8,0,,,100603.6,9.94,-0.44,0.63,0.54,13.4,5.5,-9.3,36.0,,,,,,,,,,
13.38.44.719,238.4,59.6,0,,,100603.6,9.94,-0.44,0.65,0.69,7.2,3.5,4.2,36.0,,,,,,,,,,
13.38.44.728,234.2,58.6,0,,,100603.6,9.94,-0.39,0.54,0.68,-13.4,17.2,-0.2,35.7,,,,,,,,,,
13.38.44.737,248.4,62.1,0,,,100603.6,9.94,-0.44,0.52,0.51,3.0,11.5,-10.1,36.22,,,,,,,,,,
13.38.44.748,299.0,74.8,0,,,100603.6,9.94,-0.61,0.57,0.51,-15.0,9.8,3.5,36.07,,,,,,,,,,
13.38.44.757,300.1,75.0,0,,,100603.6,9.94,-0.47,0.58,0.62,3.7,10.3,13.8,35.94,,,,,,,,,,
13.38.44.765,310.4,77.6,0,,,100603.6,9.94,-0.46,0.66,0.57,2.1,4.1,8.9,36.23,,,,,,,,,,
13.38.44.775,327.6,81.9,0,,,100603.6,9.94,-0.44,0.77,0.56,20.9,6.5,5.5,36.0,,,,,,,,,,
13.38.44.786,345.5,86.4,0,,,100603.6,9.94,-0.38,0.65,0.55,-2.2,-1.9,0.7,36.02,,,,,,,,,,
13.38.44.795,311.8,78.0,0,,,100603.6,9.94,-0.46,0.68,0.59,26.4,11.6,-10.7,36.18,,,,,,,,,,
13.38.44.804,260.7,65.2,0,,,100603.6,9.94,-0.5,0.63,0.46,-11.8,8.5,-18.0,36.16,,,,,,,,,,
13.38.44.814,307.8,77.0,0,,,100603.6,9.94,-0.36,0.59,0.55,-1.9,-5.2,-1.5,36.22,,,,,,,,,,
13.38.44.823,321.1,80.3,0,,,100603.6,9.94,-0.41,0.65,0.45,1.2,-7.3,-3.7,36.12,,,,,,,,,,
13.38.44.833,277.7,69.4,0,,,100603.6,9.94,-0.45,0.48,0.56,8.2,11.3,8.5,36.12,,,,,,,,,,
13.38.44.843,273.2,68.3,0,,,100603.6,9.94,-0.47,0.62,0.55,12.6,1.4,-0.5,36.13,,,,,,,,,,
13.38.44.854,248.8,62.2,0,,,100603.6,9.94,-0.48,0.62,0.54,2.3,7.8,-6.0,36.2,,,,,,,,,,
13.38.44.862,229.1,57.3,0,,,100603.6,9.94,-0.5,0.48,0.43,-5.2,10.4,5.3,36.12,,,,,,,,,,
13.38.44.872,189.9,47.5,0,,,100603.6,9.94,-0.54,0.68,0.5,8.6,13.5,0.1,36.22,,,,,,,,,,
13.38.44.881,165.7,41.4,0,,,100603.6,9.94,-0.4,0.68,0.57,0.4,4.9,-0.9,36.13,,,,,,,,,,
13.38.44.889,137.4,34.4,0,,,100603.6,9.94,-0.4,0.54,0.58,18.0,9.3,7.0,35.84,,,,,,,,,,
13.38.44.897,118.0,29.5,0,,,100603.6,9.94,-0.49,0.63,0.49,0.1,3.0,0.6,36.25,,,,,,,,,,
13.38.44.908,80.6,20.2,0,,,100603.6,9.94,-0.53,0.61,0.6,-2.6,11.8,3.8,36.17,,,,,,,,,,
13.38.44.917,47.2,11.8,0,,,100603.6,9.94,-0.5,0.51,0.48,17.9,1.3,-7.8,36.29,,,,,,,,,,
13.38.44.925,29.0,7.2,0,,,100603.6,9.94,-0.42,0.45,0.69,6.0,5.1,-2.8,36.16,,,,,,,,,,
13.38.44.935,10.7,2.7,0,,,100603.6,9.94,-0.36,0.74,0.57,4.6,8.3,-9.2,36.26,,,,,,,,,,
13.38.44.946,12.8,3.2,0,,,100603.6,9.94,-0.55,0.48,0.68,-4.3,-5.0,-7.9,36.01,,,,,,,,,,
13.38.44.953,12.6,3.2,0,,,100603.6,9.94,-0.39,0.61,0.54,9.2,3.8,0.1,35.82,,,,,,,,,,
13.38.44.961,29.5,7.4,0,,,100603.6,9.94,-0.33,0.61,0.45,10.2,10.2,8.9,36.25,,,,,,,,,,
13.38.44.970,39.1,9.8,0,,,100603.6,9.94,-0.39,0.61,0.48,-8.2,0.4,6.3,36.04,,,,,,,,,,
13.38.44.981,48.9,12.2,0,,,100603.6,9.94,-0.51,0.64,0.5,-16.2,15.8,-6.4,35.85,,,,,,,,,,
13.38.44.991,54.4,13.6,0,,,100603.6,9.94,-0.54,0.62,0.59,-0.2,0.4,0.7,35.88,,,,,,,,,,
13.38.45.002,53.3,13.3,0,,,100603.6,9.94,-0.46,0.52,0.56,5.9,-5.8,6.7,36.02,,,,,,,,,,
13.38.45.010,60.0,15.0,0,,,100603.6,9.94,-0.33,0.67,0.68,-9.3,6.8,-1.3,36.1,,,,,,,,,,
13.38.45.018,63.3,15.8,0,,,100603.6,9.94,-0.39,0.78,0.53,0.1,11.1,13.7,35.88,,,,,,,,,,
13.38.45.028,55.1,13.8,0,,,100603.6,9.94,-0.47,0.59,0.52,0.9,17.0,-0.9,36.34,,,,,,,,,,
13.38.45.038,40.5,10.1,0,,,100603.6,9.94,-0.35,0.79,0.42,-2.1,23.7,2.9,36.23,,,,,,,,,,
13.38.45.048,52.2,13.0,0,,,100603.6,9.94,-0.48,0.63,0.71,-1.4,12.8,-1.7,36.07,,,,,,,,,,
13.38.45.057,53.3,13.3,0,,,100603.6,9.94,-0.49,0.63,0.67,8.7,-7.7,0.6,36.24,,,,,,,,,,
13.38.45.067,27.3,6.8,0,,,100603.6,9.94,-0.47,0.61,0.51,9.6,3.6,-4.8,35.87,,,,,,,,,,
13.38.45.077,18.1,4.5,0,,,100603.6,9.94,-0.54,0.66,0.58,3.4,4.3,-0.7,36.15,,,,,,,,,,
13.38.45.088,21.0,5.2,0,,,100603.6,9.94,-0.51,0.59,0.48,-1.7,6.1,-6.7,36.1,,,,,,,,,,
13.38.45.099,9.1,2.3,0,,,100603.6,9.94,-0.57,0.78,0.63,-8.1,7.6,2.9,36.26,,,,,,,,,,
13.38.45.107,5.2,1.3,0,,,100603.6,9.94,-0.52,0.69,0.65,-1.4,12.6,-9.1,35.93,,,,,,,,,,
13.38.45.114,-9.7,2.4,0,,,100603.6,9.94,-0.2,0.7,0.5,0.2,6.8,-4.1,36.05,,,,,,,,,,
13.38.45.125,-6.8,1.7,0,,,100603.6,9.94,-0.39,0.55,0.56,5.6,2.7,4.0,36.23,,,,,,,,,,
13.38.45.136,-13.1,3.3,0,,,100603.6,9.94,-0.48,0.63,0.61,9.6,-6.8,3.5,35.99,,,,,,,,,,
13.38.45.144,-17.0,4.2,0,,,100603.6,9.94,-0.47,0.62,0.63,-5.3,-11.6,-1.3,36.07,,,,,,,,,,
13.38.45.151,-16.5,4.1,0,,,100603.6,9.94,-0.52,0.59,0.64,0.9,-1.6,4.6,36.11,,,,,,,,,,
13.38.45.161,-29.8,7.4,0,,,100603.6,9.94,-0.35,0.37,0.64,-2.9,2.1,-7.7,36.33,,,,,,,,,,
13.38.45.172,-18.0,4.5,0,,,100603.6,9.94,-0.51,0.65,0.52,0.4,1.4,-0.5,35.86,,,,,,,,,,
13.38.45.184,-23.3,5.8,0,,,100603.6,9.94,-0.44,0.68,0.48,-5.8,15.0,-2.7,36.33,,,,,,,,,,
13.38.45.194,-38.1,9.5,0,,,100603.6,9.94,-0.47,0.74,0.74,-1.2,6.0,8.4,36.26,,,,,,,,,,
13.38.45.203,-34.4,8.6,0,,,100603.6,9.94,-0.44,0.57,0.61,-7.5,4.1,1.3,36.03,,,,,,,,,,
13.38.45.212,-37.2,9.3,0,,,100603.6,9.94,-0.55,0.6,0.52,0.9,-9.1,1.8,36.0,,,,,,,,,,
13.38.45.222,-41.9,10.5,0,,,100603.6,9.94,-0.42,0.58,0.58,-8.4,9.7,3.9,35.8,,,,,,,,,,
13.38.45.231,-42.0,10.5,0,,,100603.6,9.94,-0.54,0.72,0.66,-3.3,11.3,3.2,36.38,,,,,,,,,,
13.38.45.239,-54.8,13.7,0,,,100603.6,9.94,-0.45,0.76,0.54,-7.6,1.6,2.7,36.13,,,,,,,,,,
13.38.45.251,-58.2,14.6,0,,,100603.6,9.94,-0.34,0.61,0.6,-8.2,-6.8,0.4,36.07,,,,,,,,,,
13.38.45.263,-59.4,14.8,0,,,100603.6,9.94,-0.4,0.52,0.69,14.0,4.2,6.5,36.23,,,,,,,,,,
13.38.45.274,-58.2,14.6,0,,,100603.6,9.94,-0.44,0.62,0.56,-10.8,13.9,-4.1,36.12,,,,,,,,,,
13.38.45.283,-72.3,18.1,0,,,100603.6,9.94,-0.6,0.71,0.65,-1.1,5.7,-2.3,35.89,,,,,,,,,,
13.38.45.294,-59.0,14.8,0,,,100603.6,9.94,-0.31,0.57,0.68,8.0,-0.6,5.0,35.98,,,,,,,,,,
13.38.45.304,-66.9,16.7,0,,,100603.6,9.94,-0.36,0.72,0.53,-19.2,11.7,-11.6,35.97,,,,,,,,,,
13.38.45.314,-84.6,21.2,0,,,100603.6,9.94,-0.47,0.61,0.53,4.6,-2.7,5.6,36.34,,,,,,,,,,
13.38.45.325,-77.6,19.4,0,,,100603.6,9.94,-0.4,0.58,0.51,-0.2,-1.6,2.6,36.1,,,,,,,,,,
13.38.45.335,-75.7,18.9,0,,,100603.6,9.94,-0.33,0.63,0.59,-2.5,4.8,-8.7,36.27,,,,,,,,,,
13.38.45.346,-90.3,22.6,0,,,100603.6,9.94,-0.41,0.65,0.71,-13.7,0.0,-1.0,35.86,,,,,,,,,,
13.38.45.356,-90.2,22.6,0,,,100603.6,9.94,-0.41,0.62,0.62,-7.6,-1.2,-1.0,36.32,,,,,,,,,,
13.38.45.366,-97.7,24.4,0,,,100603.6,9.94,-0.43,0.78,0.49,-5.2,8.4,-7.5,36.25,,,,,,,,,,
13.38.45.374,-88.8,22.2,0,,,100603.6,9.94,-0.47,0.47,0.53,4.9,4.9,6.9,36.09,,,,,,,,,,
13.38.45.384,-109.0,27.2,1,9.0,74.6,100603.6,9.94,-0.5,0.5,0.48,7.9,8.2,0.5,36.07,,,,,,,,,,
13.38.45.393,-90.7,22.7,0,,,100603.6,9.94,-0.44,0.42,0.48,-12.1,-0.1,1.0,36.01,,,,,,,,,,
13.38.45.401,-93.5,23.4,0,,,100603.6,9.94,-0.46,0.58,0.6,0.4,10.8,-6.2,36.15,,,,,,,,,,
13.38.45.413,-106.0,26.5,0,,,100603.6,9.94,-0.32,0.89,0.36,-5.6,12.6,-3.0,36.23,,,,,,,,,,
13.38.45.425,-118.0,29.5,0,,,100603.6,9.94,-0.46,0.72,0.5,0.0,16.6,-4.9,36.39,,,,,,,,,,
13.38.45.436,-125.8,31.4,0,,,100603.6,9.94,-0.28,0.68,0.53,-7.8,16.4,1.5,36.02,,,,,,,,,,
13.38.45.446,-112.4,28.1,0,,,100603.6,9.94,-0.53,0.57,0.49,-12.0,13.6,4.7,35.99,,,,,,,,,,
13.38.45.457,-121.9,30.5,0,,,100603.6,9.94,-0.3,0.64,0.55,-14.7,2.0,-7.8,36.01,,,,,,,,,,
13.38.45.467,-126.9,31.7,0,,,100603.6,9.94,-0.37,0.61,0.66,19.1,9.5,6.5,36.32,,,,,,,,,,
13.38.45.477,28.7,7.2,0,,,100603.6,9.94,-0.6,0.67,0.57,-2.2,13.8,2.4,35.97,,,,,,,,,,
13.38.45.485,53.8,13.4,0,,,100603.6,9.94,-0.5,0.48,0.55,-6.5,5.6,-3.8,36.01,,,,,,,,,,
13.38.45.495,79.2,19.8,0,,,100603.6,9.94,-0.5,0.75,0.55,12.0,3.5,4.5,35.78,,,,,,,,,,
13.38.45.505,119.3,29.8,0,,,100603.6,9.94,-0.53,0.46,0.52,3.4,8.6,5.2,36.15,,,,,,,,,,
13.38.45.513,150.6,37.6,0,,,100603.6,9.94,-0.38,0.74,0.51,6.0,-7.0,-7.4,36.02,,,,,,,,,,
13.38.45.523,166.8,41.7,0,,,100603.6,9.94,-0.43,0.64,0.65,-12.9,-0.0,8.8,36.11,,,,,,,,,,
13.38.45.533,206.8,51.7,0,,,100603.6,9.94,-0.42,0.67,0.57,0.9,-1.4,6.4,36.14,,,,,,,,,,
13.38.45.545,228.0,57.0,0,,,100603.6,9.94,-0.67,0.55,0.68,-0.3,0.9,-1.9,36.12,,,,,,,,,,
13.38.45.556,257.4,64.4,0,,,100603.6,9.94,-0.52,0.72,0.53,-13.3,0.8,-15.0,36.14,,,,,,,,,,
13.38.45.566,293.9,73.5,0,,,100603.6,9.94,-0.46,0.57,0.51,-13.8,5.6,5.1,36.34,,,,,,,,,,
13.38.45.576,308.1,77.0,0,,,100603.6,9.94,-0.23,0.72,0.63,-11.8,-2.1,-8.7,35.98,,,,,,,,,,
13.38.45.586,296.4,74.1,0,,,100603.6,9.94,-0.46,0.68,0.75,-0.2,1.7,-8.4,35.98,,,,,,,,,,
13.38.45.595,306.0,76.5,0,,,100603.6,9.94,-0.46,0.46,0.54,-0.1,5.0,3.2,35.97,,,,,,,,,,
13.38.45.603,310.8,77.7,0,,,100603.6,9.94,-0.43,0.64,0.63,-1.2,2.1,5.9,36.26,,,,,,,,,,
13.38.45.613,305.8,76.4,0,,,100603.6,9.94,-0.32,0.72,0.66,11.8,3.7,-7.2,36.09,,,,,,,,,,
13.38.45.622,314.0,78.5,0,,,100603.6,9.94,-0.38,0.68,0.58,11.5,3.0,-12.0,35.8,,,,,,,,,,
13.38.45.630,314.3,78.6,0,,,100603.6,9.94,-0.37,0.63,0.62,11.8,9.9,-13.1,36.18,,,,,,,,,,
13.38.45.640,345.6,86.4,0,,,100603.6,9.94,-0.41,0.71,0.41,-11.5,1.7,-0.9,36.08,,,,,,,,,,
13.38.45.650,303.3,75.8,0,,,100603.6,9.94,-0.52,0.61,0.57,5.2,0.4,-4.4,35.85,,,,,,,,,,
13.38.45.658,281.4,70.4,0,,,100603.6,9.94,-0.31,0.54,0.61,5.9,-12.7,4.7,36.06,,,,,,,,,,
13.38.45.668,262.3,65.6,0,,,100603.6,9.94,-0.63,0.66,0.62,1.8,4.6,-0.7,35.96,,,,,,,,,,
13.38.45.679,242.0,60.5,0,,,100603.6,9.94,-0.39,0.5,0.61,3.4,-5.5,1.8,36.15,,,,,,,,,,
13.38.45.690,210.9,52.7,0,,,100603.6,9.94,-0.59,0.68,0.71,-4.4,13.6,-6.0,35.99,,,,,,,,,,
13.38.45.701,178.7,44.7,0,,,100603.6,9.94,-0.31,0.52,0.55,-4.2,0.3,5.3,36.31,,,,,,,,,,
13.38.45.711,161.6,40.4,0,,,100603.6,9.94,-0.47,0.76,0.64,8.3,-3.4,0.0,36.34,,,,,,,,,,
13.38.45.720,138.4,34.6,0,,,100603.6,9.94,-0.52,0.59,0.52,-0.5,10.8,5.2,36.0,,,,,,,,,,
13.38.45.728,109.9,27.5,0,,,100603.6,9.94,-0.4,0.74,0.46,1.8,-3.7,-4.3,36.23,,,,,,,,,,
13.38.45.738,87.7,21.9,0,,,100603.6,9.94,-0.56,0.58,0.57,5.7,-0.3,7.2,36.08,,,,,,,,,,
13.38.45.748,47.8,12.0,0,,,100603.6,9.94,-0.44,0.66,0.7,24.5,-2.1,0.8,36.28,,,,,,,,,,
13.38.45.759,6.8,1.7,0,,,100603.6,9.94,-0.42,0.71,0.63,7.3,17.1,-2.9,35.91,,,,,,,,,,
13.38.45.770,14.2,3.6,0,,,100603.6,9.94,-0.46,0.75,0.57,3.1,1.9,-2.3,36.02,,,,,,,,,,
13.38.45.780,17.5,4.4,0,,,100603.6,9.94,-0.41,0.59,0.59,-15.9,7.5,-8.0,36.08,,,,,,,,,,
13.38.45.788,24.6,6.2,0,,,100603.6,9.94,-0.41,0.65,0.7,-4.4,6.5,1.7,36.43,,,,,,,,,,
13.38.45.797,29.1,7.3,0,,,100603.6,9.94,-0.43,0.54,0.49,-5.2,9.1,3.1,36.07,,,,,,,,,,
13.38.45.807,35.5,8.9,0,,,100603.6,9.94,-0.33,0.78,0.55,-5.1,-1.5,-5.3,36.07,,,,,,,,,,
13.38.45.816,53.7,13.4,0,,,100603.6,9.94,-0.53,0.7,0.42,-9.7,-6.3,2.8,36.11,,,,,,,,,,
13.38.45.825,59.9,15.0,0,,,100603.6,9.94,-0.47,0.75,0.63,-19.3,16.8,0.4,36.15,,,,,,,,,,
13.38.45.835,53.5,13.4,0,,,100603.6,9.94,-0.39,0.52,0.64,3.7,17.4,1.8,36.26,,,,,,,,,,
13.38.45.844,65.2,16.3,0,,,100603.6,9.94,-0.53,0.55,0.53,-4.4,4.1,-3.0,36.05,,,,,,,,,,
13.38.45.853,55.1,13.8,0,,,100603.6,9.94,-0.66,0.62,0.71,-3.8,5.2,-0.7,36.09,,,,,,,,,,
13.38.45.863,52.8,13.2,0,,,100603.6,9.94,-0.43,0.71,0.58,-14.1,2.9,-1.9,36.22,,,,,,,,,,
13.38.45.872,46.4,11.6,0,,,100603.6,9.94,-0.35,0.62,0.57,-0.3,16.2,0.7,36.12,,,,,,,,,,
13.38.45.882,40.0,10.0,0,,,100603.6,9.94,-0.42,0.62,0.58,17.0,-5.8,-2.0,36.01,,,,,,,,,,
13.38.45.892,47.3,11.8,0,,,100603.6,9.94,-0.46,0.61,0.64,3.3,3.5,1.3,35.99,,,,,,,,,,
13.38.45.900,31.7,7.9,0,,,100603.6,9.94,-0.49,0.69,0.67,0.2,8.1,12.6,36.08,,,,,,,,,,
13.38.45.909,20.4,5.1,0,,,100603.6,9.94,-0.5,0.71,0.57,2.0,6.5,6.9,36.35,,,,,,,,,,
13.38.45.920,8.1,2.0,0,,,100603.6,9.94,-0.35,0.63,0.52,0.5,1.4,-6.4,36.3,,,,,,,,,,
13.38.45.928,2.1,0.5,0,,,100603.6,9.94,-0.26,0.75,0.38,0.1,6.6,-4.7,36.06,,,,,,,,,,
13.38.45.935,-3.3,0.8,0,,,100603.6,9.94,-0.39,0.62,0.57,7.5,0.2,-1.2,35.77,,,,,,,,,,
13.38.45.942,-6.7,1.7,0,,,100603.6,9.94,-0.49,0.77,0.62,0.2,6.4,-4.5,36.02,,,,,,,,,,
13.38.45.952,-18.9,4.7,0,,,100603.6,9.94,-0.41,0.66,0.52,-2.7,9.7,-4.0,35.94,,,,,,,,,,
13.38.45.962,-7.9,2.0,0,,,100603.6,9.94,-0.45,0.69,0.55,-0.6,5.7,2.1,36.25,,,,,,,,,,
13.38.45.972,-10.0,2.5,0,,,100603.6,9.94,-0.46,0.45,0.56,-6.8,6.8,-4.1,36.12,,,,,,,,,,
13.38.45.983,-18.4,4.6,0,,,100603.6,9.94,-0.5,0.69,0.63,-3.2,-1.3,8.0,35.98,,,,,,,,,,
13.38.45.989,-21.8,5.4,0,,,100603.6,9.94,-0.53,0.69,0.56,-1.6,9.9,5.3,36.38,,,,,,,,,,
13.38.45.999,-28.3,7.1,0,,,100603.6,9.94,-0.48,0.55,0.66,3.5,-3.6,-11.4,35.89,,,,,,,,,,
13.38.46.011,-28.3,7.1,0,,,100603.6,9.94,-0.56,0.61,0.51,-12.3,17.0,-0.3,36.11,,,,,,,,,,
13.38.46.019,-36.3,9.1,0,,,100603.6,9.94,-0.39,0.68,0.52,-4.5,10.6,-4.0,35.9,,,,,,,,,,
13.38.46.028,-33.4,8.4,0,,,100603.6,9.94,-0.36,0.66,0.6,3.8,26.4,2.3,35.86,,,,,,,,,,
13.38.46.037,-53.2,13.3,0,,,100603.6,9.94,-0.48,0.53,0.73,14.1,9.5,-1.4,36.02,,,,,,,,,,
13.38.46.046,-39.3,9.8,0,,,100603.6,9.94,-0.37,0.57,0.51,10.0,9.1,0.7,36.32,,,,,,,,,,
13.38.46.055,-45.4,11.4,0,,,100603.6,9.94,-0.37,0.59,0.52,-4.0,3.9,6.6,36.17,,,,,,,,,,
13.38.46.066,-43.9,11.0,0,,,100603.6,9.94,-0.34,0.53,0.54,-4.6,-7.8,0.5,36.27,,,,,,,,,,
13.38.46.078,-42.7,10.7,0,,,100603.6,9.94,-0.44,0.83,0.58,-3.8,10.3,1.6,36.01,,,,,,,,,,
13.38.46.087,-51.8,13.0,0,,,100603.6,9.94,-0.43,0.76,0.47,-1.1,4.7,-7.9,36.21,,,,,,,,,,
13.38.46.099,-63.7,15.9,0,,,100603.6,9.94,-0.6,0.72,0.42,-10.4,6.3,-2.7,36.22,,,,,,,,,,
13.38.46.109,-64.2,16.0,0,,,100603.6,9.94,-0.41,0.82,0.49,1.7,3.9,0.0,36.2,,,,,,,,,,
13.38.46.121,-67.9,17.0,0,,,100603.6,9.94,-0.53,0.57,0.62,-8.4,-4.5,3.7,36.32,,,,,,,,,,
13.38.46.131,-70.5,17.6,0,,,100603.6,9.94,-0.54,0.53,0.51,-11.3,8.0,2.5,36.17,,,,,,,,,,
13.38.46.141,-78.6,19.6,0,,,100603.6,9.94,-0.36,0.61,0.53,-15.4,-0.5,-5.9,36.08,,,,,,,,,,
13.38.46.151,-71.0,17.8,0,,,100603.6,9.94,-0.37,0.69,0.37,-1.0,-1.0,7.1,36.03,,,,,,,,,,
13.38.46.165,-90.5,22.6,0,,,100603.6,9.94,-0.36,0.6,0.59,10.9,11.5,-0.5,36.13,,,,,,,,,,
13.38.46.176,-101.6,25.4,0,,,100603.6,9.94,-0.35,0.68,0.33,0.3,0.0,18.4,36.2,,,,,,,,,,
13.38.46.185,,,0,,,,,,,,,,,,,,,,,,,,,
13.38.46.196,-88.9,22.2,0,,,100603.6,9.94,-0.6,0.55,0.79,14.2,17.3,3.4,36.06,,,,,,,,,,
13.38.46.205,-95.9,24.0,1,10.0,73.1,100603.6,9.94,-0.57,0.66,0.58,-1.1,8.7,-6.3,36.18,,,,,,,,,,
13.38.46.214,-98.3,24.6,0,,,100603.6,9.94,-0.39,0.68,0.54,-11.1,6.6,-16.5,36.14,,,,,,,,,,
13.38.46.225,-99.3,24.8,0,,,100603.6,9.94,-0.48,0.72,0.64,-16.2,8.8,-4.2,36.14,,,,,,,,,,
13.38.46.235,-120.3,30.1,0,,,100603.6,9.94,-0.41,0.65,0.61,8.2,2.2,-8.2,36.12,,,,,,,,,,
13.38.46.245,-108.8,27.2,0,,,100603.6,9.94,-0.44,0.78,0.47,14.9,1.9,-6.5,36.17,,,,,,,,,,
13.38.46.255,-112.1,28.0,0,,,100603.6,9.94,-0.52,0.69,0.46,4.2,6.4,-4.7,36.11,,,,,,,,,,
13.38.46.265,-115.6,28.9,0,,,100603.6,9.94,-0.55,0.75,0.5,4.0,11.6,5.1,36.27,,,,,,,,,,
13.38.46.275,-114.0,28.5,0,,,100603.6,9.94,-0.53,0.68,0.68,12.6,-5.5,-2.8,36.04,,,,,,,,,,
13.38.46.282,-127.9,32.0,0,,,100603.6,9.94,-0.39,0.69,0.56,-16.3,-11.2,-2.6,36.02,,,,,,,,,,
13.38.46.293,-133.9,33.5,0,,,100603.6,9.94,-0.54,0.74,0.54,-2.7,-1.0,-7.7,35.98,,,,,,,,,,
13.38.46.301,7.3,1.8,0,,,100603.6,9.94,-0.62,0.78,0.59,9.1,8.1,-5.9,36.11,,,,,,,,,,
13.38.46.309,32.0,8.0,0,,,100603.6,9.94,-0.4,0.54,0.55,5.1,16.2,-11.0,36.07,,,,,,,,,,
13.38.46.319,71.1,17.8,0,,,100603.6,9.94,-0.4,0.65,0.61,7.4,-1.3,2.9,35.92,,,,,,,,,,
13.38.46.329,93.6,23.4,0,,,100603.6,9.94,-0.43,0.77,0.56,-5.1,3.7,-1.5,36.05,,,,,,,,,,
13.38.46.338,115.5,28.9,0,,,100603.6,9.94,-0.57,0.64,0.43,1.2,7.4,5.0,36.0,,,,,,,,,,
13.38.46.349,165.1,41.3,0,,,100603.6,9.94,-0.29,0.58,0.62,-0.9,11.5,-9.4,35.98,,,,,,,,,,
13.38.46.357,192.5,48.1,0,,,100603.6,9.94,-0.5,0.88,0.56,5.1,2.3,3.6,36.03,,,,,,,,,,
13.38.46.366,205.6,51.4,0,,,100603.6,9.94,-0.44,0.49,0.45,-9.4,11.2,-9.9,36.17,,,,,,,,,,
13.38.46.375,233.4,58.4,0,,,100603.6,9.94,-0.47,0.51,0.67,-3.1,-8.7,1.0,35.77,,,,,,,,,,
13.38.46.385,254.1,63.5,0,,,100603.6,9.94,-0.46,0.58,0.54,-0.5,3.3,-4.0,36.28,,,,,,,,,,
13.38.46.395,268.5,67.1,0,,,100603.6,9.94,-0.4,0.75,0.61,3.2,6.4,3.7,35.94,,,,,,,,,,
13.38.46.403,310.1,77.5,0,,,100603.6,9.94,-0.41,0.47,0.44,0.6,15.0,-9.1,35.93,,,,,,,,,,
13.38.46.414,276.4,69.1,0,,,100603.6,9.94,-0.58,0.58,0.64,-5.1,2.4,6.8,35.97,,,,,,,,,,
13.38.46.424,334.5,83.6,0,,,100603.6,9.94,-0.44,0.62,0.66,0.8,2.9,-6.3,35.99,,,,,,,,,,
13.38.46.431,316.0,79.0,0,,,100603.6,9.94,-0.54,0.7,0.59,7.8,12.6,1.0,36.12,,,,,,,,,,
13.38.46.438,315.9,79.0,0,,,100603.6,9.94,-0.62,0.71,0.59,-1.5,14.9,-6.7,36.02,,,,,,,,,,
13.38.46.448,322.2,80.6,0,,,100603.6,9.94,-0.65,0.72,0.6,-0.2,1.3,-3.2,36.13,,,,,,,,,,
13.38.46.457,317.0,79.2,0,,,100603.6,9.94,-0.42,0.59,0.55,6.9,-3.7,-2.5,35.84,,,,,,,,,,
13.38.46.467,326.0,81.5,0,,,100603.6,9.94,-0.45,0.69,0.54,3.3,9.5,0.5,36.14,,,,,,,,,,
13.38.46.477,297.9,74.5,0,,,100603.6,9.94,-0.4,0.72,0.67,-7.6,2.6,-1.9,36.11,,,,,,,,,,
13.38.46.487,270.1,67.5,0,,,100603.6,9.94,-0.42,0.65,0.5,20.5,4.0,3.6,36.12,,,,,,,,,,
13.38.46.498,289.3,72.3,0,,,100603.6,9.94,-0.42,0.69,0.6,5.2,0.9,6.4,35.96,,,,,,,,,,
13.38.46.506,247.5,61.9,0,,,100603.6,9.94,-0.52,0.71,0.49,8.5,13.0,-9.6,36.09,,,,,,,,,,
13.38.46.514,229.4,57.4,0,,,100704.9,9.93,-0.41,0.62,0.61,4.2,1.7,-1.9,35.97,,,,,,,,,,
13.38.46.522,222.0,55.5,0,,,100704.9,9.93,-0.54,0.53,0.54,15.3,0.5,0.6,35.9,,,,,,,,,,
13.38.46.532,193.1,48.3,0,,,100704.9,9.93,-0.49,0.62,0.67,10.6,2.7,12.0,35.99,,,,,,,,,,
13.38.46.543,165.2,41.3,0,,,100704.9,9.93,-0.45,0.78,0.42,-6.3,5.1,7.0,36.0,,,,,,,,,,
13.38.46.552,131.7,32.9,0,,,100704.9,9.93,-0.35,0.83,0.62,15.0,6.0,0.6,36.12,,,,,,,,,,
13.38.46.559,97.5,24.4,0,,,100704.9,9.93,-0.39,0.63,0.43,0.3,14.9,-7.8,35.77,,,,,,,,,,
13.38.46.567,78.3,19.6,0,,,100704.9,9.93,-0.41,0.71,0.63,0.4,12.5,-10.4,35.93,,,,,,,,,,
13.38.46.576,55.6,13.9,0,,,100704.9,9.93,-0.31,0.56,0.62,0.6,9.4,-7.7,36.0,,,,,,,,,,
13.38.46.585,21.1,5.3,0,,,100704.9,9.93,-0.29,0.65,0.55,-2.1,15.7,3.9,36.33,,,,,,,,,,
13.38.46.594,1.7,0.4,0,,,100704.9,9.93,-0.43,0.75,0.39,17.3,3.7,-2.5,36.28,,,,,,,,,,
13.38.46.604,11.0,2.8,0,,,100704.9,9.93,-0.37,0.54,0.51,4.4,3.0,1.0,36.22,,,,,,,,,,
13.38.46.613,19.2,4.8,0,,,100704.9,9.93,-0.44,0.63,0.64,4.1,8.0,0.1,36.0,,,,,,,,,,
13.38.46.624,28.9,7.2,0,,,100704.9,9.93,-0.44,0.68,0.43,-6.9,-2.5,3.1,36.19,,,,,,,,,,
13.38.46.633,43.9,11.0,0,,,100704.9,9.93,-0.48,0.59,0.61,-14.6,20.1,-11.2,36.11,,,,,,,,,,
13.38.46.642,46.8,11.7,0,,,100704.9,9.93,-0.5,0.74,0.48,0.1,17.4,-1.5,36.07,,,,,,,,,,
13.38.46.652,50.4,12.6,0,,,100704.9,9.93,-0.37,0.59,0.58,-3.5,11.9,0.8,36.43,,,,,,,,,,
13.38.46.660,55.3,13.8,0,,,100704.9,9.93,-0.36,0.6,0.71,12.9,20.7,-4.7,36.17,,,,,,,,,,
13.38.46.670,47.6,11.9,0,,,100704.9,9.93,-0.44,0.7,0.51,14.7,14.6,4.2,35.9,,,,,,,,,,
13.38.46.680,45.3,11.3,0,,,100704.9,9.93,-0.46,0.53,0.6,-9.9,9.4,8.1,36.24,,,,,,,,,,
13.38.46.690,51.6,12.9,0,,,100704.9,9.93,-0.48,0.79,0.57,7.6,4.4,8.8,36.06,,,,,,,,,,
13.38.46.702,45.7,11.4,0,,,100704.9,9.93,-0.46,0.6,0.55,5.9,3.4,-2.7,36.31,,,,,,,,,,
13.38.46.711,45.9,11.5,0,,,100704.9,9.93,-0.5,0.77,0.63,0.9,12.5,-17.1,36.03,,,,,,,,,,
13.38.46.723,31.1,7.8,0,,,100704.9,9.93,-0.42,0.72,0.62,2.2,11.9,5.4,35.95,,,,,,,,,,
13.38.46.732,11.6,2.9,0,,,100704.9,9.93,-0.52,0.54,0.62,-7.3,5.6,-0.3,36.36,,,,,,,,,,
13.38.46.740,15.4,3.8,0,,,100704.9,9.93,-0.44,0.59,0.57,11.4,0.0,0.2,35.86,,,,,,,,,,
13.38.46.750,11.7,2.9,0,,,100704.9,9.93,-0.42,0.6,0.56,-9.3,6.8,-6.8,36.16,,,,,,,,,,
13.38.46.758,-5.6,1.4,0,,,100704.9,9.93,-0.37,0.65,0.42,-12.3,10.1,-3.6,36.01,,,,,,,,,,
13.38.46.767,2.1,0.5,0,,,100704.9,9.93,-0.57,0.58,0.61,0.3,-0.6,-0.9,36.16,,,,,,,,,,
13.38.46.777,-2.6,0.6,0,,,100704.9,9.93,-0.44,0.52,0.75,-2.9,10.5,-0.6,35.95,,,,,,,,,,
13.38.46.787,-14.3,3.6,0,,,100704.9,9.93,-0.6,0.57,0.61,9.7,9.9,-8.6,35.88,,,,,,,,,,
13.38.46.796,-3.6,0.9,0,,,100704.9,9.93,-0.5,0.59,0.64,2.0,2.7,-9.1,36.01,,,,,,,,,,
13.38.46.807,-23.3,5.8,0,,,100704.9,9.93,-0.38,0.71,0.55,-8.4,3.3,6.0,36.01,,,,,,,,,,
13.38.46.818,-23.3,5.8,0,,,100704.9,9.93,-0.44,0.68,0.57,4.5,7.3,-11.4,36.15,,,,,,,,,,
13.38.46.829,-27.2,6.8,0,,,100704.9,9.93,-0.52,0.53,0.61,8.6,8.6,1.4,36.45,,,,,,,,,,
13.38.46.839,-31.6,7.9,0,,,100704.9,9.93,-0.44,0.68,0.51,0.3,-0.3,-4.8,36.08,,,,,,,,,,
13.38.46.850,-22.6,5.6,0,,,100704.9,9.93,-0.46,0.66,0.61,-4.3,-2.2,-2.0,36.08,,,,,,,,,,
13.38.46.857,-43.2,10.8,0,,,100704.9,9.93,-0.38,0.55,0.56,11.1,12.2,3.8,35.92,,,,,,,,,,
13.38.46.866,-31.3,7.8,0,,,100704.9,9.93,-0.41,0.6,0.53,-2.3,18.3,2.9,35.89,,,,,,,,,,
13.38.46.875,-36.3,9.1,0,,,100704.9,9.93,-0.45,0.57,0.57,-4.8,3.6,-2.4,35.9,,36.09,,,,,,,,
13.38.46.885,-48.5,12.1,0,,,100704.9,9.93,-0.37,0.53,0.62,-0.4,3.0,4.4,36.07,,,,,,,,,,
13.38.46.894,-44.6,11.2,0,,,100704.9,9.93,-0.54,0.55,0.58,-3.5,9.6,1.9,36.11,,,,,,,,,,
13.38.46.903,-43.8,11.0,0,,,100704.9,9.93,-0.49,0.72,0.58,2.1,6.1,-0.2,36.05,,,,,,,,,,
13.38.46.915,-49.3,12.3,0,,,100704.9,9.93,-0.61,0.52,0.72,-5.6,-3.5,-1.8,35.98,,,,,,,,,,
13.38.46.924,-48.9,12.2,0,,,100704.9,9.93,-0.24,0.62,0.65,-2.6,5.8,6.8,36.04,,,,,,,,,,
13.38.46.934,-62.8,15.7,0,,,100704.9,9.93,-0.54,0.46,0.54,5.3,4.1,-1.7,36.21,,,,,,,,,,
13.38.46.943,-48.2,12.0,0,,,100704.9,9.93,-0.48,0.84,0.52,4.8,-4.3,-7.9,35.78,,,,,,,,,,
13.38.46.953,-59.8,15.0,0,,,100704.9,9.93,-0.6,0.79,0.65,-1.2,9.2,-6.3,36.2,,,,,,,,,,
13.38.46.963,-72.0,18.0,0,,,100704.9,9.93,-0.39,0.64,0.65,2.9,18.1,-0.7,36.13,,,,,,,,,,
13.38.46.973,-77.3,19.3,0,,,100704.9,9.93,-0.52,0.7,0.62,12.2,9.4,-12.4,36.21,,,,,,,,,,
13.38.46.984,-90.7,22.7,0,,,100704.9,9.93,-0.43,0.61,0.69,1.0,-6.9,0.8,36.08,,,,,,,,,,
13.38.46.996,-81.3,20.3,0,,,100704.9,9.93,-0.48,0.75,0.62,3.2,11.8,-10.6,36.38,,,,,,,,,,
13.38.47.006,-89.6,22.4,0,,,100704.9,9.93,-0.43,0.62,0.56,-2.2,7.0,-8.6,36.09,,,,,,,,,,
13.38.47.016,-90.4,22.6,0,,,100704.9,9.93,-0.5,0.68,0.62,-4.1,5.6,3.2,36.16,,,,,,,,,,
13.38.47.024,-91.9,23.0,0,,,100704.9,9.93,-0.29,0.61,0.56,8.8,1.6,3.1,36.42,,,,,,,,,,
13.38.47.034,-91.2,22.8,1,11.0,72.4,100704.9,9.93,-0.46,0.78,0.65,16.6,2.2,-8.7,35.89,,,,,,,,,,
13.38.47.045,-106.9,26.7,0,,,100704.9,9.93,-0.4,0.62,0.67,15.8,-3.4,4.0,36.16,,,,,,,,,,
13.38.47.056,-93.4,23.4,0,,,100704.9,9.93,-0.49,0.72,0.58,-5.6,9.7,-2.2,36.06,,,,,,,,,,
13.38.47.066,-109.9,27.5,0,,,100704.9,9.93,-0.48,0.83,0.67,-6.2,3.4,-5.6,35.94,,,,,,,,,,
13.38.47.077,-112.6,28.2,0,,,100704.9,9.93,-0.49,0.52,0.76,6.4,2.3,-2.4,36.17,,,,,,,,,,
13.38.47.087,-111.9,28.0,0,,,100704.9,9.93,-0.37,0.77,0.61,8.8,0.7,-4.5,35.99,,,,,,,,,,
13.38.47.098,-107.4,26.8,0,,,100704.9,9.93,-0.49,0.89,0.64,-19.0,18.2,-2.4,36.04,,,,,,,,,,
13.38.47.108,-110.1,27.5,0,,,100704.9,9.93,-0.58,0.65,0.58,-9.1,13.4,2.8,36.2,,,,,,,,,,
13.38.47.117,-135.5,33.9,0,,,100704.9,9.93,-0.39,0.53,0.51,22.4,10.5,-1.3,36.24,,,,,,,,,,
13.38.47.127,-129.7,32.4,0,,,100704.9,9.93,-0.48,0.69,0.71,-3.6,-0.2,1.8,36.02,,,,,,,,,,
13.38.47.133,6.9,1.7,0,,,100704.9,9.93,-0.5,0.71,0.61,-12.3,16.2,1.1,36.17,,,,,,,,,,
13.38.47.143,40.8,10.2,0,,,100704.9,9.93,-0.6,0.75,0.55,-2.5,4.4,3.2,36.05,,,,,,,,,,
13.38.47.148,65.0,16.2,0,,,100704.9,9.93,-0.39,0.63,0.62,14.9,10.6,-5.2,36.18,,,,,,,,,,
13.38.47.156,81.0,20.2,0,,,100704.9,9.93,-0.36,0.6,0.62,-11.5,-4.4,-11.5,36.17,,,,,,,,,,
13.38.47.166,116.3,29.1,0,,,100704.9,9.93,-0.63,0.77,0.59,-0.4,8.7,-12.1,36.11,,,,,,,,,,
13.38.47.176,146.5,36.6,0,,,100704.9,9.93,-0.48,0.7,0.55,-12.4,8.9,1.6,35.94,,,,,,,,,,
13.38.47.184,191.9,48.0,0,,,100704.9,9.93,-0.42,0.74,0.47,7.3,1.8,-6.1,36.13,,,,,,,,,,
13.38.47.193,199.4,49.8,0,,,100704.9,9.93,-0.45,0.54,0.54,12.2,-3.4,-6.2,36.39,,,,,,,,,,
13.38.47.204,221.7,55.4,0,,,100704.9,9.93,-0.46,0.48,0.65,23.4,10.4,-7.3,36.33,,,,,,,,,,
13.38.47.213,242.9,60.7,0,,,100704.9,9.93,-0.47,0.74,0.67,8.3,10.0,1.3,35.64,,,,,,,,,,
13.38.47.225,275.2,68.8,0,,,100704.9,9.93,-0.42,0.65,0.56,3.3,-3.7,-7.0,36.01,,,,,,,,,,
13.38.47.235,281.5,70.4,0,,,100704.9,9.93,-0.36,0.77,0.7,-5.6,0.4,-5.5,35.89,,,,,,,,,,
13.38.47.245,303.6,75.9,0,,,100704.9,9.93,-0.48,0.58,0.59,14.0,15.8,-3.9,35.78,,,,,,,,,,
13.38.47.257,302.8,75.7,0,,,100704.9,9.93,-0.54,0.57,0.55,-7.0,0.1,5.5,36.13,,,,,,,,,,
13.38.47.267,330.6,82.6,0,,,100704.9,9.93,-0.46,0.56,0.61,-16.8,2.8,5.5,36.12,,,,,,,,,,
13.38.47.275,318.5,79.6,0,,,100704.9,9.93,-0.47,0.57,0.58,-5.0,4.8,6.2,36.02,,,,,,,,,,
13.38.47.285,319.3,79.8,0,,,100704.9,9.93,-0.39,0.59,0.61,8.6,-3.9,6.6,36.21,,,,,,,,,,
13.38.47.295,279.9,70.0,0,,,100704.9,9.93,-0.38,0.46,0.58,-14.0,16.0,14.3,35.92,,,,,,,,,,
13.38.47.303,294.8,73.7,0,,,100704.9,9.93,-0.56,0.82,0.81,-2.8,14.4,-2.7,35.97,,,,,,,,,,
13.38.47.312,312.4,78.1,0,,,100704.9,9.93,-0.57,0.72,0.51,9.4,4.8,1.5,35.98,,,,,,,,,,
13.38.47.321,271.1,67.8,0,,,100704.9,9.93,-0.51,0.61,0.5,2.6,-8.8,-2.7,36.03,,,,,,,,,,
13.38.47.332,274.7,68.7,0,,,100704.9,9.93,-0.4,0.9,0.63,-1.2,6.5,-6.3,35.98,,,,,,,,,,
13.38.47.342,222.7,55.7,0,,,100704.9,9.93,-0.34,0.81,0.55,1.1,9.7,-15.8,35.99,,,,,,,,,,
13.38.47.351,209.7,52.4,0,,,100704.9,9.93,-0.54,0.67,0.47,15.4,3.1,-3.6,36.07,,,,,,,,,,
13.38.47.361,184.6,46.2,0,,,100704.9,9.93,-0.49,0.67,0.61,-2.8,14.1,4.4,36.11,,,,,,,,,,
13.38.47.371,159.1,39.8,0,,,100704.9,9.93,-0.57,0.4,0.57,14.0,10.2,-9.7,36.08,,,,,,,,,,
13.38.47.381,136.0,34.0,0,,,100704.9,9.93,-0.49,0.59,0.47,-0.1,1.2,-0.8,36.06,,,,,,,,,,
13.38.47.389,98.6,24.6,0,,,100704.9,9.93,-0.37,0.73,0.52,16.7,-6.9,-4.2,36.09,,,,,,,,,,
13.38.47.397,87.4,21.8,0,,,100704.9,9.93,-0.54,0.73,0.59,7.6,15.4,8.0,36.07,,,,,,,,,,
13.38.47.408,44.6,11.2,0,,,100704.9,9.93,-0.5,0.61,0.6,21.3,-2.2,5.8,36.22,,,,,,,,,,
13.38.47.417,21.4,5.4,0,,,100704.9,9.93,-0.5,0.74,0.53,7.8,4.9,2.4,36.03,,,,,,,,,,
13.38.47.425,1.1,0.3,0,,,100704.9,9.93,-0.47,0.6,0.65,7.4,6.9,-3.2,36.21,,,,,,,,,,
13.38.47.435,11.7,2.9,0,,,100704.9,9.93,-0.55,0.64,0.53,-3.2,10.7,6.1,36.02,,,,,,,,,,
13.38.47.445,31.6,7.9,0,,,100704.9,9.93,-0.44,0.69,0.6,-2.7,11.4,-5.5,36.16,,,,,,,,,,
13.38.47.453,33.0,8.2,0,,,100704.9,9.93,-0.44,0.69,0.62,10.1,3.9,-2.4,36.1,,,,,,,,,,
13.38.47.463,43.3,10.8,0,,,100704.9,9.93,-0.51,0.76,0.45,-2.8,2.3,-6.0,36.38,,,,,,,,,,
13.38.47.474,52.1,13.0,0,,,100704.9,9.93,-0.44,0.78,0.62,-3.8,2.3,-6.2,36.09,,,,,,,,,,
13.38.47.484,44.7,11.2,0,,,100704.9,9.93,-0.57,0.74,0.68,0.3,2.7,9.1,36.13,,,,,,,,,,
13.38.47.494,51.8,13.0,0,,,100704.9,9.93,-0.58,0.66,0.48,8.0,14.3,-1.1,36.32,,,,,,,,,,
13.38.47.502,51.9,13.0,0,,,100704.9,9.93,-0.36,0.7,0.64,-8.6,-0.9,-2.4,36.17,,,,,,,,,,
13.38.47.512,62.0,15.5,0,,,100704.9,9.93,-0.53,0.71,0.61,10.8,-2.7,-15.9,36.05,,,,,,,,,,
13.38.47.521,49.3,12.3,0,,,100704.9,9.93,-0.38,0.66,0.53,12.1,6.2,-1.4,36.29,,,,,,,,,,
13.38.47.530,50.7,12.7,0,,,100704.9,9.93,-0.45,0.75,0.43,-1.4,11.0,5.0,36.1,,,,,,,,,,
13.38.47.541,42.3,10.6,0,,,100704.9,9.93,-0.41,0.42,0.5,-4.5,-3.7,3.1,35.85,,,,,,,,,,
13.38.47.553,26.5,6.6,0,,,100704.9,9.93,-0.33,0.69,0.63,-4.5,11.8,3.1,36.24,,,,,,,,,,
13.38.47.565,18.7,4.7,0,,,100704.9,9.93,-0.56,0.5,0.58,-6.2,13.5,4.7,35.98,,,,,,,,,,
13.38.47.576,11.4,2.8,0,,,100704.9,9.93,-0.45,0.67,0.64,26.6,10.9,-1.7,36.33,,,,,,,,,,
13.38.47.586,1.7,0.4,0,,,100704.9,9.93,-0.49,0.63,0.55,12.8,6.5,-2.9,36.04,,,,,,,,,,
13.38.47.596,-3.6,0.9,0,,,100704.9,9.93,-0.48,0.64,0.57,-0.7,12.2,3.1,36.1,,,,,,,,,,
13.38.47.607,-11.5,2.9,0,,,100704.9,9.93,-0.45,0.63,0.6,5.1,9.1,-3.4,36.31,,,,,,,,,,
13.38.47.617,-12.6,3.2,0,,,100704.9,9.93,-0.53,0.69,0.64,10.1,-3.1,3.5,35.8,,,,,,,,,,
13.38.47.627,-15.2,3.8,0,,,100704.9,9.93,-0.52,0.58,0.67,-2.1,1.7,0.1,36.12,,,,,,,,,,
13.38.47.638,-16.6,4.2,0,,,100704.9,9.93,-0.47,0.63,0.65,5.3,8.7,-0.0,36.29,,,,,,,,,,
13.38.47.648,-20.4,5.1,0,,,100704.9,9.93,-0.54,0.59,0.61,7.7,14.0,-3.4,36.4,,,,,,,,,,
13.38.47.657,-37.2,9.3,0,,,100704.9,9.93,-0.46,0.58,0.51,-1.7,-3.3,6.3,35.88,,,,,,,,,,
13.38.47.666,-32.5,8.1,0,,,100704.9,9.93,-0.39,0.47,0.51,-15.1,11.2,-1.4,36.1,,,,,,,,,,
13.38.47.676,-33.2,8.3,0,,,100704.9,9.93,-0.52,0.89,0.48,-0.9,-2.2,6.1,35.93,,,,,,,,,,
13.38.47.686,-43.7,10.9,0,,,100704.9,9.93,-0.43,0.59,0.65,-4.2,15.1,6.6,36.1,,,,,,,,,,
13.38.47.696,-45.3,11.3,0,,,100704.9,9.93,-0.45,0.65,0.52,12.0,9.3,3.3,36.22,,,,,,,,,,
13.38.47.707,-51.2,12.8,0,,,100704.9,9.93,-0.48,0.62,0.47,-0.1,4.9,-5.6,35.9,,,,,,,,,,
13.38.47.716,-41.2,10.3,0,,,100704.9,9.93,-0.29,0.74,0.62,-0.9,0.3,7.7,35.98,,,,,,,,,,
13.38.47.727,-45.6,11.4,0,,,100704.9,9.93,-0.42,0.62,0.32,-8.9,5.1,4.0,36.03,,,,,,,,,,
13.38.47.737,-47.8,12.0,0,,,100704.9,9.93,-0.51,0.8,0.61,9.6,15.4,-3.2,36.18,,,,,,,,,,
13.38.47.745,-72.8,18.2,0,,,100704.9,9.93,-0.43,0.51,0.52,-3.5,6.3,0.8,35.96,,,,,,,,,,
13.38.47.756,-64.1,16.0,0,,,100704.9,9.93,-0.42,0.48,0.42,2.9,6.9,-13.6,35.99,,,,,,,,,,
13.38.47.765,-63.4,15.8,0,,,100704.9,9.93,-0.43,0.79,0.72,-14.6,10.0,3.6,36.03,,,,,,,,,,
13.38.47.773,-71.3,17.8,0,,,100704.9,9.93,-0.39,0.59,0.63,-17.5,1.4,-7.4,36.14,,,,,,,,,,
13.38.47.781,-71.5,17.9,0,,,100704.9,9.93,-0.43,0.55,0.5,-12.3,0.4,9.7,35.82,,,,,,,,,,
13.38.47.789,-66.9,16.7,0,,,100704.9,9.93,-0.52,0.67,0.63,-7.2,1.9,9.1,36.07,,,,,,,,,,
13.38.47.799,-70.1,17.5,0,,,100704.9,9.93,-0.4,0.66,0.49,1.3,5.1,1.1,35.98,,,,,,,,,,
13.38.47.808,-70.7,17.7,0,,,100704.9,9.93,-0.31,0.42,0.59,-4.2,4.4,-6.9,36.17,,,,,,,,,,
13.38.47.817,-88.6,22.2,0,,,100704.9,9.93,-0.34,0.63,0.61,9.4,3.7,-4.6,36.01,,,,,,,,,,
13.38.47.827,-92.0,23.0,0,,,100704.9,9.93,-0.63,0.58,0.64,7.0,9.4,-14.4,36.2,,,,,,,,,,
13.38.47.837,-86.7,21.7,0,,,100704.9,9.93,-0.5,0.59,0.63,24.4,14.6,3.4,35.98,,,,,,,,,,
13.38.47.847,-88.0,22.0,0,,,100704.9,9.93,-0.44,0.5,0.5,-2.7,13.6,-11.8,35.89,,,,,,,,,,
13.38.47.857,-78.3,19.6,1,12.0,72.9,100704.9,9.93,-0.53,0.67,0.61,1.3,6.6,3.5,36.32,,,,,,,,,,
13.38.47.867,-98.8,24.7,0,,,100704.9,9.93,-0.46,0.63,0.64,4.2,8.0,10.4,36.41,,,,,,,,,,
13.38.47.874,-98.1,24.5,0,,,100704.9,9.93,-0.31,0.63,0.65,-3.9,5.1,13.5,36.23,,,,,,,,,,
13.38.47.883,-104.8,26.2,0,,,100704.9,9.93,-0.33,0.77,0.64,4.9,16.7,9.9,36.32,,,,,,,,,,
13.38.47.890,-107.6,26.9,0,,,100704.9,9.93,-0.49,0.63,0.65,-6.1,7.4,-1.3,35.94,,,,,,,,,,
13.38.47.900,-107.2,26.8,0,,,100704.9,9.93,-0.57,0.73,0.45,10.5,15.0,0.0,36.21,,,,,,,,,,
13.38.47.910,-104.1,26.0,0,,,100704.9,9.93,-0.51,0.51,0.49,9.6,7.9,-9.3,36.07,,,,,,,,,,
13.38.47.921,-121.6,30.4,0,,,100704.9,9.93,-0.41,0.58,0.61,5.9,11.2,4.2,36.26,,,,,,,,,,
13.38.47.932,-125.4,31.4,0,,,100704.9,9.93,-0.33,0.47,0.6,2.3,8.9,1.4,35.98,,,,,,,,,,
13.38.47.942,-126.9,31.7,0,,,100704.9,9.93,-0.34,0.63,0.59,9.2,7.1,0.4,36.25,,,,,,,,,,
13.38.47.951,-109.4,27.4,0,,,100704.9,9.93,-0.42,0.59,0.59,13.3,5.2,1.3,36.22,,,,,,,,,,
13.38.47.961,-1.3,0.3,0,,,100704.9,9.93,-0.47,0.52,0.44,2.8,4.8,-9.5,36.04,,,,,,,,,,
13.38.47.970,40.4,10.1,0,,,100704.9,9.93,-0.46,0.59,0.63,-3.1,6.1,-10.4,36.15,,,,,,,,,,
13.38.47.980,66.2,16.6,0,,,100704.9,9.93,-0.25,0.65,0.56,4.4,6.9,-2.8,36.03,,,,,,,,,,
13.38.47.991,107.6,26.9,0,,,100704.9,9.93,-0.58,0.63,0.47,-2.6,18.8,5.3,35.96,,,,,,,,,,
13.38.48.000,127.8,32.0,0,,,100704.9,9.93,-0.39,0.55,0.6,-10.9,-7.7,-12.2,36.22,,,,,,,,,,
13.38.48.011,164.7,41.2,0,,,100704.9,9.93,-0.5,0.65,0.61,2.0,6.1,5.8,36.25,70.6,,,,,,,,,
13.38.48.022,200.0,50.0,0,,,100704.9,9.93,-0.53,0.62,0.62,11.7,5.5,-4.4,36.24,,,,,,,,,,
13.38.48.031,229.8,57.4,0,,,100704.9,9.93,-0.39,0.65,0.56,-9.3,-4.0,-3.2,36.08,,,,,,,,,,
13.38.48.042,247.6,61.9,0,,,100704.9,9.93,-0.38,0.86,0.63,5.7,8.8,-1.4,36.2,,,,,,,,,,
13.38.48.053,253.9,63.5,0,,,100704.9,9.93,-0.42,0.65,0.45,6.0,0.7,8.8,36.02,,,,,,,,,,
13.38.48.063,281.5,70.4,0,,,100704.9,9.93,-0.46,0.72,0.58,8.1,5.9,-8.4,36.11,,,,,,,,,,
13.38.48.072,294.3,73.6,0,,,100704.9,9.93,-0.4,0.59,0.56,7.2,4.8,-1.1,36.21,,,,,,,,,,
13.38.48.081,293.1,73.3,0,,,100704.9,9.93,-0.52,0.57,0.58,-10.6,5.0,4.0,36.03,,,,,,,,,,
13.38.48.090,298.4,74.6,0,,,100704.9,9.93,-0.41,0.61,0.58,1.8,2.4,-4.3,36.36,,,,,,,,,,
13.38.48.100,339.5,84.9,0,,,100704.9,9.93,-0.53,0.78,0.67,-8.1,7.3,-4.0,35.97,,,,,,,,,,
13.38.48.109,345.6,86.4,0,,,100704.9,9.93,-0.49,0.46,0.56,-1.5,0.5,-6.5,36.15,,,,,,,,,,
13.38.48.119,298.8,74.7,0,,,100704.9,9.93,-0.49,0.66,0.59,2.7,-0.7,-9.4,35.86,,,,,,,,,,
13.38.48.127,304.6,76.2,0,,,100704.9,9.93,-0.5,0.71,0.69,-10.6,6.0,-2.2,36.0,,,,,,,,,,
13.38.48.136,305.4,76.4,0,,,100704.9,9.93,-0.44,0.54,0.69,3.2,10.7,-1.2,36.09,,,,,,,,,,
13.38.48.146,291.1,72.8,0,,,100704.9,9.93,-0.43,0.73,0.3,8.0,12.6,0.0,35.9,,,,,,,,,,
13.38.48.159,276.7,69.2,0,,,100704.9,9.93,-0.5,0.58,0.64,4.2,6.2,1.1,36.13,,,,,,,,,,
13.38.48.167,265.9,66.5,0,,,100704.9,9.93,-0.57,0.63,0.56,7.7,11.3,5.1,36.29,,,,,,,,,,
13.38.48.179,229.2,57.3,0,,,100704.9,9.93,-0.5,0.45,0.55,-0.5,6.8,3.1,35.99,,,,,,,,,,
13.38.48.189,168.2,42.0,0,,,100704.9,9.93,-0.45,0.72,0.44,-14.1,21.7,7.0,35.86,,,,,,,,,,
13.38.48.199,178.2,44.6,0,,,100704.9,9.93,-0.44,0.89,0.61,12.5,13.5,0.4,36.14,,,,,,,,,,
13.38.48.209,134.7,33.7,0,,,100704.9,9.93,-0.49,0.72,0.71,6.9,2.0,3.4,36.22,,,,,,,,,,
13.38.48.219,117.4,29.4,0,,,100704.9,9.93,-0.44,0.57,0.47,8.9,1.5,0.5,36.15,,,,,,,,,,
13.38.48.229,72.2,18.0,0,,,100704.9,9.93,-0.35,0.71,0.48,-3.8,2.6,-8.8,36.14,,,,,,,,,,
13.38.48.240,38.3,9.6,0,,,100704.9,9.93,-0.34,0.67,0.54,24.0,12.3,-0.8,35.88,,,,,,,,,,
13.38.48.249,9.6,2.4,0,,,100704.9,9.93,-0.55,0.6,0.56,-3.2,17.0,7.1,36.04,,,,,,,,,,
13.38.48.260,3.1,0.8,0,,,100704.9,9.93,-0.47,0.68,0.51,15.0,9.3,-3.5,36.07,,,,,,,,,,
13.38.48.269,23.8,6.0,0,,,100704.9,9.93,-0.44,0.59,0.65,8.1,17.0,-11.4,35.7,,,,,,,,,,
13.38.48.279,31.3,7.8,0,,,100704.9,9.93,-0.56,0.56,0.56,-3.7,10.0,-5.6,36.11,,,,,,,,,,
13.38.48.287,43.4,10.8,0,,,100704.9,9.93,-0.31,0.62,0.58,-3.6,11.1,1.1,36.33,,,,,,,,,,
13.38.48.297,46.2,11.6,0,,,100603.6,9.94,-0.43,0.6,0.56,7.2,11.4,-2.9,35.93,,,,,,,,,,
13.38.48.308,46.5,11.6,0,,,100603.6,9.94,-0.48,0.79,0.46,18.1,17.8,8.0,35.85,,,,,,,,,,
13.38.48.318,51.5,12.9,0,,,100603.6,9.94,-0.34,0.72,0.51,-11.0,-7.6,-0.0,36.06,,,,,,,,,,
13.38.48.327,64.1,16.0,0,,,100603.6,9.94,-0.39,0.55,0.69,7.0,3.1,1.3,35.97,,,,,,,,,,
13.38.48.335,54.1,13.5,0,,,100603.6,9.94,-0.36,0.56,0.43,3.5,17.8,-10.3,36.28,,,,,,,,,,
13.38.48.344,57.9,14.5,0,,,100603.6,9.94,-0.5,0.56,0.5,9.2,10.9,-7.8,36.03,,,,,,,,,,
13.38.48.352,65.1,16.3,0,,,100603.6,9.94,-0.37,0.7,0.54,-12.9,4.2,-2.9,36.09,,,,,,,,,,
13.38.48.361,57.0,14.2,0,,,100603.6,9.94,-0.52,0.65,0.48,2.9,9.6,-8.5,36.26,,,,,,,,,,
13.38.48.371,44.8,11.2,0,,,100603.6,9.94,-0.42,0.63,0.68,6.2,17.1,-1.1,36.1,,,,,,,,,,
13.38.48.382,33.1,8.3,0,,,100603.6,9.94,-0.38,0.64,0.74,3.2,1.0,-3.1,36.12,,,,,,,,,,
13.38.48.395,20.0,5.0,0,,,100603.6,9.94,-0.38,0.75,0.55,-3.9,6.8,8.8,36.08,,,,,,,,,,
13.38.48.404,23.3,5.8,0,,,100603.6,9.94,-0.48,0.55,0.51,10.1,6.0,-2.1,36.02,,,,,,,,,,
13.38.48.415,-0.2,0.0,0,,,100603.6,9.94,-0.58,0.6,0.47,3.7,9.0,3.3,35.87,,,,,,,,,,
13.38.48.425,-2.1,0.5,0,,,100603.6,9.94,-0.49,0.56,0.38,-16.8,5.1,0.7,36.06,,,,,,,,,,
13.38.48.435,0.9,0.2,0,,,100603.6,9.94,-0.34,0.69,0.58,21.4,8.6,-3.0,36.13,,,,,,,,,,
13.38.48.445,-7.4,1.8,0,,,100603.6,9.94,-0.5,0.7,0.68,-4.2,12.0,8.6,36.13,,,,,,,,,,
13.38.48.455,-19.1,4.8,0,,,100603.6,9.94,-0.42,0.47,0.54,-11.9,-0.4,-2.8,36.12,,,,,,,,,,
13.38.48.465,-11.0,2.8,0,,,100603.6,9.94,-0.49,0.67,0.63,-6.3,15.7,-2.8,36.25,,,,,,,,,,
13.38.48.474,-15.3,3.8,0,,,100603.6,9.94,-0.41,0.55,0.62,-8.6,5.4,-8.0,36.24,,,,,,,,,,
13.38.48.482,-26.1,6.5,0,,,100603.6,9.94,-0.42,0.71,0.58,-16.9,-4.7,-6.4,36.17,,,,,,,,,,
13.38.48.490,-19.8,5.0,0,,,100603.6,9.94,-0.43,0.69,0.61,9.7,0.9,2.1,36.07,,,,,,,,,,
13.38.48.500,-23.9,6.0,0,,,100603.6,9.94,-0.55,0.54,0.59,-2.3,7.3,-0.8,36.12,,,,,,,,,,
13.38.48.509,-26.1,6.5,0,,,100603.6,9.94,-0.55,0.63,0.61,2.4,11.6,-2.2,35.84,,,,,,,,,,
13.38.48.518,-36.4,9.1,0,,,100603.6,9.94,-0.52,0.67,0.61,-5.4,15.0,2.3,35.94,,,,,,,,,,
13.38.48.528,-35.8,9.0,0,,,100603.6,9.94,-0.47,0.73,0.57,3.5,11.2,-1.7,36.36,,,,,,,,,,
13.38.48.539,-32.2,8.0,0,,,100603.6,9.94,-0.47,0.79,0.69,-8.5,3.9,9.6,36.23,,,,,,,,,,
13.38.48.549,-37.1,9.3,0,,,100603.6,9.94,-0.56,0.69,0.53,2.7,8.6,-7.5,36.44,,,,,,,,,,
13.38.48.558,-48.7,12.2,0,,,100603.6,9.94,-0.27,0.72,0.59,-3.8,6.5,-13.9,36.15,,,,,,,,,,
13.38.48.569,-46.6,11.6,0,,,100603.6,9.94,-0.57,0.69,0.62,-0.7,9.1,-4.2,36.28,,,,,,,,,,
13.38.48.581,-59.8,15.0,0,,,100603.6,9.94,-0.41,0.75,0.57,3.7,15.2,10.9,35.87,,,,,,,,,,
13.38.48.591,-70.4,17.6,0,,,100603.6,9.94,-0.36,0.73,0.53,-3.4,3.1,-3.0,35.85,,,,,,,,,,
13.38.48.602,-59.0,14.8,0,,,100603.6,9.94,-0.49,0.51,0.59,-1.7,4.1,10.7,36.34,,,,,,,,,,
13.38.48.613,-76.7,19.2,0,,,100603.6,9.94,-0.53,0.61,0.58,3.4,15.6,-4.1,36.17,,,,,,,,,,
13.38.48.624,-66.3,16.6,0,,,100603.6,9.94,-0.5,0.7,0.58,-2.9,5.4,5.1,36.29,,,,,,,,,,
13.38.48.634,-82.1,20.5,0,,,100603.6,9.94,-0.3,0.68,0.5,4.2,0.6,1.2,36.13,,,,,,,,,,
13.38.48.644,-68.5,17.1,0,,,100603.6,9.94,-0.45,0.71,0.57,11.8,8.8,-7.1,36.07,,,,,,,,,,
13.38.48.654,-82.7,20.7,0,,,100603.6,9.94,-0.48,0.72,0.7,2.9,29.3,0.0,36.33,,,,,,,,,,
13.38.48.662,-90.6,22.6,1,13.0,74.5,100603.6,9.94,-0.47,0.87,0.58,12.1,3.3,7.6,35.9,,,,,,,,,,
13.38.48.673,-85.3,21.3,0,,,100603.6,9.94,-0.57,0.65,0.5,-3.5,11.8,-3.6,36.07,,,,,,,,,,
13.38.48.681,-88.2,22.0,0,,,100603.6,9.94,-0.35,0.76,0.59,-13.2,27.6,4.9,36.06,,,,,,,,,,
13.38.48.690,-88.1,22.0,0,,,100603.6,9.94,-0.49,0.57,0.61,-6.1,8.9,0.0,36.12,,,,,,,,,,
13.38.48.701,-93.5,23.4,0,,,100603.6,9.94,-0.48,0.63,0.68,10.6,3.8,-3.7,36.08,,,,,,,,,,
13.38.48.712,-110.9,27.7,0,,,100603.6,9.94,-0.47,0.69,0.48,7.8,20.6,-10.6,36.17,,,,,,,,,,
13.38.48.724,-104.7,26.2,0,,,100603.6,9.94,-0.51,0.68,0.57,16.8,-2.2,-5.5,36.18,,,,,,,,,,
13.38.48.733,-115.2,28.8,0,,,100603.6,9.94,-0.53,0.81,0.45,21.3,2.0,-1.7,36.32,,,,,,,,,,
13.38.48.741,-119.3,29.8,0,,,100603.6,9.94,-0.59,0.62,0.61,21.5,15.5,5.7,35.96,,,,,,,,,,
13.38.48.750,-116.3,29.1,0,,,100603.6,9.94,-0.43,0.55,0.44,2.8,15.8,-3.9,35.91,,,,,,,,,,
13.38.48.760,-106.7,26.7,0,,,100603.6,9.94,-0.48,0.52,0.61,6.3,8.5,4.4,36.05,,,,,,,,,,
13.38.48.770,-131.6,32.9,0,,,100603.6,9.94,-0.53,0.5,0.53,-8.1,16.3,-7.4,36.03,,,,,,,,,,
13.38.48.781,-118.1,29.5,0,,,100603.6,9.94,-0.37,0.49,0.5,7.5,4.3,-0.5,35.95,,,,,,,,,,
13.38.48.790,,,0,,,,,,,,,,,,,,,,,,,,,
13.38.48.800,39.8,10.0,0,,,100603.6,9.94,-0.65,0.53,0.4,-14.6,6.8,2.5,36.11,,,,,,,,,,
13.38.48.808,63.8,16.0,0,,,100603.6,9.94,-0.48,0.55,0.55,16.6,-0.8,-3.7,36.01,,,,,,,,,,
13.38.48.818,103.8,26.0,0,,,100603.6,9.94,-0.52,0.74,0.65,-12.9,1.7,7.2,35.91,,,,,,,,,,
13.38.48.828,122.2,30.6,0,,,100603.6,9.94,-0.42,0.55,0.55,-16.3,5.9,-6.4,36.47,,,,,,,,,,
13.38.48.837,160.1,40.0,0,,,100603.6,9.94,-0.47,0.45,0.76,8.6,8.6,-10.7,36.19,,,,,,,,,,
13.38.48.846,161.0,40.2,0,,,100603.6,9.94,-0.35,0.65,0.54,-3.2,3.7,-4.4,36.02,,,,,,,,,,
13.38.48.855,196.7,49.2,0,,,100603.6,9.94,-0.59,0.7,0.56,-8.1,3.4,0.9,36.19,,,,,,,,,,
13.38.48.864,240.9,60.2,0,,,100603.6,9.94,-0.49,0.53,0.65,10.0,5.4,-3.3,36.17,,,,,,,,,,
13.38.48.876,245.5,61.4,0,,,100603.6,9.94,-0.6,0.74,0.65,13.5,3.6,-6.1,35.97,,,,,,,,,,
13.38.48.886,270.3,67.6,0,,,100603.6,9.94,-0.5,0.53,0.52,-11.8,17.9,-2.6,36.08,,,,,,,,,,
13.38.48.895,304.7,76.2,0,,,100603.6,9.94,-0.54,0.78,0.53,-7.3,6.1,-2.4,36.12,,,,,,,,,,
13.38.48.902,292.6,73.2,0,,,100603.6,9.94,-0.4,0.77,0.55,-4.1,-2.7,-7.4,36.38,,,,,,,,,,
13.38.48.911,296.6,74.2,0,,,100603.6,9.94,-0.42,0.71,0.56,2.2,25.7,9.6,36.3,,,,,,,,,,
13.38.48.920,325.2,81.3,0,,,100603.6,9.94,-0.49,0.78,0.54,4.9,11.3,-12.1,36.09,,,,,,,,,,
13.38.48.929,320.5,80.1,0,,,100603.6,9.94,-0.56,0.66,0.5,5.8,11.8,3.7,36.14,,,,,,,,,,
13.38.48.940,303.6,75.9,0,,,100603.6,9.94,-0.39,0.52,0.55,-0.4,13.7,-4.7,36.39,,,,,,,,,,
13.38.48.949,306.0,76.5,0,,,100603.6,9.94,-0.44,0.71,0.57,-14.6,11.0,6.8,35.8,,,,,,,,,,
13.38.48.960,319.4,79.8,0,,,100603.6,9.94,-0.48,0.78,0.6,-7.9,6.9,3.9,36.37,,,,,,,,,,
13.38.48.970,299.4,74.8,0,,,100603.6,9.94,-0.29,0.65,0.52,-2.1,12.0,-9.4,35.99,,,,,,,,,,
13.38.48.980,278.8,69.7,0,,,100603.6,9.94,-0.31,0.64,0.51,7.7,-7.1,-11.6,36.37,,,,,,,,,,
13.38.48.990,278.1,69.5,0,,,100603.6,9.94,-0.43,0.6,0.6,3.3,10.9,-7.5,35.91,,,,,,,,,,
13.38.49.000,242.3,60.6,0,,,100603.6,9.94,-0.62,0.6,0.45,-0.7,2.1,-4.3,36.35,,,,,,,,,,
13.38.49.012,217.2,54.3,0,,,100603.6,9.94,-0.48,0.68,0.54,10.3,14.6,-5.8,36.2,,,,,,,,,,
13.38.49.019,213.1,53.3,0,,,100603.6,9.94,-0.58,0.7,0.56,15.1,-0.5,3.8,36.3,,,,,,,,,,
13.38.49.026,172.8,43.2,0,,,100603.6,9.94,-0.34,0.6,0.65,6.6,11.9,5.2,36.08,,,,,,,,,,
13.38.49.035,139.0,34.8,0,,,100603.6,9.94,-0.34,0.68,0.64,-1.0,-3.0,3.7,36.09,,,,,,,,,,
13.38.49.045,113.0,28.2,0,,,100603.6,9.94,-0.46,0.72,0.67,15.9,4.7,1.9,36.04,,,,,,,,,,
13.38.49.056,75.6,18.9,0,,,100603.6,9.94,-0.39,0.56,0.43,-2.8,18.2,0.2,36.0,,,,,,,,,,
13.38.49.066,48.0,12.0,0,,,100603.6,9.94,-0.38,0.71,0.56,7.8,3.6,3.9,35.91,,,,,,,,,,
13.38.49.075,21.6,5.4,0,,,100603.6,9.94,-0.43,0.73,0.57,-3.7,-0.1,3.2,36.08,,,,,,,,,,
13.38.49.086,6.1,1.5,0,,,100603.6,9.94,-0.4,0.58,0.68,5.5,3.2,-12.1,36.16,,,,,,,,,,
13.38.49.097,16.8,4.2,0,,,100603.6,9.94,-0.27,0.57,0.57,-14.6,2.6,-2.6,36.11,,,,,,,,,,
13.38.49.107,17.4,4.4,0,,,100603.6,9.94,-0.46,0.57,0.61,-3.2,14.6,-15.2,36.02,,,,,,,,,,
13.38.49.118,38.3,9.6,0,,,100603.6,9.94,-0.53,0.65,0.55,2.6,15.8,2.9,36.16,,,,,,,,,,
13.38.49.128,45.6,11.4,0,,,100603.6,9.94,-0.46,0.68,0.63,-6.4,13.1,2.7,36.26,,,,,,,,,,
13.38.49.137,53.9,13.5,0,,,100603.6,9.94,-0.47,0.73,0.59,-11.5,11.5,-5.2,36.21,,,,,,,,,,
13.38.49.148,53.8,13.4,0,,,100603.6,9.94,-0.4,0.53,0.77,-5.4,1.5,-0.4,35.94,,,,,,,,,,
13.38.49.158,39.0,9.8,0,,,100603.6,9.94,-0.29,0.58,0.61,-4.2,9.5,-3.3,36.14,,,,,,,,,,
13.38.49.168,56.7,14.2,0,,,100603.6,9.94,-0.43,0.58,0.51,7.4,7.9,1.1,35.99,,,,,,,,,,
13.38.49.180,44.8,11.2,0,,,100603.6,9.94,-0.33,0.76,0.56,-2.8,-0.3,-7.8,36.2,,,,,,,,,,
13.38.49.187,51.0,12.8,0,,,100603.6,9.94,-0.61,0.67,0.59,5.5,-2.0,1.2,36.07,,,,,,,,,,
13.38.49.195,44.3,11.1,0,,,100603.6,9.94,-0.38,0.69,0.5,14.2,1.1,-7.0,36.2,,,,,,,,,,
13.38.49.203,45.6,11.4,0,,,100603.6,9.94,-0.47,0.77,0.45,12.0,4.4,0.7,36.4,,,,,,,,,,
13.38.49.212,35.1,8.8,0,,,100603.6,9.94,-0.42,0.6,0.6,8.6,15.6,-8.4,36.32,,,,,,,,,,
13.38.49.221,36.3,9.1,0,,,100603.6,9.94,-0.35,0.44,0.66,10.0,15.3,-2.0,35.83,,,,,,,,,,
13.38.49.229,26.7,6.7,0,,,100603.6,9.94,-0.35,0.69,0.62,-6.4,14.5,-7.7,36.15,,,,,,,,,,
13.38.49.237,5.1,1.3,0,,,100603.6,9.94,-0.49,0.56,0.53,3.6,11.6,-4.4,36.16,,,,,,,,,,
13.38.49.246,0.8,0.2,0,,,100603.6,9.94,-0.37,0.69,0.42,-5.8,11.9,-3.4,36.1,,,,,,,,,,
13.38.49.259,-8.0,2.0,0,,,100603.6,9.94,-0.43,0.72,0.51,-9.0,-7.4,-6.1,36.1,,,,,,,,,,
13.38.49.271,-5.8,1.4,0,,,100603.6,9.94,-0.47,0.63,0.62,2.6,-7.4,0.8,36.26,,,,,,,,,,
13.38.49.280,-6.6,1.6,0,,,100603.6,9.94,-0.41,0.88,0.57,-0.1,1.7,-8.5,36.0,,,,,,,,,,
13.38.49.289,-16.0,4.0,0,,,100603.6,9.94,-0.55,0.65,0.68,-7.6,1.6,-6.8,36.08,,,,,,,,,,
13.38.49.297,-13.7,3.4,0,,,100603.6,9.94,-0.68,0.68,0.57,-7.5,3.1,1.2,36.07,,,,,,,,,,
13.38.49.304,-27.1,6.8,0,,,100603.6,9.94,-0.39,0.55,0.6,14.4,2.8,-2.8,36.52,,,,,,,,,,
13.38.49.314,-11.3,2.8,0,,,100603.6,9.94,-0.5,0.67,0.59,3.2,-5.2,3.7,36.0,,,,,,,,,,
13.38.49.322,-24.3,6.1,0,,,100603.6,9.94,-0.31,0.59,0.6,-13.5,-1.1,0.9,36.05,,,,,,,,,,
13.38.49.332,-34.9,8.7,0,,,100603.6,9.94,-0.47,0.56,0.58,7.8,0.5,17.0,36.02,,,,,,,,,,
13.38.49.340,-33.9,8.5,0,,,100603.6,9.94,-0.59,0.46,0.52,-2.8,9.5,1.4,36.08,,,,,,,,,,
13.38.49.349,-36.9,9.2,0,,,100603.6,9.94,-0.47,0.47,0.67,-15.3,13.1,-8.4,36.31,,,,,,,,,,
13.38.49.359,-30.1,7.5,0,,,100603.6,9.94,-0.38,0.64,0.56,-13.7,1.9,-0.4,36.32,,,,,,,,,,
13.38.49.369,-46.3,11.6,0,,,100603.6,9.94,-0.51,0.68,0.51,-2.0,4.1,-0.7,36.0,,,,,,,,,,
13.38.49.379,-47.7,11.9,0,,,100603.6,9.94,-0.41,0.66,0.65,-15.6,6.9,1.0,36.05,,,,,,,,,,
13.38.49.387,-45.5,11.4,0,,,100603.6,9.94,-0.5,0.68,0.52,6.3,-3.9,-0.8,36.22,,,,,,,,,,
13.38.49.398,-57.5,14.4,0,,,100603.6,9.94,-0.39,0.53,0.55,1.8,9.6,-2.9,36.07,,,,,,,,,,
13.38.49.407,-39.6,9.9,0,,,100603.6,9.94,-0.61,0.69,0.59,19.2,13.1,-4.5,36.23,,,,,,,,,,
13.38.49.417,-58.8,14.7,0,,,100603.6,9.94,-0.31,0.71,0.58,-11.9,1.5,-0.7,35.92,,,,,,,,,,
13.38.49.427,-62.6,15.6,0,,,100603.6,9.94,-0.46,0.67,0.52,10.4,5.6,-12.6,36.13,,,,,,,,,,
13.38.49.435,-75.1,18.8,0,,,100603.6,9.94,-0.51,0.6,0.54,8.6,4.6,-7.7,35.83,,,,,,,,,,
13.38.49.444,-57.2,14.3,0,,,100603.6,9.94,-0.39,0.65,0.57,0.8,10.8,0.8,35.99,,,,,,,,,,
13.38.49.454,-72.8,18.2,0,,,100603.6,9.94,-0.45,0.59,0.61,4.2,14.0,2.2,36.18,,,,,,,,,,
13.38.49.464,-77.8,19.4,0,,,100603.6,9.94,-0.48,0.58,0.75,-8.2,-7.3,2.2,36.29,,,,,,,,,,
13.38.49.474,-81.3,20.3,1,14.0,73.9,100603.6,9.94,-0.48,0.6,0.45,8.5,13.2,-3.2,36.16,,,,,,,,,,
13.38.49.486,-83.2,20.8,0,,,100603.6,9.94,-0.5,0.62,0.69,-19.2,-8.7,-7.9,35.87,,,,,,,,,,
13.38.49.497,-88.8,22.2,0,,,100603.6,9.94,-0.4,0.51,0.54,12.9,8.8,5.0,36.19,,,,,,,,,,
13.38.49.506,-93.4,23.4,0,,,100603.6,9.94,-0.38,0.54,0.46,-6.9,13.3,-2.3,36.24,,,,,,,,,,
13.38.49.517,-103.8,26.0,0,,,100603.6,9.94,-0.42,0.85,0.63,-2.7,7.0,-1.3,36.04,,,,,,,,,,
13.38.49.529,-104.8,26.2,0,,,100603.6,9.94,-0.47,0.69,0.58,9.3,2.9,1.7,36.11,,,,,,,,,,
13.38.49.541,-105.3,26.3,0,,,100603.6,9.94,-0.28,0.56,0.58,9.7,10.2,5.9,35.93,,,,,,,,,,
13.38.49.549,-115.8,29.0,0,,,100603.6,9.94,-0.51,0.58,0.5,13.4,-2.5,-1.5,36.39,,,,,,,,,,
13.38.49.558,-91.9,23.0,0,,,100603.6,9.94,-0.43,0.6,0.6,-9.3,14.8,5.5,36.03,,,,,,,,,,
13.38.49.570,-113.5,28.4,0,,,100603.6,9.94,-0.55,0.52,0.6,-2.3,6.1,7.4,36.13,,,,,,,,,,
13.38.49.578,-119.1,29.8,0,,,100603.6,9.94,-0.5,0.65,0.49,0.3,13.1,-4.3,35.94,,,,,,,,,,
13.38.49.586,-103.8,26.0,0,,,100603.6,9.94,-0.61,0.78,0.54,-17.9,2.6,0.9,36.24,,,,,,,,,,
13.38.49.595,-127.4,31.8,0,,,100603.6,9.94,-0.37,0.61,0.62,8.5,16.3,4.9,36.21,,,,,,,,,,
13.38.49.605,-128.2,32.0,0,,,100603.6,9.94,-0.6,0.73,0.6,3.8,6.9,2.9,36.12,,,,,,,,,,
13.38.49.615,-135.0,33.8,0,,,100603.6,9.94,-0.59,0.88,0.39,1.0,6.7,10.0,35.99,,,,,,,,,,
13.38.49.624,18.0,4.5,0,,,100603.6,9.94,-0.43,0.67,0.55,-15.0,4.5,-7.4,36.29,,,,,,,,,,
13.38.49.633,32.6,8.2,0,,,100603.6,9.94,-0.33,0.65,0.59,-5.8,-8.9,-2.0,36.3,,,,,,,,,,
13.38.49.642,77.7,19.4,0,,,100603.6,9.94,-0.36,0.69,0.49,10.2,8.7,-3.8,35.92,,,,,,,,,,
13.38.49.651,109.2,27.3,0,,,100603.6,9.94,-0.39,0.65,0.53,4.3,7.8,4.2,36.22,,,,,,,,,,
13.38.49.663,165.5,41.4,0,,,100603.6,9.94,-0.56,0.59,0.55,-8.2,1.2,-10.7,36.02,,,,,,,,,,
13.38.49.673,175.3,43.8,0,,,100603.6,9.94,-0.4,0.71,0.74,-2.3,-1.7,-6.3,36.0,,,,,,,,,,
13.38.49.684,217.1,54.3,0,,,100603.6,9.94,-0.49,0.6,0.39,-2.0,13.8,-0.7,35.92,,,,,,,,,,
13.38.49.693,222.3,55.6,0,,,100603.6,9.94,-0.62,0.58,0.62,-9.5,10.6,-4.4,36.26,,,,,,,,,,
13.38.49.702,247.4,61.8,0,,,100603.6,9.94,-0.47,0.58,0.7,2.6,17.3,-4.1,35.98,,,,,,,,,,
13.38.49.711,262.0,65.5,0,,,100603.6,9.94,-0.4,0.68,0.52,12.5,6.3,-6.4,36.22,,,,,,,,,,
13.38.49.717,316.4,79.1,0,,,100603.6,9.94,-0.51,0.49,0.61,-11.5,7.4,-1.9,36.16,,,,,,,,,,
13.38.49.725,276.3,69.1,0,,,100603.6,9.94,-0.37,0.56,0.73,1.6,6.6,-4.1,35.96,,,,,,,,,,
13.38.49.732,321.4,80.4,0,,,100603.6,9.94,-0.42,0.49,0.45,0.5,14.9,-5.6,36.25,,,,,,,,,,
13.38.49.739,312.1,78.0,0,,,100603.6,9.94,-0.52,0.68,0.59,-16.8,-2.2,6.2,36.04,,,,,,,,,,
13.38.49.747,328.0,82.0,0,,,100603.6,9.94,-0.48,0.69,0.51,7.1,0.4,0.3,35.94,,,,,,,,,,
13.38.49.758,327.1,81.8,0,,,100603.6,9.94,-0.55,0.42,0.46,-11.7,6.0,-8.7,36.31,,,,,,,,,,
13.38.49.768,310.4,77.6,0,,,100603.6,9.94,-0.43,0.75,0.53,2.6,3.9,-1.2,35.84,,,,,,,,,,
13.38.49.779,298.1,74.5,0,,,100603.6,9.94,-0.37,0.7,0.41,1.1,2.4,3.6,35.94,,,,,,,,,,
13.38.49.789,322.3,80.6,0,,,100603.6,9.94,-0.5,0.56,0.66,-9.3,16.7,-0.5,36.01,,,,,,,,,,
13.38.49.800,291.8,73.0,0,,,100603.6,9.94,-0.39,0.6,0.52,-14.2,3.0,-6.0,36.15,,,,,,,,,,
13.38.49.809,283.0,70.8,0,,,100603.6,9.94,-0.41,0.7,0.64,-6.3,6.4,-5.2,35.96,,,,,,,,,,
13.38.49.819,281.9,70.5,0,,,100603.6,9.94,-0.47,0.76,0.44,6.1,3.6,-8.1,36.17,,,,,,,,,,
13.38.49.830,238.9,59.7,0,,,100603.6,9.94,-0.6,0.66,0.59,9.1,-1.6,-7.6,36.28,,,,,,,,,,
13.38.49.839,227.8,57.0,0,,,100603.6,9.94,-0.66,0.61,0.35,19.8,2.8,-4.1,36.07,,,,,,,,,,
13.38.49.849,189.2,47.3,0,,,100603.6,9.94,-0.43,0.81,0.77,5.4,-0.3,3.8,36.13,,,,,,,,,,
13.38.49.859,171.7,42.9,0,,,100603.6,9.94,-0.38,0.6,0.61,-3.8,-3.0,6.5,36.22,,,,,,,,,,
13.38.49.868,116.8,29.2,0,,,100603.6,9.94,-0.42,0.75,0.58,-10.9,5.8,2.4,36.34,,,,,,,,,,
13.38.49.876,112.4,28.1,0,,,100603.6,9.94,-0.54,0.69,0.49,-18.4,-3.9,-1.0,36.04,,,,,,,,,,
13.38.49.884,89.8,22.4,0,,,100603.6,9.94,-0.43,0.49,0.52,-4.3,2.0,-5.8,36.12,,,,,,,,,,
13.38.49.894,51.8,13.0,0,,,100603.6,9.94,-0.46,0.62,0.59,-13.1,-1.8,-3.6,35.95,,,,,,,,,,
13.38.49.904,20.5,5.1,0,,,100603.6,9.94,-0.36,0.57,0.59,8.5,-0.1,-7.4,36.1,,,,,,,,,,
13.38.49.913,2.9,0.7,0,,,100603.6,9.94,-0.52,0.69,0.61,11.0,6.9,-6.1,36.09,,,,,,,,,,
13.38.49.923,19.9,5.0,0,,,100603.6,9.94,-0.61,0.5,0.62,1.3,-1.5,-3.7,36.02,,,,,,,,,,
13.38.49.933,19.7,4.9,0,,,100603.6,9.94,-0.33,0.68,0.53,3.1,10.9,12.2,36.07,,,,,,,,,,
13.38.49.943,39.3,9.8,0,,,100603.6,9.94,-0.39,0.47,0.63,-6.0,-0.0,-1.5,35.95,,,,,,,,,,
13.38.49.955,33.0,8.2,0,,,100603.6,9.94,-0.46,0.59,0.61,10.5,14.3,-5.7,36.23,,,,,,,,,,
13.38.49.966,51.6,12.9,0,,,100603.6,9.94,-0.48,0.64,0.53,1.9,-11.1,-6.2,36.16,,,,,,,,,,
13.38.49.974,50.2,12.6,0,,,100603.6,9.94,-0.59,0.63,0.46,-4.0,11.5,-2.5,36.22,,,,,,,,,,
13.38.49.986,55.0,13.8,0,,,100603.6,9.94,-0.47,0.65,0.51,3.8,5.0,-2.3,35.99,,,,,,,,,,
13.38.49.995,53.2,13.3,0,,,100603.6,9.94,-0.32,0.74,0.63,17.9,3.7,-5.4,36.08,,,,,,,,,,
13.38.50.006,62.0,15.5,0,,,100603.6,9.94,-0.48,0.66,0.66,5.3,0.5,-0.4,36.23,,,,,,,,,,
13.38.50.016,49.1,12.3,0,,,100603.6,9.94,-0.45,0.62,0.64,10.0,-0.9,-6.9,36.26,,,,,,,,,,
13.38.50.025,55.6,13.9,0,,,100603.6,9.94,-0.38,0.75,0.51,-1.7,9.0,-6.1,35.97,,,,,,,,,,
13.38.50.032,42.8,10.7,0,,,100603.6,9.94,-0.6,0.62,0.6,-4.7,4.6,4.6,36.14,,,,,,,,,,
13.38.50.041,31.8,8.0,0,,,100603.6,9.94,-0.4,0.74,0.62,4.8,13.4,-0.8,36.03,,,,,,,,,,
13.38.50.049,26.9,6.7,0,,,100603.6,9.94,-0.43,0.77,0.47,-0.5,10.1,-1.2,36.19,,,,,,,,,,
13.38.50.060,22.8,5.7,0,,,100603.6,9.94,-0.34,0.73,0.52,-6.7,-2.2,-5.2,36.13,,,,,,,,,,
13.38.50.072,0.8,0.2,0,,,100603.6,9.94,-0.49,0.55,0.62,-2.5,7.3,-6.4,36.08,,,,,,,,,,
13.38.50.081,-6.7,1.7,0,,,100603.6,9.94,-0.36,0.63,0.72,-10.5,9.1,0.3,35.86,,,,,,,,,,
13.38.50.091,-4.1,1.0,0,,,100603.6,9.94,-0.55,0.51,0.51,4.5,2.8,-18.0,35.87,,,,,,,,,,
13.38.50.100,-1.3,0.3,0,,,100603.6,9.94,-0.49,0.65,0.49,-9.3,7.6,-5.0,36.11,,,,,,,,,,
13.38.50.109,-16.9,4.2,0,,,100603.6,9.94,-0.36,0.47,0.61,-4.3,2.4,-5.4,36.02,,,,,,,,,,
13.38.50.120,-7.6,1.9,0,,,100603.6,9.94,-0.43,0.54,0.53,4.5,7.5,7.8,36.1,,,,,,,,,,
13.38.50.130,-21.5,5.4,0,,,100603.6,9.94,-0.43,0.66,0.71,3.3,11.5,-4.5,36.09,,,,,,,,,,
13.38.50.142,-20.8,5.2,0,,,100603.6,9.94,-0.44,0.55,0.48,0.9,-0.8,-6.6,36.47,,,,,,,,,,
13.38.50.151,-28.9,7.2,0,,,100603.6,9.94,-0.41,0.59,0.62,0.4,11.9,9.1,36.34,,,,,,,,,,
13.38.50.162,-37.6,9.4,0,,,100603.6,9.94,-0.34,0.59,0.52,-1.5,7.9,-1.5,35.87,,,,,,,,,,
13.38.50.172,-29.1,7.3,0,,,100603.6,9.94,-0.4,0.75,0.45,7.2,0.5,-5.4,35.9,,,,,,,,,,
13.38.50.183,-27.1,6.8,0,,,100603.6,9.94,-0.41,0.65,0.71,-12.8,6.3,2.4,36.02,,,,,,,,,,
13.38.50.192,-45.6,11.4,0,,,100603.6,9.94,-0.55,0.63,0.52,4.3,3.3,6.0,36.09,,,,,,,,,,
13.38.50.202,-44.3,11.1,0,,,100603.6,9.94,-0.54,0.68,0.57,15.8,7.1,2.4,35.98,,,,,,,,,,
13.38.50.212,-47.5,11.9,0,,,100603.6,9.94,-0.47,0.68,0.37,4.6,9.3,2.0,36.3,,,,,,,,,,
13.38.50.221,-53.6,13.4,0,,,100603.6,9.94,-0.51,0.67,0.55,12.2,11.4,-1.1,36.0,,,,,,,,,,
13.38.50.232,-49.8,12.4,0,,,100603.6,9.94,-0.48,0.58,0.57,-11.1,2.3,-2.8,35.98,,,,,,,,,,
13.38.50.242,-51.4,12.8,0,,,100603.6,9.94,-0.42,0.38,0.6,-9.4,11.6,-8.1,35.82,,,,,,,,,,
13.38.50.252,-66.5,16.6,0,,,100603.6,9.94,-0.46,0.46,0.58,1.9,5.4,3.6,36.15,,,,,,,,,,
13.38.50.264,-56.9,14.2,0,,,100603.6,9.94,-0.45,0.71,0.45,-1.5,6.9,-3.8,36.12,,,,,,,,,,
13.38.50.275,-72.3,18.1,0,,,100603.6,9.94,-0.36,0.71,0.49,4.7,15.9,-2.9,36.18,,,,,,,,,,
13.38.50.284,-60.2,15.0,1,15.0,74.1,100603.6,9.94,-0.57,0.71,0.51,6.3,-0.3,4.4,36.02,,,,,,,,,,
13.38.50.294,-77.5,19.4,0,,,100603.6,9.94,-0.37,0.66,0.54,-17.1,2.4,0.5,36.11,,,,,,,,,,
13.38.50.303,-82.8,20.7,0,,,100603.6,9.94,-0.48,0.75,0.5,-2.3,17.1,-3.3,36.18,,,,,,,,,,
13.38.50.313,-83.9,21.0,0,,,100603.6,9.94,-0.4,0.63,0.55,16.0,6.2,-2.0,35.99,,,,,,,,,,
13.38.50.322,-84.6,21.2,0,,,100603.6,9.94,-0.34,0.58,0.28,-4.2,14.5,2.1,36.15,,,,,,,,,,
13.38.50.334,-86.4,21.6,0,,,100603.6,9.94,-0.44,0.54,0.65,15.3,13.4,-13.0,36.05,,,,,,,,,,
13.38.50.344,-101.1,25.3,0,,,100603.6,9.94,-0.42,0.55,0.43,7.9,5.5,-2.1,36.23,,,,,,,,,,
13.38.50.353,-103.5,25.9,0,,,100603.6,9.94,-0.38,0.64,0.41,-1.5,-0.7,-9.8,36.32,,,,,,,,,,
13.38.50.364,-91.5,22.9,0,,,100603.6,9.94,-0.37,0.67,0.54,-0.9,14.0,-0.3,36.01,,,,,,,,,,
13.38.50.371,-101.8,25.4,0,,,100603.6,9.94,-0.26,0.72,0.49,0.1,16.2,-5.4,36.1,,,,,,,,,,
13.38.50.378,-112.9,28.2,0,,,100603.6,9.94,-0.48,0.76,0.58,4.7,9.4,-6.7,36.27,,,,,,,,,,
13.38.50.389,-111.6,27.9,0,,,100603.6,9.94,-0.44,0.69,0.6,-1.8,0.1,0.4,36.08,,,,,,,,,,
13.38.50.399,-115.4,28.8,0,,,100603.6,9.94,-0.36,0.66,0.49,7.0,-11.3,-10.2,36.02,,,,,,,,,,
13.38.50.409,-118.9,29.7,0,,,100603.6,9.94,-0.48,0.69,0.53,-16.4,14.1,-3.4,35.87,,,,,,,,,,
13.38.50.417,-109.3,27.3,0,,,100603.6,9.94,-0.46,0.66,0.52,-14.3,11.3,4.8,35.76,,,,,,,,,,
13.38.50.427,-123.5,30.9,0,,,100603.6,9.94,-0.43,0.76,0.65,8.8,-1.1,1.2,36.19,,,,,,,,,,
13.38.50.439,-133.2,33.3,0,,,100603.6,9.94,-0.46,0.69,0.66,-4.3,11.8,-8.6,36.22,,,,,,,,,,
13.38.50.450,-1.1,0.3,0,,,100603.6,9.94,-0.53,0.55,0.57,9.8,7.1,-7.2,35.92,,,,,,,,,,
13.38.50.460,43.3,10.8,0,,,100603.6,9.94,-0.43,0.67,0.53,16.3,22.3,-3.3,36.07,,,,,,,,,,
13.38.50.469,70.8,17.7,0,,,100603.6,9.94,-0.23,0.67,0.58,4.8,10.8,2.0,36.3,,,,,,,,,,
13.38.50.478,100.8,25.2,0,,,100603.6,9.94,-0.41,0.68,0.52,9.7,10.7,-6.7,36.01,,,,,,,,,,
13.38.50.485,112.0,28.0,0,,,100603.6,9.94,-0.37,0.79,0.41,-17.1,16.0,10.0,36.24,,,,,,,,,,
13.38.50.495,159.1,39.8,0,,,100603.6,9.94,-0.48,0.67,0.53,-18.4,3.5,-3.7,36.21,,,,,,,,,,
13.38.50.506,170.2,42.6,0,,,100603.6,9.94,-0.52,0.76,0.67,1.2,9.0,-2.7,36.09,,,,,,,,,,
13.38.50.514,199.4,49.8,0,,,100603.6,9.94,-0.46,0.57,0.67,-17.5,7.6,-5.1,36.16,,,,,,,,,,
13.38.50.523,242.4,60.6,0,,,100603.6,9.94,-0.54,0.67,0.63,-8.8,3.3,-9.4,36.29,,,,,,,,,,
13.38.50.531,250.5,62.6,0,,,100603.6,9.94,-0.36,0.72,0.56,6.9,5.4,13.6,36.19,,,,,,,,,,
13.38.50.540,266.1,66.5,0,,,100603.6,9.94,-0.32,0.6,0.5,-4.8,9.7,3.0,35.86,,,,,,,,,,
13.38.50.550,279.8,70.0,0,,,100603.6,9.94,-0.14,0.76,0.79,-10.9,-0.9,3.0,36.17,,,,,,,,,,
13.38.50.557,285.8,71.4,0,,,100603.6,9.94,-0.55,0.52,0.57,8.6,10.0,-3.8,35.93,,,,,,,,,,
13.38.50.567,295.3,73.8,0,,,100603.6,9.94,-0.43,0.55,0.44,-15.2,21.8,4.7,35.91,,,,,,,,,,
13.38.50.578,329.4,82.4,0,,,100603.6,9.94,-0.36,0.69,0.37,-13.1,-3.6,-2.9,36.11,,,,,,,,,,
13.38.50.587,296.5,74.1,0,,,100603.6,9.94,-0.56,0.62,0.52,6.2,0.5,-8.1,36.19,,,,,,,,,,
13.38.50.594,319.3,79.8,0,,,100603.6,9.94,-0.45,0.57,0.65,-0.8,13.9,9.9,36.22,,,,,,,,,,
13.38.50.602,334.4,83.6,0,,,100603.6,9.94,-0.6,0.9,0.51,4.3,6.8,3.3,36.19,,,,,,,,,,
13.38.50.613,342.3,85.6,0,,,100603.6,9.94,-0.57,0.49,0.54,-16.4,7.2,-1.3,36.25,,,,,,,,,,
13.38.50.619,287.3,71.8,0,,,100603.6,9.94,-0.52,0.68,0.64,-8.2,4.4,-1.2,36.23,,,,,,,,,,
13.38.50.628,282.0,70.5,0,,,100603.6,9.94,-0.45,0.51,0.68,-9.0,-2.7,2.3,36.13,,,,,,,,,,
13.38.50.636,280.4,70.1,0,,,100603.6,9.94,-0.35,0.59,0.53,11.0,-3.4,-6.5,36.02,,,,,,,,,,
13.38.50.647,254.2,63.6,0,,,100603.6,9.94,-0.33,0.63,0.61,-1.8,-5.7,-6.1,35.95,,,,,,,,,,
13.38.50.656,270.3,67.6,0,,,100603.6,9.94,-0.57,0.58,0.49,13.2,-4.6,-3.5,36.02,,,,,,,,,,
13.38.50.666,240.4,60.1,0,,,100603.6,9.94,-0.45,0.72,0.59,-11.1,0.5,-0.4,35.78,,,,,,,,,,
13.38.50.676,199.3,49.8,0,,,100603.6,9.94,-0.51,0.53,0.77,-10.4,11.7,-4.1,35.95,,,,,,,,,,
13.38.50.688,166.0,41.5,0,,,100603.6,9.94,-0.5,0.65,0.56,-8.4,-12.9,-6.4,36.08,,,,,,,,,,
13.38.50.697,158.8,39.7,0,,,100603.6,9.94,-0.33,0.61,0.59,6.4,-3.9,-6.8,36.38,,,,,,,,,,
13.38.50.707,115.4,28.8,0,,,100603.6,9.94,-0.4,0.46,0.66,-9.3,1.6,0.7,36.44,,,,,,,,,,
13.38.50.715,80.3,20.1,0,,,100603.6,9.94,-0.32,0.69,0.59,-7.6,-3.9,-2.4,36.41,,,,,,,,,,
13.38.50.726,44.8,11.2,0,,,100603.6,9.94,-0.35,0.54,0.5,4.0,16.5,1.7,36.39,,,,,,,,,,
13.38.50.735,14.9,3.7,0,,,100704.9,9.93,-0.47,0.66,0.44,13.3,3.1,5.5,35.96,,,,,,,,,,
13.38.50.744,7.1,1.8,0,,,100704.9,9.93,-0.47,0.51,0.59,-4.8,6.2,11.7,35.97,,,,,,,,,,
13.38.50.754,18.9,4.7,0,,,100704.9,9.93,-0.25,0.68,0.49,10.7,5.6,1.7,35.97,,,,,,,,,,
13.38.50.762,21.4,5.4,0,,,100704.9,9.93,-0.36,0.75,0.59,2.6,17.6,1.0,36.09,,,,,,,,,,
13.38.50.772,31.1,7.8,0,,,100704.9,9.93,-0.51,0.52,0.63,-14.7,-3.1,7.9,35.99,,,,,,,,,,
13.38.50.783,37.0,9.2,0,,,100704.9,9.93,-0.37,0.66,0.59,-4.4,20.1,0.9,36.24,,,,,,,,,,
13.38.50.793,55.1,13.8,0,,,100704.9,9.93,-0.45,0.51,0.59,12.7,-6.1,1.2,35.95,,,,,,,,,,
13.38.50.801,44.6,11.2,0,,,100704.9,9.93,-0.29,0.7,0.38,3.8,8.6,-4.7,36.11,,,,,,,,,,
13.38.50.811,66.5,16.6,0,,,100704.9,9.93,-0.48,0.54,0.68,-8.4,-1.3,-5.8,36.17,,,,,,,,,,
13.38.50.822,52.7,13.2,0,,,100704.9,9.93,-0.45,0.64,0.59,-24.5,-12.0,5.2,35.87,,,,,,,,,,
13.38.50.829,56.0,14.0,0,,,100704.9,9.93,-0.32,0.62,0.52,-6.6,0.6,-12.1,35.61,,,,,,,,,,
13.38.50.837,59.7,14.9,0,,,100704.9,9.93,-0.48,0.65,0.56,7.1,2.1,-0.1,36.15,,,,,,,,,,
13.38.50.848,40.6,10.2,0,,,100704.9,9.93,-0.58,0.73,0.7,-13.8,5.0,2.2,36.14,,,,,,,,,,
13.38.50.858,44.4,11.1,0,,,100704.9,9.93,-0.23,0.54,0.5,-1.7,6.9,3.4,36.12,,,,,,,,,,
13.38.50.868,43.4,10.8,0,,,100704.9,9.93,-0.26,0.65,0.57,-14.6,14.5,-1.7,36.3,,,,,,,,,,
13.38.50.880,19.7,4.9,0,,,100704.9,9.93,-0.48,0.67,0.52,6.4,0.7,5.7,35.79,,,,,,,,,,
13.38.50.890,14.9,3.7,0,,,100704.9,9.93,-0.41,0.61,0.44,5.0,12.6,-3.6,35.86,,,,,,,,,,
13.38.50.901,9.9,2.5,0,,,100704.9,9.93,-0.31,0.45,0.62,-2.5,9.9,3.1,36.1,,,,,,,,,,
13.38.50.914,-2.7,0.7,0,,,100704.9,9.93,-0.41,0.59,0.71,-9.4,6.2,-4.8,36.0,,,,,,,,,,
13.38.50.923,7.9,2.0,0,,,100704.9,9.93,-0.56,0.69,0.7,0.3,-7.5,-0.9,36.23,,,,,,,,,,
13.38.50.932,-3.2,0.8,0,,,100704.9,9.93,-0.54,0.73,0.62,-9.3,4.2,-0.1,36.34,,,,,,,,,,
13.38.50.942,-15.4,3.8,0,,,100704.9,9.93,-0.34,0.62,0.57,-6.4,8.0,6.2,35.98,,,,,,,,,,
13.38.50.952,-9.9,2.5,0,,,100704.9,9.93,-0.5,0.57,0.6,13.0,13.5,15.4,36.1,,,,,,,,,,
13.38.50.961,-28.6,7.2,0,,,100704.9,9.93,-0.43,0.7,0.61,7.3,13.9,4.1,36.04,,,,,,,,,,
13.38.50.969,-17.2,4.3,0,,,100704.9,9.93,-0.45,0.59,0.64,15.4,-6.1,11.9,35.99,,,,,,,,,,
13.38.50.982,-22.6,5.6,0,,,100704.9,9.93,-0.44,0.55,0.8,9.6,11.0,6.9,36.11,,,,,,,,,,
13.38.50.992,-27.2,6.8,0,,,100704.9,9.93,-0.28,0.58,0.69,6.7,12.8,6.7,36.27,,,,,,,,,,
13.38.51.001,-32.2,8.0,0,,,100704.9,9.93,-0.42,0.64,0.43,5.6,11.7,-1.0,35.79,,,,,,,,,,
13.38.51.012,-37.5,9.4,0,,,100704.9,9.93,-0.44,0.57,0.59,2.2,-1.0,-9.7,36.27,,,,,,,,,,
13.38.51.022,-35.4,8.8,0,,,100704.9,9.93,-0.44,0.64,0.6,-11.5,6.5,-5.6,35.83,,,,,,,,,,
13.38.51.031,-44.8,11.2,0,,,100704.9,9.93,-0.45,0.65,0.61,12.9,13.2,1.2,36.21,,,,,,,,,,
13.38.51.041,-54.4,13.6,0,,,100704.9,9.93,-0.39,0.72,0.46,0.7,-5.0,-3.2,36.15,,,,,,,,,,
13.38.51.049,-44.3,11.1,0,,,100704.9,9.93,-0.62,0.49,0.66,0.4,1.9,-12.6,35.88,,,,,,,,,,
13.38.51.059,-58.2,14.6,0,,,100704.9,9.93,-0.42,0.64,0.44,9.9,6.2,-2.1,36.1,,,,,,,,,,
13.38.51.071,-64.5,16.1,0,,,100704.9,9.93,-0.48,0.69,0.6,-18.5,8.9,11.1,36.05,,,,,,,,,,
13.38.51.081,-61.5,15.4,0,,,100704.9,9.93,-0.38,0.56,0.75,10.8,-0.3,-9.1,35.9,,,,,,,,,,
13.38.51.090,-64.1,16.0,0,,,100704.9,9.93,-0.42,0.62,0.47,-3.6,-0.4,-1.9,36.1,,,,,,,,,,
13.38.51.099,-67.7,16.9,0,,,100704.9,9.93,-0.49,0.83,0.56,-0.2,11.8,-5.5,36.06,,,,,,,,,,
13.38.51.108,-75.9,19.0,1,16.0,72.8,100704.9,9.93,-0.48,0.55,0.54,11.3,8.6,3.7,35.84,,,,,,,,,,
13.38.51.117,-77.7,19.4,0,,,100704.9,9.93,-0.44,0.64,0.56,18.4,8.6,-1.6,35.9,,,,,,,,,,
13.38.51.126,-67.8,17.0,0,,,100704.9,9.93,-0.49,0.77,0.67,11.9,21.8,-0.6,35.95,,,,,,,,,,
13.38.51.137,-80.1,20.0,0,,,100603.6,9.94,-0.41,0.52,0.59,-4.1,16.3,-1.8,36.04,,,,,,,,,,
13.38.51.145,-84.1,21.0,0,,,100603.6,9.94,-0.43,0.81,0.62,-7.8,11.2,3.1,36.07,,,,,,,,,,
13.38.51.156,-86.9,21.7,0,,,100603.6,9.94,-0.41,0.56,0.55,-2.6,-0.7,2.3,35.88,,,,,,,,,,
13.38.51.165,-92.6,23.2,0,,,100603.6,9.94,-0.54,0.44,0.54,3.2,7.4,-6.4,36.02,,,,,,,,,,
13.38.51.175,-93.5,23.4,0,,,100603.6,9.94,-0.38,0.62,0.66,0.9,-6.0,-0.3,36.02,,,,,,,,,,
13.38.51.183,-92.2,23.0,0,,,100603.6,9.94,-0.56,0.63,0.68,1.2,8.3,-2.9,36.23,,,,,,,,,,
13.38.51.194,-85.9,21.5,0,,,100603.6,9.94,-0.35,0.61,0.53,-0.7,4.3,-4.2,36.11,,,,,,,,,,
13.38.51.205,-113.8,28.4,0,,,100603.6,9.94,-0.48,0.6,0.52,-0.4,19.2,-4.6,36.16,,,,,,,,,,
13.38.51.216,-100.9,25.2,0,,,100603.6,9.94,-0.39,0.62,0.57,10.3,-2.5,-2.6,35.95,,,,,,,,,,
13.38.51.224,-106.8,26.7,0,,,100603.6,9.94,-0.47,0.66,0.44,12.2,-2.1,2.4,35.83,,,,,,,,,,
13.38.51.235,-102.3,25.6,0,,,100603.6,9.94,-0.41,0.71,0.59,9.2,4.6,4.1,36.03,,,,,,,,,,
13.38.51.245,-126.2,31.6,0,,,100603.6,9.94,-0.4,0.78,0.78,15.2,11.8,1.4,36.14,,,,,,,,,,
13.38.51.253,-129.3,32.3,0,,,100603.6,9.94,-0.46,0.35,0.48,-0.3,8.6,7.9,36.22,,,,,,,,,,
13.38.51.263,-109.7,27.4,0,,,100603.6,9.94,-0.24,0.66,0.57,2.7,9.5,2.6,36.13,,,,,,,,,,
13.38.51.273,-132.6,33.2,0,,,100603.6,9.94,-0.5,0.68,0.47,0.2,3.3,-0.8,36.11,,,,,,,,,,
