timestamp,ppg,threshold,beat,beat_count,inst_bpm,gsr_resistance_ohm,gsr_conductance_us,accel_x,accel_y,accel_z,gyro_x,gyro_y,gyro_z,temp_c,window_bpm,window_temp_c,status_message,SpO2,bmi,age,height,weight,env_temp_c,env_humidity_pct
15.08.00.000,0.0,0.0,0,,,22691.2,44.07,-0.78,1.24,0.77,24.7,19.8,-6.5,36.05,115.0,,,,21.9,24.0,162.56,58.0,29.23,32.0
15.08.00.008,85.2,21.3,0,,,22691.2,44.07,-0.32,0.94,0.38,-7.4,12.9,-6.6,36.01,,,,,,,,,,
15.08.00.015,117.5,29.4,0,,,22691.2,44.07,0.06,1.32,0.13,-8.6,-5.8,-10.0,35.94,,,,,,,,,,
15.08.00.025,191.3,47.8,0,,,22691.2,44.07,-0.04,0.82,0.06,2.8,4.3,-3.5,35.56,,,,,,,,,,
15.08.00.034,273.6,68.4,0,,,22691.2,44.07,-0.04,0.43,0.69,-12.1,4.8,-4.6,35.86,,,,,,,,,,
15.08.00.043,326.5,81.6,0,,,22691.2,44.07,-0.2,1.51,1.06,-9.4,9.3,24.7,35.8,,,,,,,,,,
15.08.00.053,484.7,121.2,0,,,22691.2,44.07,0.1,1.03,0.98,-31.6,3.6,-7.1,35.76,,,,,,,,,,
15.08.00.062,368.5,92.1,0,,,22691.2,44.07,-0.01,0.83,0.31,-5.5,11.0,-9.5,35.8,,,,,,,,,,
15.08.00.071,494.4,123.6,0,,,22691.2,44.07,0.06,0.66,0.8,-26.8,-2.6,4.4,36.17,,,,,,,,,,
15.08.00.082,458.0,114.5,0,,,22691.2,44.07,-0.18,0.61,1.1,-29.3,9.8,-2.5,35.5,,,,,,,,,,
15.08.00.092,464.2,116.0,0,,,22691.2,44.07,-0.19,0.81,0.68,10.8,4.7,-5.5,35.81,,,,,,,,,,
15.08.00.100,434.1,108.5,0,,,22691.2,44.07,-0.03,0.8,1.32,12.3,-9.2,-18.1,36.2,,,,,,,,,,
15.08.00.110,518.6,129.6,0,,,22696.3,44.06,0.08,0.73,1.11,4.1,-7.1,9.5,35.43,,,,,,,,,,
15.08.00.120,465.5,116.4,0,,,22696.3,44.06,-0.51,0.73,0.27,-30.2,-0.1,9.1,36.0,,,,,,,,,,
15.08.00.128,417.4,104.4,0,,,22696.3,44.06,-0.2,0.45,0.44,29.9,-3.1,8.6,35.57,,,,,,,,,,
15.08.00.138,383.6,95.9,0,,,22696.3,44.06,0.04,0.08,0.33,-5.6,14.0,-8.5,35.88,,,,,,,,,,
15.08.00.147,310.6,77.6,0,,,22696.3,44.06,-0.12,0.52,0.43,0.4,-25.6,12.4,35.84,,,,,,,,,,
15.08.00.156,302.2,75.6,0,,,22696.3,44.06,-0.73,0.27,-0.1,7.5,15.4,-11.2,35.93,,,,,,,,,,
15.08.00.166,152.1,38.0,0,,,22696.3,44.06,-0.62,0.07,-0.1,-14.6,-2.9,-4.7,35.76,,,,,,,,,,
15.08.00.176,115.4,28.8,0,,,22696.3,44.06,-0.34,-0.01,0.11,-25.9,-6.2,6.6,35.74,,,,,,,,,,
15.08.00.186,14.4,3.6,0,,,22696.3,44.06,-0.49,0.05,-0.31,19.5,-6.2,5.8,35.59,,,,,,,,,,
15.08.00.196,-3.2,0.8,0,,,22696.3,44.06,-0.6,0.21,-1.03,3.8,-5.5,-1.1,35.88,,,,,,,,,,
15.08.00.205,90.1,22.5,0,,,22696.3,44.06,-0.86,0.26,0.31,-9.3,0.3,18.6,36.08,,,,,,,,,,
15.08.00.213,19.0,4.8,0,,,22696.3,44.06,-0.3,0.89,-0.22,-13.9,-10.5,4.2,35.82,,,,,,,,,,
15.08.00.221,63.5,15.9,0,,,22696.3,44.06,-0.56,1.07,0.95,-9.2,14.7,-10.5,35.24,,,,,,,,,,
15.08.00.232,94.2,23.6,0,,,22696.3,44.06,-0.56,0.55,0.43,20.9,13.0,-14.0,35.65,,,,,,,,,,
15.08.00.242,93.6,23.4,0,,,22701.5,44.05,-0.69,0.52,-0.1,-2.6,-1.5,-16.5,35.87,,,,,,,,,,
15.08.00.252,45.3,11.3,0,,,22701.5,44.05,-0.13,0.43,-0.42,-8.5,23.6,2.5,36.36,,,,,,,,,,
15.08.00.261,86.0,21.5,0,,,22701.5,44.05,-0.4,0.06,-0.43,28.6,5.4,-2.5,35.48,,,,,,,,,,
15.08.00.270,98.7,24.7,0,,,22701.5,44.05,-0.31,0.61,-0.52,16.2,19.2,-8.9,36.02,,,,,,,,,,
15.08.00.278,63.1,15.8,0,,,22701.5,44.05,-0.36,0.57,-0.4,-31.9,12.2,3.0,35.72,,,,,,,,,,
15.08.00.288,11.2,2.8,0,,,22701.5,44.05,-0.67,0.81,0.13,9.2,8.9,6.5,36.14,,,,,,,,,,
15.08.00.296,3.5,0.9,0,,,22701.5,44.05,-0.47,0.03,0.2,-29.0,23.2,-10.3,36.06,,,,,,,,,,
15.08.00.306,62.1,15.5,0,,,22701.5,44.05,-0.43,0.49,1.33,-17.1,5.8,2.4,35.92,,,,,,,,,,
15.08.00.316,-54.4,13.6,0,,,22701.5,44.05,-0.36,0.32,1.15,-28.6,18.5,13.0,35.76,,,,,,,,,,
15.08.00.326,-13.4,3.4,0,,,22701.5,44.05,-0.56,0.33,-0.14,-10.0,14.4,10.1,36.02,,,,,,,,,,
15.08.00.337,-11.4,2.8,0,,,22701.5,44.05,-0.35,1.23,0.26,-6.3,1.7,7.4,35.51,,,,,,,,,,
15.08.00.349,-62.9,15.7,0,,,22701.5,44.05,0.11,1.69,0.44,33.2,18.7,3.7,35.49,,,,,,,,,,
15.08.00.359,-31.7,7.9,0,,,22701.5,44.05,0.07,0.99,0.28,17.6,-22.9,4.5,35.97,,,,,,,,,,
15.08.00.370,-54.7,13.7,0,,,22706.6,44.04,-0.08,1.23,1.7,2.9,10.1,7.6,35.71,,,,,,,,,,
15.08.00.381,-31.7,7.9,0,,,22706.6,44.04,-0.5,0.88,1.1,-32.3,21.5,-5.0,35.65,,,,,,,,,,
15.08.00.389,-45.2,11.3,0,,,22706.6,44.04,0.43,1.17,0.28,-15.4,-2.9,-14.4,35.98,,,,,,,,,,
15.08.00.401,-57.5,14.4,0,,,22706.6,44.04,-0.03,0.7,0.68,23.8,10.1,2.5,35.83,,,,,,,,,,
15.08.00.411,-64.1,16.0,0,,,22706.6,44.04,0.12,0.92,0.71,3.8,-5.8,5.4,35.63,,,,,,,,,,
15.08.00.419,-100.4,25.1,0,,,22706.6,44.04,-0.62,0.94,0.72,-13.2,15.0,-7.5,35.5,,,,,,,,,,
15.08.00.428,-131.6,32.9,0,,,22706.6,44.04,-0.09,0.62,0.06,-24.5,2.6,-2.0,35.37,,,,,,,,,,
15.08.00.437,-179.6,44.9,0,,,22706.6,44.04,-0.02,0.89,0.92,7.6,13.3,-14.0,35.76,,,,,,,,,,
15.08.00.447,-135.8,34.0,0,,,22706.6,44.04,-0.39,-0.08,1.37,6.0,10.0,-17.3,35.86,,,,,,,,,,
15.08.00.456,-127.1,31.8,0,,,22706.6,44.04,-0.03,-0.08,-0.17,28.6,3.0,-17.4,35.72,,,,,,,,,,
15.08.00.465,-151.5,37.9,0,,,22706.6,44.04,0.07,0.41,1.02,-36.2,28.0,-7.0,35.81,,,,,,,,,,
15.08.00.473,-92.0,23.0,0,,,22706.6,44.04,-0.11,0.28,1.25,5.5,33.9,10.1,35.9,,,,,,,,,,
15.08.00.485,-149.7,37.4,0,,,22706.6,44.04,-0.55,0.23,-0.33,7.5,6.6,-2.0,35.4,,,,,,,,,,
15.08.00.493,-135.1,33.8,0,,,22711.8,44.03,-0.22,-0.43,0.59,-18.5,10.8,-11.0,35.96,,,,,,,,,,
15.08.00.502,-155.2,38.8,0,,,22711.8,44.03,-0.47,0.22,1.42,12.4,10.5,17.3,35.63,,,,,,,,,,
15.08.00.510,-158.6,39.6,0,,,22711.8,44.03,0.08,0.28,0.96,9.0,-1.5,9.9,35.42,,,,,,,,,,
15.08.00.518,-184.8,46.2,0,,,22711.8,44.03,-0.94,0.31,0.54,-14.8,3.1,-8.6,35.85,,,,,,,,,,
15.08.00.528,-153.0,38.2,0,,,22711.8,44.03,-0.27,0.24,-0.13,28.3,8.7,-6.1,35.55,,,,,,,,,,
15.08.00.538,-1.1,0.3,1,1.0,,22711.8,44.03,-0.48,0.33,0.21,-10.2,10.3,-8.2,35.59,,,,,,,,,,
15.08.00.549,140.1,35.0,0,,,22711.8,44.03,-0.59,-0.15,0.04,-13.8,-0.6,-1.2,35.69,,,,,,,,,,
15.08.00.561,240.5,60.1,0,,,22711.8,44.03,-0.7,-0.46,0.09,8.0,9.5,7.9,35.96,,,,,,,,,,
15.08.00.571,266.4,66.6,0,,,22711.8,44.03,-0.63,0.68,-0.63,6.1,10.4,-2.5,35.69,,,,,,,,,,
15.08.00.582,337.5,84.4,0,,,22711.8,44.03,-0.52,0.75,-0.43,-37.0,14.4,-2.8,35.73,,,,,,,,,,
15.08.00.590,332.6,83.2,0,,,22711.8,44.03,-0.45,1.02,-0.68,-11.6,-11.0,5.1,35.72,,,,,,,,,,
15.08.00.600,452.4,113.1,0,,,22711.8,44.03,-0.78,0.52,-0.38,34.4,6.3,-12.1,35.94,,,,,,,,,,
15.08.00.608,419.9,105.0,0,,,22711.8,44.03,-0.62,0.34,-0.43,31.7,-6.5,11.2,35.55,,,,,,,,,,
15.08.00.618,498.2,124.6,0,,,22716.9,44.02,-0.39,0.98,0.64,-18.2,2.4,11.8,35.85,,,,,,,,,,
15.08.00.628,447.4,111.8,0,,,22716.9,44.02,-0.07,1.04,0.35,-24.7,10.1,-13.1,36.05,,,,,,,,,,
15.08.00.638,499.2,124.8,0,,,22716.9,44.02,-0.54,1.19,-0.44,-17.3,9.0,-15.4,35.46,,,,,,,,,,
15.08.00.647,459.5,114.9,0,,,22716.9,44.02,-0.43,1.2,0.26,12.9,-1.6,-6.8,35.28,,,,,,,,,,
15.08.00.656,429.2,107.3,0,,,22716.9,44.02,-0.41,0.98,-0.1,0.7,8.8,9.2,35.65,,,,,,,,,,
15.08.00.665,420.9,105.2,0,,,22716.9,44.02,-0.4,0.47,-0.3,38.4,-0.8,16.6,35.66,,,,,,,,,,
15.08.00.675,393.0,98.2,0,,,22716.9,44.02,-0.6,0.68,-0.25,26.9,-2.1,-7.9,35.82,,,,,,,,,,
15.08.00.683,254.8,63.7,0,,,22716.9,44.02,-0.54,0.91,-0.69,0.1,21.2,2.6,35.71,,,,,,,,,,
15.08.00.693,248.6,62.2,0,,,22716.9,44.02,-0.09,0.79,-0.3,-13.7,-2.5,2.2,35.99,,,,,,,,,,
15.08.00.703,140.7,35.2,0,,,22716.9,44.02,-0.36,1.43,0.87,14.5,-6.3,15.5,35.59,,,,,,,,,,
15.08.00.712,104.4,26.1,0,,,22716.9,44.02,-0.27,1.1,0.2,-32.9,9.9,-16.9,35.51,,,,,,,,,,
15.08.00.721,34.9,8.7,0,,,22716.9,44.02,-0.41,0.82,1.03,-14.9,10.6,5.8,35.57,,,,,,,,,,
15.08.00.731,27.4,6.8,0,,,22716.9,44.02,0.54,0.96,0.34,9.4,18.3,1.5,36.05,,,,,,,,,,
15.08.00.740,29.5,7.4,0,,,22716.9,44.02,-0.28,0.83,1.0,8.4,16.4,6.5,36.05,,,,,,,,,,
15.08.00.751,97.9,24.5,0,,,22722.1,44.01,0.11,0.35,0.5,-10.1,30.4,20.1,35.65,,,,,,,,,,
15.08.00.761,110.4,27.6,0,,,22722.1,44.01,0.34,0.32,0.23,13.7,-13.6,-5.9,36.01,,,,,,,,,,
15.08.00.771,66.2,16.6,0,,,22722.1,44.01,-0.29,0.31,1.09,-22.7,1.3,2.7,36.02,,,,,,,,,,
15.08.00.780,68.8,17.2,0,,,22722.1,44.01,-0.04,0.31,1.34,-21.4,-6.9,7.0,35.91,,,,,,,,,,
15.08.00.790,59.7,14.9,0,,,22722.1,44.01,-0.05,0.6,-1.0,-12.5,14.2,0.8,35.79,,,,,,,,,,
15.08.00.802,36.2,9.0,0,,,22722.1,44.01,0.25,0.26,1.27,2.1,7.0,0.6,36.2,,,,,,,,,,
15.08.00.813,43.5,10.9,0,,,22722.1,44.01,-0.18,0.29,1.95,15.0,-2.0,1.6,35.78,,,,,,,,,,
15.08.00.821,59.4,14.8,0,,,22722.1,44.01,-0.4,0.42,0.67,35.0,7.4,7.7,35.62,,,,,,,,,,
15.08.00.832,-7.1,1.8,0,,,22722.1,44.01,-0.4,0.5,1.19,-12.8,17.2,4.6,35.47,,,,,,,,,,
15.08.00.841,19.9,5.0,0,,,22722.1,44.01,-0.44,0.33,0.75,9.2,13.6,-18.8,35.7,,,,,,,,,,
15.08.00.851,-22.9,5.7,0,,,22722.1,44.01,-0.36,0.0,0.7,-23.2,-17.0,5.0,35.79,,,,,,,,,,
15.08.00.861,-10.6,2.6,0,,,22722.1,44.01,0.02,-0.13,-0.93,10.1,12.2,-12.7,35.76,,,,,,,,,,
15.08.00.870,-53.2,13.3,0,,,22727.3,44.0,-0.5,-0.4,-0.34,-34.7,6.0,16.6,35.7,,,,,,,,,,
15.08.00.880,-75.7,18.9,0,,,22727.3,44.0,-0.91,0.24,0.45,19.2,-7.8,-4.8,36.09,,,,,,,,,,
15.08.00.889,-6.3,1.6,0,,,22727.3,44.0,-0.49,0.2,-0.76,17.5,27.0,-4.2,35.67,,,,,,,,,,
15.08.00.900,-133.6,33.4,0,,,22727.3,44.0,-0.74,0.19,0.9,6.8,17.1,5.0,35.74,,,,,,,,,,
15.08.00.909,-61.9,15.5,0,,,22727.3,44.0,-0.65,-0.52,0.47,-27.7,13.5,-1.4,36.13,,,,,,,,,,
15.08.00.918,-113.2,28.3,1,2.0,157.9,22727.3,44.0,-1.07,0.63,0.04,-8.1,31.0,3.6,35.96,,,,,,,,,,
15.08.00.926,-136.3,34.1,0,,,22727.3,44.0,-0.56,0.92,0.74,-1.1,-12.5,-2.4,35.82,,,,,,,,,,
15.08.00.938,-109.4,27.4,0,,,22727.3,44.0,-0.5,0.29,-0.36,-2.9,-10.6,-13.3,35.59,,,,,,,,,,
15.08.00.948,-75.4,18.8,0,,,22727.3,44.0,-0.95,0.67,-0.55,25.1,-13.9,3.8,36.03,,,,,,,,,,
15.08.00.959,-147.3,36.8,0,,,22727.3,44.0,-0.13,0.03,-1.16,-30.2,10.8,0.1,35.75,,,,,,,,,,
15.08.00.968,-116.8,29.2,0,,,22727.3,44.0,-0.9,0.92,-0.08,-21.4,24.0,-9.5,35.7,,,,,,,,,,
15.08.00.977,-124.9,31.2,0,,,22727.3,44.0,-0.39,1.11,0.82,-13.0,9.3,1.3,35.73,,,,,,,,,,
15.08.00.984,-103.2,25.8,0,,,22727.3,44.0,-0.74,0.24,0.22,-41.6,12.6,-2.7,35.94,,,,,,,,,,
15.08.00.992,-143.7,35.9,0,,,22727.3,44.0,-0.61,0.95,0.54,7.2,-5.2,1.3,35.51,,,,,,,,,,
15.08.01.001,-147.4,36.8,0,,,22732.4,43.99,-0.55,1.5,-0.18,-17.9,16.1,32.7,35.7,,,,,,,,,,
15.08.01.010,-164.4,41.1,0,,,22732.4,43.99,-0.27,1.47,0.2,-8.6,36.9,-26.9,35.92,,,,,,,,,,
15.08.01.021,-130.3,32.6,0,,,22732.4,43.99,-0.45,1.16,0.32,-13.2,-2.3,-0.2,35.43,,,,,,,,,,
15.08.01.031,-150.3,37.6,0,,,22732.4,43.99,-0.11,0.82,0.47,-15.1,9.2,5.2,35.96,,,,,,,,,,
15.08.01.040,-101.4,25.4,0,,,22732.4,43.99,-0.25,1.16,0.27,13.9,-13.1,21.3,35.97,,,,,,,,,,
15.08.01.050,-166.4,41.6,0,,,22732.4,43.99,-0.54,0.69,0.72,42.0,17.3,10.0,35.7,,,,,,,,,,
15.08.01.061,-208.9,52.2,0,,,22732.4,43.99,-0.14,0.68,0.71,12.7,8.7,-18.3,35.74,,,,,,,,,,
15.08.01.070,38.3,9.6,0,,,22732.4,43.99,0.28,0.99,0.3,10.3,4.3,10.4,35.51,,,,,,,,,,
15.08.01.079,121.7,30.4,0,,,22732.4,43.99,-0.26,0.86,0.06,-1.0,-2.8,22.1,35.6,,,,,,,,,,
15.08.01.089,152.7,38.2,0,,,22732.4,43.99,0.09,0.93,1.1,7.4,24.4,-7.4,35.88,,,,,,,,,,
15.08.01.099,204.3,51.1,0,,,22732.4,43.99,-0.5,0.5,0.93,-39.7,2.9,9.0,35.7,,,,,,,,,,
15.08.01.107,324.3,81.1,0,,,22732.4,43.99,-0.16,0.81,-0.0,-12.7,24.5,9.8,36.15,,,,,,,,,,
15.08.01.118,377.8,94.4,0,,,22732.4,43.99,-0.11,-0.07,0.18,27.8,8.4,8.9,36.1,,,,,,,,,,
15.08.01.128,491.4,122.8,0,,,22732.4,43.99,-0.1,0.13,0.42,19.4,17.5,-19.9,35.33,,,,,,,,,,
15.08.01.138,407.9,102.0,0,,,22732.4,43.99,-0.25,-0.28,0.5,16.8,10.1,0.5,36.18,,,,,,,,,,
15.08.01.148,559.0,139.8,0,,,22732.4,43.99,-0.04,0.52,0.01,-10.5,-0.9,10.5,35.83,,,,,,,,,,
15.08.01.159,535.1,133.8,0,,,22732.4,43.99,-0.14,0.28,1.32,29.3,15.7,4.4,35.56,,,,,,,,,,
15.08.01.168,533.8,133.4,0,,,22732.4,43.99,-0.14,0.38,0.48,9.7,18.7,-5.7,35.64,,,,,,,,,,
15.08.01.179,446.6,111.6,0,,,22732.4,43.99,-0.06,0.77,0.75,14.3,27.8,-6.3,35.51,,,,,,,,,,
15.08.01.187,454.6,113.6,0,,,22732.4,43.99,-0.34,0.56,-0.04,8.8,0.9,-4.3,35.83,,,,,,,,,,
15.08.01.194,438.0,109.5,0,,,22732.4,43.99,-0.43,-0.1,0.64,-21.1,2.8,-10.6,36.04,,,,,,,,,,
15.08.01.205,336.5,84.1,0,,,22732.4,43.99,-0.19,-0.6,0.32,10.4,2.5,9.4,35.88,,,,,,,,,,
15.08.01.214,309.2,77.3,0,,,22732.4,43.99,-0.37,-0.21,-0.3,16.9,-10.9,13.2,36.08,,,,,,,,,,
15.08.01.224,190.4,47.6,0,,,22732.4,43.99,-0.5,0.16,-0.26,6.6,2.6,0.8,35.57,,,,,,,,,,
15.08.01.234,183.6,45.9,0,,,22732.4,43.99,-0.25,-0.05,-0.06,-13.7,-8.4,-0.3,35.97,,,,,,,,,,
15.08.01.245,126.4,31.6,0,,,22732.4,43.99,-0.35,-0.39,0.04,16.0,8.0,-11.8,35.79,,,,,,,,,,
15.08.01.255,12.8,3.2,0,,,22732.4,43.99,-0.74,0.72,0.43,-10.6,-8.4,-4.1,35.66,,,,,,,,,,
15.08.01.266,35.7,8.9,0,,,22732.4,43.99,-0.31,0.9,0.02,15.3,-20.0,5.9,35.8,,,,,,,,,,
15.08.01.274,62.9,15.7,0,,,22732.4,43.99,-0.72,0.94,-0.25,-18.0,5.3,2.0,35.74,,,,,,,,,,
15.08.01.282,55.7,13.9,0,,,22732.4,43.99,-0.95,0.42,0.08,-23.6,17.9,-11.9,35.39,,,,,,,,,,
15.08.01.289,105.9,26.5,0,,,22732.4,43.99,-0.54,0.65,0.35,4.3,-9.6,-11.1,35.55,,,,,,,,,,
15.08.01.300,107.1,26.8,0,,,22732.4,43.99,-0.74,0.59,-0.2,3.1,-5.4,-32.9,35.65,,,,,,,,,,
15.08.01.308,121.1,30.3,0,,,22732.4,43.99,-0.4,0.52,-1.65,-16.6,-23.0,-14.2,35.85,,,,,,,,,,
15.08.01.316,125.9,31.5,0,,,22732.4,43.99,-0.91,0.67,-0.06,-22.4,31.3,1.2,36.01,,,,,,,,,,
15.08.01.328,80.3,20.1,0,,,22737.6,43.98,-0.4,0.8,-0.42,-24.5,15.3,-12.3,35.94,,,,,,,,,,
15.08.01.337,90.1,22.5,0,,,22737.6,43.98,-0.42,-0.05,-0.7,2.1,14.6,-6.4,36.06,,,,,,,,,,
15.08.01.349,47.4,11.8,0,,,22737.6,43.98,-0.52,1.02,-0.11,-10.7,35.9,-6.8,35.59,,,,,,,,,,
15.08.01.359,-2.1,0.5,0,,,22737.6,43.98,-0.6,1.59,-0.44,8.9,-1.4,-5.7,35.6,,,,,,,,,,
15.08.01.369,16.0,4.0,0,,,22737.6,43.98,-0.49,0.9,0.42,13.1,12.8,13.1,36.15,,,,,,,,,,
15.08.01.378,29.2,7.3,1,3.0,130.4,22737.6,43.98,-0.19,1.08,-0.59,-6.9,10.6,9.4,35.59,,,,,,,,,,
15.08.01.386,-72.0,18.0,0,,,22737.6,43.98,-0.37,0.07,-0.09,1.3,11.8,13.8,35.86,,,,,,,,,,
15.08.01.395,31.0,7.8,0,,,22737.6,43.98,-0.02,1.58,0.5,-43.0,11.7,18.3,35.79,,,,,,,,,,
15.08.01.404,-69.1,17.3,0,,,22737.6,43.98,-0.25,1.25,0.82,2.1,6.0,-19.8,35.6,,,,,,,,,,
15.08.01.415,-9.9,2.5,0,,,22737.6,43.98,-0.45,1.18,0.73,23.7,5.4,-16.0,35.49,,,,,,,,,,
15.08.01.426,-74.6,18.6,0,,,22737.6,43.98,-0.24,0.66,1.29,-22.3,-7.1,2.7,35.67,,,,,,,,,,
15.08.01.436,-107.3,26.8,0,,,22737.6,43.98,-0.13,0.57,0.17,10.2,13.1,-7.0,35.77,,,,,,,,,,
15.08.01.444,-73.8,18.4,0,,,22737.6,43.98,-0.48,0.66,0.19,21.8,0.7,-2.2,35.69,,,,,,,,,,
15.08.01.456,-116.5,29.1,0,,,22737.6,43.98,-0.28,0.64,1.0,0.4,27.6,5.4,35.72,,,,,,,,,,
15.08.01.466,-47.3,11.8,0,,,22737.6,43.98,-0.59,1.3,0.47,-17.8,5.9,-3.3,35.81,,,,,,,,,,
15.08.01.474,-116.6,29.2,0,,,22737.6,43.98,-0.4,0.71,0.27,25.2,-31.5,-12.7,35.72,,,,,,,,,,
15.08.01.485,-95.1,23.8,0,,,22737.6,43.98,-0.1,0.39,-0.02,-10.5,12.4,-1.0,35.56,,,,,,,,,,
15.08.01.494,-98.1,24.5,0,,,22737.6,43.98,-0.25,-0.15,0.36,7.2,-1.9,5.8,35.55,,,,,,,,,,
15.08.01.504,-83.4,20.8,0,,,22737.6,43.98,0.01,0.03,-0.15,-34.2,7.9,14.2,36.16,,,,,,,,,,
15.08.01.513,-112.2,28.0,0,,,22737.6,43.98,-0.28,0.31,0.45,-13.6,1.3,19.5,35.98,,,,,,,,,,
15.08.01.522,-189.4,47.4,0,,,22737.6,43.98,-0.19,0.79,-0.13,25.1,7.9,4.8,35.82,,,,,,,,,,
15.08.01.531,-111.5,27.9,0,,,22737.6,43.98,-0.21,0.12,0.16,-4.8,11.4,-7.6,35.55,,,,,,,,,,
15.08.01.539,-84.5,21.1,0,,,22737.6,43.98,-0.13,0.45,0.73,25.1,29.8,-3.9,35.65,,,,,,,,,,
15.08.01.547,-136.3,34.1,0,,,22737.6,43.98,-0.94,0.42,0.35,-5.4,-13.9,-15.0,35.94,,,,,,,,,,
15.08.01.556,-132.3,33.1,0,,,22737.6,43.98,-0.21,0.11,0.83,-16.2,10.0,-7.4,35.73,,,,,,,,,,
15.08.01.564,-135.3,33.8,0,,,22737.6,43.98,-0.51,0.38,0.12,9.6,18.6,-1.9,35.95,,,,,,,,,,
15.08.01.576,-151.0,37.8,0,,,22737.6,43.98,-0.35,0.23,-0.02,-12.6,8.0,-13.1,36.1,,,,,,,,,,
15.08.01.586,-237.8,59.4,0,,,22737.6,43.98,-0.74,-0.19,0.59,-2.1,-2.2,21.4,35.67,,,,,,,,,,
15.08.01.597,-209.0,52.2,0,,,22737.6,43.98,-0.3,0.26,0.42,8.7,8.2,-8.2,35.82,,,,,,,,,,
15.08.01.607,10.5,2.6,0,,,22737.6,43.98,-0.37,0.47,-0.41,29.7,19.8,-27.6,35.54,,,,,,,,,,
15.08.01.617,107.6,26.9,0,,,22737.6,43.98,-0.43,1.08,-0.29,-0.6,-5.0,-3.7,35.68,,,,,,,,,,
15.08.01.623,132.8,33.2,0,,,22737.6,43.98,-0.86,0.87,-0.45,4.5,9.1,3.4,35.7,,,,,,,,,,
15.08.01.634,298.0,74.5,0,,,22737.6,43.98,-0.39,0.36,-0.66,0.1,27.4,-10.0,35.76,,,,,,,,,,
15.08.01.643,358.6,89.6,0,,,22737.6,43.98,-0.34,0.35,0.41,-58.2,-19.8,3.8,35.96,,,,,,,,,,
15.08.01.652,346.7,86.7,0,,,22737.6,43.98,-0.8,1.11,0.08,6.9,-11.8,12.6,35.75,,,,,,,,,,
15.08.01.662,385.3,96.3,0,,,22737.6,43.98,-0.74,1.31,-0.44,16.6,-19.4,-3.7,35.61,,,,,,,,,,
15.08.01.673,408.0,102.0,0,,,22742.8,43.97,-0.49,0.13,-1.03,12.0,28.4,4.7,35.78,,,,,,,,,,
15.08.01.684,454.0,113.5,0,,,22742.8,43.97,-0.84,1.02,0.4,39.2,6.1,1.1,35.91,,,,,,,,,,
15.08.01.693,430.8,107.7,0,,,22742.8,43.97,-0.42,1.03,0.37,-16.1,18.9,1.3,35.69,,,,,,,,,,
15.08.01.706,466.3,116.6,0,,,22742.8,43.97,-0.51,1.11,-1.56,3.3,11.6,-13.9,35.93,,,,,,,,,,
15.08.01.717,360.5,90.1,0,,,22742.8,43.97,-0.24,0.76,-0.43,39.9,12.1,-4.5,35.78,,,,,,,,,,
15.08.01.726,476.6,119.2,0,,,22742.8,43.97,-0.44,0.81,-0.42,5.2,-21.1,-10.1,35.99,,,,,,,,,,
15.08.01.736,367.0,91.8,0,,,22742.8,43.97,-0.6,1.13,0.45,-4.1,39.2,-9.6,35.51,,,,,,,,,,
15.08.01.744,380.6,95.2,0,,,22742.8,43.97,-0.3,1.11,-0.01,9.1,-4.4,-17.1,35.69,,,,,,,,,,
15.08.01.752,310.8,77.7,0,,,22742.8,43.97,0.27,0.91,1.26,5.1,29.3,-2.9,35.95,,,,,,,,,,
15.08.01.763,153.7,38.4,0,,,22742.8,43.97,-0.14,0.56,0.62,-9.0,14.9,-16.5,35.52,,,,,,,,,,
15.08.01.774,110.3,27.6,0,,,22742.8,43.97,0.16,0.5,0.79,-16.5,2.9,-1.5,36.23,,,,,,,,,,
15.08.01.784,58.4,14.6,0,,,22742.8,43.97,-0.28,1.06,0.02,10.6,25.4,-4.0,35.71,,,,,,,,,,
15.08.01.792,15.1,3.8,0,,,22742.8,43.97,-0.05,0.62,0.99,-38.0,4.5,-9.4,36.21,,,,,,,,,,
15.08.01.804,64.4,16.1,1,4.0,140.8,22742.8,43.97,-0.09,1.01,0.7,5.9,-5.2,2.6,36.17,,,,,,,,,,
15.08.01.810,62.8,15.7,0,,,22742.8,43.97,-0.25,0.58,1.44,-5.1,4.6,7.1,36.06,,,,,,,,,,
15.08.01.820,61.6,15.4,0,,,22742.8,43.97,-0.37,0.07,-0.17,-4.6,-5.5,5.2,35.4,,,,,,,,,,
15.08.01.830,13.4,3.4,0,,,22742.8,43.97,-0.1,0.4,0.84,24.8,-21.1,3.4,35.71,,,,,,,,,,
15.08.01.840,98.8,24.7,0,,,22742.8,43.97,-0.05,0.35,0.32,-20.3,-1.4,-14.4,35.93,,,,,,,,,,
15.08.01.849,69.8,17.4,0,,,22742.8,43.97,-0.38,0.49,1.08,13.3,1.2,2.3,35.64,,,,,,,,,,
15.08.01.859,72.8,18.2,0,,,22742.8,43.97,-0.24,0.93,-0.08,-26.3,-11.9,12.0,35.88,,,,,,,,,,
15.08.01.868,60.3,15.1,0,,,22742.8,43.97,-0.5,-0.26,1.07,0.2,20.2,23.5,35.79,,,,,,,,,,
15.08.01.876,31.8,8.0,0,,,22742.8,43.97,-0.38,0.33,-0.29,-24.6,8.4,-16.4,35.94,,,,,,,,,,
15.08.01.885,24.7,6.2,0,,,22742.8,43.97,-0.39,0.23,1.23,7.9,14.6,-20.5,35.47,,,,,,,,,,
15.08.01.893,-19.1,4.8,0,,,22742.8,43.97,-0.34,0.57,0.11,-27.0,11.1,7.0,35.82,,,,,,,,,,
15.08.01.904,-14.2,3.6,0,,,22742.8,43.97,-0.21,0.48,-0.11,-15.6,-15.6,-2.6,35.69,,,,,,,,,,
15.08.01.915,-84.9,21.2,0,,,22742.8,43.97,-0.57,0.52,-0.62,23.0,-12.3,-5.0,36.33,,,,,,,,,,
15.08.01.924,12.4,3.1,0,,,22742.8,43.97,-0.87,0.13,-0.08,-4.9,-7.4,5.7,35.83,,,,,,,,,,
15.08.01.934,-50.8,12.7,0,,,22742.8,43.97,-1.02,0.72,-0.21,6.7,11.3,-36.6,35.76,,,,,,,,,,
15.08.01.945,-24.2,6.0,0,,,22742.8,43.97,-0.58,0.64,0.57,-21.6,7.7,0.4,35.75,,,,,,,,,,
15.08.01.955,-51.7,12.9,0,,,22742.8,43.97,-0.49,0.87,-0.74,-17.0,-23.9,-6.6,35.89,,,,,,,,,,
15.08.01.965,-25.9,6.5,0,,,22742.8,43.97,-0.75,0.08,-0.6,17.2,-13.8,9.6,35.64,,,,,,,,,,
15.08.01.974,4.7,1.2,0,,,22742.8,43.97,-0.14,0.79,0.9,13.4,12.3,8.4,35.5,,,,,,,,,,
15.08.01.985,-51.3,12.8,0,,,22742.8,43.97,-0.34,0.09,-0.54,12.8,17.8,11.9,36.03,,,,,,,,,,
15.08.01.996,-108.4,27.1,0,,,22742.8,43.97,-0.68,1.25,0.11,15.9,-16.7,18.9,35.88,,,,,,,,,,
15.08.02.007,-76.0,19.0,0,,,22748.0,43.96,-0.79,1.54,-0.04,-6.7,-12.3,17.6,35.8,,,,,,,,,,
15.08.02.015,-53.4,13.4,0,,,22748.0,43.96,-0.68,1.41,-0.24,-6.5,-19.7,-17.0,35.5,,,,,,,,,,
15.08.02.026,-134.4,33.6,0,,,22748.0,43.96,-0.2,0.37,-0.08,-12.8,-10.3,4.6,35.78,,,,,,,,,,
15.08.02.037,-137.9,34.5,0,,,22748.0,43.96,-0.54,1.33,-0.64,-16.5,1.7,-12.7,36.04,,,,,,,,,,
15.08.02.047,-134.8,33.7,0,,,22748.0,43.96,-0.84,1.36,-0.2,1.7,3.8,4.2,35.89,,,,,,,,,,
15.08.02.058,-155.6,38.9,0,,,22748.0,43.96,-0.34,0.65,0.26,-45.4,-5.0,2.1,35.75,,,,,,,,,,
15.08.02.066,-129.3,32.3,0,,,22748.0,43.96,-0.53,1.15,0.18,20.7,20.6,-20.0,35.49,,,,,,,,,,
15.08.02.074,-100.0,25.0,0,,,22748.0,43.96,-0.16,1.11,0.35,1.3,-6.1,10.9,35.91,,,,,,,,,,
15.08.02.082,-176.6,44.2,0,,,22748.0,43.96,-0.31,0.63,0.56,3.6,17.6,0.2,35.96,,,,,,,,,,
15.08.02.094,-188.3,47.1,0,,,22748.0,43.96,-0.17,0.81,0.27,-6.0,-5.2,-4.2,36.03,,,,,,,,,,
15.08.02.105,-110.4,27.6,0,,,22748.0,43.96,-0.02,0.7,0.7,-10.8,2.4,-2.3,35.65,,,,,,,,,,
15.08.02.114,-190.9,47.7,0,,,22748.0,43.96,0.05,0.62,0.63,-7.9,37.0,0.5,35.85,,,,,,,,,,
15.08.02.123,-192.0,48.0,0,,,22748.0,43.96,0.46,0.96,-0.05,-15.4,24.1,8.3,35.93,,,,,,,,,,
15.08.02.131,-243.5,60.9,0,,,22748.0,43.96,-0.09,0.32,1.39,22.2,1.2,10.4,35.74,,,,,,,,,,
15.08.02.140,2.1,0.5,0,,,22753.1,43.95,-0.36,1.0,0.67,-10.6,12.2,-6.1,35.49,,,,,,,,,,
15.08.02.147,123.1,30.8,0,,,22753.1,43.95,0.01,0.23,-0.13,-20.8,-2.2,11.5,36.03,,,,,,,,,,
15.08.02.157,189.6,47.4,0,,,22753.1,43.95,-0.16,0.24,-0.07,-19.0,-6.8,0.7,35.46,,,,,,,,,,
15.08.02.167,315.7,78.9,0,,,22753.1,43.95,-0.58,0.78,0.22,-45.7,13.4,3.2,35.89,,,,,,,,,,
15.08.02.176,352.4,88.1,0,,,22753.1,43.95,-0.24,0.94,0.44,15.5,7.4,26.8,35.6,,,,,,,,,,
15.08.02.185,492.9,123.2,0,,,22753.1,43.95,-0.62,-0.01,0.3,17.9,-11.8,-4.9,35.82,,,,,,,,,,
15.08.02.195,437.5,109.4,0,,,22753.1,43.95,-0.06,-0.31,0.18,0.2,-14.0,0.4,35.66,,,,,,,,,,
15.08.02.204,494.2,123.6,0,,,22753.1,43.95,-0.63,0.28,0.56,18.0,13.9,-7.0,35.7,,,,,,,,,,
15.08.02.213,430.5,107.6,0,,,22753.1,43.95,-0.28,-0.14,0.67,-13.3,5.0,5.4,35.58,,,,,,,,,,
15.08.02.225,517.3,129.3,0,,,22753.1,43.95,-0.62,0.28,0.74,-3.3,8.3,2.5,36.05,,,,,,,,,,
15.08.02.235,473.3,118.3,0,,,22753.1,43.95,-0.21,0.62,-0.28,-14.6,-1.6,8.3,35.98,,,,,,,,,,
15.08.02.243,422.6,105.6,1,5.0,136.7,22753.1,43.95,-0.42,0.12,0.6,-11.0,10.3,-1.4,35.74,,,,,,,,,,
15.08.02.251,506.8,126.7,0,,,22753.1,43.95,-0.57,0.18,-0.04,-9.9,4.7,7.9,35.99,,,,,,,,,,
15.08.02.258,389.5,97.4,0,,,22753.1,43.95,-0.35,-0.47,-0.2,7.1,8.1,-22.1,36.07,,,,,,,,,,
15.08.02.269,331.8,83.0,0,,,22753.1,43.95,-0.57,0.28,-0.01,-19.0,15.1,-14.9,36.09,,,,,,,,,,
15.08.02.277,366.0,91.5,0,,,22758.3,43.94,-0.1,0.3,0.85,14.7,38.3,-3.0,35.91,,,,,,,,,,
15.08.02.285,315.8,79.0,0,,,22758.3,43.94,-0.16,0.56,0.09,-8.1,-1.7,9.9,35.84,,,,,,,,,,
15.08.02.294,214.6,53.6,0,,,22758.3,43.94,-0.33,1.01,-0.14,-1.6,14.9,18.0,36.28,,,,,,,,,,
15.08.02.302,198.8,49.7,0,,,22758.3,43.94,-0.6,0.95,0.46,-60.3,-5.9,-11.2,35.77,,,,,,,,,,
15.08.02.311,19.4,4.8,0,,,22758.3,43.94,-0.6,0.23,0.33,1.9,31.9,-16.1,35.75,,,,,,,,,,
15.08.02.319,16.6,4.2,0,,,22758.3,43.94,-0.58,0.24,0.32,28.6,17.4,26.0,35.94,,,,,,,,,,
15.08.02.329,-3.3,0.8,0,,,22758.3,43.94,-0.41,0.51,-0.53,-7.5,14.6,-4.5,35.74,,,,,,,,,,
15.08.02.341,20.4,5.1,0,,,22758.3,43.94,-0.7,1.09,-0.55,4.2,14.6,21.0,36.01,,,,,,,,,,
15.08.02.351,48.7,12.2,0,,,22758.3,43.94,-0.54,0.54,-0.26,32.0,17.9,14.4,35.65,,,,,,,,,,
15.08.02.359,116.7,29.2,0,,,22758.3,43.94,-0.39,1.25,0.07,-14.5,-4.0,2.2,36.11,,,,,,,,,,
15.08.02.369,58.4,14.6,0,,,22758.3,43.94,-0.18,0.47,-0.36,-2.8,8.6,11.2,35.52,,,,,,,,,,
15.08.02.378,84.1,21.0,0,,,22758.3,43.94,-0.18,1.08,0.11,-13.0,9.0,23.3,35.68,,,,,,,,,,
15.08.02.390,89.2,22.3,0,,,22758.3,43.94,-0.58,1.2,0.29,-27.1,-1.6,-7.2,35.9,,,,,,,,,,
15.08.02.400,47.7,11.9,0,,,22758.3,43.94,-0.25,1.15,0.71,-2.9,11.9,-3.2,35.99,,,,,,,,,,
15.08.02.410,-14.7,3.7,0,,,22763.5,43.93,-0.79,1.21,-0.43,12.4,19.8,7.6,35.99,,,,,,,,,,
15.08.02.418,15.1,3.8,0,,,22763.5,43.93,-0.47,0.68,-0.14,4.1,-12.5,-13.0,35.63,,,,,,,,,,
15.08.02.426,16.6,4.2,0,,,22763.5,43.93,-0.61,0.61,0.5,-4.0,17.7,-8.5,35.79,,,,,,,,,,
15.08.02.434,-47.2,11.8,0,,,22763.5,43.93,-0.02,0.56,0.53,-12.0,25.2,7.6,35.89,,,,,,,,,,
15.08.02.444,-19.6,4.9,0,,,22763.5,43.93,0.28,0.16,0.59,18.6,-18.7,11.9,35.93,,,,,,,,,,
15.08.02.455,3.5,0.9,0,,,22763.5,43.93,0.29,0.67,0.83,-39.7,13.5,-16.8,36.03,,,,,,,,,,
15.08.02.463,-52.0,13.0,0,,,22763.5,43.93,-0.52,0.7,0.11,-18.6,-18.6,-12.2,35.66,,,,,,,,,,
15.08.02.474,-20.6,5.2,0,,,22763.5,43.93,0.1,0.09,0.1,-11.0,13.2,-8.4,35.98,,,,,,,,,,
15.08.02.485,-32.1,8.0,0,,,22763.5,43.93,-0.11,0.14,0.28,33.0,27.5,-1.8,35.71,,,,,,,,,,
15.08.02.497,-48.7,12.2,0,,,22763.5,43.93,-0.19,0.61,0.77,-18.5,11.1,-11.5,35.84,,,,,,,,,,
15.08.02.509,-76.2,19.0,0,,,22763.5,43.93,0.1,0.6,-0.46,1.7,1.9,0.7,36.06,,,,,,,,,,
15.08.02.519,-29.3,7.3,0,,,22763.5,43.93,0.03,0.77,1.72,6.6,-5.3,-10.9,35.37,,,,,,,,,,
15.08.02.530,-130.3,32.6,0,,,22763.5,43.93,-0.31,-0.47,1.44,39.2,26.1,-3.9,35.97,,,,,,,,,,
15.08.02.539,-31.2,7.8,0,,,22768.7,43.92,0.14,0.45,0.84,-11.6,-0.8,-18.6,35.63,,,,,,,,,,
15.08.02.549,-126.1,31.5,0,,,22768.7,43.92,0.41,0.3,0.77,-6.2,8.0,12.2,35.81,,,,,,,,,,
15.08.02.559,-106.4,26.6,0,,,22768.7,43.92,-0.66,0.45,-0.41,-4.5,22.2,-0.4,35.73,,,,,,,,,,
15.08.02.569,-119.0,29.8,0,,,22768.7,43.92,-0.23,0.68,-0.01,-0.8,8.5,0.0,35.83,,,,,,,,,,
15.08.02.577,-76.5,19.1,0,,,22768.7,43.92,-0.21,0.5,-0.7,19.6,-2.8,5.9,35.39,,,,,,,,,,
15.08.02.588,-134.5,33.6,0,,,22768.7,43.92,-0.51,0.03,0.35,11.2,6.3,-24.1,36.28,,,,,,,,,,
15.08.02.601,-110.1,27.5,0,,,22768.7,43.92,-0.21,0.09,-0.06,-18.6,-4.7,-14.6,35.8,,,,,,,,,,
15.08.02.612,-189.1,47.3,0,,,22768.7,43.92,-0.51,0.16,0.08,-2.3,40.0,21.9,35.63,,,,,,,,,,
15.08.02.623,-243.2,60.8,0,,,22768.7,43.92,-0.73,0.43,-0.4,15.2,13.0,4.0,35.9,,,,,,,,,,
15.08.02.633,-154.3,38.6,0,,,22768.7,43.92,-0.29,0.58,-0.17,-29.3,9.3,3.8,35.6,,,,,,,,,,
15.08.02.643,-204.5,51.1,0,,,22768.7,43.92,-0.64,-0.08,-0.48,5.2,-6.1,0.2,35.88,,,,,,,,,,
15.08.02.653,-207.0,51.8,0,,,22768.7,43.92,-0.57,0.93,-0.01,14.3,12.8,-4.8,35.92,,,,,,,,,,
15.08.02.662,-171.1,42.8,0,,,22768.7,43.92,-0.37,1.38,-0.08,-14.2,5.1,-19.9,35.84,,,,,,,,,,
15.08.02.670,19.1,4.8,0,,,22768.7,43.92,-0.59,0.96,-0.51,7.9,13.9,-21.5,35.55,,,,,,,,,,
15.08.02.679,140.7,35.2,0,,,22773.9,43.91,-0.46,0.53,0.28,-4.7,2.4,-15.3,35.6,,,,,,,,,,
15.08.02.689,178.4,44.6,0,,,22773.9,43.91,-0.48,0.24,-0.9,5.4,25.2,-3.4,36.04,,,,,,,,,,
15.08.02.700,249.3,62.3,0,,,22773.9,43.91,-0.46,1.04,-0.29,10.7,10.8,17.5,35.55,,,,,,,,,,
15.08.02.710,323.1,80.8,0,,,22773.9,43.91,-0.22,1.24,-0.71,-2.4,-12.7,-7.7,35.99,,,,,,,,,,
15.08.02.718,426.8,106.7,1,6.0,126.3,22773.9,43.91,-0.86,1.1,0.13,-14.0,8.8,15.7,35.83,,,,,,,,,,
15.08.02.727,423.8,106.0,0,,,22773.9,43.91,-0.64,1.12,-0.6,-13.3,14.4,-10.8,35.47,,,,,,,,,,
15.08.02.735,364.0,91.0,0,,,22773.9,43.91,-0.36,1.03,0.76,-7.5,5.0,-11.1,35.8,,,,,,,,,,
15.08.02.745,429.3,107.3,0,,,22773.9,43.91,-0.47,0.34,0.19,-7.2,8.7,-18.9,35.76,,,,,,,,,,
15.08.02.754,443.6,110.9,0,,,22773.9,43.91,-0.41,0.34,1.27,10.4,6.4,-16.0,35.62,,,,,,,,,,
15.08.02.764,480.4,120.1,0,,,22773.9,43.91,-0.07,1.0,0.05,10.9,-0.6,-3.1,35.55,,,,,,,,,,
15.08.02.777,483.2,120.8,0,,,22773.9,43.91,0.08,0.69,-0.17,11.9,33.6,7.1,35.65,,,,,,,,,,
15.08.02.786,416.7,104.2,0,,,22773.9,43.91,-0.28,1.14,0.67,20.1,-20.0,-6.4,35.82,,,,,,,,,,
15.08.02.798,360.3,90.1,0,,,22773.9,43.91,-0.16,1.2,1.18,-15.6,-2.7,-25.1,36.08,,,,,,,,,,
15.08.02.805,330.8,82.7,0,,,22773.9,43.91,-0.12,0.24,0.89,24.6,29.5,-15.4,36.0,,,,,,,,,,
15.08.02.817,263.2,65.8,0,,,22779.0,43.9,0.06,0.86,0.58,16.5,-8.2,-19.3,35.91,,,,,,,,,,
15.08.02.826,188.4,47.1,0,,,22779.0,43.9,-0.03,0.49,0.86,21.2,-7.4,6.4,35.66,,,,,,,,,,
15.08.02.837,75.5,18.9,0,,,22779.0,43.9,0.08,0.45,0.74,3.1,48.0,-6.7,35.96,,,,,,,,,,
15.08.02.848,-29.7,7.4,0,,,22779.0,43.9,-0.02,0.02,-0.07,36.4,-41.8,-9.0,35.7,,,,,,,,,,
15.08.02.858,-37.1,9.3,0,,,22779.0,43.9,-0.31,0.13,1.26,-20.2,26.3,12.3,35.91,,,,,,,,,,
15.08.02.866,55.0,13.8,0,,,22779.0,43.9,-0.23,0.38,-0.42,-5.4,18.6,-12.3,35.69,,,,,,,,,,
15.08.02.876,76.5,19.1,0,,,22779.0,43.9,-0.16,0.53,-0.06,3.9,-25.2,6.7,35.67,,,,,,,,,,
15.08.02.884,59.9,15.0,0,,,22779.0,43.9,-0.49,0.42,0.34,-22.0,-6.2,8.4,35.7,,,,,,,,,,
15.08.02.893,119.0,29.8,0,,,22779.0,43.9,-0.39,0.67,0.44,-4.6,9.5,6.7,35.8,,,,,,,,,,
15.08.02.902,23.6,5.9,0,,,22779.0,43.9,-0.16,0.2,0.23,0.0,0.2,2.5,35.68,,,,,,,,,,
15.08.02.910,75.6,18.9,0,,,22779.0,43.9,0.01,-0.01,0.71,-12.2,9.9,1.5,36.24,,,,,,,,,,
15.08.02.923,97.4,24.4,0,,,22779.0,43.9,-0.53,0.51,0.19,12.2,-8.2,-6.4,36.03,,,,,,,,,,
15.08.02.932,77.3,19.3,0,,,22779.0,43.9,-0.39,0.26,0.09,7.7,18.0,-2.0,35.58,,,,,,,,,,
15.08.02.942,39.1,9.8,0,,,22784.2,43.89,-0.44,0.71,0.16,26.9,-18.7,18.8,35.72,,,,,,,,,,
15.08.02.950,-10.9,2.7,0,,,22784.2,43.89,-0.48,1.04,-0.06,-9.1,21.7,6.4,35.84,,,,,,,,,,
15.08.02.963,-27.9,7.0,0,,,22784.2,43.89,-0.48,0.34,0.2,32.2,0.4,-4.0,35.85,,,,,,,,,,
15.08.02.972,-9.5,2.4,0,,,22784.2,43.89,-0.65,-0.22,-0.09,-7.0,24.8,-5.5,35.71,,,,,,,,,,
15.08.02.981,11.1,2.8,0,,,22784.2,43.89,-0.69,0.42,-1.07,-5.6,5.7,0.6,35.67,,,,,,,,,,
15.08.02.993,-35.8,9.0,0,,,22784.2,43.89,-0.6,1.15,-0.74,-4.1,15.8,5.1,35.91,,,,,,,,,,
15.08.03.003,-75.8,19.0,0,,,22784.2,43.89,-0.41,0.42,-0.32,-56.3,2.8,-15.8,35.63,,,,,,,,,,
15.08.03.013,-21.4,5.4,0,,,22784.2,43.89,-0.47,0.61,-0.3,-4.6,-9.8,12.5,35.91,,,,,,,,,,
15.08.03.024,-73.2,18.3,0,,,22784.2,43.89,-0.87,0.61,-0.24,16.1,4.4,-10.9,35.91,,,,,,,,,,
15.08.03.035,-3.4,0.8,0,,,22784.2,43.89,-0.42,0.35,-0.94,25.8,-11.1,1.3,36.03,,,,,,,,,,
15.08.03.043,-122.2,30.6,0,,,22784.2,43.89,-0.56,0.77,-0.22,-7.1,20.1,-8.2,35.76,,,,,,,,,,
15.08.03.053,-59.2,14.8,0,,,22784.2,43.89,-0.64,0.9,-0.24,-2.5,28.8,-7.0,36.03,,,,,,,,,,
15.08.03.062,-98.9,24.7,0,,,22784.2,43.89,-0.5,-0.02,-0.01,10.6,11.9,-10.5,36.02,,,,,,,,,,
15.08.03.071,-62.8,15.7,0,,,22784.2,43.89,-0.84,1.18,-1.08,-9.2,18.4,-6.1,35.99,,,,,,,,,,
15.08.03.081,-126.2,31.6,0,,,22784.2,43.89,-0.29,1.55,-0.44,20.5,12.9,-10.6,35.52,,,,,,,,,,
15.08.03.092,-135.6,33.9,0,,,22784.2,43.89,-0.74,0.88,0.72,18.9,3.7,22.7,35.6,,,,,,,,,,
15.08.03.102,-98.2,24.6,0,,,22784.2,43.89,-0.48,0.79,0.14,6.9,8.2,-11.5,35.82,,,,,,,,,,
15.08.03.113,-123.5,30.9,0,,,22784.2,43.89,0.27,1.18,0.16,10.4,20.4,-15.5,35.77,,,,,,,,,,
15.08.03.125,-157.2,39.3,0,,,22784.2,43.89,-0.09,0.63,1.47,17.5,-0.0,-10.9,35.71,,,,,,,,,,
15.08.03.133,-192.5,48.1,0,,,22784.2,43.89,-0.15,0.62,0.12,3.3,-11.1,-13.9,35.93,,,,,,,,,,
15.08.03.143,-152.7,38.2,0,,,22784.2,43.89,0.24,0.15,0.38,19.7,5.7,21.0,36.02,,,,,,,,,,
15.08.03.151,-118.6,29.6,0,,,22784.2,43.89,-0.56,0.49,0.64,40.0,21.1,12.2,35.66,,,,,,,,,,
15.08.03.162,-178.8,44.7,0,,,22784.2,43.89,0.01,0.12,1.29,7.4,8.1,0.5,35.85,,,,,,,,,,
15.08.03.171,-262.4,65.6,0,,,22784.2,43.89,-0.02,0.64,0.26,35.5,11.7,-4.0,35.8,,,,,,,,,,
15.08.03.180,-185.1,46.3,1,7.0,129.9,22784.2,43.89,-0.78,1.15,1.76,15.7,7.6,5.6,35.79,,,,,,,,,,
15.08.03.191,-192.3,48.1,0,,,22784.2,43.89,0.22,0.12,1.13,-3.2,-26.1,8.3,35.69,,,,,,,,,,
15.08.03.200,11.8,3.0,0,,,22784.2,43.89,-0.01,0.49,-0.18,-3.5,23.2,3.0,36.0,,,,,,,,,,
15.08.03.210,184.7,46.2,0,,,22784.2,43.89,0.29,0.66,0.35,-4.3,1.7,-20.2,35.73,,,,,,,,,,
15.08.03.219,237.2,59.3,0,,,22784.2,43.89,0.09,0.5,0.39,-15.2,21.2,-3.4,36.1,,,,,,,,,,
15.08.03.231,245.0,61.2,0,,,22784.2,43.89,-0.04,0.13,0.49,21.8,26.3,-3.1,35.85,,,,,,,,,,
15.08.03.242,355.9,89.0,0,,,22784.2,43.89,-0.49,0.62,1.03,38.6,12.5,-5.7,35.68,,,,,,,,,,
15.08.03.250,409.4,102.4,0,,,22784.2,43.89,-0.23,0.37,0.58,-37.7,0.0,3.7,35.93,,,,,,,,,,
15.08.03.260,436.9,109.2,0,,,22784.2,43.89,-0.61,0.38,0.78,-2.6,3.6,19.8,35.71,,,,,,,,,,
15.08.03.271,441.2,110.3,0,,,22784.2,43.89,-0.17,0.77,0.84,6.6,4.7,-6.6,35.64,,,,,,,,,,
15.08.03.277,564.2,141.0,0,,,22784.2,43.89,-0.41,0.42,0.45,0.4,17.4,-18.8,35.55,,,,,,,,,,
15.08.03.288,513.2,128.3,0,,,22784.2,43.89,-0.51,-0.15,0.26,16.0,12.4,32.5,35.71,,,,,,,,,,
15.08.03.297,474.2,118.6,0,,,22784.2,43.89,-0.24,0.23,-0.13,-4.2,13.8,26.6,35.73,,,,,,,,,,
15.08.03.306,498.2,124.6,0,,,22784.2,43.89,-0.53,0.43,-0.69,-4.3,-4.0,-15.5,36.06,,,,,,,,,,
15.08.03.318,433.0,108.2,0,,,22784.2,43.89,-0.65,1.1,-0.41,-23.1,5.0,-5.8,36.1,,,,,,,,,,
15.08.03.327,373.5,93.4,0,,,22784.2,43.89,-0.25,0.17,-0.15,-3.4,-28.9,-8.0,35.62,,,,,,,,,,
15.08.03.336,355.8,89.0,0,,,22784.2,43.89,-0.0,0.3,-0.26,25.6,8.4,-24.6,35.65,,,,,,,,,,
15.08.03.346,294.5,73.6,0,,,22784.2,43.89,-0.53,0.39,-0.16,-17.8,14.3,9.1,35.66,,,,,,,,,,
15.08.03.357,180.9,45.2,0,,,22784.2,43.89,-0.61,0.46,-0.14,-4.6,7.3,-2.9,35.78,,,,,,,,,,
15.08.03.368,124.9,31.2,0,,,22784.2,43.89,-0.85,0.86,-0.28,-25.6,0.8,-33.5,36.0,,,,,,,,,,
15.08.03.377,-25.2,6.3,0,,,22784.2,43.89,-0.29,0.37,-0.56,30.2,-2.3,14.1,35.75,,,,,,,,,,
15.08.03.387,35.4,8.8,0,,,22784.2,43.89,-0.5,1.03,0.88,-25.1,22.0,0.3,35.79,,,,,,,,,,
15.08.03.397,66.5,16.6,0,,,22784.2,43.89,-0.11,1.29,-0.1,-20.4,-21.6,-26.7,35.6,,,,,,,,,,
15.08.03.407,60.8,15.2,0,,,22784.2,43.89,-0.75,0.62,-0.36,10.4,-8.6,-19.5,35.64,,,,,,,,,,
15.08.03.416,79.6,19.9,0,,,22784.2,43.89,-0.8,1.58,0.18,-36.4,-9.2,-9.4,35.91,,,,,,,,,,
15.08.03.423,114.8,28.7,0,,,22784.2,43.89,-0.7,0.56,-0.1,-10.6,-6.5,-5.1,35.94,,,,,,,,,,
15.08.03.434,95.0,23.8,0,,,22784.2,43.89,-0.35,0.73,-0.09,-1.8,21.9,-6.9,36.26,,,,,,,,,,
15.08.03.444,140.3,35.1,0,,,22784.2,43.89,-0.5,1.04,-0.19,-5.4,18.7,-11.4,35.64,,,,,,,,,,
15.08.03.455,28.8,7.2,0,,,22784.2,43.89,-0.43,1.95,-0.66,-10.6,22.0,20.4,35.81,,,,,,,,,,
15.08.03.467,51.0,12.8,0,,,22784.2,43.89,0.06,0.23,0.38,-4.1,25.1,-14.0,35.86,,,,,,,,,,
15.08.03.479,54.4,13.6,0,,,22784.2,43.89,-0.42,1.03,0.08,-4.5,23.6,-0.8,35.83,,,,,,,,,,
15.08.03.490,66.7,16.7,0,,,22784.2,43.89,-0.08,0.43,0.0,-17.7,22.7,9.9,35.34,,,,,,,,,,
15.08.03.499,37.7,9.4,0,,,22784.2,43.89,0.08,0.44,0.62,1.7,9.8,-17.4,36.14,,,,,,,,,,
15.08.03.510,-72.6,18.2,0,,,22784.2,43.89,-0.17,0.04,0.33,-8.6,-15.8,5.8,35.86,,,,,,,,,,
15.08.03.518,-34.8,8.7,1,8.0,177.5,22784.2,43.89,-0.43,0.83,0.14,-10.8,-8.1,6.1,35.75,,,,,,,,,,
15.08.03.528,-2.6,0.6,0,,,22784.2,43.89,0.29,1.07,0.45,-10.1,6.3,43.8,35.66,,,,,,,,,,
15.08.03.538,-10.9,2.7,0,,,22784.2,43.89,-0.49,0.99,0.36,-9.6,12.3,-13.7,35.83,,,,,,,,,,
15.08.03.548,-72.5,18.1,0,,,22784.2,43.89,-0.17,0.72,1.29,23.4,6.7,7.6,35.98,,,,,,,,,,
15.08.03.560,-115.3,28.8,0,,,22784.2,43.89,-0.78,0.78,0.37,17.7,7.4,-6.7,36.33,,,,,,,,,,
15.08.03.569,-37.8,9.4,0,,,22784.2,43.89,-0.44,0.43,0.64,-30.1,-9.5,4.0,35.85,,,,,,,,,,
15.08.03.581,-31.3,7.8,0,,,22784.2,43.89,-0.63,-0.37,1.19,5.8,-6.9,-4.9,35.83,,,,,,,,,,
15.08.03.589,-72.5,18.1,0,,,22784.2,43.89,-0.11,0.27,0.25,-9.1,4.7,9.2,35.88,,,,,,,,,,
15.08.03.598,-50.2,12.6,0,,,22784.2,43.89,-0.26,0.03,-0.13,16.6,22.4,-12.9,35.61,,,,,,,,,,
15.08.03.608,-118.5,29.6,0,,,22784.2,43.89,-0.09,0.6,0.61,10.2,12.0,0.5,36.01,,,,,,,,,,
15.08.03.615,-93.0,23.2,0,,,22784.2,43.89,-0.1,-0.23,0.71,12.9,29.0,4.7,35.63,,,,,,,,,,
15.08.03.623,-117.4,29.4,0,,,22784.2,43.89,-0.21,-0.14,0.61,20.1,-7.3,9.6,35.92,,,,,,,,,,
15.08.03.633,-122.9,30.7,0,,,22784.2,43.89,-0.03,-0.12,0.51,-6.1,19.2,5.7,35.99,,,,,,,,,,
15.08.03.642,-60.7,15.2,0,,,22784.2,43.89,-0.36,0.29,0.33,14.4,11.5,-6.2,36.08,,,,,,,,,,
15.08.03.652,-116.9,29.2,0,,,22784.2,43.89,-0.42,0.72,0.42,6.3,-25.1,-5.4,35.69,,,,,,,,,,
15.08.03.661,-144.8,36.2,0,,,22784.2,43.89,-0.32,0.41,-0.45,-5.6,-0.8,11.0,35.36,,,,,,,,,,
15.08.03.669,-143.8,36.0,0,,,22784.2,43.89,-0.63,0.23,-0.16,12.4,19.7,19.0,35.65,,,,,,,,,,
15.08.03.679,-190.0,47.5,0,,,22784.2,43.89,-0.27,0.51,0.18,2.8,9.6,-2.8,35.6,,,,,,,,,,
15.08.03.691,-155.1,38.8,0,,,22784.2,43.89,-1.11,0.25,-0.57,3.3,8.0,3.9,36.02,,,,,,,,,,
15.08.03.700,-150.4,37.6,0,,,22784.2,43.89,-0.36,0.28,0.34,-7.5,-11.8,-11.7,36.06,,,,,,,,,,
15.08.03.710,-192.9,48.2,0,,,22784.2,43.89,-0.64,0.31,-0.46,10.3,3.3,-7.8,35.81,,,,,,,,,,
15.08.03.721,-224.5,56.1,0,,,22784.2,43.89,-0.61,1.29,0.11,22.9,-3.3,-17.8,36.13,,,,,,,,,,
15.08.03.731,49.8,12.4,0,,,22784.2,43.89,-1.02,1.02,-0.5,15.6,13.2,16.1,35.79,,,,,,,,,,
15.08.03.740,177.6,44.4,0,,,22784.2,43.89,-0.74,0.37,-0.95,14.2,15.0,5.9,35.72,,,,,,,,,,
15.08.03.750,210.0,52.5,0,,,22784.2,43.89,-0.28,1.28,0.14,-2.5,10.9,-7.0,36.14,,,,,,,,,,
15.08.03.760,319.4,79.8,0,,,22784.2,43.89,-0.42,0.92,0.11,-3.6,-8.2,-17.7,35.67,,,,,,,,,,
15.08.03.767,362.9,90.7,0,,,22784.2,43.89,-0.42,0.2,-0.29,-2.3,-3.6,1.0,35.73,,,,,,,,,,
15.08.03.775,392.3,98.1,0,,,22784.2,43.89,-0.41,0.47,-0.59,-42.8,12.1,-2.6,35.74,,,,,,,,,,
15.08.03.785,388.1,97.0,0,,,22784.2,43.89,-0.44,0.83,0.5,-18.4,23.6,7.0,35.72,,,,,,,,,,
15.08.03.797,517.3,129.3,0,,,22784.2,43.89,-0.24,0.49,-0.28,4.5,24.1,-6.4,36.23,,,,,,,,,,
15.08.03.806,517.2,129.3,0,,,22784.2,43.89,-0.59,0.98,0.87,-8.9,21.2,3.6,36.02,,,,,,,,,,
15.08.03.816,522.8,130.7,0,,,22784.2,43.89,-0.49,1.12,0.79,-6.4,-0.3,6.7,35.74,,,,,,,,,,
15.08.03.826,564.2,141.0,0,,,22784.2,43.89,-0.33,0.75,0.46,-11.1,-8.7,-6.4,35.87,,,,,,,,,,
15.08.03.835,464.6,116.2,0,,,22784.2,43.89,-0.4,0.39,0.77,20.9,-10.5,16.4,36.06,,,,,,,,,,
15.08.03.843,429.3,107.3,0,,,22784.2,43.89,-0.33,0.94,0.34,6.7,17.0,-20.7,35.99,,,,,,,,,,
15.08.03.852,480.7,120.2,0,,,22784.2,43.89,0.23,0.87,0.7,0.2,6.5,-25.3,35.71,,,,,,,,,,
15.08.03.860,350.9,87.7,0,,,22784.2,43.89,-0.58,0.91,-0.16,1.9,6.8,4.9,35.75,,,,,,,,,,
15.08.03.869,298.5,74.6,0,,,22784.2,43.89,-0.09,0.48,0.84,22.9,12.9,-2.6,35.82,,,,,,,,,,
15.08.03.879,221.7,55.4,0,,,22784.2,43.89,-0.64,0.27,1.5,-11.0,19.9,3.5,35.78,,,,,,,,,,
15.08.03.888,141.0,35.2,0,,,22784.2,43.89,-0.14,0.42,0.64,6.7,25.4,7.0,36.32,,,,,,,,,,
15.08.03.898,53.1,13.3,0,,,22784.2,43.89,0.16,0.53,-0.01,-24.0,25.5,8.3,35.55,,,,,,,,,,
15.08.03.905,73.5,18.4,0,,,22784.2,43.89,-0.15,0.54,-0.16,5.2,-10.0,9.5,35.94,,,,,,,,,,
15.08.03.914,86.2,21.6,1,9.0,151.5,22784.2,43.89,0.25,0.39,0.35,-17.5,-2.7,-22.3,35.9,,,,,,,,,,
15.08.03.924,39.3,9.8,0,,,22784.2,43.89,-0.08,0.64,0.94,-18.5,3.7,-1.3,35.67,,,,,,,,,,
15.08.03.934,79.1,19.8,0,,,22784.2,43.89,-0.09,0.85,0.38,34.5,-15.4,-4.2,35.85,,,,,,,,,,
15.08.03.943,53.8,13.4,0,,,22784.2,43.89,-0.07,0.41,0.72,-13.6,29.6,-16.1,35.61,,,,,,,,,,
15.08.03.953,62.8,15.7,0,,,22784.2,43.89,-0.38,0.09,0.09,-13.8,7.1,-13.4,35.69,,,,,,,,,,
15.08.03.963,79.2,19.8,0,,,22784.2,43.89,-0.12,0.18,-0.07,-6.7,10.3,6.6,35.95,,,,,,,,,,
15.08.03.972,114.7,28.7,0,,,22784.2,43.89,0.01,0.18,0.7,-4.9,1.9,11.7,35.78,,,,,,,,,,
15.08.03.984,82.8,20.7,0,,,22784.2,43.89,-0.55,0.23,0.13,-3.4,8.7,0.2,36.01,,,,,,,,,,
15.08.03.994,36.8,9.2,0,,,22784.2,43.89,0.02,-0.17,-0.29,-17.4,14.1,5.5,35.95,,,,,,,,,,
15.08.04.006,43.5,10.9,0,,,22784.2,43.89,-0.26,0.57,0.41,-13.9,14.6,-15.5,35.74,,,,,,,,,,
15.08.04.015,22.9,5.7,0,,,22784.2,43.89,-0.58,0.87,-0.81,6.0,8.3,-16.8,35.39,,,,,,,,,,
15.08.04.023,-27.1,6.8,0,,,22784.2,43.89,-0.71,0.2,-0.05,-8.9,8.0,4.8,35.77,,,,,,,,,,
15.08.04.032,45.0,11.2,0,,,22784.2,43.89,-0.62,1.17,0.38,1.5,1.8,-8.5,35.82,,,,,,,,,,
15.08.04.039,-17.7,4.4,0,,,22789.4,43.88,-0.63,0.71,-0.74,-15.9,-17.5,-25.2,35.53,,,,,,,,,,
15.08.04.049,-69.4,17.4,0,,,22789.4,43.88,-0.56,0.96,-0.61,-11.0,4.9,-0.3,35.7,,,,,,,,,,
15.08.04.059,-37.9,9.5,0,,,22789.4,43.88,-0.32,0.84,-0.25,-17.2,6.6,21.2,35.92,,,,,,,,,,
15.08.04.071,-40.3,10.1,0,,,22789.4,43.88,-0.67,0.71,0.22,37.1,7.8,-7.3,35.86,,,,,,,,,,
15.08.04.083,5.8,1.4,0,,,22789.4,43.88,-0.73,0.27,-0.95,13.6,16.0,-0.1,36.07,,,,,,,,,,
15.08.04.094,-74.9,18.7,0,,,22789.4,43.88,-0.49,0.17,-0.75,-20.6,6.6,-14.3,36.22,,,,,,,,,,
15.08.04.101,-73.5,18.4,0,,,22789.4,43.88,-0.52,1.08,0.45,-19.3,-11.7,4.5,35.79,,,,,,,,,,
15.08.04.112,-49.3,12.3,0,,,22789.4,43.88,-0.72,0.96,0.76,-18.1,28.2,-17.5,36.04,,,,,,,,,,
15.08.04.120,-54.5,13.6,0,,,22789.4,43.88,-0.28,0.48,-0.83,-7.5,19.3,16.0,35.79,,,,,,,,,,
15.08.04.132,-98.7,24.7,0,,,22789.4,43.88,-0.38,1.06,0.65,-12.9,-1.1,-3.0,35.87,,,,,,,,,,
15.08.04.142,-137.5,34.4,0,,,22789.4,43.88,-0.2,0.49,-0.06,-25.8,9.0,-2.4,35.87,,,,,,,,,,
15.08.04.152,-156.9,39.2,0,,,22794.6,43.87,-0.54,0.47,-0.53,7.6,8.1,16.0,35.93,,,,,,,,,,
15.08.04.161,-110.3,27.6,0,,,22794.6,43.87,-0.14,1.54,0.74,-18.1,-15.8,1.1,35.51,,,,,,,,,,
15.08.04.169,-115.3,28.8,0,,,22794.6,43.87,-0.24,1.62,0.77,17.9,18.1,16.7,35.58,,,,,,,,,,
15.08.04.178,-162.0,40.5,0,,,22794.6,43.87,0.2,0.32,0.7,8.8,23.1,-9.4,36.16,,,,,,,,,,
15.08.04.188,-154.4,38.6,0,,,22794.6,43.87,-0.34,0.77,0.48,1.7,24.4,-9.7,35.97,,,,,,,,,,
15.08.04.199,-180.8,45.2,0,,,22794.6,43.87,-0.35,0.95,0.39,14.5,18.1,15.3,35.69,,,,,,,,,,
15.08.04.210,-113.1,28.3,0,,,22794.6,43.87,0.07,0.57,0.81,4.0,27.0,13.4,35.83,,,,,,,,,,
15.08.04.222,-137.5,34.4,0,,,22794.6,43.87,-0.14,0.72,1.09,-8.8,8.6,-0.4,35.83,,,,,,,,,,
15.08.04.230,-127.7,31.9,0,,,22794.6,43.87,-0.3,0.38,0.21,19.8,23.1,3.5,35.84,,,,,,,,,,
15.08.04.239,-182.9,45.7,0,,,22794.6,43.87,-0.29,0.42,0.44,6.2,12.7,-0.3,35.91,,,,,,,,,,
15.08.04.248,-194.0,48.5,0,,,22794.6,43.87,-0.07,0.3,-0.04,9.2,-9.5,-18.9,35.8,,,,,,,,,,
15.08.04.257,72.7,18.2,0,,,22794.6,43.87,-0.08,0.14,0.47,-5.8,14.6,0.1,35.93,,,,,,,,,,
15.08.04.266,170.2,42.6,0,,,22799.8,43.86,0.12,0.73,0.12,8.6,5.9,-19.9,35.58,,,,,,,,,,
15.08.04.276,213.5,53.4,0,,,22799.8,43.86,-0.23,-0.14,0.8,-8.4,33.9,4.4,36.08,,,,,,,,,,
15.08.04.287,277.7,69.4,0,,,22799.8,43.86,-0.13,0.61,0.56,-6.6,-28.6,2.5,35.74,,,,,,,,,,
15.08.04.294,301.2,75.3,0,,,22799.8,43.86,-0.31,-0.02,0.28,2.4,-2.1,-9.4,35.81,,,,,,,,,,
15.08.04.303,380.1,95.0,0,,,22799.8,43.86,-0.36,-0.07,0.12,-24.0,18.7,-6.9,35.53,,,,,,,,,,
15.08.04.312,417.3,104.3,0,,,22799.8,43.86,-0.22,0.35,0.29,-8.7,5.5,-13.4,36.26,,,,,,,,,,
15.08.04.321,393.8,98.4,0,,,22799.8,43.86,-0.36,0.22,-0.45,2.3,12.9,-2.4,36.32,,,,,,,,,,
15.08.04.332,443.3,110.8,0,,,22799.8,43.86,-0.32,0.48,-0.24,9.1,0.3,-7.1,35.77,,,,,,,,,,
15.08.04.343,470.8,117.7,0,,,22799.8,43.86,-0.8,0.42,0.1,1.9,8.9,-1.3,35.98,,,,,,,,,,
15.08.04.353,562.3,140.6,0,,,22799.8,43.86,-0.73,0.2,-0.35,26.7,0.8,1.5,35.75,,,,,,,,,,
15.08.04.362,370.7,92.7,0,,,22799.8,43.86,-0.82,0.35,-0.58,11.1,17.6,-6.0,35.82,,,,,,,,,,
15.08.04.372,445.0,111.2,0,,,22799.8,43.86,-0.63,0.6,-0.66,-10.5,12.0,-4.6,35.95,,,,,,,,,,
15.08.04.382,379.6,94.9,0,,,22805.0,43.85,-0.4,0.5,-0.27,-2.9,-0.3,9.8,35.26,,,,,,,,,,
15.08.04.392,349.7,87.4,1,10.0,125.5,22805.0,43.85,-1.26,1.04,-0.5,-17.7,-19.2,-5.7,36.1,,,,,,,,,,
15.08.04.402,271.6,67.9,0,,,22805.0,43.85,-0.43,0.45,-0.58,-15.7,6.1,-14.4,35.65,,,,,,,,,,
15.08.04.410,203.1,50.8,0,,,22805.0,43.85,-0.45,0.3,1.21,-1.0,27.3,7.7,35.96,,,,,,,,,,
15.08.04.420,82.5,20.6,0,,,22805.0,43.85,-0.47,0.35,-0.25,-4.5,1.8,5.7,36.18,,,,,,,,,,
15.08.04.429,30.2,7.6,0,,,22805.0,43.85,-0.57,0.66,0.14,-11.3,8.1,9.2,35.76,,,,,,,,,,
15.08.04.439,31.7,7.9,0,,,22805.0,43.85,-0.64,0.77,-0.12,8.9,-15.3,-12.9,35.65,,,,,,,,,,
15.08.04.448,0.2,0.0,0,,,22805.0,43.85,-0.57,0.83,-0.1,-36.1,10.6,-2.8,35.78,,,,,,,,,,
15.08.04.458,-12.2,3.0,0,,,22805.0,43.85,-0.06,0.28,0.36,-28.9,23.5,-11.8,35.97,,,,,,,,,,
15.08.04.469,42.5,10.6,0,,,22805.0,43.85,-0.45,1.46,-0.01,-2.2,-3.0,-19.8,35.77,,,,,,,,,,
15.08.04.480,60.7,15.2,0,,,22805.0,43.85,-0.26,1.19,0.28,-0.1,-7.8,-13.7,35.62,,,,,,,,,,
15.08.04.489,116.8,29.2,0,,,22805.0,43.85,-0.71,0.94,0.05,22.3,7.9,11.6,35.59,,,,,,,,,,
15.08.04.499,107.3,26.8,0,,,22810.2,43.84,-0.36,1.11,0.38,0.8,38.7,-9.6,35.74,,,,,,,,,,
15.08.04.508,88.3,22.1,0,,,22810.2,43.84,-0.39,0.98,0.48,8.8,19.0,9.3,36.01,,,,,,,,,,
15.08.04.517,41.7,10.4,0,,,22810.2,43.84,-0.06,0.83,0.26,-12.9,13.1,-14.3,35.65,,,,,,,,,,
15.08.04.526,45.2,11.3,0,,,22810.2,43.84,-0.5,0.39,0.27,-22.0,-6.9,-2.6,35.77,,,,,,,,,,
15.08.04.536,-5.3,1.3,0,,,22810.2,43.84,-0.03,0.45,0.41,-7.0,-20.3,5.5,35.77,,,,,,,,,,
15.08.04.544,35.3,8.8,0,,,22810.2,43.84,0.23,0.73,1.52,20.2,-22.6,7.7,35.74,,,,,,,,,,
15.08.04.555,-53.0,13.2,0,,,22810.2,43.84,-0.17,1.03,1.07,9.3,13.9,3.4,35.94,,,,,,,,,,
15.08.04.566,53.9,13.5,0,,,22810.2,43.84,-0.19,0.57,1.03,-14.4,29.1,8.7,35.63,,,,,,,,,,
15.08.04.575,-10.7,2.7,0,,,22810.2,43.84,0.62,0.53,1.07,20.1,14.0,-11.9,35.65,,,,,,,,,,
15.08.04.585,-66.1,16.5,0,,,22810.2,43.84,-0.23,0.28,1.07,7.9,-8.4,-4.1,35.67,,,,,,,,,,
15.08.04.596,-44.1,11.0,0,,,22810.2,43.84,-0.08,0.52,0.87,-5.5,-10.1,-14.5,35.59,,,,,,,,,,
15.08.04.604,-81.9,20.5,0,,,22815.4,43.83,-0.29,0.31,0.21,-5.0,-6.0,-4.3,36.04,,,,,,,,,,
15.08.04.615,-10.7,2.7,0,,,22815.4,43.83,-0.03,0.17,0.64,-37.1,6.4,16.4,35.95,,,,,,,,,,
15.08.04.624,-110.0,27.5,0,,,22815.4,43.83,-0.14,0.48,0.64,-15.4,12.3,-12.0,35.55,,,,,,,,,,
15.08.04.634,-118.7,29.7,0,,,22815.4,43.83,0.01,0.9,0.27,-16.3,17.4,-7.8,35.69,,,,,,,,,,
15.08.04.645,-149.5,37.4,0,,,22815.4,43.83,-0.31,0.15,0.22,0.5,-4.0,-14.0,35.65,,,,,,,,,,
15.08.04.657,-45.9,11.5,0,,,22815.4,43.83,-0.36,0.25,0.3,-7.8,-15.4,-4.8,36.05,,,,,,,,,,
15.08.04.666,-102.1,25.5,0,,,22815.4,43.83,-0.32,0.37,0.03,-25.7,10.8,-1.8,35.89,,,,,,,,,,
15.08.04.674,-103.1,25.8,0,,,22815.4,43.83,-0.52,0.56,-0.21,14.7,-1.7,-2.1,35.6,,,,,,,,,,
15.08.04.683,-113.5,28.4,0,,,22815.4,43.83,-0.2,0.07,0.61,18.7,-7.8,23.7,35.92,,,,,,,,,,
15.08.04.693,-158.4,39.6,0,,,22815.4,43.83,-0.76,0.38,-0.53,17.0,13.1,-1.9,35.7,,,,,,,,,,
15.08.04.702,-151.5,37.9,0,,,22815.4,43.83,-0.66,1.1,0.23,-11.7,-6.4,0.6,36.37,,,,,,,,,,
15.08.04.710,-154.5,38.6,0,,,22815.4,43.83,-0.21,0.56,-0.32,-4.3,23.4,-13.3,36.15,,,,,,,,,,
15.08.04.720,-145.3,36.3,0,,,22820.6,43.82,-0.55,0.39,-0.17,-6.5,4.4,4.3,35.98,,,,,,,,,,
15.08.04.728,-173.1,43.3,0,,,22820.6,43.82,-0.53,0.47,0.42,-16.6,-11.0,5.6,35.68,,,,,,,,,,
15.08.04.737,-143.7,35.9,0,,,22820.6,43.82,-0.77,1.38,0.2,19.5,10.5,-17.6,35.68,,,,,,,,,,
15.08.04.746,-215.1,53.8,0,,,22820.6,43.82,-0.59,0.68,0.02,-24.6,-1.3,-11.9,35.99,,,,,,,,,,
15.08.04.756,-166.4,41.6,0,,,22820.6,43.82,-0.49,0.99,-0.93,14.5,2.9,13.6,35.78,,,,,,,,,,
15.08.04.767,-249.3,62.3,0,,,22820.6,43.82,-0.31,0.95,-1.07,-5.7,12.1,-10.3,35.57,,,,,,,,,,
15.08.04.777,-230.9,57.7,0,,,22820.6,43.82,-0.8,0.53,-0.44,4.1,-2.6,-3.1,35.88,,,,,,,,,,
15.08.04.788,100.1,25.0,0,,,22820.6,43.82,-0.73,0.6,1.14,16.2,1.6,9.4,36.01,,,,,,,,,,
15.08.04.798,144.2,36.0,1,11.0,147.8,22820.6,43.82,-0.57,0.98,0.17,-25.9,-18.6,17.8,35.7,,,,,,,,,,
15.08.04.806,274.6,68.6,0,,,22820.6,43.82,-0.62,0.52,0.44,19.7,9.3,-0.3,35.97,,,,,,,,,,
15.08.04.816,267.6,66.9,0,,,22820.6,43.82,-0.22,0.85,0.51,22.2,-3.1,-5.3,35.42,,,,,,,,,,
15.08.04.826,376.6,94.2,0,,,22820.6,43.82,-0.32,1.62,0.62,12.9,4.5,6.6,36.21,,,,,,,,,,
15.08.04.836,379.7,94.9,0,,,22825.8,43.81,-0.26,1.63,0.38,-14.9,-28.6,-1.6,35.65,,,,,,,,,,
15.08.04.848,524.4,131.1,0,,,22825.8,43.81,0.04,0.94,0.65,12.4,17.5,-10.9,35.81,,,,,,,,,,
15.08.04.858,481.3,120.3,0,,,22825.8,43.81,0.06,0.45,0.04,1.2,7.4,-6.8,35.76,,,,,,,,,,
15.08.04.866,499.0,124.8,0,,,22825.8,43.81,-0.07,0.5,0.94,8.3,8.2,-3.9,35.53,,,,,,,,,,
15.08.04.876,495.2,123.8,0,,,22825.8,43.81,-0.47,0.59,0.6,17.1,-7.8,-0.6,35.92,,,,,,,,,,
15.08.04.886,480.9,120.2,0,,,22825.8,43.81,-0.45,0.66,0.45,-3.9,12.9,0.5,35.92,,,,,,,,,,
15.08.04.896,449.3,112.3,0,,,22825.8,43.81,-0.02,0.49,0.35,0.3,26.4,-1.1,35.62,,,,,,,,,,
15.08.04.906,419.2,104.8,0,,,22825.8,43.81,0.23,0.78,1.1,-3.1,-8.1,-5.5,35.72,,,,,,,,,,
15.08.04.916,383.8,96.0,0,,,22825.8,43.81,0.1,1.12,0.21,3.1,10.4,-13.6,35.8,,,,,,,,,,
15.08.04.926,211.1,52.8,0,,,22825.8,43.81,-0.04,0.6,0.17,20.7,2.1,-7.1,35.7,,,,,,,,,,
15.08.04.935,166.7,41.7,0,,,22825.8,43.81,-0.26,0.75,0.82,17.7,-3.7,-9.9,36.21,,,,,,,,,,
15.08.04.944,109.4,27.4,0,,,22825.8,43.81,-0.45,0.4,0.61,-7.4,26.5,1.0,35.56,,,,,,,,,,
15.08.04.951,88.9,22.2,0,,,22831.1,43.8,-0.27,0.17,0.31,6.3,-14.9,6.6,35.82,,,,,,,,,,
15.08.04.961,1.1,0.3,0,,,22831.1,43.8,-0.8,0.7,0.62,14.2,5.6,3.2,35.78,,,,,,,,,,
15.08.04.969,-1.0,0.2,0,,,22831.1,43.8,-0.43,-0.08,-0.17,-38.3,-12.7,9.0,35.85,,,,,,,,,,
15.08.04.981,31.5,7.9,0,,,22831.1,43.8,-0.32,0.15,0.16,25.1,-26.5,-7.2,35.59,,,,,,,,,,
15.08.04.990,71.5,17.9,0,,,22831.1,43.8,-0.71,0.26,0.64,-9.9,16.0,0.5,35.92,,,,,,,,,,
15.08.04.999,66.1,16.5,0,,,22831.1,43.8,-0.94,0.03,-0.45,26.5,11.1,-8.4,36.02,,,,,,,,,,
15.08.05.008,80.1,20.0,0,,,22831.1,43.8,-0.55,0.97,1.0,-7.1,2.9,-22.4,35.97,113.1,,,,,,,,,
15.08.05.016,95.6,23.9,0,,,22831.1,43.8,-0.25,0.23,0.38,-2.8,-18.9,25.1,35.77,,,,,,,,,,
15.08.05.025,72.3,18.1,0,,,22831.1,43.8,-0.77,0.35,0.84,-7.9,13.6,11.9,36.14,,,,,,,,,,
15.08.05.033,96.5,24.1,0,,,22831.1,43.8,-0.4,0.54,-1.03,18.8,-13.3,5.8,35.72,,,,,,,,,,
15.08.05.041,69.8,17.4,0,,,22831.1,43.8,-0.32,0.43,0.44,15.7,12.5,-10.5,35.86,,,,,,,,,,
15.08.05.052,60.3,15.1,0,,,22831.1,43.8,-0.52,1.14,-0.1,40.2,30.9,-10.8,35.98,,,,,,,,,,
15.08.05.060,6.2,1.6,0,,,22831.1,43.8,-0.87,0.43,-0.41,-35.6,-23.0,1.4,35.98,,,,,,,,,,
15.08.05.072,1.3,0.3,0,,,22831.1,43.8,-0.72,0.91,0.52,27.3,15.8,-15.5,35.74,,,,,,,,,,
15.08.05.080,-25.9,6.5,0,,,22836.3,43.79,-0.53,0.36,-0.51,0.6,1.6,19.1,35.89,,,,,,,,,,
15.08.05.090,-15.2,3.8,0,,,22836.3,43.79,-0.88,0.47,0.13,8.6,-18.5,-26.7,35.97,,,,,,,,,,
15.08.05.100,4.7,1.2,0,,,22836.3,43.79,-0.55,0.56,0.22,-13.7,17.5,-18.2,35.68,,,,,,,,,,
15.08.05.111,-21.7,5.4,0,,,22836.3,43.79,-0.61,1.04,1.11,-15.9,6.4,10.1,35.84,,,,,,,,,,
15.08.05.119,-58.1,14.5,0,,,22836.3,43.79,-0.56,1.16,-0.05,7.4,-0.4,21.0,35.9,,,,,,,,,,
15.08.05.130,-68.8,17.2,0,,,22836.3,43.79,-0.39,0.38,-0.04,-9.6,-15.1,-21.4,35.73,,,,,,,,,,
15.08.05.142,14.5,3.6,0,,,22836.3,43.79,-0.48,0.83,-0.37,19.5,-5.5,-1.0,35.34,,,,,,,,,,
15.08.05.153,-70.4,17.6,0,,,22836.3,43.79,-0.2,0.6,-0.11,-14.8,28.1,-11.5,36.02,,,,,,,,,,
15.08.05.163,-64.1,16.0,1,12.0,164.4,22836.3,43.79,-0.79,0.69,0.41,0.3,-4.5,-14.2,35.71,,,,,,,,,,
15.08.05.173,-50.3,12.6,0,,,22836.3,43.79,-0.14,1.05,0.76,24.0,-10.0,4.8,35.87,,,,,,,,,,
15.08.05.184,-132.9,33.2,0,,,22836.3,43.79,-0.4,0.84,-0.04,-17.0,27.3,4.1,35.92,,,,,,,,,,
15.08.05.195,-95.2,23.8,0,,,22836.3,43.79,-0.22,-0.0,0.24,-0.8,19.7,-1.5,35.67,,,,,,,,,,
15.08.05.202,-95.8,24.0,0,,,22836.3,43.79,-0.29,0.99,0.87,1.2,-0.9,-9.1,35.67,,,,,,,,,,
15.08.05.212,-118.0,29.5,0,,,22836.3,43.79,-0.14,1.19,0.65,5.5,23.5,3.8,35.78,,,,,,,,,,
15.08.05.221,-108.0,27.0,0,,,22836.3,43.79,-0.4,0.86,1.1,-7.5,13.1,-16.8,35.78,,,,,,,,,,
15.08.05.230,-189.7,47.4,0,,,22841.5,43.78,-0.5,0.21,0.28,-54.0,3.8,-1.6,35.87,,,,,,,,,,
15.08.05.239,-118.2,29.6,0,,,22841.5,43.78,0.1,0.74,-0.0,-13.5,18.2,-17.0,35.77,,,,,,,,,,
15.08.05.248,-202.3,50.6,0,,,22841.5,43.78,-0.0,0.35,0.02,12.7,-6.3,14.8,35.62,,,,,,,,,,
15.08.05.256,-169.9,42.5,0,,,22841.5,43.78,0.11,0.35,-0.19,-6.3,-2.6,7.5,35.73,,,,,,,,,,
15.08.05.267,-216.0,54.0,0,,,22841.5,43.78,-0.37,0.75,1.01,-3.0,24.9,10.4,36.24,,,,,,,,,,
15.08.05.277,-144.0,36.0,0,,,22841.5,43.78,-0.21,-0.31,1.19,9.4,12.8,-2.3,36.01,,,,,,,,,,
15.08.05.288,-141.6,35.4,0,,,22841.5,43.78,-0.4,-0.03,1.36,-46.6,8.4,-1.4,35.59,,,,,,,,,,
15.08.05.297,-196.7,49.2,0,,,22841.5,43.78,-0.44,0.55,0.32,-4.2,14.9,17.9,35.61,,,,,,,,,,
15.08.05.307,72.1,18.0,0,,,22841.5,43.78,0.06,0.2,-0.24,-25.1,-4.7,5.8,35.62,,,,,,,,,,
15.08.05.318,156.0,39.0,0,,,22841.5,43.78,-0.28,0.2,0.06,31.6,-5.8,-2.4,36.03,,,,,,,,,,
15.08.05.327,170.9,42.7,0,,,22841.5,43.78,-0.3,0.38,0.47,19.3,17.8,-13.6,35.57,,,,,,,,,,
15.08.05.336,299.5,74.9,0,,,22841.5,43.78,-0.5,0.54,0.9,-21.8,-8.5,-3.2,35.93,,,,,,,,,,
15.08.05.346,303.0,75.8,0,,,22841.5,43.78,-0.3,-0.73,-0.15,44.6,-1.5,-21.4,35.66,,,,,,,,,,
15.08.05.359,378.3,94.6,0,,,22841.5,43.78,-0.43,0.34,-0.44,-10.6,-0.6,-15.8,35.75,,,,,,,,,,
15.08.05.369,499.4,124.8,0,,,22841.5,43.78,-0.43,0.26,-1.0,-3.0,15.6,4.0,35.8,,,,,,,,,,
15.08.05.378,437.1,109.3,0,,,22846.7,43.77,-0.29,0.11,-0.14,-3.5,24.5,-11.1,35.49,,,,,,,,,,
15.08.05.388,442.5,110.6,0,,,22846.7,43.77,-0.54,0.04,-0.03,-21.9,-14.8,6.1,35.84,,,,,,,,,,
15.08.05.396,518.5,129.6,0,,,22846.7,43.77,-0.42,0.22,-0.63,10.1,22.7,-3.4,36.01,,,,,,,,,,
15.08.05.404,572.7,143.2,0,,,22846.7,43.77,-0.47,-0.33,0.33,11.9,6.9,-4.7,35.7,,,,,,,,,,
15.08.05.414,509.7,127.4,0,,,22846.7,43.77,-0.34,0.67,-0.05,3.5,6.0,14.7,35.66,,,,,,,,,,
15.08.05.425,366.4,91.6,0,,,22846.7,43.77,-0.83,0.49,-0.06,-2.0,15.5,10.2,36.09,,,,,,,,,,
15.08.05.434,389.4,97.4,0,,,22846.7,43.77,-0.05,0.73,-0.38,8.2,34.2,-10.1,35.62,,,,,,,,,,
15.08.05.443,347.0,86.8,0,,,22846.7,43.77,-0.61,0.59,-0.7,-1.8,25.5,9.9,35.6,,,,,,,,,,
15.08.05.453,267.2,66.8,0,,,22846.7,43.77,-0.84,0.78,-0.61,2.8,18.3,-2.7,35.71,,,,,,,,,,
15.08.05.463,196.3,49.1,0,,,22846.7,43.77,-0.78,0.63,-0.22,-20.1,5.6,5.9,35.7,,,,,,,,,,
15.08.05.474,88.8,22.2,0,,,22846.7,43.77,-0.38,0.97,-0.91,1.3,-11.7,8.3,35.98,,,,,,,,,,
15.08.05.484,17.1,4.3,0,,,22846.7,43.77,-0.2,0.83,0.11,2.9,7.2,-21.4,35.89,,,,,,,,,,
15.08.05.492,0.7,0.2,0,,,22846.7,43.77,-0.8,0.24,-0.45,19.1,26.1,16.8,35.59,,,,,,,,,,
15.08.05.500,16.3,4.1,0,,,22846.7,43.77,0.02,2.0,-0.33,14.7,9.3,-10.8,36.15,,,,,,,,,,
15.08.05.509,10.4,2.6,0,,,22846.7,43.77,-0.63,0.88,0.98,11.8,-12.2,4.0,35.96,,,,,,,,,,
15.08.05.518,99.8,25.0,0,,,22846.7,43.77,-0.7,1.03,0.45,36.0,18.4,-12.2,35.95,,,,,,,,,,
15.08.05.528,87.2,21.8,0,,,22851.9,43.76,-0.53,0.36,0.42,-5.9,15.0,7.5,35.73,,,,,,,,,,
15.08.05.537,150.1,37.5,0,,,22851.9,43.76,-0.46,0.64,0.05,-20.1,1.0,-4.4,35.59,,,,,,,,,,
15.08.05.546,40.1,10.0,0,,,22851.9,43.76,-0.49,0.31,0.32,30.9,-3.9,-16.1,36.12,,,,,,,,,,
15.08.05.555,45.1,11.3,0,,,22851.9,43.76,-0.44,1.07,0.16,31.4,5.9,-16.8,35.88,,,,,,,,,,
15.08.05.564,51.6,12.9,1,13.0,149.6,22851.9,43.76,-0.17,0.58,1.11,-11.3,19.9,2.4,35.43,,,,,,,,,,
15.08.05.571,83.6,20.9,0,,,22851.9,43.76,-0.12,1.1,1.04,10.2,-6.5,9.6,35.88,,,,,,,,,,
15.08.05.581,40.9,10.2,0,,,22851.9,43.76,-0.16,0.21,0.24,-19.9,-1.2,-6.6,35.67,,,,,,,,,,
15.08.05.592,-47.2,11.8,0,,,22851.9,43.76,-0.4,0.6,0.54,1.9,-5.2,-6.9,35.86,,,,,,,,,,
15.08.05.601,-65.3,16.3,0,,,22851.9,43.76,-0.1,0.61,0.26,1.3,24.1,-0.5,35.81,,,,,,,,,,
15.08.05.611,-53.5,13.4,0,,,22851.9,43.76,-0.14,0.71,1.95,-8.8,18.0,-9.6,35.91,,,,,,,,,,
15.08.05.618,-1.3,0.3,0,,,22851.9,43.76,-0.26,0.3,1.44,1.6,33.7,-13.0,36.15,,,,,,,,,,
15.08.05.626,-13.5,3.4,0,,,22851.9,43.76,0.0,0.2,0.23,29.9,-0.1,-1.0,36.04,,,,,,,,,,
15.08.05.638,-19.2,4.8,0,,,22851.9,43.76,-0.35,0.14,1.11,6.2,1.8,-9.9,35.78,,,,,,,,,,
15.08.05.645,-54.2,13.6,0,,,22851.9,43.76,-0.51,0.17,0.46,1.0,-8.6,6.4,35.89,,,,,,,,,,
15.08.05.653,-25.8,6.4,0,,,22851.9,43.76,-0.48,0.51,0.47,9.9,13.7,3.8,35.81,,,,,,,,,,
15.08.05.661,-47.7,11.9,0,,,22851.9,43.76,-0.57,0.3,-0.06,-19.8,-17.6,3.8,35.83,,,,,,,,,,
15.08.05.672,-108.7,27.2,0,,,22857.1,43.75,-0.23,-0.07,0.04,-47.5,3.3,6.7,35.78,,,,,,,,,,
15.08.05.682,-111.9,28.0,0,,,22857.1,43.75,-0.56,0.0,0.13,17.3,18.6,17.2,35.74,,,,,,,,,,
15.08.05.692,-73.8,18.4,0,,,22857.1,43.75,-0.53,0.28,-0.65,-10.2,21.0,-11.1,35.91,,,,,,,,,,
15.08.05.701,-72.8,18.2,0,,,22857.1,43.75,-0.49,0.4,0.01,8.3,16.0,14.9,35.96,,,,,,,,,,
15.08.05.711,,,0,,,,,,,,,,,,,,,,,,,,,
15.08.05.723,-138.5,34.6,0,,,22857.1,43.75,-0.73,0.42,-0.37,6.8,12.9,-4.2,35.92,,,,,,,,,,
15.08.05.732,-132.8,33.2,0,,,22857.1,43.75,-0.94,0.74,-0.88,-13.0,16.1,6.4,35.96,,,,,,,,,,
15.08.05.741,-152.7,38.2,0,,,22857.1,43.75,-0.7,1.01,-0.35,-22.1,42.5,28.6,35.69,,,,,,,,,,
15.08.05.751,-138.8,34.7,0,,,22857.1,43.75,-0.24,0.15,0.96,-14.3,14.3,19.7,35.96,,,,,,,,,,
15.08.05.763,-131.3,32.8,0,,,22857.1,43.75,-0.98,0.87,-1.27,0.4,11.7,0.2,35.92,,,,,,,,,,
15.08.05.772,-154.5,38.6,0,,,22857.1,43.75,-0.45,1.07,-0.77,-17.7,5.0,2.0,35.8,,,,,,,,,,
15.08.05.781,-112.0,28.0,0,,,22857.1,43.75,-0.85,1.1,-0.03,1.2,-4.1,-5.2,35.74,,,,,,,,,,
15.08.05.790,-178.3,44.6,0,,,22857.1,43.75,-0.59,0.09,-0.01,-20.0,-10.3,2.7,35.87,,,,,,,,,,
15.08.05.799,-155.7,38.9,0,,,22857.1,43.75,-0.55,1.09,-0.07,20.3,-9.7,3.6,35.98,,,,,,,,,,
15.08.05.810,-112.1,28.0,0,,,22857.1,43.75,-0.52,1.62,-0.21,1.1,12.7,8.1,35.72,,,,,,,,,,
15.08.05.821,-172.7,43.2,0,,,22862.4,43.74,-0.73,1.06,-0.17,32.8,-3.3,-8.0,35.82,,,,,,,,,,
15.08.05.831,54.7,13.7,0,,,22862.4,43.74,-0.32,0.56,0.51,-19.0,18.1,8.5,35.59,,,,,,,,,,
15.08.05.840,129.3,32.3,0,,,22862.4,43.74,-0.52,0.71,0.13,-31.9,15.4,-3.3,35.74,,,,,,,,,,
15.08.05.849,195.0,48.8,0,,,22862.4,43.74,-0.25,0.83,0.56,-4.9,16.4,-13.3,36.08,,,,,,,,,,
15.08.05.860,220.8,55.2,0,,,22862.4,43.74,-0.43,0.94,0.44,22.5,-1.3,-4.3,35.57,,,,,,,,,,
15.08.05.869,297.4,74.4,0,,,22862.4,43.74,-0.56,1.13,-0.06,-16.1,16.5,-0.5,35.81,,,,,,,,,,
15.08.05.879,356.3,89.1,0,,,22862.4,43.74,-0.29,1.42,-0.4,-8.0,-12.0,10.3,35.86,,,,,,,,,,
15.08.05.888,460.5,115.1,0,,,22862.4,43.74,-0.09,0.68,1.09,12.5,-0.8,-16.5,35.66,,,,,,,,,,
15.08.05.899,490.5,122.6,0,,,22862.4,43.74,-0.33,0.95,0.54,25.9,18.4,-21.5,35.74,,,,,,,,,,
15.08.05.908,443.7,110.9,0,,,22862.4,43.74,0.17,1.09,-0.08,27.4,-4.2,-1.5,35.69,,,,,,,,,,
15.08.05.917,430.4,107.6,0,,,22862.4,43.74,-0.17,0.11,0.39,2.1,-8.8,-1.3,35.82,,,,,,,,,,
15.08.05.927,539.3,134.8,0,,,22862.4,43.74,0.1,0.59,1.4,-6.4,-9.8,-7.8,35.64,,,,,,,,,,
15.08.05.937,484.5,121.1,0,,,22862.4,43.74,0.03,0.08,-0.34,-2.4,10.6,4.0,36.12,,,,,,,,,,
15.08.05.947,403.8,101.0,0,,,22862.4,43.74,-0.42,1.14,0.93,-27.4,17.4,-5.4,35.7,,,,,,,,,,
15.08.05.957,385.8,96.4,0,,,22862.4,43.74,-0.28,0.53,0.17,-4.0,21.5,16.3,36.02,,,,,,,,,,
15.08.05.967,294.0,73.5,0,,,22867.6,43.73,0.22,-0.3,0.49,17.9,-9.4,7.3,36.0,,,,,,,,,,
15.08.05.975,289.1,72.3,0,,,22867.6,43.73,-0.09,0.55,0.82,34.0,-3.2,-9.5,35.67,,,,,,,,,,
15.08.05.985,218.0,54.5,0,,,22867.6,43.73,-0.71,0.17,1.27,7.9,-2.1,-2.6,35.9,,,,,,,,,,
15.08.05.996,123.8,31.0,0,,,22867.6,43.73,-0.11,0.29,0.53,10.9,7.4,2.3,35.81,,,,,,,,,,
15.08.06.007,-37.3,9.3,1,14.0,135.4,22867.6,43.73,-0.47,-0.31,-0.17,-5.1,8.1,5.0,35.77,,,,,,,,,,
15.08.06.018,45.9,11.5,0,,,22867.6,43.73,-0.65,0.61,0.71,15.6,-9.4,3.9,36.06,,,,,,,,,,
15.08.06.027,87.3,21.8,0,,,22867.6,43.73,-0.47,0.06,0.45,-10.7,11.0,-18.1,36.11,,,,,,,,,,
15.08.06.035,98.1,24.5,0,,,22867.6,43.73,-0.31,0.57,1.0,28.4,28.9,4.9,35.4,,,,,,,,,,
15.08.06.045,36.4,9.1,0,,,22862.4,43.74,-0.66,0.53,1.21,9.1,2.6,-1.2,35.7,,,,,,,,,,
15.08.06.053,112.4,28.1,0,,,22862.4,43.74,-0.18,-0.1,0.36,1.5,-6.7,0.8,36.12,,,,,,,,,,
15.08.06.062,161.9,40.5,0,,,22862.4,43.74,-0.62,0.69,0.61,2.9,-13.7,-11.9,35.78,,,,,,,,,,
15.08.06.073,77.8,19.4,0,,,22862.4,43.74,-0.68,0.11,-0.67,-38.8,4.2,3.1,35.81,,,,,,,,,,
15.08.06.080,66.1,16.5,0,,,22862.4,43.74,-0.44,0.1,0.06,21.4,-9.8,-1.3,35.94,,,,,,,,,,
15.08.06.089,74.2,18.6,0,,,22862.4,43.74,-0.32,0.82,-0.95,-23.7,-12.3,-14.3,35.89,,,,,,,,,,
15.08.06.101,-23.9,6.0,0,,,22862.4,43.74,-0.92,0.48,-0.58,-26.4,0.6,-4.2,35.79,,,,,,,,,,
15.08.06.112,-17.5,4.4,0,,,22862.4,43.74,-1.02,0.65,-1.14,-25.1,6.5,0.9,35.92,,,,,,,,,,
15.08.06.122,-8.2,2.0,0,,,22862.4,43.74,-0.5,0.57,0.01,-5.0,0.7,5.4,35.94,,,,,,,,,,
15.08.06.131,-45.0,11.2,0,,,22862.4,43.74,-0.83,0.37,0.52,5.2,-3.9,-11.0,36.18,,,,,,,,,,
15.08.06.142,-95.2,23.8,0,,,22862.4,43.74,-0.53,0.84,-0.41,-8.0,19.2,6.8,36.03,,,,,,,,,,
15.08.06.153,-44.0,11.0,0,,,22862.4,43.74,-0.04,0.79,0.19,43.4,33.4,-3.7,35.9,,,,,,,,,,
15.08.06.164,-68.4,17.1,0,,,22862.4,43.74,-0.72,1.14,-0.94,-42.2,12.0,2.3,36.19,,,,,,,,,,
15.08.06.173,-107.6,26.9,0,,,22862.4,43.74,-0.63,1.43,0.33,-28.8,17.7,17.0,36.13,,,,,,,,,,
15.08.06.183,-74.0,18.5,0,,,22862.4,43.74,-0.55,0.48,0.76,-0.6,21.8,7.9,35.72,,,,,,,,,,
15.08.06.193,-70.0,17.5,0,,,22862.4,43.74,-0.32,1.02,-0.51,-4.7,6.3,25.8,35.82,,,,,,,,,,
15.08.06.202,-78.1,19.5,0,,,22862.4,43.74,-0.45,1.0,-0.1,-29.8,23.2,-11.1,35.58,,,,,,,,,,
15.08.06.211,-48.2,12.0,0,,,22857.1,43.75,-0.22,1.15,0.07,2.0,7.5,-4.6,35.79,,,,,,,,,,
15.08.06.220,-57.6,14.4,0,,,22857.1,43.75,-0.82,0.15,0.55,9.8,24.4,11.4,35.62,,,,,,,,,,
15.08.06.229,-93.4,23.4,0,,,22857.1,43.75,-0.34,1.5,-0.46,-18.6,1.6,-8.2,35.59,,,,,,,,,,
15.08.06.238,-104.6,26.2,0,,,22857.1,43.75,-0.4,1.08,0.17,-26.1,-18.1,-0.8,35.7,,,,,,,,,,
15.08.06.248,-81.9,20.5,0,,,22857.1,43.75,-0.33,1.2,1.2,35.8,-4.5,-5.3,35.88,,,,,,,,,,
15.08.06.257,-175.2,43.8,0,,,22857.1,43.75,0.28,0.81,0.57,-8.9,-14.9,-28.3,36.06,,,,,,,,,,
15.08.06.266,-63.9,16.0,0,,,22857.1,43.75,-0.22,0.14,1.54,16.8,23.0,-11.3,35.66,,,,,,,,,,
15.08.06.276,-145.9,36.5,0,,,22857.1,43.75,-0.17,0.63,0.96,-5.7,3.7,-6.5,35.78,,,,,,,,,,
15.08.06.285,-187.8,47.0,0,,,22857.1,43.75,-0.4,0.45,0.5,6.2,-6.0,-15.1,35.93,,,,,,,,,,
15.08.06.295,-123.9,31.0,0,,,22857.1,43.75,-0.1,0.41,-0.35,17.5,15.9,10.1,36.23,,,,,,,,,,
15.08.06.305,-196.7,49.2,0,,,22857.1,43.75,0.21,0.59,0.23,19.5,2.6,-10.4,35.94,,,,,,,,,,
15.08.06.314,-172.9,43.2,0,,,22857.1,43.75,-0.25,0.14,0.97,-24.9,-3.6,-8.0,35.76,,,,,,,,,,
15.08.06.325,-154.2,38.6,0,,,22857.1,43.75,-0.22,-0.28,1.06,-12.4,28.4,-13.7,35.98,,,,,,,,,,
15.08.06.333,-235.2,58.8,0,,,22857.1,43.75,0.01,0.65,0.15,-10.6,-13.6,-13.1,35.69,,,,,,,,,,
15.08.06.345,-207.7,51.9,0,,,22857.1,43.75,-0.18,0.23,0.56,-5.2,-9.0,-3.1,35.7,,,,,,,,,,
15.08.06.355,6.4,1.6,0,,,22857.1,43.75,-0.55,0.52,0.4,-7.8,10.4,5.8,36.02,,,,,,,,,,
15.08.06.364,138.4,34.6,0,,,22857.1,43.75,-0.29,0.73,0.8,15.6,23.7,-7.0,35.83,,,,,,,,,,
15.08.06.372,154.7,38.7,0,,,22857.1,43.75,-0.29,-0.59,0.21,1.0,21.4,8.7,35.62,,,,,,,,,,
15.08.06.381,245.7,61.4,0,,,22851.9,43.76,-0.28,0.53,0.32,16.3,23.2,1.7,35.86,,,,,,,,,,
15.08.06.394,320.6,80.2,0,,,22851.9,43.76,-0.92,0.94,0.52,38.6,0.4,6.1,36.16,,,,,,,,,,
15.08.06.404,400.5,100.1,0,,,22851.9,43.76,-0.46,0.22,0.37,-14.3,13.2,23.8,35.7,,,,,,,,,,
15.08.06.416,471.8,118.0,0,,,22851.9,43.76,-0.71,0.11,0.14,22.1,12.3,9.9,35.8,,,,,,,,,,
15.08.06.426,455.6,113.9,0,,,22851.9,43.76,-0.51,0.37,-0.38,-19.9,15.8,9.0,35.88,,,,,,,,,,
15.08.06.435,436.7,109.2,1,15.0,140.2,22851.9,43.76,-0.5,0.79,-0.67,-23.7,8.1,-0.8,35.92,,,,,,,,,,
15.08.06.443,482.2,120.6,0,,,22851.9,43.76,-0.5,0.69,-0.58,23.6,-1.3,-6.7,35.91,,,,,,,,,,
15.08.06.452,509.3,127.3,0,,,22851.9,43.76,-0.34,0.57,-0.01,-12.6,13.1,-18.9,36.03,,,,,,,,,,
15.08.06.461,422.0,105.5,0,,,22851.9,43.76,-1.02,-0.25,-0.21,12.5,6.8,-0.1,35.83,,,,,,,,,,
15.08.06.470,413.8,103.4,0,,,22851.9,43.76,0.02,1.16,-0.51,9.1,4.8,8.0,35.88,,,,,,,,,,
15.08.06.479,401.8,100.4,0,,,22851.9,43.76,-0.48,0.65,-0.88,36.5,1.0,13.1,35.8,,,,,,,,,,
15.08.06.489,360.6,90.2,0,,,22851.9,43.76,-0.55,0.96,-0.04,-15.9,-9.9,-4.4,35.72,,,,,,,,,,
15.08.06.497,272.2,68.0,0,,,22851.9,43.76,-0.13,1.08,-0.01,6.6,-6.6,-7.8,35.78,,,,,,,,,,
15.08.06.508,276.1,69.0,0,,,22851.9,43.76,-0.41,0.98,-0.11,2.4,51.8,-9.2,35.92,,,,,,,,,,
15.08.06.517,138.8,34.7,0,,,22851.9,43.76,-0.76,1.09,0.12,5.2,-11.0,5.8,35.64,,,,,,,,,,
15.08.06.525,54.3,13.6,0,,,22851.9,43.76,-0.32,0.31,-0.35,-0.2,19.6,-13.2,35.74,,,,,,,,,,
15.08.06.535,28.8,7.2,0,,,22851.9,43.76,-0.41,0.96,-0.47,-48.5,10.8,-9.6,35.92,,,,,,,,,,
15.08.06.545,5.4,1.4,0,,,22851.9,43.76,-0.57,0.88,-0.41,26.9,-27.6,-5.5,35.85,,,,,,,,,,
15.08.06.552,50.7,12.7,0,,,22846.7,43.77,-0.68,0.76,0.32,-9.4,0.1,11.5,35.8,,,,,,,,,,
15.08.06.559,53.1,13.3,0,,,22846.7,43.77,-0.27,1.82,0.42,-16.4,-5.3,20.4,36.02,,,,,,,,,,
15.08.06.567,59.5,14.9,0,,,22846.7,43.77,-0.48,0.32,0.48,12.7,15.4,-3.7,35.7,,,,,,,,,,
15.08.06.576,28.1,7.0,0,,,22846.7,43.77,-0.34,0.67,1.23,-1.2,25.8,-39.5,35.78,,,,,,,,,,
15.08.06.586,101.7,25.4,0,,,22846.7,43.77,0.1,0.92,0.69,21.9,16.2,5.1,35.88,,,,,,,,,,
15.08.06.594,66.0,16.5,0,,,22846.7,43.77,0.1,0.75,0.67,-9.7,9.1,-23.6,35.58,,,,,,,,,,
15.08.06.604,59.0,14.8,0,,,22846.7,43.77,0.28,1.2,1.1,-48.3,21.4,-2.5,35.37,,,,,,,,,,
15.08.06.614,60.4,15.1,0,,,22846.7,43.77,-0.04,0.91,-0.32,-6.1,27.8,-4.7,35.91,,,,,,,,,,
15.08.06.625,36.6,9.2,0,,,22846.7,43.77,-0.2,0.78,1.09,-0.1,5.6,11.4,35.69,,,,,,,,,,
15.08.06.634,8.7,2.2,0,,,22846.7,43.77,0.22,0.64,0.46,0.1,-6.8,-6.1,35.91,,,,,,,,,,
15.08.06.643,-37.6,9.4,0,,,22846.7,43.77,-0.15,0.47,0.49,4.0,13.0,-10.5,36.11,,,,,,,,,,
15.08.06.652,2.5,0.6,0,,,22846.7,43.77,-0.09,0.88,0.92,-0.3,15.6,-18.2,35.57,,,,,,,,,,
15.08.06.661,-22.3,5.6,0,,,22846.7,43.77,-0.36,-0.05,0.79,-3.1,5.0,-7.8,35.44,,,,,,,,,,
15.08.06.672,-6.7,1.7,0,,,22846.7,43.77,-0.01,-0.07,0.19,31.4,-2.3,3.8,35.98,,,,,,,,,,
15.08.06.682,-14.0,3.5,0,,,22846.7,43.77,-0.13,0.58,0.55,24.0,14.1,-12.8,35.86,,,,,,,,,,
15.08.06.693,-56.2,14.0,0,,,22846.7,43.77,-0.37,-0.32,-0.34,28.7,13.7,2.9,35.71,,,,,,,,,,
15.08.06.703,-29.9,7.5,0,,,22846.7,43.77,-0.22,0.22,0.62,14.8,9.5,-24.7,35.47,,,,,,,,,,
15.08.06.713,-83.9,21.0,0,,,22846.7,43.77,-0.62,-0.07,-0.15,-29.3,-19.5,-10.8,35.96,,,,,,,,,,
15.08.06.722,-138.2,34.6,0,,,22841.5,43.78,-0.38,0.86,-0.1,0.7,10.3,27.4,35.6,,,,,,,,,,
15.08.06.732,-56.8,14.2,0,,,22841.5,43.78,-0.88,0.32,0.62,-4.7,18.0,18.4,35.89,,,,,,,,,,
15.08.06.740,-106.6,26.6,0,,,22841.5,43.78,-0.73,0.55,-0.2,5.8,10.0,1.1,35.97,,,,,,,,,,
15.08.06.751,-87.7,21.9,0,,,22841.5,43.78,-1.08,-0.11,-0.3,-9.0,14.1,21.6,36.1,,,,,,,,,,
15.08.06.760,-119.8,30.0,0,,,22841.5,43.78,-0.47,0.48,-0.55,-7.2,16.0,13.7,35.8,,,,,,,,,,
15.08.06.770,-113.3,28.3,0,,,22841.5,43.78,-0.45,0.36,-0.75,4.6,5.1,1.0,36.07,,,,,,,,,,
15.08.06.780,-123.0,30.8,0,,,22841.5,43.78,-0.47,0.58,-0.49,3.8,21.6,16.5,35.6,,,,,,,,,,
15.08.06.789,-113.1,28.3,0,,,22841.5,43.78,-0.6,0.28,0.21,-23.6,-15.7,8.5,35.81,,,,,,,,,,
15.08.06.800,-24.2,6.0,0,,,22841.5,43.78,0.01,1.19,0.24,-21.0,6.6,-4.3,35.65,,,,,,,,,,
15.08.06.809,-110.2,27.6,0,,,22841.5,43.78,-0.77,0.76,0.59,-2.1,-0.4,7.7,35.7,,,,,,,,,,
15.08.06.819,-167.7,41.9,1,16.0,156.2,22841.5,43.78,-0.77,1.01,0.22,29.5,-4.7,-8.1,35.66,,,,,,,,,,
15.08.06.830,-171.6,42.9,0,,,22841.5,43.78,-0.45,0.34,-0.51,-0.7,28.4,5.2,36.07,,,,,,,,,,
15.08.06.840,-137.6,34.4,0,,,22841.5,43.78,-0.63,0.82,0.11,9.8,1.6,0.2,36.02,,,,,,,,,,
15.08.06.850,-173.0,43.2,0,,,22841.5,43.78,-1.02,1.04,0.84,-18.2,0.6,-17.6,35.61,,,,,,,,,,
15.08.06.859,-141.2,35.3,0,,,22841.5,43.78,-0.58,0.71,0.05,16.1,22.1,-8.6,35.52,,,,,,,,,,
15.08.06.868,-198.7,49.7,0,,,22841.5,43.78,-0.28,0.61,-0.74,14.2,-3.0,-20.5,35.65,,,,,,,,,,
15.08.06.877,-8.9,2.2,0,,,22841.5,43.78,-0.38,0.83,0.15,12.3,-11.6,18.8,35.99,,,,,,,,,,
15.08.06.890,158.7,39.7,0,,,22836.3,43.79,-0.34,1.7,0.42,25.1,5.9,-18.1,35.97,,,,,,,,,,
15.08.06.898,254.0,63.5,0,,,22836.3,43.79,-0.29,1.36,0.02,-32.6,3.1,7.2,36.07,,,,,,,,,,
15.08.06.907,281.5,70.4,0,,,22836.3,43.79,-0.4,1.17,0.72,-28.9,17.0,-18.6,35.74,,,,,,,,,,
15.08.06.917,334.2,83.6,0,,,22836.3,43.79,-0.47,-0.27,-0.08,14.4,8.7,-17.8,35.83,,,,,,,,,,
15.08.06.926,397.4,99.4,0,,,22836.3,43.79,-0.36,1.18,0.51,-2.9,22.3,8.3,35.74,,,,,,,,,,
15.08.06.935,426.3,106.6,0,,,22836.3,43.79,0.01,0.36,0.11,7.9,9.9,3.6,35.47,,,,,,,,,,
15.08.06.945,486.8,121.7,0,,,22836.3,43.79,0.21,0.39,1.05,-4.9,16.8,5.3,35.86,,,,,,,,,,
15.08.06.954,521.1,130.3,0,,,22836.3,43.79,0.14,0.33,0.16,39.2,8.9,-24.4,35.71,,,,,,,,,,
15.08.06.960,439.7,109.9,0,,,22836.3,43.79,-0.25,0.04,0.71,-6.0,-5.3,-30.8,35.98,,,,,,,,,,
15.08.06.971,441.0,110.2,0,,,22836.3,43.79,-0.22,0.24,-0.29,2.2,17.5,-5.9,35.89,,,,,,,,,,
15.08.06.982,481.5,120.4,0,,,22836.3,43.79,-0.19,0.4,1.59,-7.8,38.9,-14.6,35.84,,,,,,,,,,
15.08.06.990,412.0,103.0,0,,,22836.3,43.79,-0.03,0.68,0.61,15.1,-1.3,0.8,35.58,,,,,,,,,,
15.08.06.996,394.9,98.7,0,,,22836.3,43.79,-0.11,-0.14,0.28,13.5,6.8,13.1,35.93,,,,,,,,,,
15.08.07.006,357.5,89.4,0,,,22836.3,43.79,-0.21,0.34,0.72,5.4,7.6,-9.0,35.98,,,,,,,,,,
15.08.07.015,305.0,76.2,0,,,22836.3,43.79,0.04,-0.09,1.26,14.9,-4.1,-8.3,35.89,,,,,,,,,,
15.08.07.025,260.5,65.1,0,,,22836.3,43.79,-0.18,0.4,0.2,6.7,16.3,1.5,36.08,,,,,,,,,,
15.08.07.034,126.6,31.6,0,,,22836.3,43.79,-0.28,-0.27,-0.19,-8.2,7.3,8.5,35.65,,,,,,,,,,
15.08.07.044,100.4,25.1,0,,,22836.3,43.79,-0.19,0.07,0.81,-3.4,8.5,-19.4,35.91,,,,,,,,,,
15.08.07.051,43.3,10.8,0,,,22836.3,43.79,-0.5,0.5,0.85,29.6,-11.9,-15.2,35.84,,,,,,,,,,
15.08.07.058,54.7,13.7,0,,,22836.3,43.79,-0.38,-0.17,0.26,-2.3,1.0,-8.2,35.98,,,,,,,,,,
15.08.07.067,62.5,15.6,0,,,22836.3,43.79,-0.7,0.03,0.4,6.4,8.3,14.8,36.14,,,,,,,,,,
15.08.07.076,70.7,17.7,0,,,22836.3,43.79,-0.62,0.46,-0.93,-29.3,22.6,-11.4,35.65,,,,,,,,,,
15.08.07.086,112.3,28.1,0,,,22836.3,43.79,-0.61,0.2,-0.86,4.9,-2.1,1.2,35.87,,,,,,,,,,
15.08.07.093,65.5,16.4,0,,,22836.3,43.79,-0.85,0.2,0.12,-11.5,9.9,-15.3,36.03,,,,,,,,,,
15.08.07.101,94.6,23.6,0,,,22836.3,43.79,-0.18,1.44,0.01,31.0,7.4,12.5,35.72,,,,,,,,,,
15.08.07.111,133.8,33.4,0,,,22836.3,43.79,-0.97,0.95,-0.85,16.1,18.1,13.3,36.04,,,,,,,,,,
15.08.07.120,17.2,4.3,0,,,22836.3,43.79,-0.59,0.04,-0.63,-5.7,-3.7,-21.7,36.13,,,,,,,,,,
15.08.07.130,61.4,15.4,0,,,22836.3,43.79,-0.73,1.01,0.0,3.5,9.0,-10.4,36.06,,,,,,,,,,
15.08.07.139,78.3,19.6,0,,,22836.3,43.79,-0.67,0.86,-0.39,14.0,2.2,4.5,35.6,,,,,,,,,,
15.08.07.150,,,0,,,,,,,,,,,,,,,,,,,,,
15.08.07.160,-69.4,17.4,0,,,22836.3,43.79,-0.67,1.1,0.41,0.3,2.5,20.5,35.87,,,,,,,,,,
15.08.07.168,2.8,0.7,0,,,22836.3,43.79,-0.45,1.44,-0.03,-6.8,19.1,19.8,35.86,,,,,,,,,,
15.08.07.180,18.9,4.7,0,,,22836.3,43.79,-0.52,0.64,-0.13,7.7,13.4,6.6,35.88,,,,,,,,,,
15.08.07.191,-39.1,9.8,0,,,22836.3,43.79,-0.45,0.63,-1.29,9.9,21.4,10.4,35.98,,,,,,,,,,
15.08.07.201,-68.1,17.0,0,,,22836.3,43.79,-0.42,1.14,0.35,21.7,-0.5,4.0,36.11,,,,,,,,,,
15.08.07.212,-53.1,13.3,0,,,22841.5,43.78,-0.45,0.89,-0.45,7.5,-3.7,-8.2,35.72,,,,,,,,,,
15.08.07.222,-62.7,15.7,0,,,22841.5,43.78,-0.21,0.65,0.02,10.9,2.6,-11.0,35.85,,,,,,,,,,
15.08.07.234,-11.9,3.0,0,,,22841.5,43.78,-0.39,0.98,0.03,2.3,24.3,-22.1,36.14,,,,,,,,,,
15.08.07.244,-61.1,15.3,0,,,22841.5,43.78,-0.3,0.71,-0.23,24.3,-25.9,-17.7,35.88,,,,,,,,,,
15.08.07.255,-82.4,20.6,0,,,22841.5,43.78,-0.31,0.76,-0.34,-18.2,-11.6,-2.8,35.89,,,,,,,,,,
15.08.07.264,-117.5,29.4,1,17.0,134.8,22841.5,43.78,-0.09,0.27,0.91,-11.7,10.3,-7.1,35.92,,,,,,,,,,
15.08.07.274,-78.2,19.6,0,,,22841.5,43.78,-0.17,0.88,-0.05,-21.0,16.2,1.9,35.75,,,,,,,,,,
15.08.07.283,-43.4,10.8,0,,,22841.5,43.78,-0.21,0.3,0.41,-15.7,-0.2,-6.1,35.89,,,,,,,,,,
15.08.07.292,-161.2,40.3,0,,,22841.5,43.78,0.12,0.32,-0.18,22.5,-2.6,6.9,35.95,,,,,,,,,,
15.08.07.301,-118.9,29.7,0,,,22841.5,43.78,-0.24,0.41,0.79,23.1,-1.8,9.1,35.84,,,,,,,,,,
15.08.07.310,-145.4,36.4,0,,,22841.5,43.78,0.14,0.77,0.36,7.7,9.5,2.9,36.03,,,,,,,,,,
15.08.07.321,-141.6,35.4,0,,,22841.5,43.78,-0.01,0.58,1.34,5.3,-10.6,-3.0,35.85,,,,,,,,,,
15.08.07.331,-189.5,47.4,0,,,22841.5,43.78,-0.38,0.12,0.82,11.2,2.5,-11.3,35.76,,,,,,,,,,
15.08.07.341,-143.7,35.9,0,,,22841.5,43.78,-0.28,0.21,0.32,-7.7,4.2,5.3,35.82,,,,,,,,,,
15.08.07.351,-158.9,39.7,0,,,22841.5,43.78,-0.17,0.47,0.67,0.6,-15.3,13.4,35.96,,,,,,,,,,
15.08.07.361,-190.2,47.6,0,,,22841.5,43.78,0.14,-0.1,0.34,-16.8,17.7,-6.9,35.83,,,,,,,,,,
15.08.07.371,-210.9,52.7,0,,,22841.5,43.78,-0.56,0.31,-0.15,20.0,0.5,-3.1,35.51,,,,,,,,,,
15.08.07.382,-215.5,53.9,0,,,22841.5,43.78,-0.33,-0.14,0.07,2.8,-1.0,-7.9,35.76,,,,,,,,,,
15.08.07.390,-198.7,49.7,0,,,22841.5,43.78,-0.6,0.58,-0.58,-2.8,-2.7,-1.4,35.91,,,,,,,,,,
15.08.07.398,71.4,17.8,0,,,22841.5,43.78,-0.42,-0.12,-0.2,-10.6,-6.1,-6.0,35.74,,,,,,,,,,
15.08.07.411,157.7,39.4,0,,,22841.5,43.78,-0.22,0.17,0.43,19.6,9.6,-21.3,35.68,,,,,,,,,,
15.08.07.420,177.4,44.4,0,,,22841.5,43.78,-0.79,-0.08,-0.5,8.1,12.8,-1.9,35.82,,,,,,,,,,
15.08.07.430,208.3,52.1,0,,,22841.5,43.78,-0.47,0.34,-0.58,-15.7,12.8,-6.8,35.76,,,,,,,,,,
15.08.07.442,403.5,100.9,0,,,22841.5,43.78,-0.44,-0.08,-0.25,-10.6,9.1,14.9,35.74,,,,,,,,,,
15.08.07.452,428.9,107.2,0,,,22841.5,43.78,-0.67,-0.2,-0.55,-43.2,32.4,-9.7,35.61,,,,,,,,,,
15.08.07.462,477.2,119.3,0,,,22841.5,43.78,-0.42,0.7,0.52,10.5,26.1,5.8,35.7,,,,,,,,,,
15.08.07.472,440.8,110.2,0,,,22841.5,43.78,-0.61,0.12,-0.83,6.3,-11.3,-10.1,35.91,,,,,,,,,,
15.08.07.483,469.4,117.4,0,,,22841.5,43.78,-0.25,0.75,0.16,5.1,17.0,16.7,35.72,,,,,,,,,,
15.08.07.494,547.4,136.8,0,,,22841.5,43.78,-0.53,0.74,-0.09,-0.1,14.7,13.7,35.85,,,,,,,,,,
15.08.07.504,492.7,123.2,0,,,22841.5,43.78,-0.61,0.87,0.16,-1.2,-2.8,-0.8,36.0,,,,,,,,,,
15.08.07.514,420.7,105.2,0,,,22841.5,43.78,-0.53,-0.03,0.39,-21.5,-8.1,-11.2,36.01,,,,,,,,,,
15.08.07.525,317.2,79.3,0,,,22841.5,43.78,-0.41,0.81,0.33,11.6,19.1,-19.4,35.75,,,,,,,,,,
15.08.07.534,296.1,74.0,0,,,22846.7,43.77,-0.16,1.22,0.06,24.5,13.2,-4.7,35.91,,,,,,,,,,
15.08.07.544,266.1,66.5,0,,,22846.7,43.77,-0.75,1.03,-0.41,-5.7,1.9,0.3,35.75,,,,,,,,,,
15.08.07.554,167.6,41.9,0,,,22846.7,43.77,-0.88,0.69,0.57,-21.6,-4.4,-16.0,35.87,,,,,,,,,,
15.08.07.562,157.8,39.4,0,,,22846.7,43.77,-0.4,0.94,1.01,-9.1,-1.3,1.7,35.65,,,,,,,,,,
15.08.07.573,12.6,3.2,0,,,22846.7,43.77,-0.53,0.85,0.19,-18.2,-8.6,-11.7,35.87,,,,,,,,,,
15.08.07.583,43.4,10.8,0,,,22846.7,43.77,-0.18,0.68,0.43,2.1,-19.3,-9.8,35.75,,,,,,,,,,
15.08.07.593,51.1,12.8,0,,,22846.7,43.77,-0.75,0.94,1.03,-3.1,24.0,-1.0,36.01,,,,,,,,,,
15.08.07.603,27.5,6.9,0,,,22846.7,43.77,-0.09,0.54,1.02,8.8,-9.7,4.8,36.11,,,,,,,,,,
15.08.07.614,113.0,28.2,0,,,22846.7,43.77,0.08,0.83,0.42,-17.6,-1.7,10.0,35.76,,,,,,,,,,
15.08.07.623,109.4,27.4,0,,,22846.7,43.77,0.06,1.38,0.52,-4.3,-14.7,-8.7,36.03,,,,,,,,,,
15.08.07.631,72.8,18.2,0,,,22846.7,43.77,-0.04,0.95,0.92,-12.9,3.5,-10.4,35.57,,,,,,,,,,
15.08.07.642,109.7,27.4,0,,,22846.7,43.77,-0.31,0.73,1.16,-2.5,15.1,-4.1,35.66,,,,,,,,,,
15.08.07.652,110.6,27.6,0,,,22846.7,43.77,0.0,0.06,1.22,4.2,32.3,4.4,36.01,,,,,,,,,,
15.08.07.661,37.9,9.5,0,,,22846.7,43.77,-0.1,0.49,1.12,16.8,4.6,-3.1,36.14,,,,,,,,,,
15.08.07.671,15.5,3.9,0,,,22846.7,43.77,0.01,0.01,-0.02,-32.9,-1.2,13.9,36.04,,,,,,,,,,
15.08.07.679,-9.2,2.3,0,,,22846.7,43.77,-0.05,0.65,1.12,-8.4,22.0,-1.4,35.99,,,,,,,,,,
15.08.07.686,67.1,16.8,0,,,22846.7,43.77,-0.26,0.27,0.31,-4.7,12.4,1.2,35.85,,,,,,,,,,
15.08.07.696,-59.2,14.8,0,,,22846.7,43.77,-0.48,0.68,0.61,-4.8,-7.9,3.3,35.62,,,,,,,,,,
15.08.07.707,61.4,15.4,0,,,22846.7,43.77,-0.62,-0.12,0.45,-2.8,27.7,1.4,35.31,,,,,,,,,,
15.08.07.720,-23.2,5.8,0,,,22846.7,43.77,-0.31,0.7,0.47,-26.1,-9.9,12.1,35.65,,,,,,,,,,
15.08.07.729,-35.7,8.9,0,,,22846.7,43.77,0.14,0.52,0.63,16.3,-6.9,6.0,36.06,,,,,,,,,,
15.08.07.740,-48.1,12.0,1,18.0,126.1,22846.7,43.77,-0.07,0.48,0.79,0.2,-1.3,-1.2,35.94,,,,,,,,,,
15.08.07.749,-109.0,27.2,0,,,22846.7,43.77,-0.43,0.49,0.28,15.3,3.5,-1.3,35.65,,,,,,,,,,
15.08.07.756,-73.8,18.4,0,,,22846.7,43.77,-0.2,-0.26,1.24,-0.6,13.6,1.1,35.94,,,,,,,,,,
15.08.07.765,-55.6,13.9,0,,,22846.7,43.77,-0.58,0.1,0.87,1.7,6.3,-13.8,35.84,,,,,,,,,,
15.08.07.775,-69.6,17.4,0,,,22846.7,43.77,-0.8,0.55,0.23,-8.9,1.4,6.5,35.77,,,,,,,,,,
15.08.07.784,-56.0,14.0,0,,,22846.7,43.77,-0.44,0.5,-0.53,20.8,-4.9,-3.9,36.05,,,,,,,,,,
15.08.07.793,-115.2,28.8,0,,,22846.7,43.77,-0.6,0.76,-0.73,-35.1,12.1,-19.3,36.12,,,,,,,,,,
15.08.07.804,-73.7,18.4,0,,,22846.7,43.77,-0.47,-0.02,0.7,12.6,13.2,7.2,35.64,,,,,,,,,,
15.08.07.813,-139.0,34.8,0,,,22846.7,43.77,-0.68,0.85,0.2,-20.2,12.8,-37.7,35.84,,,,,,,,,,
15.08.07.823,-110.4,27.6,0,,,22846.7,43.77,-0.79,0.53,-0.24,31.0,-21.4,7.6,35.6,,,,,,,,,,
15.08.07.835,-93.4,23.4,0,,,22846.7,43.77,-0.45,0.92,0.02,-26.9,-15.1,-2.4,35.83,,,,,,,,,,
15.08.07.844,-124.3,31.1,0,,,22846.7,43.77,-0.81,0.24,-0.14,15.5,-14.6,17.5,35.86,,,,,,,,,,
15.08.07.853,-134.1,33.5,0,,,22851.9,43.76,-0.36,0.62,-0.19,9.2,5.1,8.2,36.03,,,,,,,,,,
15.08.07.862,-194.9,48.7,0,,,22851.9,43.76,-0.35,0.16,-0.15,-4.2,18.6,-4.6,35.58,,,,,,,,,,
15.08.07.871,-136.2,34.0,0,,,22851.9,43.76,-0.47,0.33,-0.6,-21.0,5.9,1.6,35.76,,,,,,,,,,
15.08.07.881,-124.4,31.1,0,,,22851.9,43.76,-0.69,0.78,-0.56,-1.7,-4.0,-5.1,35.97,,,,,,,,,,
15.08.07.889,-165.6,41.4,0,,,22851.9,43.76,-0.24,0.89,0.48,14.6,6.6,-15.9,35.89,,,,,,,,,,
15.08.07.900,-220.5,55.1,0,,,22851.9,43.76,-0.24,1.26,-0.21,-0.2,14.4,-10.6,35.8,,,,,,,,,,
15.08.07.909,-209.3,52.3,0,,,22851.9,43.76,-0.46,0.5,0.55,9.7,11.3,-17.7,35.98,,,,,,,,,,
15.08.07.920,64.8,16.2,0,,,22851.9,43.76,-0.01,0.77,0.6,-35.1,6.8,17.9,35.62,,,,,,,,,,
15.08.07.931,149.4,37.4,0,,,22851.9,43.76,-0.16,1.03,1.01,-1.6,37.2,-23.9,35.95,,,,,,,,,,
15.08.07.943,210.8,52.7,0,,,22851.9,43.76,-0.12,0.4,0.8,8.1,-7.5,7.9,35.69,,,,,,,,,,
15.08.07.953,265.5,66.4,0,,,22851.9,43.76,-0.23,0.52,0.49,-12.0,-8.8,6.2,35.63,,,,,,,,,,
15.08.07.964,429.2,107.3,0,,,22851.9,43.76,0.05,1.21,0.48,3.3,4.6,10.5,35.92,,,,,,,,,,
15.08.07.972,471.5,117.9,0,,,22851.9,43.76,-0.17,0.66,0.34,39.7,30.0,-6.5,35.42,,,,,,,,,,
15.08.07.982,492.8,123.2,0,,,22851.9,43.76,-0.14,0.49,1.03,26.8,4.4,10.1,35.9,,,,,,,,,,
15.08.07.991,443.2,110.8,0,,,22851.9,43.76,0.21,-0.12,1.44,-11.8,-0.5,14.2,35.76,,,,,,,,,,
15.08.08.003,471.9,118.0,0,,,22851.9,43.76,-0.13,0.84,0.3,-21.5,35.6,7.6,35.57,,,,,,,,,,
15.08.08.012,514.2,128.6,0,,,22851.9,43.76,-0.7,0.01,0.82,-25.1,22.5,-5.0,36.25,,,,,,,,,,
15.08.08.020,485.3,121.3,0,,,22851.9,43.76,-0.16,0.08,0.3,-6.6,12.3,-4.5,35.64,,,,,,,,,,
15.08.08.032,451.4,112.8,0,,,22851.9,43.76,0.33,0.29,0.03,-4.3,33.4,-5.0,35.87,,,,,,,,,,
15.08.08.042,388.8,97.2,0,,,22846.7,43.77,-0.45,0.17,1.22,-44.7,16.4,1.0,36.14,,,,,,,,,,
15.08.08.053,286.9,71.7,0,,,22846.7,43.77,-0.28,0.65,-0.26,18.6,22.6,0.5,35.89,,,,,,,,,,
15.08.08.062,231.4,57.8,0,,,22846.7,43.77,0.03,0.52,-0.08,8.7,13.2,-10.9,35.83,,,,,,,,,,
15.08.08.071,181.9,45.5,0,,,22846.7,43.77,-0.4,0.08,0.84,-26.2,-0.1,19.1,35.7,,,,,,,,,,
15.08.08.081,160.9,40.2,0,,,22846.7,43.77,-0.28,0.23,0.89,11.8,4.2,-17.6,35.65,,,,,,,,,,
15.08.08.091,79.2,19.8,0,,,22846.7,43.77,-0.29,0.36,-0.02,4.3,6.2,10.1,35.87,,,,,,,,,,
15.08.08.102,32.0,8.0,0,,,22846.7,43.77,-0.41,0.08,0.39,-4.1,23.9,-10.1,35.6,,,,,,,,,,
15.08.08.112,47.6,11.9,0,,,22846.7,43.77,-0.8,0.33,-0.19,-16.2,22.3,15.4,35.92,,,,,,,,,,
15.08.08.122,57.4,14.4,0,,,22846.7,43.77,-0.72,0.23,-0.58,19.0,-6.3,-7.2,35.56,,,,,,,,,,
15.08.08.132,81.0,20.2,0,,,22841.5,43.78,-0.42,-0.15,-0.37,-6.8,-10.3,0.4,35.55,,,,,,,,,,
15.08.08.142,124.8,31.2,0,,,22841.5,43.78,-0.57,0.74,-0.7,5.7,18.3,9.0,35.61,,,,,,,,,,
15.08.08.151,97.9,24.5,0,,,22841.5,43.78,-0.28,0.49,0.73,31.5,10.9,1.9,35.56,,,,,,,,,,
15.08.08.160,70.4,17.6,0,,,22841.5,43.78,-0.57,0.11,-0.16,-16.3,-1.4,-21.4,35.6,,,,,,,,,,
15.08.08.170,53.9,13.5,0,,,22841.5,43.78,-0.71,0.8,0.31,32.7,-8.9,10.8,35.79,,,,,,,,,,
15.08.08.179,64.9,16.2,0,,,22841.5,43.78,-0.43,0.76,-0.56,13.9,11.0,-3.4,35.6,,,,,,,,,,
15.08.08.187,106.5,26.6,0,,,22841.5,43.78,-0.93,0.29,-0.68,18.1,10.9,-19.4,35.68,,,,,,,,,,
15.08.08.196,5.8,1.4,0,,,22841.5,43.78,-0.15,0.78,0.56,-11.7,16.6,-5.8,35.78,,,,,,,,,,
15.08.08.205,-46.4,11.6,1,19.0,129.0,22841.5,43.78,-0.25,0.47,-0.29,-21.4,-1.3,5.8,36.04,,,,,,,,,,
15.08.08.215,-1.1,0.3,0,,,22836.3,43.79,-0.34,1.15,-0.75,19.6,-4.3,-18.6,35.77,,,,,,,,,,
15.08.08.225,14.6,3.6,0,,,22836.3,43.79,-0.6,0.94,0.7,25.6,38.5,4.4,35.72,,,,,,,,,,
15.08.08.233,-26.4,6.6,0,,,22836.3,43.79,-0.21,0.75,-0.54,4.7,17.9,-9.7,35.77,,,,,,,,,,
15.08.08.241,-16.1,4.0,0,,,22836.3,43.79,-0.55,0.43,-0.25,15.5,7.8,11.3,35.85,,,,,,,,,,
15.08.08.252,-91.2,22.8,0,,,22836.3,43.79,-0.26,1.41,0.59,7.5,-12.3,1.9,35.69,,,,,,,,,,
15.08.08.262,-16.2,4.0,0,,,22836.3,43.79,-0.5,0.74,0.05,-0.3,19.9,-1.1,36.08,,,,,,,,,,
15.08.08.271,-90.2,22.6,0,,,22836.3,43.79,-0.42,0.73,-0.61,-63.4,-11.2,-5.0,35.66,,,,,,,,,,
15.08.08.278,-64.6,16.2,0,,,22836.3,43.79,-0.37,1.38,0.79,-12.4,20.3,20.3,36.01,,,,,,,,,,
15.08.08.287,-65.0,16.2,0,,,22836.3,43.79,-0.19,0.41,0.55,0.2,22.2,-7.8,35.8,,,,,,,,,,
15.08.08.298,-98.0,24.5,0,,,22831.1,43.8,-0.27,0.2,0.86,-3.3,18.9,14.9,36.06,,,,,,,,,,
15.08.08.307,-100.1,25.0,0,,,22831.1,43.8,0.16,1.41,0.42,-30.1,26.6,-24.4,35.87,,,,,,,,,,
15.08.08.315,-119.5,29.9,0,,,22831.1,43.8,-0.09,0.81,0.61,-12.8,0.8,-13.3,35.97,,,,,,,,,,
15.08.08.325,-121.6,30.4,0,,,22831.1,43.8,0.22,0.3,0.54,19.2,-10.2,-9.2,35.89,,,,,,,,,,
15.08.08.334,-54.4,13.6,0,,,22831.1,43.8,0.07,0.33,0.57,-20.4,4.3,1.7,35.82,,,,,,,,,,
15.08.08.345,-145.6,36.4,0,,,22831.1,43.8,-0.26,0.76,0.57,-4.5,7.7,7.0,35.67,,,,,,,,,,
15.08.08.355,-147.9,37.0,0,,,22831.1,43.8,-0.28,-0.03,0.85,-9.6,-16.5,6.8,35.96,,,,,,,,,,
15.08.08.367,-148.4,37.1,0,,,22831.1,43.8,0.14,0.16,0.85,4.9,9.3,-5.8,35.5,,,,,,,,,,
15.08.08.376,-107.5,26.9,0,,,22831.1,43.8,-0.38,0.26,0.24,14.0,3.0,-3.0,35.98,,,,,,,,,,
15.08.08.385,-209.1,52.3,0,,,22825.8,43.81,-0.16,0.69,1.14,3.0,-0.4,2.0,36.03,,,,,,,,,,
15.08.08.396,-147.4,36.8,0,,,22825.8,43.81,-0.22,0.48,1.29,-1.0,7.1,-7.9,35.8,,,,,,,,,,
15.08.08.405,-236.2,59.0,0,,,22825.8,43.81,-0.03,0.42,0.06,-11.0,-14.8,-3.0,35.71,,,,,,,,,,
15.08.08.412,-213.5,53.4,0,,,22825.8,43.81,-0.01,0.88,0.44,-0.9,-26.6,-5.5,36.06,,,,,,,,,,
15.08.08.424,-209.1,52.3,0,,,22825.8,43.81,-0.64,0.24,-0.16,12.2,0.7,9.0,35.65,,,,,,,,,,
15.08.08.434,-31.4,7.8,0,,,22825.8,43.81,-0.23,0.28,0.57,19.8,6.1,-10.7,35.84,,,,,,,,,,
15.08.08.445,80.1,20.0,0,,,22825.8,43.81,-0.13,0.51,0.94,3.2,14.5,3.3,35.85,,,,,,,,,,
15.08.08.453,200.9,50.2,0,,,22825.8,43.81,-0.18,0.53,0.11,29.9,12.5,-3.6,36.27,,,,,,,,,,
15.08.08.464,258.2,64.6,0,,,22820.6,43.82,-0.64,0.02,0.32,1.9,-22.6,-1.6,35.68,,,,,,,,,,
15.08.08.474,325.2,81.3,0,,,22820.6,43.82,-0.16,0.02,0.09,28.9,9.5,-2.0,35.58,,,,,,,,,,
15.08.08.484,364.4,91.1,0,,,22820.6,43.82,-0.65,0.49,-0.44,14.2,13.0,-4.2,35.81,,,,,,,,,,
15.08.08.494,480.9,120.2,0,,,22820.6,43.82,-0.91,-0.1,0.2,-20.7,25.9,-21.6,36.12,,,,,,,,,,
15.08.08.504,484.4,121.1,0,,,22820.6,43.82,-0.53,1.22,0.42,-35.4,5.1,0.9,35.75,,,,,,,,,,
15.08.08.514,483.1,120.8,0,,,22820.6,43.82,-0.8,0.06,-0.78,6.9,-11.3,-4.2,35.67,,,,,,,,,,
15.08.08.523,448.1,112.0,0,,,22820.6,43.82,-0.48,0.82,-0.33,-4.5,4.8,-28.0,35.83,,,,,,,,,,
15.08.08.534,475.1,118.8,0,,,22820.6,43.82,-0.61,0.73,-0.4,-24.7,8.1,-9.3,36.08,,,,,,,,,,
15.08.08.543,464.6,116.2,0,,,22820.6,43.82,-0.54,0.57,-0.04,-0.2,9.1,22.2,35.48,,,,,,,,,,
15.08.08.554,454.2,113.6,0,,,22815.4,43.83,-0.32,0.99,-0.03,-6.2,-4.7,10.7,36.09,,,,,,,,,,
15.08.08.565,419.6,104.9,0,,,22815.4,43.83,-0.55,1.04,0.48,-7.9,16.7,14.3,35.84,,,,,,,,,,
15.08.08.576,326.8,81.7,0,,,22815.4,43.83,-0.65,1.2,-0.49,20.9,4.5,17.3,35.85,,,,,,,,,,
15.08.08.587,239.7,59.9,0,,,22815.4,43.83,-0.5,0.75,1.0,-13.6,-11.0,16.5,36.01,,,,,,,,,,
15.08.08.596,134.3,33.6,0,,,22815.4,43.83,-0.33,0.8,0.52,4.5,52.0,15.1,35.9,,,,,,,,,,
15.08.08.607,66.7,16.7,0,,,22815.4,43.83,-0.32,0.73,-0.71,18.8,9.3,2.9,35.96,,,,,,,,,,
15.08.08.615,40.2,10.0,0,,,22815.4,43.83,-0.1,0.84,0.51,-6.6,16.8,12.5,35.99,,,,,,,,,,
15.08.08.625,20.4,5.1,0,,,22815.4,43.83,-0.1,1.32,0.62,-7.0,9.9,-4.4,35.37,,,,,,,,,,
15.08.08.634,97.4,24.4,0,,,22810.2,43.84,-0.51,0.49,0.2,8.9,-0.6,16.0,35.9,,,,,,,,,,
15.08.08.642,61.3,15.3,0,,,22810.2,43.84,-0.16,0.58,0.05,18.9,25.4,-6.8,35.63,,,,,,,,,,
15.08.08.653,63.3,15.8,0,,,22810.2,43.84,-0.29,0.37,0.16,5.5,29.5,5.7,35.8,,,,,,,,,,
15.08.08.664,37.4,9.4,0,,,22810.2,43.84,-0.25,1.03,0.6,13.0,-1.8,-11.8,35.97,,,,,,,,,,
15.08.08.673,103.0,25.8,0,,,22810.2,43.84,-0.34,0.85,0.73,-33.9,4.4,6.0,35.78,,,,,,,,,,
15.08.08.685,41.2,10.3,1,20.0,125.0,22810.2,43.84,-0.33,0.19,0.26,7.4,25.7,-1.9,35.93,,,,,,,,,,
15.08.08.695,57.5,14.4,0,,,22810.2,43.84,-0.23,0.59,0.88,-41.6,7.9,6.3,35.8,,,,,,,,,,
15.08.08.702,65.0,16.2,0,,,22810.2,43.84,-0.32,1.0,0.59,32.3,29.1,-11.1,35.76,,,,,,,,,,
15.08.08.711,14.2,3.6,0,,,22810.2,43.84,0.04,0.5,0.45,5.2,9.4,9.0,36.02,,,,,,,,,,
15.08.08.719,-8.4,2.1,0,,,22805.0,43.85,-0.02,0.63,0.28,-4.6,4.6,-7.0,36.03,,,,,,,,,,
15.08.08.729,23.5,5.9,0,,,22805.0,43.85,-0.08,0.3,-0.42,10.5,-15.8,5.0,35.98,,,,,,,,,,
15.08.08.737,-63.0,15.8,0,,,22805.0,43.85,-0.39,1.3,0.62,-10.5,35.6,2.8,35.6,,,,,,,,,,
15.08.08.747,-43.4,10.8,0,,,22805.0,43.85,0.05,0.65,0.76,-2.3,-0.7,-2.8,36.06,,,,,,,,,,
15.08.08.756,-24.0,6.0,0,,,22805.0,43.85,0.01,-0.17,0.71,-12.0,-6.9,-0.6,35.81,,,,,,,,,,
15.08.08.764,-3.0,0.8,0,,,22805.0,43.85,-0.3,-0.28,1.46,14.3,3.4,-13.0,35.85,,,,,,,,,,
15.08.08.773,-35.5,8.9,0,,,22805.0,43.85,-0.11,0.34,0.58,-7.9,-12.3,-2.0,35.64,,,,,,,,,,
15.08.08.781,-21.0,5.2,0,,,22805.0,43.85,-0.45,0.14,0.74,20.4,5.6,-0.8,35.92,,,,,,,,,,
15.08.08.791,-41.0,10.2,0,,,22805.0,43.85,-0.49,-0.4,0.33,13.5,-5.7,-3.5,36.04,,,,,,,,,,
15.08.08.801,-45.6,11.4,0,,,22799.8,43.86,-0.07,0.17,-0.12,-3.4,-2.3,-18.2,35.81,,,,,,,,,,
15.08.08.813,-125.0,31.2,0,,,22799.8,43.86,-0.41,0.13,-0.44,5.3,9.8,11.7,35.83,,,,,,,,,,
15.08.08.823,-70.4,17.6,0,,,22799.8,43.86,-0.61,0.75,0.25,-17.4,-10.2,-14.2,35.86,,,,,,,,,,
15.08.08.830,-48.5,12.1,0,,,22799.8,43.86,-0.64,-0.07,-0.46,15.2,0.3,-1.1,35.98,,,,,,,,,,
15.08.08.840,-123.1,30.8,0,,,22799.8,43.86,-0.36,0.18,-0.62,16.5,18.9,-0.4,35.64,,,,,,,,,,
15.08.08.851,-176.6,44.2,0,,,22799.8,43.86,-0.74,0.31,0.21,36.1,6.6,-2.2,35.9,,,,,,,,,,
15.08.08.862,,,0,,,,,,,,,,,,,,,,,,,,,
15.08.08.875,-178.4,44.6,0,,,22799.8,43.86,-0.3,0.19,0.9,-15.0,15.0,-2.5,35.65,,35.82,,,,,,,,
15.08.08.885,-154.3,38.6,0,,,22794.6,43.87,-0.76,1.08,0.05,0.9,4.1,-5.2,36.16,,,,,,,,,,
15.08.08.896,-145.2,36.3,0,,,22794.6,43.87,-0.41,0.68,-0.11,-1.3,5.1,-2.7,35.68,,,,,,,,,,
15.08.08.906,-192.6,48.2,0,,,22794.6,43.87,-0.72,0.29,-0.21,19.0,14.0,-7.1,35.87,,,,,,,,,,
15.08.08.916,-124.4,31.1,0,,,22794.6,43.87,-0.66,0.85,0.45,0.0,-13.0,-14.0,35.96,,,,,,,,,,
15.08.08.926,-191.3,47.8,0,,,22794.6,43.87,-0.77,0.78,-0.46,-23.1,-4.2,-6.3,35.94,,,,,,,,,,
15.08.08.935,-173.0,43.2,0,,,22794.6,43.87,-0.59,0.64,-0.75,-6.5,-9.1,-27.1,35.87,,,,,,,,,,
15.08.08.946,-195.1,48.8,0,,,22794.6,43.87,-1.04,1.1,0.32,0.5,15.1,2.5,36.03,,,,,,,,,,
15.08.08.955,16.3,4.1,0,,,22794.6,43.87,-0.27,0.3,0.58,34.8,-2.1,-3.2,35.72,,,,,,,,,,
15.08.08.964,93.1,23.3,0,,,22794.6,43.87,-0.43,1.12,-0.48,11.7,6.9,-19.0,35.71,,,,,,,,,,
15.08.08.972,158.4,39.6,0,,,22789.4,43.88,-0.4,1.05,-0.05,13.2,-0.9,15.1,36.11,,,,,,,,,,
15.08.08.982,252.1,63.0,0,,,22789.4,43.88,-0.03,0.25,0.59,-9.9,-23.9,-0.3,35.9,,,,,,,,,,
15.08.08.991,257.3,64.3,0,,,22789.4,43.88,-0.01,1.03,1.07,3.3,9.3,4.1,35.56,,,,,,,,,,
15.08.09.000,,,0,,,,,,,,,,,,,,,,,,,,,
15.08.09.007,393.4,98.4,0,,,22789.4,43.88,0.16,0.87,1.0,14.6,-1.3,5.6,36.36,,,,,,,,,,
15.08.09.016,482.3,120.6,0,,,22789.4,43.88,-0.23,0.84,0.51,4.4,-26.4,6.4,36.01,,,,,,,,,,
15.08.09.026,483.3,120.8,0,,,22789.4,43.88,-0.34,0.36,0.18,-14.4,0.7,-14.4,36.07,,,,,,,,,,
15.08.09.034,393.1,98.3,0,,,22789.4,43.88,0.01,0.56,1.12,-26.1,19.9,13.3,35.81,,,,,,,,,,
15.08.09.043,469.0,117.2,0,,,22789.4,43.88,-0.46,-0.36,0.4,26.6,1.8,-6.9,36.08,,,,,,,,,,
15.08.09.053,473.5,118.4,0,,,22789.4,43.88,-0.3,0.74,0.77,2.7,-0.3,-5.4,35.38,,,,,,,,,,
15.08.09.062,511.6,127.9,0,,,22789.4,43.88,0.31,0.58,0.62,-8.2,0.8,-0.3,35.66,,,,,,,,,,
15.08.09.074,398.8,99.7,0,,,22789.4,43.88,-0.37,0.56,-0.07,2.5,8.0,11.5,36.13,,,,,,,,,,
15.08.09.084,330.7,82.7,0,,,22789.4,43.88,-0.21,0.23,0.14,18.4,4.1,0.4,35.92,,,,,,,,,,
15.08.09.093,298.7,74.7,1,21.0,147.1,22789.4,43.88,-0.3,-0.14,0.54,-8.7,2.6,-10.5,35.8,,,,,,,,,,
15.08.09.103,335.4,83.8,0,,,22789.4,43.88,-0.2,0.64,0.68,12.9,27.7,-9.3,35.77,,,,,,,,,,
15.08.09.113,140.3,35.1,0,,,22789.4,43.88,-0.34,0.15,0.72,-14.4,32.5,-8.1,35.57,,,,,,,,,,
15.08.09.123,151.6,37.9,0,,,22789.4,43.88,-0.3,0.7,-0.17,21.3,3.1,1.8,35.57,,,,,,,,,,
15.08.09.132,-16.8,4.2,0,,,22789.4,43.88,-0.66,0.35,-0.09,0.1,3.5,5.7,35.95,,,,,,,,,,
15.08.09.143,44.7,11.2,0,,,22789.4,43.88,0.01,0.19,1.15,-26.1,-17.7,-12.3,35.69,,,,,,,,,,
15.08.09.152,73.4,18.4,0,,,22789.4,43.88,-0.68,0.25,0.34,-10.2,27.8,21.8,36.16,,,,,,,,,,
15.08.09.161,59.1,14.8,0,,,22789.4,43.88,-0.67,0.2,-0.65,-14.3,-4.2,-11.1,36.09,,,,,,,,,,
15.08.09.172,108.4,27.1,0,,,22789.4,43.88,-0.8,0.11,0.13,6.8,10.3,-1.4,35.89,,,,,,,,,,
15.08.09.182,88.8,22.2,0,,,22789.4,43.88,-0.58,0.36,0.13,17.8,-18.3,23.2,35.83,,,,,,,,,,
15.08.09.191,80.5,20.1,0,,,22784.2,43.89,-0.82,1.17,0.5,27.9,3.6,10.8,35.94,,,,,,,,,,
15.08.09.201,68.8,17.2,0,,,22784.2,43.89,-0.44,0.65,0.28,-1.5,17.2,-9.3,36.25,,,,,,,,,,
15.08.09.210,84.8,21.2,0,,,22784.2,43.89,-0.65,0.37,-1.07,13.0,-8.6,13.3,35.95,,,,,,,,,,
15.08.09.219,-9.2,2.3,0,,,22784.2,43.89,-0.57,-0.2,0.61,-0.1,3.3,13.0,35.91,,,,,,,,,,
15.08.09.231,-21.6,5.4,0,,,22784.2,43.89,-0.38,1.11,-0.72,20.7,1.8,4.5,35.91,,,,,,,,,,
15.08.09.242,-50.7,12.7,0,,,22784.2,43.89,-0.37,0.81,0.2,-20.7,3.7,-15.1,35.98,,,,,,,,,,
15.08.09.251,39.4,9.8,0,,,22784.2,43.89,-0.8,0.83,-0.12,-32.5,35.8,8.6,35.91,,,,,,,,,,
15.08.09.262,43.2,10.8,0,,,22784.2,43.89,-0.33,0.91,0.46,-4.3,10.4,-16.1,35.75,,,,,,,,,,
15.08.09.272,-59.9,15.0,0,,,22784.2,43.89,-0.67,0.41,0.24,55.1,8.5,-14.0,35.78,,,,,,,,,,
15.08.09.283,-23.5,5.9,0,,,22784.2,43.89,-0.49,1.14,0.35,1.6,5.4,-2.3,35.91,,,,,,,,,,
15.08.09.293,-62.2,15.6,0,,,22784.2,43.89,-0.49,0.79,0.31,18.4,12.0,0.7,35.85,,,,,,,,,,
15.08.09.302,-54.0,13.5,0,,,22784.2,43.89,-0.72,0.72,-0.74,17.9,2.5,-22.2,35.95,,,,,,,,,,
15.08.09.312,-22.2,5.6,0,,,22784.2,43.89,-0.6,1.68,0.05,-8.2,42.7,5.7,35.88,,,,,,,,,,
15.08.09.320,-101.8,25.4,0,,,22784.2,43.89,-0.45,0.67,0.29,18.6,6.1,-0.2,36.09,,,,,,,,,,
15.08.09.330,-117.6,29.4,0,,,22784.2,43.89,0.14,0.35,0.9,-34.4,-0.6,-17.4,35.99,,,,,,,,,,
15.08.09.340,-139.4,34.8,0,,,22784.2,43.89,-0.42,1.24,0.82,12.5,24.2,-19.4,35.66,,,,,,,,,,
15.08.09.350,-77.7,19.4,0,,,22784.2,43.89,-0.33,1.41,0.74,-12.0,3.9,-28.0,35.78,,,,,,,,,,
15.08.09.361,-47.2,11.8,0,,,22784.2,43.89,-0.18,0.47,0.65,-14.1,-11.1,17.7,36.25,,,,,,,,,,
15.08.09.371,-78.2,19.6,0,,,22784.2,43.89,-0.58,0.05,0.29,-35.3,-26.5,-0.8,36.09,,,,,,,,,,
15.08.09.382,-190.7,47.7,0,,,22784.2,43.89,0.18,0.52,0.31,33.0,1.7,4.6,36.18,,,,,,,,,,
15.08.09.394,-115.0,28.8,0,,,22784.2,43.89,-0.18,0.23,0.73,15.9,1.3,-7.4,35.87,,,,,,,,,,
15.08.09.403,-178.5,44.6,0,,,22784.2,43.89,-0.58,0.69,1.35,-3.0,4.5,5.2,35.63,,,,,,,,,,
15.08.09.414,-147.4,36.8,0,,,22784.2,43.89,-0.27,0.28,0.94,1.7,22.9,-22.0,35.95,,,,,,,,,,
15.08.09.420,-137.3,34.3,0,,,22784.2,43.89,-0.23,0.45,-0.5,31.1,6.3,-0.3,35.75,,,,,,,,,,
15.08.09.430,-190.7,47.7,0,,,22784.2,43.89,-0.54,0.21,-0.07,-13.0,-5.9,-4.5,35.97,,,,,,,,,,
15.08.09.442,-179.5,44.9,0,,,22784.2,43.89,-0.38,-0.18,0.42,-1.8,10.4,4.6,35.38,,,,,,,,,,
15.08.09.453,-178.2,44.6,0,,,22784.2,43.89,-0.36,0.91,0.59,-6.9,28.0,8.8,35.78,,,,,,,,,,
15.08.09.463,-167.5,41.9,0,,,22784.2,43.89,-0.08,0.17,0.89,-4.7,-11.7,8.3,35.82,,,,,,,,,,
15.08.09.471,-38.6,9.6,0,,,22784.2,43.89,-0.3,0.17,0.08,-2.6,3.9,-10.8,35.74,,,,,,,,,,
15.08.09.481,137.1,34.3,0,,,22784.2,43.89,-0.2,0.18,-0.24,-0.9,8.1,7.8,35.96,,,,,,,,,,
15.08.09.492,182.9,45.7,0,,,22784.2,43.89,-0.34,0.43,1.12,-5.7,-8.4,-5.1,35.86,,,,,,,,,,
15.08.09.501,296.9,74.2,0,,,22784.2,43.89,-0.84,-0.02,0.61,25.0,12.2,14.4,35.69,,,,,,,,,,
15.08.09.512,321.5,80.4,1,22.0,143.2,22784.2,43.89,-0.52,0.45,-0.36,26.9,19.8,-5.1,36.04,,,,,,,,,,
15.08.09.522,394.2,98.6,0,,,22779.0,43.9,-0.65,0.31,0.36,-26.1,24.4,-3.3,36.06,,,,,,,,,,
15.08.09.533,439.6,109.9,0,,,22779.0,43.9,-0.9,0.11,-0.47,44.9,5.1,7.5,35.6,,,,,,,,,,
15.08.09.543,537.8,134.4,0,,,22779.0,43.9,-0.68,0.69,0.01,-12.1,14.4,9.5,35.66,,,,,,,,,,
15.08.09.551,517.4,129.4,0,,,22779.0,43.9,-0.72,0.27,-0.65,4.5,-23.3,-8.3,35.93,,,,,,,,,,
15.08.09.560,513.4,128.4,0,,,22779.0,43.9,-0.22,0.07,-1.04,-5.1,32.7,-1.5,35.76,,,,,,,,,,
15.08.09.572,482.3,120.6,0,,,22779.0,43.9,-0.13,0.23,-0.12,-29.7,-6.4,2.9,36.15,,,,,,,,,,
15.08.09.582,495.2,123.8,0,,,22779.0,43.9,-0.66,0.4,-0.18,14.9,-6.2,-8.6,35.86,,,,,,,,,,
15.08.09.592,437.6,109.4,0,,,22779.0,43.9,-0.66,0.93,-0.08,-20.4,1.2,-5.9,35.91,,,,,,,,,,
15.08.09.600,415.6,103.9,0,,,22779.0,43.9,-1.08,0.76,-1.26,-27.3,10.7,-6.6,35.92,,,,,,,,,,
15.08.09.608,308.2,77.0,0,,,22779.0,43.9,-0.86,0.74,-0.18,9.5,-5.4,13.7,35.4,,,,,,,,,,
15.08.09.619,325.7,81.4,0,,,22779.0,43.9,-0.72,0.75,0.01,3.8,-4.1,-0.3,35.34,,,,,,,,,,
15.08.09.630,162.3,40.6,0,,,22779.0,43.9,-0.37,0.79,-0.51,14.9,7.2,5.7,35.86,,,,,,,,,,
15.08.09.641,114.1,28.5,0,,,22779.0,43.9,-0.12,0.67,0.13,-37.5,23.2,23.5,36.08,,,,,,,,,,
15.08.09.648,19.9,5.0,0,,,22779.0,43.9,-0.35,1.59,-0.17,7.0,0.4,9.8,35.78,,,,,,,,,,
15.08.09.658,75.4,18.8,0,,,22779.0,43.9,-0.53,0.41,0.11,5.9,-13.6,-16.1,36.14,,,,,,,,,,
15.08.09.669,33.7,8.4,0,,,22779.0,43.9,-0.09,0.76,0.13,15.3,10.1,1.2,36.09,,,,,,,,,,
15.08.09.681,84.7,21.2,0,,,22779.0,43.9,-0.27,0.72,0.37,-2.1,26.0,2.0,36.15,,,,,,,,,,
15.08.09.692,43.2,10.8,0,,,22779.0,43.9,-0.28,0.63,0.1,-11.1,-11.7,-16.8,35.76,,,,,,,,,,
15.08.09.701,100.7,25.2,0,,,22779.0,43.9,-0.14,1.13,-0.02,-19.0,7.7,-22.3,36.1,,,,,,,,,,
15.08.09.713,157.1,39.3,0,,,22779.0,43.9,-0.5,0.87,-0.26,-8.0,24.5,0.1,35.77,,,,,,,,,,
15.08.09.723,110.1,27.5,0,,,22779.0,43.9,-0.23,0.75,0.49,31.9,-1.0,-4.6,36.14,,,,,,,,,,
15.08.09.731,85.3,21.3,0,,,22779.0,43.9,0.1,0.53,0.66,6.6,11.7,4.5,36.34,,,,,,,,,,
15.08.09.740,19.5,4.9,0,,,22779.0,43.9,0.2,0.77,0.08,-7.4,14.6,-4.4,35.86,,,,,,,,,,
15.08.09.750,-9.8,2.4,0,,,22779.0,43.9,0.08,0.76,0.61,21.8,7.8,-9.9,35.82,,,,,,,,,,
15.08.09.759,-8.8,2.2,0,,,22779.0,43.9,-0.45,0.52,0.9,12.5,-11.4,17.3,35.79,,,,,,,,,,
15.08.09.772,-52.9,13.2,0,,,22779.0,43.9,-0.16,0.57,0.33,2.2,-13.1,-12.5,35.75,,,,,,,,,,
15.08.09.782,-73.7,18.4,0,,,22779.0,43.9,-0.32,-0.01,0.75,6.8,-7.0,-6.0,35.71,,,,,,,,,,
15.08.09.793,10.6,2.6,0,,,22779.0,43.9,0.03,0.34,0.79,-16.6,12.5,2.1,36.06,,,,,,,,,,
15.08.09.803,-37.3,9.3,0,,,22779.0,43.9,-0.22,0.67,0.24,19.2,8.9,0.7,36.06,,,,,,,,,,
15.08.09.813,-33.3,8.3,0,,,22779.0,43.9,-0.41,0.06,0.14,38.8,1.9,10.1,35.85,,,,,,,,,,
15.08.09.823,-47.8,12.0,0,,,22779.0,43.9,0.05,0.39,0.01,-20.7,10.9,8.2,35.76,,,,,,,,,,
15.08.09.830,-78.5,19.6,0,,,22779.0,43.9,-0.23,-0.01,-0.43,-0.7,1.8,-8.4,35.89,,,,,,,,,,
15.08.09.839,-40.8,10.2,0,,,22773.9,43.91,-0.18,-0.23,0.41,4.4,3.9,-9.2,36.2,,,,,,,,,,
15.08.09.851,-131.3,32.8,0,,,22773.9,43.91,-0.54,0.13,0.29,9.3,13.1,0.8,35.84,,,,,,,,,,
15.08.09.860,-140.2,35.0,0,,,22773.9,43.91,-0.3,0.05,-0.03,-10.4,-8.7,3.7,35.8,,,,,,,,,,
15.08.09.871,-55.4,13.8,0,,,22773.9,43.91,-0.67,0.21,0.49,-22.3,32.2,13.5,35.56,,,,,,,,,,
15.08.09.882,-82.1,20.5,0,,,22773.9,43.91,-0.71,-0.02,-0.28,-10.1,21.7,8.7,35.99,,,,,,,,,,
15.08.09.892,-142.5,35.6,0,,,22773.9,43.91,-0.68,0.2,-0.2,10.0,11.5,25.1,35.73,,,,,,,,,,
15.08.09.901,-86.7,21.7,0,,,22773.9,43.91,-0.38,0.69,-0.71,17.3,0.6,-1.2,36.08,,,,,,,,,,
15.08.09.909,-133.6,33.4,1,23.0,151.1,22773.9,43.91,-0.74,0.27,-0.56,-18.2,-15.5,14.6,35.94,,,,,,,,,,
15.08.09.918,-137.2,34.3,0,,,22773.9,43.91,-0.46,0.31,-0.66,39.1,11.4,-9.9,35.87,,,,,,,,,,
15.08.09.928,-167.5,41.9,0,,,22773.9,43.91,-0.4,0.74,-0.23,-14.7,19.3,4.8,36.08,,,,,,,,,,
15.08.09.937,-111.1,27.8,0,,,22773.9,43.91,-0.49,0.65,0.41,0.2,21.4,10.0,36.06,,,,,,,,,,
15.08.09.948,-157.7,39.4,0,,,22773.9,43.91,-0.59,0.53,-0.71,-40.7,-20.7,-3.6,35.75,,,,,,,,,,
15.08.09.958,-160.8,40.2,0,,,22773.9,43.91,-0.88,1.0,0.29,8.3,14.3,-9.7,35.64,,,,,,,,,,
15.08.09.966,-176.8,44.2,0,,,22773.9,43.91,-0.42,0.73,-0.34,-16.6,8.9,-7.6,35.48,,,,,,,,,,
15.08.09.975,-127.9,32.0,0,,,22773.9,43.91,-0.58,1.74,-0.93,5.8,-6.1,18.1,36.27,,,,,,,,,,
15.08.09.985,-200.6,50.2,0,,,22773.9,43.91,-0.78,0.72,-1.53,13.0,-5.2,-15.2,36.01,,,,,,,,,,
15.08.09.995,134.9,33.7,0,,,22773.9,43.91,-0.76,0.3,0.08,-14.3,-13.8,-4.0,35.84,,,,,,,,,,
15.08.10.005,125.6,31.4,0,,,22773.9,43.91,-0.24,1.03,0.81,19.0,9.4,-9.3,35.92,,,,,,,,,,
15.08.10.016,229.1,57.3,0,,,22773.9,43.91,-0.14,0.83,0.2,-15.7,-1.8,-6.6,35.75,117.5,,,,,,,,,
15.08.10.025,303.8,76.0,0,,,22773.9,43.91,-0.04,1.09,-0.32,-20.4,7.7,-6.8,36.08,,,,,,,,,,
15.08.10.036,425.9,106.5,0,,,22773.9,43.91,-0.4,0.71,1.01,12.1,5.8,-12.3,35.72,,,,,,,,,,
15.08.10.045,359.7,89.9,0,,,22773.9,43.91,-0.53,1.26,0.37,-0.1,5.3,20.1,36.17,,,,,,,,,,
15.08.10.055,411.3,102.8,0,,,22768.7,43.92,-0.16,0.73,0.43,3.6,38.4,-6.3,35.76,,,,,,,,,,
15.08.10.065,493.9,123.5,0,,,22768.7,43.92,-0.17,0.88,-0.43,6.3,-8.1,6.8,36.07,,,,,,,,,,
15.08.10.073,384.3,96.1,0,,,22768.7,43.92,-0.05,1.01,1.55,7.7,16.4,15.4,35.44,,,,,,,,,,
15.08.10.083,457.6,114.4,0,,,22768.7,43.92,-0.09,0.62,0.38,-25.1,5.4,-3.3,35.92,,,,,,,,,,
15.08.10.092,437.6,109.4,0,,,22768.7,43.92,-0.28,0.87,0.87,4.8,9.0,-3.5,35.81,,,,,,,,,,
15.08.10.102,537.8,134.4,0,,,22768.7,43.92,0.1,0.75,0.49,-0.7,-11.3,7.1,35.65,,,,,,,,,,
15.08.10.114,420.2,105.0,0,,,22768.7,43.92,-0.03,0.18,-0.41,-0.8,14.8,4.5,35.99,,,,,,,,,,
15.08.10.125,359.7,89.9,0,,,22768.7,43.92,-0.25,0.07,1.35,7.6,9.2,-4.5,35.98,,,,,,,,,,
15.08.10.134,261.7,65.4,0,,,22768.7,43.92,-0.66,0.74,0.32,-0.8,-3.6,11.2,35.65,,,,,,,,,,
15.08.10.145,128.1,32.0,0,,,22768.7,43.92,-0.03,0.71,1.19,12.4,34.0,-32.7,35.55,,,,,,,,,,
15.08.10.156,65.9,16.5,0,,,22763.5,43.93,-0.19,0.62,0.91,-10.2,-17.8,-5.0,35.86,,,,,,,,,,
15.08.10.165,78.5,19.6,0,,,22763.5,43.93,-0.51,0.33,0.52,9.4,23.3,24.5,35.75,,,,,,,,,,
15.08.10.175,60.6,15.2,0,,,22763.5,43.93,-0.39,-0.07,0.04,29.7,11.3,-20.3,35.91,,,,,,,,,,
15.08.10.185,44.9,11.2,0,,,22763.5,43.93,-0.2,0.54,0.04,28.4,-8.3,5.0,35.62,,,,,,,,,,
15.08.10.194,10.3,2.6,0,,,22763.5,43.93,-0.36,0.32,0.43,6.8,11.0,-31.2,35.62,,,,,,,,,,
15.08.10.203,70.6,17.6,0,,,22763.5,43.93,-0.49,0.18,-0.52,-10.2,11.3,-2.1,35.87,,,,,,,,,,
15.08.10.212,84.5,21.1,0,,,22763.5,43.93,-0.77,0.08,-0.73,26.2,13.9,-1.3,35.55,,,,,,,,,,
15.08.10.221,93.1,23.3,0,,,22763.5,43.93,-0.27,0.81,-0.49,-18.9,-14.6,-16.0,35.65,,,,,,,,,,
15.08.10.231,78.9,19.7,0,,,22763.5,43.93,-1.03,0.02,0.14,-6.9,4.0,-7.6,35.62,,,,,,,,,,
15.08.10.242,66.5,16.6,0,,,22763.5,43.93,-0.83,0.76,0.25,-4.8,3.5,2.4,35.79,,,,,,,,,,
15.08.10.251,96.6,24.2,0,,,22758.3,43.94,-0.23,1.0,-0.47,0.6,-15.2,-15.1,35.89,,,,,,,,,,
15.08.10.261,38.7,9.7,0,,,22758.3,43.94,-0.92,0.81,-1.6,-8.0,11.5,19.3,35.64,,,,,,,,,,
15.08.10.272,49.4,12.4,0,,,22758.3,43.94,-0.87,0.57,-0.34,38.9,5.2,-8.5,35.86,,,,,,,,,,
15.08.10.280,3.4,0.8,0,,,22758.3,43.94,-0.27,0.58,-0.11,2.6,-7.4,0.9,35.7,,,,,,,,,,
15.08.10.291,-25.6,6.4,0,,,22758.3,43.94,-1.01,0.89,0.02,24.6,-3.8,-20.7,35.87,,,,,,,,,,
15.08.10.301,-101.3,25.3,0,,,22758.3,43.94,-0.49,0.94,-0.32,-16.6,28.4,8.6,36.04,,,,,,,,,,
15.08.10.310,-53.1,13.3,0,,,22758.3,43.94,-0.45,0.91,-1.32,-10.9,5.8,3.2,35.62,,,,,,,,,,
15.08.10.318,-24.9,6.2,1,24.0,146.7,22758.3,43.94,-0.46,1.13,-0.0,-7.5,-16.4,16.7,35.71,,,,,,,,,,
15.08.10.328,-53.4,13.4,0,,,22758.3,43.94,-0.42,0.38,-0.7,2.6,8.4,11.7,35.98,,,,,,,,,,
15.08.10.339,-43.3,10.8,0,,,22758.3,43.94,-0.48,0.82,-0.22,39.6,-9.5,2.8,35.61,,,,,,,,,,
15.08.10.347,-102.0,25.5,0,,,22758.3,43.94,-0.51,1.0,0.09,-16.5,25.4,-2.4,35.5,,,,,,,,,,
15.08.10.357,-69.7,17.4,0,,,22753.1,43.95,-0.23,0.65,0.4,-25.7,4.7,1.9,35.67,,,,,,,,,,
15.08.10.365,-108.1,27.0,0,,,22753.1,43.95,-0.36,0.63,1.34,-15.2,-7.3,-13.6,35.89,,,,,,,,,,
15.08.10.374,-44.2,11.0,0,,,22753.1,43.95,-0.38,1.02,0.31,12.8,-9.6,-2.0,35.94,,,,,,,,,,
15.08.10.382,-19.2,4.8,0,,,22753.1,43.95,-0.5,1.13,0.68,6.5,-12.9,21.6,35.63,,,,,,,,,,
15.08.10.391,-83.7,20.9,0,,,22753.1,43.95,-0.15,0.95,0.84,-29.2,-4.8,0.4,35.8,,,,,,,,,,
15.08.10.403,-110.9,27.7,0,,,22753.1,43.95,0.06,0.59,0.41,-30.0,-4.9,-4.0,35.59,,,,,,,,,,
15.08.10.412,-106.1,26.5,0,,,22753.1,43.95,0.24,0.85,1.09,6.2,12.2,8.3,35.83,,,,,,,,,,
15.08.10.423,-186.9,46.7,0,,,22753.1,43.95,-0.05,0.49,0.93,-17.8,13.9,12.1,35.78,,,,,,,,,,
15.08.10.433,-124.7,31.2,0,,,22753.1,43.95,-0.46,0.39,1.37,18.6,-29.0,-2.3,35.82,,,,,,,,,,
15.08.10.441,-125.9,31.5,0,,,22753.1,43.95,-0.65,0.48,0.72,-2.5,6.8,-13.9,35.8,,,,,,,,,,
15.08.10.449,-148.2,37.0,0,,,22753.1,43.95,0.29,0.34,0.47,-10.9,1.9,5.5,36.12,,,,,,,,,,
15.08.10.459,-213.2,53.3,0,,,22748.0,43.96,-0.2,1.05,1.28,-5.5,2.8,-6.0,36.11,,,,,,,,,,
15.08.10.472,-111.6,27.9,0,,,22748.0,43.96,0.14,-0.39,0.86,-13.8,14.6,-10.1,35.81,,,,,,,,,,
15.08.10.485,-135.2,33.8,0,,,22748.0,43.96,-0.24,0.35,0.77,12.1,-0.5,-10.8,35.79,,,,,,,,,,
15.08.10.494,-164.9,41.2,0,,,22748.0,43.96,-0.01,0.5,0.3,-4.0,3.6,5.5,35.91,,,,,,,,,,
15.08.10.503,14.9,3.7,0,,,22748.0,43.96,-0.13,-0.13,1.56,5.4,-2.7,-17.3,36.06,,,,,,,,,,
15.08.10.511,75.0,18.8,0,,,22748.0,43.96,-0.61,0.07,-0.11,4.8,1.5,8.7,35.66,,,,,,,,,,
15.08.10.519,163.0,40.8,0,,,22748.0,43.96,-0.24,0.42,0.16,19.3,-4.1,-17.4,35.91,,,,,,,,,,
15.08.10.530,279.2,69.8,0,,,22748.0,43.96,-0.19,0.36,-0.07,9.5,-4.5,-18.8,35.74,,,,,,,,,,
15.08.10.540,274.4,68.6,0,,,22748.0,43.96,-0.49,0.16,-0.21,-9.1,14.3,8.1,35.9,,,,,,,,,,
15.08.10.550,315.6,78.9,0,,,22748.0,43.96,-0.59,0.26,-0.31,-10.8,8.2,2.7,35.89,,,,,,,,,,
15.08.10.559,465.0,116.2,0,,,22742.8,43.97,-0.35,0.2,-0.24,-5.3,-3.1,-6.2,35.67,,,,,,,,,,
15.08.10.568,458.0,114.5,0,,,22742.8,43.97,-0.55,-0.31,0.86,14.9,-5.6,-1.6,35.93,,,,,,,,,,
15.08.10.579,563.7,140.9,0,,,22742.8,43.97,-0.73,0.96,-0.29,-5.3,-15.0,3.9,35.89,,,,,,,,,,
15.08.10.588,455.5,113.9,0,,,22742.8,43.97,-0.84,0.65,0.12,-8.3,9.3,-5.1,36.16,,,,,,,,,,
15.08.10.597,450.2,112.6,0,,,22742.8,43.97,-1.29,0.55,-0.32,-48.9,1.3,-3.2,35.93,,,,,,,,,,
15.08.10.606,479.4,119.8,0,,,22742.8,43.97,-0.12,0.13,-0.01,-20.4,-8.4,-6.1,35.34,,,,,,,,,,
15.08.10.615,361.2,90.3,0,,,22742.8,43.97,-0.24,0.64,0.13,-16.0,8.2,-3.0,35.69,,,,,,,,,,
15.08.10.626,436.2,109.0,0,,,22742.8,43.97,-0.79,1.13,-0.38,-22.6,11.6,5.3,35.54,,,,,,,,,,
15.08.10.635,340.1,85.0,0,,,22742.8,43.97,-0.37,1.14,-1.29,-17.0,15.3,-9.5,35.96,,,,,,,,,,
15.08.10.643,355.2,88.8,0,,,22742.8,43.97,-0.57,0.64,0.06,-8.1,-10.2,1.3,35.36,,,,,,,,,,
15.08.10.652,265.2,66.3,0,,,22742.8,43.97,-0.75,0.6,-0.13,28.5,-1.1,-8.4,35.73,,,,,,,,,,
15.08.10.663,125.9,31.5,0,,,22737.6,43.98,-0.44,0.81,0.18,17.6,28.3,-21.6,36.01,,,,,,,,,,
15.08.10.675,107.2,26.8,0,,,22737.6,43.98,-0.7,0.83,-0.99,14.2,22.2,0.8,35.85,,,,,,,,,,
15.08.10.682,14.7,3.7,0,,,22737.6,43.98,-0.44,1.15,0.37,-14.2,-6.7,-2.8,35.62,,,,,,,,,,
15.08.10.694,37.3,9.3,0,,,22737.6,43.98,-0.3,1.16,-0.07,25.5,39.8,-15.7,35.97,,,,,,,,,,
15.08.10.704,84.9,21.2,0,,,22737.6,43.98,-0.15,0.04,0.18,-24.9,21.8,-10.7,35.79,,,,,,,,,,
15.08.10.714,113.7,28.4,0,,,22737.6,43.98,-0.15,0.64,-0.04,13.5,11.6,2.4,36.23,,,,,,,,,,
15.08.10.723,76.8,19.2,0,,,22737.6,43.98,-0.12,0.88,0.91,-4.7,25.7,-2.6,35.71,,,,,,,,,,
15.08.10.732,98.5,24.6,1,25.0,144.9,22737.6,43.98,-0.3,1.09,1.34,-37.9,-0.1,-1.0,36.07,,,,,,,,,,
15.08.10.741,68.3,17.1,0,,,22737.6,43.98,-0.24,0.62,0.53,27.8,9.2,-1.1,35.93,,,,,,,,,,
15.08.10.750,139.6,34.9,0,,,22737.6,43.98,0.2,0.77,0.61,11.7,-13.4,3.6,35.98,,,,,,,,,,
15.08.10.758,69.6,17.4,0,,,22732.4,43.99,0.0,0.11,0.63,-3.7,19.6,-2.0,35.82,,,,,,,,,,
15.08.10.767,5.0,1.2,0,,,22732.4,43.99,-0.07,0.68,1.17,-6.7,3.0,-6.1,35.89,,,,,,,,,,
15.08.10.777,60.2,15.0,0,,,22732.4,43.99,-0.01,0.24,-0.01,-13.2,20.2,-2.2,35.57,,,,,,,,,,
15.08.10.786,-49.3,12.3,0,,,22732.4,43.99,-0.28,0.2,0.35,-6.6,-0.8,-3.5,35.9,,,,,,,,,,
15.08.10.797,12.1,3.0,0,,,22732.4,43.99,-0.3,0.24,0.9,-10.9,25.3,-5.6,35.55,,,,,,,,,,
15.08.10.807,-7.4,1.8,0,,,22732.4,43.99,-0.08,0.13,0.24,-11.6,12.9,14.2,35.75,,,,,,,,,,
15.08.10.816,-24.4,6.1,0,,,22732.4,43.99,-0.1,0.38,-0.53,-5.5,15.0,1.7,35.84,,,,,,,,,,
15.08.10.826,-18.7,4.7,0,,,22732.4,43.99,-0.01,0.46,0.47,-3.4,-14.3,0.8,35.75,,,,,,,,,,
15.08.10.837,-110.9,27.7,0,,,22732.4,43.99,-0.19,-0.03,0.39,-31.8,-31.0,-17.1,36.06,,,,,,,,,,
15.08.10.846,-61.8,15.4,0,,,22732.4,43.99,-0.32,0.35,0.1,-17.6,-3.3,5.3,35.6,,,,,,,,,,
15.08.10.855,-63.8,16.0,0,,,22727.3,44.0,-0.1,0.09,-0.68,19.0,36.5,9.4,35.82,,,,,,,,,,
15.08.10.865,-77.4,19.4,0,,,22727.3,44.0,-0.21,0.87,0.19,-4.0,12.9,4.1,35.73,,,,,,,,,,
15.08.10.876,-76.4,19.1,0,,,22727.3,44.0,0.01,-0.03,-0.08,7.3,0.8,-4.7,35.85,,,,,,,,,,
15.08.10.885,-101.5,25.4,0,,,22727.3,44.0,-0.31,-0.1,0.54,-4.4,8.2,-5.4,35.81,,,,,,,,,,
15.08.10.896,-89.0,22.2,0,,,22727.3,44.0,0.0,0.36,-0.34,-40.2,-11.0,-7.0,35.91,,,,,,,,,,
15.08.10.906,-123.5,30.9,0,,,22727.3,44.0,-0.2,0.9,-0.16,-7.1,18.2,-19.2,35.51,,,,,,,,,,
15.08.10.917,-121.1,30.3,0,,,22727.3,44.0,-0.13,0.5,-0.01,17.9,24.9,-1.2,36.05,,,,,,,,,,
15.08.10.926,-73.0,18.2,0,,,22727.3,44.0,-0.76,0.47,0.05,4.7,-25.4,-24.4,35.85,,,,,,,,,,
15.08.10.936,-115.0,28.8,0,,,22727.3,44.0,-0.56,0.65,-0.3,37.0,5.4,12.4,35.92,,,,,,,,,,
15.08.10.943,-139.7,34.9,0,,,22727.3,44.0,-0.69,0.47,0.15,-17.0,-5.1,7.4,35.76,,,,,,,,,,
15.08.10.952,-123.5,30.9,0,,,22727.3,44.0,-0.69,0.54,-1.11,14.9,3.9,-3.2,36.19,,,,,,,,,,
15.08.10.962,-140.4,35.1,0,,,22722.1,44.01,-0.74,0.28,-0.92,4.0,4.5,5.4,35.9,,,,,,,,,,
15.08.10.969,-147.2,36.8,0,,,22722.1,44.01,-0.62,0.18,-0.08,-9.9,38.0,-1.4,36.13,,,,,,,,,,
15.08.10.979,-194.7,48.7,0,,,22722.1,44.01,-0.82,1.39,-0.97,5.6,1.5,-7.4,35.63,,,,,,,,,,
15.08.10.990,-145.2,36.3,0,,,22722.1,44.01,-1.0,0.25,-0.83,16.7,4.6,-9.0,36.11,,,,,,,,,,
15.08.10.999,-166.9,41.7,0,,,22722.1,44.01,-0.19,0.74,-0.49,6.9,28.1,18.4,36.05,,,,,,,,,,
15.08.11.008,-262.3,65.6,0,,,22722.1,44.01,-0.97,1.46,0.16,-17.1,-3.7,-12.6,35.95,,,,,,,,,,
15.08.11.017,31.2,7.8,0,,,22722.1,44.01,-0.28,0.96,0.75,35.4,2.5,-16.4,35.56,,,,,,,,,,
15.08.11.030,183.9,46.0,0,,,22722.1,44.01,-0.82,1.66,0.43,1.2,18.0,3.2,36.22,,,,,,,,,,
15.08.11.038,158.1,39.5,0,,,22722.1,44.01,-0.46,0.85,0.58,1.9,12.5,-6.2,35.65,,,,,,,,,,
15.08.11.048,286.4,71.6,0,,,22716.9,44.02,-0.38,0.51,0.27,-16.4,4.7,-1.5,36.18,,,,,,,,,,
15.08.11.058,307.3,76.8,0,,,22716.9,44.02,-0.32,0.82,1.48,-9.7,24.5,6.6,35.71,,,,,,,,,,
15.08.11.068,356.6,89.2,0,,,22716.9,44.02,-0.62,0.88,0.33,-5.6,9.2,-5.2,35.66,,,,,,,,,,
15.08.11.077,415.7,103.9,0,,,22716.9,44.02,-0.43,0.55,0.23,-5.4,-6.1,5.4,35.85,,,,,,,,,,
15.08.11.086,390.9,97.7,0,,,22716.9,44.02,-0.3,0.67,0.62,15.8,-15.3,4.8,36.13,,,,,,,,,,
15.08.11.097,467.7,116.9,0,,,22716.9,44.02,-0.07,0.61,0.89,-16.4,3.3,3.4,36.23,,,,,,,,,,
15.08.11.106,410.5,102.6,0,,,22716.9,44.02,-0.18,0.63,1.43,-8.2,28.1,-1.3,35.94,,,,,,,,,,
15.08.11.113,411.5,102.9,0,,,22716.9,44.02,0.23,0.85,1.24,12.5,-13.6,11.7,36.02,,,,,,,,,,
15.08.11.121,515.3,128.8,0,,,22711.8,44.03,-0.35,0.83,0.32,5.4,30.1,-20.4,35.76,,,,,,,,,,
15.08.11.130,406.8,101.7,0,,,22711.8,44.03,0.28,0.77,-0.06,-1.6,14.0,24.3,35.97,,,,,,,,,,
15.08.11.141,419.7,104.9,0,,,22711.8,44.03,0.17,0.92,0.86,9.7,18.2,-13.0,35.68,,,,,,,,,,
15.08.11.150,329.0,82.2,0,,,22711.8,44.03,0.27,0.7,0.11,9.0,5.1,-2.8,36.16,,,,,,,,,,
15.08.11.162,269.6,67.4,0,,,22711.8,44.03,0.5,0.76,0.52,10.0,0.2,0.9,36.07,,,,,,,,,,
15.08.11.171,157.7,39.4,0,,,22711.8,44.03,0.19,0.2,0.57,-3.6,3.4,3.2,35.72,,,,,,,,,,
15.08.11.180,160.4,40.1,0,,,22711.8,44.03,0.41,0.52,-0.04,-18.2,1.7,-20.4,36.11,,,,,,,,,,
15.08.11.194,-28.5,7.1,1,26.0,129.9,22706.6,44.04,-0.55,0.09,0.02,37.7,13.9,-6.3,36.01,,,,,,,,,,
15.08.11.202,30.0,7.5,0,,,22706.6,44.04,-0.67,0.36,0.85,6.8,9.2,-4.9,35.62,,,,,,,,,,
15.08.11.214,99.6,24.9,0,,,22706.6,44.04,-0.07,-0.16,1.15,-8.5,26.7,-0.6,35.74,,,,,,,,,,
15.08.11.225,110.8,27.7,0,,,22706.6,44.04,0.21,0.71,-0.38,5.7,1.8,-5.0,35.93,,,,,,,,,,
15.08.11.236,64.9,16.2,0,,,22706.6,44.04,-0.08,0.23,-0.04,-0.6,22.3,-1.1,35.65,,,,,,,,,,
15.08.11.242,118.4,29.6,0,,,22706.6,44.04,-0.25,0.07,-0.17,-1.2,13.7,9.6,35.77,,,,,,,,,,
15.08.11.253,54.8,13.7,0,,,22706.6,44.04,-0.39,-0.1,-0.09,12.7,13.6,-15.0,35.71,,,,,,,,,,
15.08.11.261,88.8,22.2,0,,,22706.6,44.04,-0.69,-0.03,-0.18,-12.2,10.4,16.4,36.15,,,,,,,,,,
15.08.11.271,71.7,17.9,0,,,22701.5,44.05,-0.27,0.02,-0.01,-6.1,-7.5,2.0,35.76,,,,,,,,,,
15.08.11.281,-8.7,2.2,0,,,22701.5,44.05,-0.6,0.48,0.11,-5.8,-20.6,-7.2,35.93,,,,,,,,,,
15.08.11.289,41.4,10.4,0,,,22701.5,44.05,-0.45,1.21,-0.17,2.2,-23.1,-7.6,35.66,,,,,,,,,,
15.08.11.299,-9.7,2.4,0,,,22701.5,44.05,-0.37,-0.01,-0.99,6.5,18.1,-2.9,36.1,,,,,,,,,,
15.08.11.307,43.1,10.8,0,,,22701.5,44.05,-0.72,0.39,-0.01,-46.9,22.9,4.7,35.74,,,,,,,,,,
15.08.11.317,-62.7,15.7,0,,,22701.5,44.05,-0.39,0.28,-0.11,-0.6,-4.7,-6.9,36.42,,,,,,,,,,
15.08.11.327,-33.6,8.4,0,,,22701.5,44.05,-0.72,0.76,-0.09,44.0,29.3,-2.7,35.99,,,,,,,,,,
15.08.11.338,16.0,4.0,0,,,22696.3,44.06,-0.75,1.09,-0.29,21.1,9.0,0.4,35.75,,,,,,,,,,
15.08.11.346,-62.5,15.6,0,,,22696.3,44.06,-0.49,1.05,-0.6,31.6,-19.0,-6.4,35.78,,,,,,,,,,
15.08.11.355,-40.5,10.1,0,,,22696.3,44.06,-0.5,0.84,0.68,11.0,0.5,-13.9,36.15,,,,,,,,,,
15.08.11.365,-51.0,12.8,0,,,22696.3,44.06,-0.31,1.33,0.55,-6.1,29.5,30.1,35.47,,,,,,,,,,
15.08.11.375,-76.7,19.2,0,,,22696.3,44.06,-0.1,0.67,0.07,14.7,-7.6,-0.3,35.56,,,,,,,,,,
15.08.11.385,-37.2,9.3,0,,,22696.3,44.06,-0.12,0.35,-0.07,28.7,11.9,7.8,35.68,,,,,,,,,,
15.08.11.395,-108.7,27.2,0,,,22696.3,44.06,-0.34,1.14,-0.1,-10.2,1.6,8.7,35.52,,,,,,,,,,
15.08.11.405,-118.1,29.5,0,,,22696.3,44.06,0.01,0.93,0.17,-27.1,10.4,-11.3,35.91,,,,,,,,,,
15.08.11.416,-138.2,34.6,0,,,22691.2,44.07,-0.28,0.89,0.47,-9.4,-4.5,-1.6,36.01,,,,,,,,,,
15.08.11.426,-111.3,27.8,0,,,22691.2,44.07,-0.11,0.53,0.4,12.8,21.4,-12.7,35.56,,,,,,,,,,
15.08.11.434,-119.8,30.0,0,,,22691.2,44.07,-0.29,1.45,0.07,-10.6,8.5,-1.5,35.89,,,,,,,,,,
15.08.11.443,-147.1,36.8,0,,,22691.2,44.07,-0.19,0.65,-0.02,7.1,6.6,-6.3,36.14,,,,,,,,,,
15.08.11.453,-132.5,33.1,0,,,22691.2,44.07,-0.18,0.73,-0.31,1.8,-8.7,5.7,35.88,,,,,,,,,,
15.08.11.462,-162.0,40.5,0,,,22691.2,44.07,0.05,0.43,1.17,-39.1,0.9,-0.6,35.9,,,,,,,,,,
15.08.11.472,-130.7,32.7,0,,,22691.2,44.07,-0.36,0.52,0.74,-2.4,-13.3,5.3,36.07,,,,,,,,,,
15.08.11.483,-132.6,33.2,0,,,22691.2,44.07,0.12,0.21,0.33,25.1,-18.4,-13.3,35.72,,,,,,,,,,
15.08.11.492,-130.4,32.6,0,,,22686.0,44.08,-0.18,0.93,0.57,23.3,4.3,-19.2,35.5,,,,,,,,,,
15.08.11.501,-156.1,39.0,0,,,22686.0,44.08,0.05,-0.02,-0.08,5.0,-13.3,-19.5,36.02,,,,,,,,,,
15.08.11.512,-204.3,51.1,0,,,22686.0,44.08,-0.14,1.12,0.81,-2.8,-0.2,-10.7,35.76,,,,,,,,,,
15.08.11.521,-102.8,25.7,0,,,22686.0,44.08,-0.54,0.83,0.99,-18.4,-2.1,-0.5,35.37,,,,,,,,,,
15.08.11.531,-9.5,2.4,0,,,22686.0,44.08,-0.3,0.09,-0.19,-47.8,-21.4,14.6,35.85,,,,,,,,,,
15.08.11.541,83.1,20.8,0,,,22686.0,44.08,-0.3,0.89,0.06,-1.2,6.2,9.9,35.89,,,,,,,,,,
15.08.11.552,190.1,47.5,0,,,22686.0,44.08,0.52,0.41,0.17,1.3,-2.3,-1.4,36.02,,,,,,,,,,
15.08.11.564,261.6,65.4,0,,,22680.9,44.09,-0.83,0.66,-0.04,-10.0,14.8,-10.1,35.79,,,,,,,,,,
15.08.11.574,360.1,90.0,0,,,22680.9,44.09,-0.45,0.31,0.81,2.4,4.6,1.7,35.75,,,,,,,,,,
15.08.11.584,335.9,84.0,0,,,22680.9,44.09,-0.78,0.32,-0.27,-6.0,10.3,1.4,35.62,,,,,,,,,,
15.08.11.593,449.5,112.4,0,,,22680.9,44.09,-0.44,0.06,-0.15,-12.1,17.4,15.5,35.94,,,,,,,,,,
15.08.11.601,474.9,118.7,0,,,22680.9,44.09,-0.51,0.04,0.29,-9.7,-20.2,-5.1,35.91,,,,,,,,,,
15.08.11.609,438.4,109.6,0,,,22680.9,44.09,-0.51,0.5,-0.2,0.5,21.1,-4.7,35.83,,,,,,,,,,
15.08.11.619,457.2,114.3,0,,,22680.9,44.09,-0.79,0.05,-0.13,-5.3,-24.2,-2.1,35.86,,,,,,,,,,
15.08.11.628,512.2,128.0,1,27.0,138.2,22680.9,44.09,-0.76,0.43,0.39,29.3,0.8,-1.0,35.95,,,,,,,,,,
15.08.11.640,445.8,111.4,0,,,22675.7,44.1,-0.4,-0.16,-0.65,-11.5,21.4,15.6,35.9,,,,,,,,,,
15.08.11.650,419.5,104.9,0,,,22675.7,44.1,-0.81,0.71,0.16,16.2,30.2,4.7,35.96,,,,,,,,,,
15.08.11.658,381.1,95.3,0,,,22675.7,44.1,-0.2,0.3,-0.22,-23.4,9.5,13.1,35.94,,,,,,,,,,
15.08.11.666,322.9,80.7,0,,,22675.7,44.1,-0.37,0.53,0.06,39.9,-28.4,-16.0,35.69,,,,,,,,,,
15.08.11.675,286.7,71.7,0,,,22675.7,44.1,-0.93,0.72,-0.36,-2.1,22.3,19.9,36.05,,,,,,,,,,
15.08.11.684,227.9,57.0,0,,,22675.7,44.1,-0.77,0.29,0.37,-0.4,16.4,-1.9,35.27,,,,,,,,,,
15.08.11.695,142.4,35.6,0,,,22675.7,44.1,0.0,0.67,-0.12,-12.5,9.4,-9.0,35.72,,,,,,,,,,
15.08.11.705,41.9,10.5,0,,,22675.7,44.1,-0.29,1.35,0.22,-5.5,-4.7,-17.6,36.08,,,,,,,,,,
15.08.11.717,16.9,4.2,0,,,22670.6,44.11,-0.27,1.09,0.61,1.7,3.9,-0.2,35.84,,,,,,,,,,
15.08.11.729,43.4,10.8,0,,,22670.6,44.11,-0.47,0.76,0.05,21.5,-14.9,21.3,36.38,,,,,,,,,,
15.08.11.737,115.8,29.0,0,,,22670.6,44.11,-0.2,1.0,-0.19,7.5,-7.6,14.3,35.48,,,,,,,,,,
15.08.11.746,75.3,18.8,0,,,22670.6,44.11,0.07,0.92,-0.24,-13.8,15.2,-8.7,35.7,,,,,,,,,,
15.08.11.756,79.1,19.8,0,,,22670.6,44.11,-0.15,0.77,0.61,10.2,20.8,6.0,35.81,,,,,,,,,,
15.08.11.767,53.8,13.4,0,,,22670.6,44.11,-0.35,1.59,0.88,1.2,8.4,33.7,35.69,,,,,,,,,,
15.08.11.777,86.4,21.6,0,,,22670.6,44.11,-0.09,0.48,0.45,6.2,35.8,-9.0,35.85,,,,,,,,,,
15.08.11.786,71.3,17.8,0,,,22665.5,44.12,-0.03,0.93,1.0,4.3,2.4,-2.5,35.51,,,,,,,,,,
15.08.11.796,-3.7,0.9,0,,,22665.5,44.12,-0.18,0.73,0.09,6.7,12.0,9.7,36.06,,,,,,,,,,
15.08.11.808,48.0,12.0,0,,,22665.5,44.12,-0.07,0.43,0.4,27.8,9.9,-11.3,36.3,,,,,,,,,,
15.08.11.816,-15.1,3.8,0,,,22665.5,44.12,0.04,0.41,-0.02,-16.5,-8.3,-18.1,36.03,,,,,,,,,,
15.08.11.825,24.9,6.2,0,,,22665.5,44.12,0.03,0.38,0.36,-4.6,2.2,2.1,35.81,,,,,,,,,,
15.08.11.835,-44.7,11.2,0,,,22665.5,44.12,-0.14,0.37,1.15,-27.9,21.6,-5.5,35.61,,,,,,,,,,
15.08.11.844,-2.4,0.6,0,,,22665.5,44.12,0.21,-0.03,0.72,1.1,17.5,13.4,35.58,,,,,,,,,,
15.08.11.853,-43.9,11.0,0,,,22665.5,44.12,-0.27,-0.26,1.43,-5.7,8.7,7.9,35.68,,,,,,,,,,
15.08.11.862,-87.0,21.8,0,,,22660.3,44.13,-0.41,0.33,-0.61,4.0,15.1,3.0,35.85,,,,,,,,,,
15.08.11.872,-54.1,13.5,0,,,22660.3,44.13,0.36,0.34,0.06,-8.5,-7.1,-8.3,35.95,,,,,,,,,,
15.08.11.882,-69.3,17.3,0,,,22660.3,44.13,-0.72,-0.18,0.14,-1.4,-2.8,-7.3,35.54,,,,,,,,,,
15.08.11.892,8.4,2.1,0,,,22660.3,44.13,-0.18,0.68,0.21,-6.0,17.5,-13.3,35.9,,,,,,,,,,
15.08.11.901,-76.4,19.1,0,,,22660.3,44.13,-0.14,-0.15,0.89,16.1,1.2,-9.9,35.75,,,,,,,,,,
15.08.11.910,-55.2,13.8,0,,,22660.3,44.13,-0.31,-0.34,0.21,9.8,6.2,6.2,35.75,,,,,,,,,,
15.08.11.920,-63.9,16.0,0,,,22660.3,44.13,-0.41,0.75,-0.04,-24.7,-28.5,-29.0,35.77,,,,,,,,,,
15.08.11.931,-116.3,29.1,0,,,22660.3,44.13,-0.23,0.24,0.31,3.4,35.0,-7.2,35.69,,,,,,,,,,
15.08.11.941,-77.9,19.5,0,,,22655.2,44.14,-0.47,0.44,-0.84,-31.2,32.1,6.1,36.19,,,,,,,,,,
15.08.11.951,-120.7,30.2,0,,,22655.2,44.14,-0.84,0.62,1.1,-13.7,34.1,13.3,35.81,,,,,,,,,,
15.08.11.961,-82.9,20.7,0,,,22655.2,44.14,-0.37,0.01,-0.12,-0.9,19.9,13.7,35.56,,,,,,,,,,
15.08.11.971,-121.9,30.5,0,,,22655.2,44.14,-0.29,0.14,-0.23,-20.8,35.6,11.4,35.75,,,,,,,,,,
15.08.11.980,-93.0,23.2,0,,,22655.2,44.14,-0.46,0.0,-0.38,-11.5,9.3,4.4,35.89,,,,,,,,,,
15.08.11.990,-150.9,37.7,0,,,22655.2,44.14,-0.77,0.37,-0.18,16.1,26.6,12.5,35.9,,,,,,,,,,
15.08.12.000,-140.1,35.0,0,,,22655.2,44.14,-0.83,0.83,-0.24,-12.7,-3.2,8.2,35.53,,,,,,,,,,
15.08.12.009,-200.7,50.2,0,,,22655.2,44.14,-0.58,0.9,-0.4,9.8,23.1,4.6,35.72,,,,,,,,,,
15.08.12.020,-170.7,42.7,0,,,22655.2,44.14,-0.72,0.33,-0.53,12.7,8.0,-3.1,35.61,,,,,,,,,,
15.08.12.029,-154.5,38.6,0,,,22655.2,44.14,-0.7,1.19,-0.04,-2.2,-3.9,15.5,36.14,,,,,,,,,,
15.08.12.038,-199.9,50.0,0,,,22655.2,44.14,-0.87,0.29,-1.1,-9.1,-5.5,-16.5,36.14,,,,,,,,,,
15.08.12.047,78.9,19.7,0,,,22655.2,44.14,-0.78,0.18,-0.92,12.3,-7.6,-6.5,35.71,,,,,,,,,,
15.08.12.056,121.6,30.4,0,,,22655.2,44.14,-0.15,0.99,-0.44,11.6,37.1,-11.0,35.82,,,,,,,,,,
15.08.12.067,209.9,52.5,0,,,22655.2,44.14,-0.59,0.64,0.29,-8.8,26.4,-0.0,35.7,,,,,,,,,,
15.08.12.076,248.4,62.1,1,28.0,133.9,22655.2,44.14,-0.14,1.67,-0.26,-5.8,0.9,-7.1,35.56,,,,,,,,,,
15.08.12.086,367.6,91.9,0,,,22655.2,44.14,-0.5,0.61,0.55,13.2,6.2,-5.6,35.88,,,,,,,,,,
15.08.12.094,406.2,101.6,0,,,22655.2,44.14,-0.25,1.11,0.3,-7.8,-19.9,-2.5,35.92,,,,,,,,,,
15.08.12.106,424.3,106.1,0,,,22655.2,44.14,-0.86,1.55,-0.65,21.7,-1.7,4.6,36.38,,,,,,,,,,
15.08.12.116,459.1,114.8,0,,,22655.2,44.14,-0.66,1.17,0.42,-41.4,2.8,-1.2,35.75,,,,,,,,,,
15.08.12.125,489.4,122.4,0,,,22655.2,44.14,-0.27,0.95,0.89,32.0,20.4,-8.2,35.68,,,,,,,,,,
15.08.12.134,522.0,130.5,0,,,22655.2,44.14,-0.04,0.76,0.5,3.0,7.1,-13.1,36.19,,,,,,,,,,
15.08.12.143,422.6,105.6,0,,,22655.2,44.14,-0.41,1.16,0.54,24.1,-4.0,-20.2,36.03,,,,,,,,,,
15.08.12.153,469.0,117.2,0,,,22655.2,44.14,-0.23,0.96,0.55,29.5,-0.2,7.0,35.97,,,,,,,,,,
15.08.12.161,448.2,112.0,0,,,22655.2,44.14,-0.28,1.4,0.85,2.3,-25.6,9.8,35.83,,,,,,,,,,
15.08.12.168,351.7,87.9,0,,,22660.3,44.13,-0.1,0.23,0.5,-24.5,-9.1,-16.1,35.41,,,,,,,,,,
15.08.12.177,315.7,78.9,0,,,22660.3,44.13,-0.31,1.59,0.58,-29.4,-8.1,0.7,36.03,,,,,,,,,,
15.08.12.185,262.9,65.7,0,,,22660.3,44.13,-0.03,0.11,1.36,-36.1,10.1,-3.9,35.89,,,,,,,,,,
15.08.12.197,217.3,54.3,0,,,22660.3,44.13,0.04,0.2,0.35,-8.1,-17.6,-7.0,35.98,,,,,,,,,,
15.08.12.204,118.0,29.5,0,,,22660.3,44.13,0.15,0.15,0.89,2.6,-21.0,-16.4,35.92,,,,,,,,,,
15.08.12.215,1.1,0.3,0,,,22660.3,44.13,-0.14,0.32,0.63,-5.6,14.5,-7.8,36.08,,,,,,,,,,
15.08.12.226,-27.1,6.8,0,,,22660.3,44.13,-0.27,-0.19,0.09,-24.1,-7.7,-15.0,36.19,,,,,,,,,,
15.08.12.236,49.2,12.3,0,,,22660.3,44.13,-0.94,0.2,-0.12,-12.2,12.6,-22.4,35.66,,,,,,,,,,
15.08.12.247,32.3,8.1,0,,,22660.3,44.13,-0.39,-0.04,-0.1,-11.6,18.9,17.1,35.87,,,,,,,,,,
15.08.12.256,59.5,14.9,0,,,22660.3,44.13,-0.28,0.34,1.12,-23.0,7.0,-11.0,35.96,,,,,,,,,,
15.08.12.265,121.8,30.4,0,,,22660.3,44.13,-0.34,0.55,-0.09,9.3,12.4,-8.2,35.57,,,,,,,,,,
15.08.12.273,101.9,25.5,0,,,22660.3,44.13,-0.24,0.45,-0.14,-6.6,2.6,1.6,36.17,,,,,,,,,,
15.08.12.281,95.3,23.8,0,,,22660.3,44.13,-0.32,0.45,0.04,4.0,15.7,-9.5,36.23,,,,,,,,,,
15.08.12.290,89.7,22.4,0,,,22660.3,44.13,-0.87,0.53,-0.09,17.1,22.6,10.3,35.81,,,,,,,,,,
15.08.12.300,69.3,17.3,0,,,22660.3,44.13,-0.21,0.48,-0.17,-13.1,11.4,-0.6,35.42,,,,,,,,,,
15.08.12.311,60.9,15.2,0,,,22660.3,44.13,-0.47,0.3,-0.41,-2.7,4.9,2.6,35.88,,,,,,,,,,
15.08.12.319,43.9,11.0,0,,,22660.3,44.13,-0.93,-0.11,-0.1,-47.3,7.5,-13.1,36.01,,,,,,,,,,
15.08.12.329,63.9,16.0,0,,,22660.3,44.13,-0.57,0.55,0.4,32.9,17.0,-22.6,35.8,,,,,,,,,,
15.08.12.339,-58.2,14.6,0,,,22660.3,44.13,-0.87,1.18,0.14,-18.0,3.3,7.6,35.8,,,,,,,,,,
15.08.12.348,13.5,3.4,0,,,22665.5,44.12,-0.31,0.93,-0.44,-5.0,30.1,2.0,35.93,,,,,,,,,,
15.08.12.359,-77.2,19.3,0,,,22665.5,44.12,-0.64,0.75,-0.53,-10.2,5.1,3.7,35.99,,,,,,,,,,
15.08.12.369,-24.2,6.0,0,,,22665.5,44.12,-0.45,0.71,0.2,8.0,28.6,-2.8,35.79,,,,,,,,,,
15.08.12.379,-61.2,15.3,0,,,22665.5,44.12,-0.47,1.12,0.02,-0.7,10.8,6.4,35.94,,,,,,,,,,
15.08.12.385,-47.5,11.9,0,,,22665.5,44.12,-0.53,1.23,0.59,25.4,11.8,-12.6,35.99,,,,,,,,,,
15.08.12.397,-134.9,33.7,0,,,22665.5,44.12,-0.52,0.84,0.22,-27.7,0.9,-20.5,35.92,,,,,,,,,,
15.08.12.405,-52.0,13.0,0,,,22665.5,44.12,-0.4,0.56,0.41,-3.7,4.3,-7.9,35.69,,,,,,,,,,
15.08.12.416,-62.3,15.6,0,,,22665.5,44.12,-0.78,1.33,0.14,-38.0,7.5,-5.9,36.31,,,,,,,,,,
15.08.12.426,-91.7,22.9,0,,,22665.5,44.12,-0.28,1.34,-0.42,22.5,2.9,7.6,35.81,,,,,,,,,,
15.08.12.437,-110.1,27.5,0,,,22665.5,44.12,0.08,1.37,0.46,1.5,-6.5,-7.4,35.59,,,,,,,,,,
15.08.12.448,-140.8,35.2,0,,,22665.5,44.12,-0.34,0.93,-0.17,4.5,4.2,-4.3,35.86,,,,,,,,,,
15.08.12.459,-93.0,23.2,0,,,22665.5,44.12,-0.49,0.59,0.2,-9.5,18.5,-10.5,35.82,,,,,,,,,,
15.08.12.470,-87.6,21.9,0,,,22665.5,44.12,-0.01,0.63,0.61,-0.0,-5.9,-16.2,35.59,,,,,,,,,,
15.08.12.482,-134.1,33.5,0,,,22665.5,44.12,-0.15,0.02,0.8,-9.8,-12.8,-39.8,35.8,,,,,,,,,,
15.08.12.493,-137.6,34.4,0,,,22665.5,44.12,0.05,0.91,0.82,-29.8,9.7,-4.3,35.9,,,,,,,,,,
15.08.12.504,-126.4,31.6,0,,,22665.5,44.12,-0.44,0.66,1.69,49.2,0.1,-2.0,36.08,,,,,,,,,,
15.08.12.512,-206.7,51.7,0,,,22665.5,44.12,-0.33,1.1,0.48,20.0,6.0,8.0,35.65,,,,,,,,,,
15.08.12.524,-169.9,42.5,1,29.0,133.9,22665.5,44.12,0.06,-0.11,1.14,7.1,28.9,2.1,35.86,,,,,,,,,,
15.08.12.534,-127.5,31.9,0,,,22670.6,44.11,-0.49,0.29,1.31,-26.9,4.4,-5.8,35.9,,,,,,,,,,
15.08.12.543,-195.0,48.8,0,,,22670.6,44.11,0.17,0.51,-0.32,17.3,-6.3,4.5,35.75,,,,,,,,,,
15.08.12.552,-202.0,50.5,0,,,22670.6,44.11,-0.06,0.45,0.02,18.6,-6.0,-10.0,35.58,,,,,,,,,,
15.08.12.561,47.5,11.9,0,,,22670.6,44.11,-0.04,0.19,1.37,19.4,-1.2,30.9,36.04,,,,,,,,,,
15.08.12.571,224.4,56.1,0,,,22670.6,44.11,-0.09,-0.17,0.46,3.2,24.1,9.8,35.83,,,,,,,,,,
15.08.12.580,290.1,72.5,0,,,22670.6,44.11,-0.56,-0.91,0.66,15.0,2.0,10.7,35.95,,,,,,,,,,
15.08.12.589,307.6,76.9,0,,,22670.6,44.11,-0.49,0.09,0.1,-23.4,-2.5,-10.1,35.9,,,,,,,,,,
15.08.12.598,351.8,88.0,0,,,22670.6,44.11,-0.32,0.27,0.52,13.7,10.4,6.3,35.98,,,,,,,,,,
15.08.12.607,446.7,111.7,0,,,22670.6,44.11,-0.75,0.26,0.62,3.3,14.7,-7.4,36.03,,,,,,,,,,
15.08.12.617,398.3,99.6,0,,,22670.6,44.11,-0.42,0.08,-0.71,-13.3,11.7,-2.0,35.97,,,,,,,,,,
15.08.12.626,458.8,114.7,0,,,22670.6,44.11,-0.5,0.66,1.23,-9.2,41.4,16.9,36.1,,,,,,,,,,
15.08.12.636,455.9,114.0,0,,,22670.6,44.11,-0.53,0.7,0.45,-3.5,4.8,3.8,35.73,,,,,,,,,,
15.08.12.646,457.9,114.5,0,,,22670.6,44.11,-0.69,0.83,-0.96,22.3,0.1,-10.7,35.61,,,,,,,,,,
15.08.12.657,451.5,112.9,0,,,22670.6,44.11,-0.55,0.2,0.4,-5.3,-1.0,-9.6,35.97,,,,,,,,,,
15.08.12.669,463.2,115.8,0,,,22670.6,44.11,-0.47,-0.06,-0.63,-7.5,-0.3,6.9,35.59,,,,,,,,,,
15.08.12.680,391.1,97.8,0,,,22670.6,44.11,-0.8,0.14,-0.84,5.8,17.2,-11.8,35.79,,,,,,,,,,
15.08.12.689,358.0,89.5,0,,,22670.6,44.11,-0.52,0.64,-0.6,23.1,-6.6,-12.2,35.91,,,,,,,,,,
15.08.12.698,236.2,59.0,0,,,22670.6,44.11,-1.03,-0.1,-0.0,-6.4,7.5,4.6,35.88,,,,,,,,,,
15.08.12.709,186.0,46.5,0,,,22675.7,44.1,-0.66,1.33,-0.2,-14.2,6.1,-12.2,35.72,,,,,,,,,,
15.08.12.720,66.1,16.5,0,,,22675.7,44.1,-0.91,0.56,-0.64,6.7,26.5,7.4,35.86,,,,,,,,,,
15.08.12.730,19.9,5.0,0,,,22675.7,44.1,-0.38,0.49,0.55,-5.0,-7.8,9.6,36.21,,,,,,,,,,
15.08.12.743,47.6,11.9,0,,,22675.7,44.1,-0.8,1.36,0.06,27.5,31.8,24.1,36.04,,,,,,,,,,
15.08.12.754,10.4,2.6,0,,,22675.7,44.1,-0.23,0.73,-0.36,9.6,7.3,18.8,36.05,,,,,,,,,,
15.08.12.763,82.5,20.6,0,,,22675.7,44.1,-0.37,0.75,0.03,26.8,19.8,-6.1,35.71,,,,,,,,,,
15.08.12.772,136.2,34.0,0,,,22675.7,44.1,-0.29,0.97,0.41,-15.1,-7.0,3.4,36.0,,,,,,,,,,
15.08.12.782,63.1,15.8,0,,,22675.7,44.1,-0.51,1.12,0.1,10.7,14.0,-1.3,35.78,,,,,,,,,,
15.08.12.793,31.9,8.0,0,,,22675.7,44.1,-0.68,0.81,0.13,10.1,8.4,3.8,35.81,,,,,,,,,,
15.08.12.804,95.1,23.8,0,,,22675.7,44.1,-0.35,1.13,0.39,6.9,6.5,-5.5,36.15,,,,,,,,,,
15.08.12.814,48.0,12.0,0,,,22675.7,44.1,-0.28,1.27,0.15,-4.1,0.1,-0.2,35.72,,,,,,,,,,
15.08.12.822,41.6,10.4,0,,,22675.7,44.1,-0.23,1.59,0.56,-8.5,15.0,8.2,35.72,,,,,,,,,,
15.08.12.832,37.0,9.2,0,,,22675.7,44.1,-0.19,0.67,0.36,11.1,14.4,13.9,35.65,,,,,,,,,,
15.08.12.842,-0.2,0.0,0,,,22675.7,44.1,-0.45,0.65,0.89,-19.3,14.7,-23.5,36.27,,,,,,,,,,
15.08.12.852,41.2,10.3,0,,,22675.7,44.1,-0.08,1.06,0.75,-9.1,27.7,2.2,35.98,,,,,,,,,,
15.08.12.861,-24.9,6.2,0,,,22675.7,44.1,-0.26,0.09,0.06,11.7,8.4,3.7,35.53,,,,,,,,,,
15.08.12.870,7.0,1.8,0,,,22675.7,44.1,-0.36,0.16,0.72,-3.5,4.0,3.7,36.07,,,,,,,,,,
15.08.12.882,-98.9,24.7,0,,,22675.7,44.1,0.37,0.49,0.36,-26.3,-25.6,-10.5,35.89,,,,,,,,,,
15.08.12.893,-15.0,3.8,0,,,22680.9,44.09,-0.17,-0.37,1.61,17.4,-6.9,10.9,35.65,,,,,,,,,,
15.08.12.902,-47.1,11.8,0,,,22680.9,44.09,-0.05,-0.45,1.28,-30.8,0.4,-4.8,36.09,,,,,,,,,,
15.08.12.913,-124.9,31.2,0,,,22680.9,44.09,-0.1,0.15,0.02,-52.6,24.2,-10.6,35.91,,,,,,,,,,
15.08.12.922,-85.7,21.4,0,,,22680.9,44.09,-0.36,-0.03,0.74,13.5,-6.1,10.4,35.92,,,,,,,,,,
15.08.12.931,-90.3,22.6,0,,,22680.9,44.09,-0.15,0.28,-0.03,-19.8,25.8,-23.6,35.74,,,,,,,,,,
15.08.12.939,-95.3,23.8,0,,,22680.9,44.09,-0.43,0.48,-0.01,-13.5,-1.1,-7.8,35.62,,,,,,,,,,
15.08.12.948,-87.0,21.8,0,,,22680.9,44.09,-0.16,0.03,0.76,14.1,11.8,3.7,35.6,,,,,,,,,,
15.08.12.957,-63.5,15.9,0,,,22680.9,44.09,-0.46,0.07,0.58,-12.4,7.5,-8.9,35.67,,,,,,,,,,
15.08.12.969,-74.6,18.6,0,,,22680.9,44.09,-0.7,-0.23,0.13,5.3,-4.0,2.5,35.96,,,,,,,,,,
15.08.12.980,-92.3,23.1,0,,,22680.9,44.09,-0.62,0.84,0.5,-4.1,17.8,-1.7,36.04,,,,,,,,,,
15.08.12.990,-170.2,42.6,0,,,22680.9,44.09,-0.64,0.29,-0.12,-11.4,20.7,-3.0,36.08,,,,,,,,,,
15.08.12.999,-129.0,32.2,1,30.0,126.3,22680.9,44.09,-0.58,0.6,0.2,-20.1,-24.3,14.4,35.61,,,,,,,,,,
15.08.13.010,-126.6,31.6,0,,,22680.9,44.09,-0.25,0.24,-1.25,-5.6,6.3,-2.1,35.92,,,,,,,,,,
15.08.13.020,-131.6,32.9,0,,,22680.9,44.09,-0.58,-0.16,0.01,33.7,-4.8,5.1,35.59,,,,,,,,,,
15.08.13.031,-152.0,38.0,0,,,22675.7,44.1,-0.48,0.18,-0.26,-3.8,18.0,8.7,35.75,,,,,,,,,,
15.08.13.041,-160.0,40.0,0,,,22675.7,44.1,-0.5,0.01,-0.2,6.5,-8.4,-2.4,35.3,,,,,,,,,,
15.08.13.049,-203.2,50.8,0,,,22675.7,44.1,-0.48,0.16,-0.38,-4.3,7.7,-4.0,35.88,,,,,,,,,,
15.08.13.058,-160.2,40.0,0,,,22670.6,44.11,-0.22,1.3,-0.55,-4.5,14.8,-14.6,35.73,,,,,,,,,,
