timestamp,ppg,threshold,beat,beat_count,inst_bpm,gsr_resistance_ohm,gsr_conductance_us,accel_x,accel_y,accel_z,gyro_x,gyro_y,gyro_z,temp_c,window_bpm,window_temp_c,status_message,SpO2,bmi,age,height,weight,env_temp_c,env_humidity_pct
13.09.00.000,0.0,0.0,0,,,68027.2,14.7,-0.94,0.01,-0.26,-10.6,-3.9,8.2,35.6,100.7,,,,21.9,24.0,162.56,58.0,29.23,32.0
13.09.00.008,32.0,8.0,0,,,68027.2,14.7,-0.7,-0.0,-0.5,16.3,-15.9,-9.8,35.74,,,,,,,,,,
13.09.00.018,130.6,32.6,0,,,68027.2,14.7,-0.78,0.55,-0.14,46.5,14.2,6.1,35.98,,,,,,,,,,
13.09.00.027,165.3,41.3,0,,,68027.2,14.7,-0.52,-0.21,-0.02,15.0,5.3,1.3,35.75,,,,,,,,,,
13.09.00.037,199.2,49.8,0,,,68027.2,14.7,-0.92,0.35,0.24,20.3,-4.3,6.0,35.67,,,,,,,,,,
13.09.00.047,261.2,65.3,0,,,68027.2,14.7,-0.44,0.6,-0.09,-0.5,17.3,6.3,35.69,,,,,,,,,,
13.09.00.056,301.1,75.3,0,,,68027.2,14.7,-0.49,0.67,0.28,20.3,34.4,-1.2,35.62,,,,,,,,,,
13.09.00.065,368.4,92.1,0,,,68027.2,14.7,-0.77,0.23,0.41,15.0,-10.7,9.4,35.89,,,,,,,,,,
13.09.00.076,352.8,88.2,0,,,68027.2,14.7,-0.61,0.46,-0.04,23.1,15.5,1.6,35.78,,,,,,,,,,
13.09.00.087,375.4,93.8,0,,,68027.2,14.7,-0.42,-0.07,0.06,-5.3,-6.8,-13.8,36.06,,,,,,,,,,
13.09.00.098,391.9,98.0,0,,,68027.2,14.7,-0.48,0.5,-0.3,-15.3,6.0,11.0,35.86,,,,,,,,,,
13.09.00.108,317.1,79.3,0,,,68027.2,14.7,-0.95,0.09,-0.04,-14.9,7.1,-8.0,35.75,,,,,,,,,,
13.09.00.120,360.5,90.1,0,,,68027.2,14.7,-0.67,0.71,-0.13,50.4,14.6,17.5,35.88,,,,,,,,,,
13.09.00.131,412.7,103.2,0,,,68027.2,14.7,-0.69,0.47,-0.26,5.7,-0.7,10.4,35.91,,,,,,,,,,
13.09.00.142,389.8,97.4,0,,,68027.2,14.7,-0.55,0.12,0.01,1.6,3.9,26.5,35.71,,,,,,,,,,
13.09.00.151,328.8,82.2,0,,,68027.2,14.7,-0.42,0.0,0.15,-17.5,19.9,-1.5,35.49,,,,,,,,,,
13.09.00.163,278.1,69.5,0,,,68027.2,14.7,-0.53,-0.31,-0.26,-17.8,6.3,20.6,35.64,,,,,,,,,,
13.09.00.174,243.0,60.8,0,,,68027.2,14.7,-0.49,0.2,-0.22,5.6,-8.3,2.0,35.65,,,,,,,,,,
13.09.00.183,186.0,46.5,0,,,68027.2,14.7,-0.27,0.36,-0.65,-7.9,-13.7,21.3,35.49,,,,,,,,,,
13.09.00.191,116.1,29.0,0,,,68027.2,14.7,-0.46,-0.03,-0.55,1.9,11.4,12.5,35.83,,,,,,,,,,
13.09.00.199,65.1,16.3,0,,,68027.2,14.7,-0.53,0.51,-0.41,33.6,1.2,5.9,35.57,,,,,,,,,,
13.09.00.209,2.9,0.7,0,,,68027.2,14.7,-0.46,0.39,-0.45,9.6,-1.2,9.3,35.66,,,,,,,,,,
13.09.00.219,20.4,5.1,0,,,68027.2,14.7,-0.69,-0.1,-0.18,51.8,-14.2,6.5,35.84,,,,,,,,,,
13.09.00.231,42.3,10.6,0,,,68027.2,14.7,-0.72,-0.36,-0.57,-8.6,0.0,13.6,35.42,,,,,,,,,,
13.09.00.239,42.3,10.6,0,,,68027.2,14.7,-0.18,-0.18,-0.06,-20.3,23.3,-8.6,35.9,,,,,,,,,,
13.09.00.249,69.3,17.3,0,,,68027.2,14.7,-0.43,-0.05,-0.34,-28.7,-1.8,-7.1,35.81,,,,,,,,,,
13.09.00.259,71.8,18.0,0,,,68027.2,14.7,-0.58,0.13,-0.57,-4.3,34.4,21.1,35.99,,,,,,,,,,
13.09.00.270,52.3,13.1,0,,,68027.2,14.7,-0.34,-0.76,-0.4,21.2,20.2,9.6,35.84,,,,,,,,,,
13.09.00.280,92.3,23.1,0,,,68027.2,14.7,-0.85,0.39,-0.34,-0.9,8.9,5.8,35.74,,,,,,,,,,
13.09.00.290,77.4,19.4,0,,,68027.2,14.7,-0.46,0.25,0.43,-4.7,-6.4,-4.8,36.05,,,,,,,,,,
13.09.00.299,46.5,11.6,0,,,68027.2,14.7,-0.63,0.27,-0.75,-26.6,15.3,7.2,35.61,,,,,,,,,,
13.09.00.308,39.4,9.8,0,,,68027.2,14.7,-0.35,-0.23,-0.35,13.3,3.3,1.2,36.13,,,,,,,,,,
13.09.00.318,31.1,7.8,0,,,68027.2,14.7,-0.58,0.41,-0.49,20.7,-3.8,-31.9,35.98,,,,,,,,,,
13.09.00.327,7.2,1.8,0,,,68027.2,14.7,-0.36,-0.26,-0.69,1.6,9.4,4.8,35.68,,,,,,,,,,
13.09.00.336,24.8,6.2,0,,,68027.2,14.7,-0.49,-0.08,-0.87,-11.3,28.3,3.0,35.87,,,,,,,,,,
13.09.00.344,10.5,2.6,0,,,68027.2,14.7,-0.89,-0.56,-0.78,-12.7,0.7,-3.5,35.93,,,,,,,,,,
13.09.00.353,-18.2,4.6,0,,,68027.2,14.7,-0.66,-0.47,-0.54,-20.1,-6.0,-23.6,36.05,,,,,,,,,,
13.09.00.362,-23.0,5.8,0,,,68073.5,14.69,-0.36,0.09,-0.57,-4.3,-36.5,1.6,35.63,,,,,,,,,,
13.09.00.372,-26.7,6.7,0,,,68073.5,14.69,-0.56,-0.11,-0.39,23.5,9.8,-6.4,35.88,,,,,,,,,,
13.09.00.384,-32.4,8.1,0,,,68073.5,14.69,-0.87,-0.15,-0.42,29.0,16.7,-12.9,35.78,,,,,,,,,,
13.09.00.393,-60.2,15.0,0,,,68073.5,14.69,-0.67,-0.28,-0.5,26.1,25.5,-7.8,35.84,,,,,,,,,,
13.09.00.404,-54.4,13.6,0,,,68073.5,14.69,-0.94,0.35,-0.76,29.9,0.3,3.0,35.95,,,,,,,,,,
13.09.00.413,-35.6,8.9,0,,,68073.5,14.69,-1.04,-0.01,-0.2,17.4,-2.9,19.2,35.77,,,,,,,,,,
13.09.00.422,-94.8,23.7,0,,,68073.5,14.69,-0.39,0.09,0.15,-17.8,11.7,32.3,35.75,,,,,,,,,,
13.09.00.429,-41.1,10.3,0,,,68073.5,14.69,-0.42,-0.24,-0.76,20.9,-1.4,-11.7,36.01,,,,,,,,,,
13.09.00.439,-80.7,20.2,0,,,68073.5,14.69,-0.6,-0.39,-0.14,-11.3,9.5,10.8,35.5,,,,,,,,,,
13.09.00.448,-60.0,15.0,0,,,68073.5,14.69,-0.83,0.03,-0.82,17.8,8.1,-4.7,35.74,,,,,,,,,,
13.09.00.455,-85.4,21.4,0,,,68073.5,14.69,-0.19,-0.51,-0.36,-1.7,-2.0,20.9,35.99,,,,,,,,,,
13.09.00.466,-83.4,20.8,0,,,68073.5,14.69,-0.91,0.24,-0.16,-9.3,-30.3,2.6,35.93,,,,,,,,,,
13.09.00.475,-88.4,22.1,0,,,68073.5,14.69,-0.8,-0.03,-0.5,-19.8,-0.4,-1.6,35.67,,,,,,,,,,
13.09.00.484,-74.9,18.7,0,,,68073.5,14.69,-1.08,0.08,-0.31,0.7,-11.7,5.7,35.57,,,,,,,,,,
13.09.00.493,-107.1,26.8,0,,,68073.5,14.69,-0.61,-0.12,0.24,9.4,21.9,-5.9,35.97,,,,,,,,,,
13.09.00.505,-104.9,26.2,0,,,68073.5,14.69,-0.86,-0.06,-0.53,52.2,-3.8,20.4,35.89,,,,,,,,,,
13.09.00.516,-103.7,25.9,0,,,68073.5,14.69,-0.91,-0.3,0.26,15.0,-14.2,-25.9,36.11,,,,,,,,,,
13.09.00.528,-141.9,35.5,0,,,68073.5,14.69,-0.56,-0.09,-0.63,1.0,33.6,-6.6,36.03,,,,,,,,,,
13.09.00.537,-137.7,34.4,0,,,68073.5,14.69,-0.74,0.02,0.03,24.3,-8.2,-0.9,35.84,,,,,,,,,,
13.09.00.545,-136.2,34.0,0,,,68073.5,14.69,-0.86,-0.31,0.14,-14.7,5.4,36.7,36.09,,,,,,,,,,
13.09.00.556,-114.6,28.6,0,,,68073.5,14.69,-0.48,-0.22,-0.37,-8.1,-6.0,-13.4,36.37,,,,,,,,,,
13.09.00.563,-144.2,36.0,0,,,68073.5,14.69,-0.64,-0.22,-0.61,-28.3,15.4,-25.5,36.25,,,,,,,,,,
13.09.00.572,-120.3,30.1,0,,,68073.5,14.69,-0.64,0.14,-0.28,7.6,-10.2,1.0,35.73,,,,,,,,,,
13.09.00.581,-156.6,39.2,0,,,68073.5,14.69,-0.58,0.12,-0.64,34.6,6.8,-12.8,36.1,,,,,,,,,,
13.09.00.590,-158.7,39.7,0,,,68073.5,14.69,-0.86,-0.19,0.09,31.1,-9.9,8.7,35.79,,,,,,,,,,
13.09.00.601,10.7,2.7,1,1.0,,68073.5,14.69,-0.57,0.06,-0.32,-9.0,26.3,10.7,35.92,,,,,,,,,,
13.09.00.610,67.3,16.8,0,,,68073.5,14.69,-1.0,0.07,-0.08,-9.0,23.6,3.1,35.84,,,,,,,,,,
13.09.00.620,82.3,20.6,0,,,68073.5,14.69,-0.87,0.15,-0.52,-22.5,3.8,-1.6,35.8,,,,,,,,,,
13.09.00.628,151.6,37.9,0,,,68073.5,14.69,-0.63,-0.16,-0.74,-31.6,37.5,-5.8,35.67,,,,,,,,,,
13.09.00.636,257.7,64.4,0,,,68073.5,14.69,-0.98,0.16,-0.17,-17.8,24.0,5.1,35.92,,,,,,,,,,
13.09.00.647,246.9,61.7,0,,,68073.5,14.69,-0.58,-0.15,-0.13,-33.5,7.5,-6.4,35.9,,,,,,,,,,
13.09.00.654,292.8,73.2,0,,,68073.5,14.69,-0.8,-0.39,-0.44,-33.6,6.3,-3.6,35.62,,,,,,,,,,
13.09.00.664,291.1,72.8,0,,,68073.5,14.69,-0.83,-0.18,-0.13,-5.5,18.5,-3.2,35.88,,,,,,,,,,
13.09.00.674,385.1,96.3,0,,,68073.5,14.69,-0.5,-0.09,-0.45,22.6,28.4,-17.7,35.69,,,,,,,,,,
13.09.00.684,397.9,99.5,0,,,68073.5,14.69,-1.06,0.26,-0.07,11.6,-1.6,-29.2,36.27,,,,,,,,,,
13.09.00.695,402.6,100.6,0,,,68073.5,14.69,-0.27,0.08,-0.0,-2.8,-0.1,4.4,36.09,,,,,,,,,,
13.09.00.704,419.2,104.8,0,,,68073.5,14.69,-0.96,0.34,-0.48,46.5,-18.3,-11.5,35.8,,,,,,,,,,
13.09.00.715,430.4,107.6,0,,,68073.5,14.69,-0.3,0.03,-0.43,-19.4,2.6,-27.2,35.78,,,,,,,,,,
13.09.00.723,467.3,116.8,0,,,68073.5,14.69,-0.78,0.09,-0.91,19.5,15.9,-23.0,35.85,,,,,,,,,,
13.09.00.730,387.3,96.8,0,,,68073.5,14.69,-0.81,0.37,-0.45,12.4,5.7,3.3,35.86,,,,,,,,,,
13.09.00.737,356.7,89.2,0,,,68119.9,14.68,-0.64,-0.09,-0.45,-1.0,-1.8,-3.4,35.48,,,,,,,,,,
13.09.00.746,310.2,77.6,0,,,68119.9,14.68,-0.5,0.21,-0.55,-18.9,5.9,-6.5,35.74,,,,,,,,,,
13.09.00.755,326.4,81.6,0,,,68119.9,14.68,-0.72,0.15,-0.32,18.7,-7.3,1.6,35.81,,,,,,,,,,
13.09.00.765,257.3,64.3,0,,,68119.9,14.68,-0.99,0.17,-0.02,-36.5,12.1,-22.5,36.09,,,,,,,,,,
13.09.00.776,181.3,45.3,0,,,68119.9,14.68,-0.85,0.09,-0.99,18.5,3.6,-8.2,35.57,,,,,,,,,,
13.09.00.788,145.7,36.4,0,,,68119.9,14.68,-0.48,0.02,-0.31,20.3,13.5,8.3,35.96,,,,,,,,,,
13.09.00.796,68.4,17.1,0,,,68119.9,14.68,-0.69,-0.19,-0.56,-10.9,25.3,1.2,35.76,,,,,,,,,,
13.09.00.805,33.0,8.2,0,,,68119.9,14.68,-1.08,0.08,-0.54,28.4,12.9,-4.7,35.93,,,,,,,,,,
13.09.00.811,0.2,0.0,0,,,68119.9,14.68,-1.06,0.39,-0.58,5.6,4.9,3.4,35.75,,,,,,,,,,
13.09.00.818,4.9,1.2,0,,,68119.9,14.68,-0.72,0.75,-0.01,10.1,1.1,-6.3,36.12,,,,,,,,,,
13.09.00.828,48.7,12.2,0,,,68119.9,14.68,-1.16,0.55,-0.54,-49.7,-2.5,-16.3,35.74,,,,,,,,,,
13.09.00.838,14.4,3.6,0,,,68119.9,14.68,-0.72,0.25,-0.63,-13.4,17.6,1.4,35.74,,,,,,,,,,
13.09.00.847,51.8,13.0,0,,,68119.9,14.68,-0.85,0.5,-0.59,15.3,39.2,0.8,35.86,,,,,,,,,,
13.09.00.856,77.7,19.4,0,,,68119.9,14.68,-0.71,-0.55,-0.59,28.0,1.8,-23.1,35.73,,,,,,,,,,
13.09.00.866,50.1,12.5,0,,,68119.9,14.68,-0.56,0.23,-0.06,-3.6,-32.8,1.0,35.57,,,,,,,,,,
13.09.00.876,99.0,24.8,0,,,68119.9,14.68,-0.53,0.1,-0.46,6.3,10.9,-17.1,35.99,,,,,,,,,,
13.09.00.888,85.0,21.2,0,,,68119.9,14.68,-0.71,0.09,-0.29,-11.8,3.9,31.7,35.63,,,,,,,,,,
13.09.00.896,45.8,11.4,0,,,68119.9,14.68,-0.73,0.6,-0.66,-28.0,7.2,2.0,36.41,,,,,,,,,,
13.09.00.907,31.5,7.9,0,,,68119.9,14.68,-0.08,0.05,-0.06,-3.5,5.6,3.4,35.78,,,,,,,,,,
13.09.00.917,37.6,9.4,0,,,68119.9,14.68,-0.55,0.7,-0.41,35.9,23.3,12.0,35.96,,,,,,,,,,
13.09.00.927,28.5,7.1,0,,,68119.9,14.68,-0.66,0.19,0.32,8.1,-2.1,5.6,35.9,,,,,,,,,,
13.09.00.936,2.9,0.7,0,,,68119.9,14.68,-0.34,-0.16,-0.16,49.8,-0.5,9.8,35.43,,,,,,,,,,
13.09.00.944,-0.3,0.1,0,,,68119.9,14.68,-0.65,0.27,0.24,-7.0,19.7,-8.5,35.57,,,,,,,,,,
13.09.00.954,-7.6,1.9,0,,,68119.9,14.68,-0.84,-0.19,-0.11,-5.6,46.0,8.1,35.39,,,,,,,,,,
13.09.00.965,-4.1,1.0,0,,,68119.9,14.68,-0.5,0.18,-0.64,1.1,0.3,-2.0,35.56,,,,,,,,,,
13.09.00.973,-21.0,5.2,0,,,68119.9,14.68,-0.48,0.02,-0.47,-0.1,-0.1,-0.5,35.81,,,,,,,,,,
13.09.00.983,-16.1,4.0,0,,,68119.9,14.68,-0.37,0.27,-0.26,-23.0,-1.4,-17.9,36.2,,,,,,,,,,
13.09.00.992,-48.4,12.1,0,,,68119.9,14.68,-0.62,0.06,-0.29,-9.8,28.6,-1.4,35.76,,,,,,,,,,
13.09.01.001,-34.9,8.7,0,,,68119.9,14.68,-0.49,0.02,-0.6,-2.0,-15.6,11.0,35.99,,,,,,,,,,
13.09.01.013,-43.7,10.9,0,,,68119.9,14.68,-0.57,0.74,-0.49,38.7,-26.6,-7.1,35.47,,,,,,,,,,
13.09.01.024,-59.6,14.9,0,,,68119.9,14.68,-0.51,0.12,-0.56,-6.1,5.1,6.2,36.01,,,,,,,,,,
13.09.01.035,-59.0,14.8,0,,,68119.9,14.68,-0.26,0.06,-0.19,-1.6,-7.9,-21.0,35.9,,,,,,,,,,
13.09.01.044,-75.0,18.8,0,,,68119.9,14.68,-0.83,0.25,-0.6,19.6,-4.8,-34.0,36.09,,,,,,,,,,
13.09.01.054,-123.7,30.9,0,,,68119.9,14.68,-0.59,0.52,-0.14,-9.8,8.6,1.2,35.53,,,,,,,,,,
13.09.01.063,-82.8,20.7,0,,,68119.9,14.68,-0.75,0.03,-0.21,-8.8,-7.5,-0.1,36.02,,,,,,,,,,
13.09.01.073,-69.1,17.3,0,,,68119.9,14.68,-0.86,0.25,-0.24,-5.5,25.4,-10.8,35.68,,,,,,,,,,
13.09.01.082,-120.8,30.2,0,,,68119.9,14.68,-0.47,-0.02,-0.86,-5.2,7.2,-21.7,35.78,,,,,,,,,,
13.09.01.093,-106.0,26.5,0,,,68119.9,14.68,-0.03,0.05,-0.46,40.2,16.0,-11.2,35.71,,,,,,,,,,
13.09.01.103,-138.6,34.6,0,,,68119.9,14.68,-0.45,0.64,-0.53,0.2,-7.0,7.5,35.69,,,,,,,,,,
13.09.01.114,-108.4,27.1,0,,,68119.9,14.68,-0.6,0.12,-0.48,-16.1,3.2,8.3,36.06,,,,,,,,,,
13.09.01.125,-125.7,31.4,0,,,68119.9,14.68,-0.2,-0.31,-0.36,-27.1,15.8,-4.0,35.45,,,,,,,,,,
13.09.01.134,-93.2,23.3,0,,,68119.9,14.68,-0.2,-0.2,-0.59,-29.5,5.6,-12.0,35.85,,,,,,,,,,
13.09.01.143,-126.3,31.6,0,,,68119.9,14.68,-0.68,-0.17,-0.71,-18.5,20.4,-9.5,35.63,,,,,,,,,,
13.09.01.151,-113.4,28.4,0,,,68119.9,14.68,-0.38,0.07,-0.59,29.2,0.7,36.0,35.81,,,,,,,,,,
13.09.01.160,-127.4,31.8,1,2.0,107.3,68119.9,14.68,-0.25,-0.08,-0.42,13.2,-0.2,5.5,35.72,,,,,,,,,,
13.09.01.169,-157.4,39.4,0,,,68119.9,14.68,-0.82,-0.19,-0.68,13.3,29.3,-1.4,35.97,,,,,,,,,,
13.09.01.177,-201.2,50.3,0,,,68119.9,14.68,-0.61,-0.17,-0.69,20.2,-21.8,2.0,35.5,,,,,,,,,,
13.09.01.186,-170.7,42.7,0,,,68119.9,14.68,-0.8,0.13,-0.42,-3.8,13.4,2.0,35.81,,,,,,,,,,
13.09.01.195,-168.0,42.0,0,,,68119.9,14.68,-0.45,-0.61,-0.16,12.2,-11.7,1.6,35.76,,,,,,,,,,
13.09.01.203,41.0,10.2,0,,,68119.9,14.68,-0.31,0.15,-0.55,47.1,11.1,16.7,36.19,,,,,,,,,,
13.09.01.211,78.7,19.7,0,,,68119.9,14.68,-0.41,0.03,-0.24,7.7,-7.7,-3.5,35.77,,,,,,,,,,
13.09.01.219,153.3,38.3,0,,,68166.3,14.67,-0.93,0.08,-0.21,5.6,-8.1,-5.5,35.82,,,,,,,,,,
13.09.01.228,129.9,32.5,0,,,68166.3,14.67,-0.53,-0.06,-0.56,-8.0,-17.2,-8.3,35.89,,,,,,,,,,
13.09.01.237,231.5,57.9,0,,,68166.3,14.67,-0.89,0.11,-0.31,3.9,-11.7,2.5,35.97,,,,,,,,,,
13.09.01.246,294.3,73.6,0,,,68166.3,14.67,-0.8,-0.25,-0.95,-3.2,2.5,6.2,35.82,,,,,,,,,,
13.09.01.255,274.5,68.6,0,,,68166.3,14.67,-0.37,-0.16,-0.59,-10.0,-14.7,-9.4,35.8,,,,,,,,,,
13.09.01.265,339.3,84.8,0,,,68166.3,14.67,-0.42,0.42,0.03,-7.2,-23.3,-3.6,35.69,,,,,,,,,,
13.09.01.275,396.8,99.2,0,,,68166.3,14.67,-0.41,-0.3,-0.07,24.6,2.8,10.2,35.9,,,,,,,,,,
13.09.01.284,400.5,100.1,0,,,68166.3,14.67,-0.36,-0.04,-0.61,-32.5,34.7,-19.4,35.78,,,,,,,,,,
13.09.01.294,436.6,109.2,0,,,68166.3,14.67,-0.44,0.02,-0.18,-38.4,-12.0,17.5,35.7,,,,,,,,,,
13.09.01.303,391.8,98.0,0,,,68166.3,14.67,-0.78,-0.03,-0.43,-6.9,6.9,0.8,35.81,,,,,,,,,,
13.09.01.315,353.2,88.3,0,,,68166.3,14.67,-0.75,-0.16,0.23,-4.7,11.4,-11.2,35.97,,,,,,,,,,
13.09.01.324,370.0,92.5,0,,,68166.3,14.67,-0.63,-0.04,-0.17,-18.7,18.2,-5.9,35.9,,,,,,,,,,
13.09.01.333,358.0,89.5,0,,,68166.3,14.67,-0.47,-0.46,-0.33,26.8,13.1,-16.1,36.11,,,,,,,,,,
13.09.01.343,293.5,73.4,0,,,68166.3,14.67,-0.75,0.25,-0.39,9.8,4.0,-11.6,35.77,,,,,,,,,,
13.09.01.355,277.7,69.4,0,,,68166.3,14.67,-0.87,-0.0,-0.46,-13.2,12.6,28.7,36.14,,,,,,,,,,
13.09.01.363,267.9,67.0,0,,,68166.3,14.67,-0.47,-0.21,-0.64,-33.7,8.8,2.9,35.7,,,,,,,,,,
13.09.01.371,229.3,57.3,0,,,68166.3,14.67,-0.72,0.38,0.37,-11.4,15.0,-12.4,35.82,,,,,,,,,,
13.09.01.383,129.6,32.4,0,,,68166.3,14.67,-1.0,0.0,-0.71,-7.1,-4.2,-8.6,35.87,,,,,,,,,,
13.09.01.395,119.1,29.8,0,,,68166.3,14.67,-0.78,-0.09,-0.27,22.9,15.6,-18.5,35.94,,,,,,,,,,
13.09.01.404,26.2,6.6,0,,,68166.3,14.67,-0.79,0.06,-0.04,-27.4,-26.8,28.6,35.77,,,,,,,,,,
13.09.01.413,8.8,2.2,0,,,68166.3,14.67,-0.61,0.13,-0.03,-49.6,5.4,-3.0,35.62,,,,,,,,,,
13.09.01.422,-2.6,0.6,0,,,68166.3,14.67,-0.61,-0.02,0.06,5.3,7.8,-2.3,35.84,,,,,,,,,,
13.09.01.432,40.6,10.2,0,,,68166.3,14.67,-0.7,0.05,0.0,24.9,9.3,0.9,35.97,,,,,,,,,,
13.09.01.442,86.1,21.5,0,,,68166.3,14.67,-0.52,-0.06,-0.09,-18.7,-4.2,6.6,35.74,,,,,,,,,,
13.09.01.452,65.6,16.4,0,,,68166.3,14.67,-0.99,0.46,-0.38,-29.4,0.6,1.6,36.01,,,,,,,,,,
13.09.01.462,75.4,18.8,0,,,68166.3,14.67,-0.5,-0.47,-0.38,17.5,24.2,9.7,35.9,,,,,,,,,,
13.09.01.471,65.4,16.4,0,,,68166.3,14.67,-0.49,-0.01,0.03,-32.6,17.1,10.1,35.98,,,,,,,,,,
13.09.01.481,122.0,30.5,0,,,68166.3,14.67,-0.69,-0.4,-0.08,13.0,-12.1,0.0,35.93,,,,,,,,,,
13.09.01.489,61.9,15.5,0,,,68166.3,14.67,-0.69,0.21,-0.46,-16.9,-8.3,10.4,35.73,,,,,,,,,,
13.09.01.499,32.4,8.1,0,,,68166.3,14.67,-0.85,-0.16,-0.1,3.1,20.1,5.2,35.82,,,,,,,,,,
13.09.01.510,68.2,17.0,0,,,68166.3,14.67,-0.68,-0.13,0.01,-15.1,18.6,-5.1,35.62,,,,,,,,,,
13.09.01.520,19.7,4.9,0,,,68166.3,14.67,-0.69,-0.13,-0.51,9.1,33.3,-0.4,35.85,,,,,,,,,,
13.09.01.532,28.3,7.1,0,,,68166.3,14.67,-0.88,0.4,-0.22,-5.8,22.1,-19.6,35.68,,,,,,,,,,
13.09.01.542,-14.5,3.6,0,,,68166.3,14.67,-0.87,0.38,-0.43,20.9,-10.0,-7.0,35.99,,,,,,,,,,
13.09.01.549,-22.5,5.6,0,,,68166.3,14.67,-1.14,0.18,-0.29,-14.7,7.6,-14.0,35.59,,,,,,,,,,
13.09.01.558,-14.5,3.6,0,,,68166.3,14.67,-0.85,0.03,-0.33,9.4,7.7,-13.4,35.94,,,,,,,,,,
13.09.01.570,-24.5,6.1,0,,,68166.3,14.67,-0.85,0.64,-0.19,-21.3,-8.5,14.8,35.74,,,,,,,,,,
13.09.01.579,-65.0,16.2,0,,,68166.3,14.67,-1.06,0.39,-0.26,-4.2,-0.2,4.5,35.63,,,,,,,,,,
13.09.01.587,-35.6,8.9,0,,,68166.3,14.67,-1.18,0.58,-0.57,-6.4,15.5,3.8,35.66,,,,,,,,,,
13.09.01.597,-50.3,12.6,0,,,68166.3,14.67,-0.86,0.03,-0.27,22.1,23.7,25.3,35.73,,,,,,,,,,
13.09.01.609,-64.1,16.0,0,,,68166.3,14.67,-0.65,0.11,-0.18,21.0,-3.1,-1.7,35.82,,,,,,,,,,
13.09.01.619,-59.1,14.8,0,,,68166.3,14.67,-0.83,0.42,-0.66,28.7,6.4,-9.6,35.6,,,,,,,,,,
13.09.01.628,-73.5,18.4,0,,,68166.3,14.67,-1.03,-0.1,-0.12,-20.3,-6.1,3.7,35.85,,,,,,,,,,
13.09.01.641,-75.3,18.8,0,,,68166.3,14.67,-0.5,0.05,0.19,33.3,-1.6,-3.8,36.03,,,,,,,,,,
13.09.01.650,-89.1,22.3,0,,,68166.3,14.67,-0.34,-0.1,-0.16,6.7,-2.6,1.7,36.12,,,,,,,,,,
13.09.01.661,-90.6,22.6,0,,,68166.3,14.67,-0.95,-0.09,-0.72,4.3,26.4,1.3,35.79,,,,,,,,,,
13.09.01.670,-77.7,19.4,0,,,68166.3,14.67,-0.86,0.47,-0.11,24.3,36.6,-9.2,35.81,,,,,,,,,,
13.09.01.679,-107.2,26.8,0,,,68166.3,14.67,-0.71,0.07,-0.45,-21.5,14.6,3.1,35.67,,,,,,,,,,
13.09.01.687,-105.7,26.4,0,,,68166.3,14.67,-0.67,0.4,-0.6,-10.3,12.9,-19.2,35.79,,,,,,,,,,
13.09.01.697,,,0,,,,,,,,,,,,,,,,,,,,,
13.09.01.707,-152.4,38.1,0,,,68166.3,14.67,-0.71,0.65,-0.29,11.1,1.4,12.3,36.09,,,,,,,,,,
13.09.01.717,-152.2,38.0,1,3.0,107.7,68166.3,14.67,-0.39,0.24,-0.02,-38.7,-4.3,-2.5,36.1,,,,,,,,,,
13.09.01.727,-137.2,34.3,0,,,68166.3,14.67,-0.66,0.38,-0.12,22.6,17.7,20.3,36.2,,,,,,,,,,
13.09.01.735,-123.2,30.8,0,,,68166.3,14.67,-0.79,-0.0,-0.52,-1.9,-9.9,-16.6,36.04,,,,,,,,,,
13.09.01.744,-120.5,30.1,0,,,68166.3,14.67,-0.34,-0.33,0.04,-45.6,9.1,-2.4,35.69,,,,,,,,,,
13.09.01.753,-158.7,39.7,0,,,68166.3,14.67,-0.74,0.17,-0.76,1.0,6.3,-10.1,35.8,,,,,,,,,,
13.09.01.764,-145.2,36.3,0,,,68166.3,14.67,-0.91,0.41,-0.5,-4.2,15.0,22.1,35.85,,,,,,,,,,
13.09.01.772,-173.5,43.4,0,,,68166.3,14.67,-0.57,0.59,-0.37,26.2,4.6,2.6,35.77,,,,,,,,,,
13.09.01.782,-165.1,41.3,0,,,68166.3,14.67,-0.62,0.23,-0.39,-1.7,24.7,-21.1,35.72,,,,,,,,,,
13.09.01.792,-154.7,38.7,0,,,68166.3,14.67,-0.51,0.48,-0.36,21.9,3.3,-2.5,35.56,,,,,,,,,,
13.09.01.804,38.5,9.6,0,,,68166.3,14.67,0.03,0.45,-0.58,39.7,3.4,-1.4,35.66,,,,,,,,,,
13.09.01.812,94.7,23.7,0,,,68166.3,14.67,-0.96,0.13,-0.73,18.5,10.8,-10.6,36.15,,,,,,,,,,
13.09.01.821,144.6,36.2,0,,,68166.3,14.67,-0.6,0.48,-0.43,-33.2,2.2,-21.7,35.67,,,,,,,,,,
13.09.01.830,191.1,47.8,0,,,68166.3,14.67,-0.42,0.57,-0.23,0.6,-0.5,-6.3,35.85,,,,,,,,,,
13.09.01.840,217.2,54.3,0,,,68166.3,14.67,-0.79,0.22,-0.42,25.0,-20.9,-20.4,35.38,,,,,,,,,,
13.09.01.849,264.2,66.0,0,,,68166.3,14.67,-0.78,0.24,-0.06,19.1,15.0,-34.6,35.62,,,,,,,,,,
13.09.01.857,335.0,83.8,0,,,68166.3,14.67,-0.18,-0.16,-0.09,12.4,25.9,-13.4,35.79,,,,,,,,,,
13.09.01.868,373.8,93.4,0,,,68166.3,14.67,-0.6,-0.05,0.33,-5.9,-12.7,-1.3,35.93,,,,,,,,,,
13.09.01.877,417.9,104.5,0,,,68166.3,14.67,-0.67,0.51,-0.4,-10.0,2.5,-6.3,36.12,,,,,,,,,,
13.09.01.887,384.5,96.1,0,,,68166.3,14.67,-0.67,0.0,-0.28,8.2,-8.3,-1.1,35.84,,,,,,,,,,
13.09.01.896,402.1,100.5,0,,,68166.3,14.67,-0.92,0.41,0.46,-27.2,-11.3,-11.6,35.74,,,,,,,,,,
13.09.01.906,404.4,101.1,0,,,68166.3,14.67,-0.68,0.87,-0.29,-18.7,32.9,5.9,35.83,,,,,,,,,,
13.09.01.917,366.2,91.6,0,,,68166.3,14.67,-0.78,0.24,-0.47,15.8,-7.6,10.1,35.49,,,,,,,,,,
13.09.01.926,395.8,99.0,0,,,68212.8,14.66,-0.81,0.03,-0.97,2.8,10.2,-30.6,36.12,,,,,,,,,,
13.09.01.936,359.6,89.9,0,,,68212.8,14.66,-0.44,0.29,-0.44,-42.4,-11.6,-1.4,35.93,,,,,,,,,,
13.09.01.946,318.6,79.6,0,,,68212.8,14.66,-0.6,-0.27,-0.55,-3.8,6.6,21.7,35.79,,,,,,,,,,
13.09.01.954,294.1,73.5,0,,,68212.8,14.66,-0.58,-0.23,-0.48,28.1,2.8,-5.5,35.9,,,,,,,,,,
13.09.01.963,274.8,68.7,0,,,68212.8,14.66,-0.51,0.32,0.22,7.4,-14.0,-13.4,35.84,,,,,,,,,,
13.09.01.973,201.7,50.4,0,,,68212.8,14.66,-0.41,0.52,-0.44,28.7,28.6,-4.5,35.71,,,,,,,,,,
13.09.01.983,124.2,31.0,0,,,68212.8,14.66,-0.69,0.48,-0.64,20.7,23.0,-6.7,35.59,,,,,,,,,,
13.09.01.994,104.3,26.1,0,,,68212.8,14.66,-0.65,0.17,-0.26,1.7,-0.3,-8.7,36.18,,,,,,,,,,
13.09.02.005,15.9,4.0,0,,,68212.8,14.66,-0.31,-0.2,-0.46,24.7,10.1,-30.1,35.65,,,,,,,,,,
13.09.02.017,21.0,5.2,0,,,68212.8,14.66,-0.63,0.24,-1.3,24.3,12.0,-6.2,35.63,,,,,,,,,,
13.09.02.027,62.7,15.7,0,,,68212.8,14.66,-0.61,-0.08,-0.36,4.5,18.4,-21.3,35.69,,,,,,,,,,
13.09.02.036,30.1,7.5,0,,,68212.8,14.66,-0.66,-0.08,-0.89,-10.5,28.9,14.4,35.82,,,,,,,,,,
13.09.02.045,78.9,19.7,0,,,68212.8,14.66,-0.52,-0.01,-0.68,9.2,2.1,-15.8,35.72,,,,,,,,,,
13.09.02.055,47.7,11.9,0,,,68212.8,14.66,-0.8,-0.24,-0.14,-12.2,21.4,-6.5,35.92,,,,,,,,,,
13.09.02.065,74.0,18.5,0,,,68212.8,14.66,-0.25,-0.47,-0.92,-1.4,1.7,-10.7,35.98,,,,,,,,,,
13.09.02.075,89.0,22.2,0,,,68212.8,14.66,-0.53,-0.04,-0.25,-2.4,-14.5,-9.9,35.84,,,,,,,,,,
13.09.02.084,70.8,17.7,0,,,68212.8,14.66,-0.59,0.48,-0.67,1.7,-3.5,19.8,35.83,,,,,,,,,,
13.09.02.093,40.9,10.2,0,,,68212.8,14.66,-0.83,-0.1,-0.92,-0.9,-6.8,4.4,35.71,,,,,,,,,,
13.09.02.104,64.0,16.0,0,,,68212.8,14.66,-0.67,0.22,-0.42,-13.9,24.7,-6.4,35.66,,,,,,,,,,
13.09.02.114,4.4,1.1,0,,,68212.8,14.66,-0.46,-0.49,-0.53,-19.8,10.1,-28.6,35.74,,,,,,,,,,
13.09.02.124,13.8,3.4,0,,,68212.8,14.66,-0.54,-0.7,-0.42,4.0,-10.9,12.6,36.08,,,,,,,,,,
13.09.02.132,1.7,0.4,0,,,68212.8,14.66,-0.78,-0.49,-0.57,-4.8,25.0,-1.6,35.9,,,,,,,,,,
13.09.02.142,7.8,2.0,0,,,68212.8,14.66,-0.48,-0.16,-0.26,-14.0,9.0,2.3,35.81,,,,,,,,,,
13.09.02.152,-61.3,15.3,0,,,68212.8,14.66,-0.72,-0.1,-0.29,-16.9,-3.2,-1.5,35.64,,,,,,,,,,
13.09.02.162,-34.7,8.7,0,,,68212.8,14.66,-0.82,0.47,-0.1,19.5,20.1,1.9,35.94,,,,,,,,,,
13.09.02.174,-9.4,2.4,0,,,68212.8,14.66,-0.68,-0.22,-0.55,-12.6,-1.3,4.0,35.76,,,,,,,,,,
13.09.02.183,-36.4,9.1,0,,,68212.8,14.66,-0.88,-0.54,-0.48,-15.0,14.4,-5.4,35.92,,,,,,,,,,
13.09.02.191,-43.2,10.8,0,,,68212.8,14.66,-0.89,-0.51,-0.57,-22.5,-3.2,-11.3,35.72,,,,,,,,,,
13.09.02.204,-34.9,8.7,0,,,68212.8,14.66,-0.48,0.03,0.45,-10.4,3.0,-23.8,35.78,,,,,,,,,,
13.09.02.213,-54.1,13.5,0,,,68212.8,14.66,-0.66,-0.27,-0.13,25.1,-12.9,-20.5,35.55,,,,,,,,,,
13.09.02.222,-78.2,19.6,0,,,68212.8,14.66,-0.71,-0.27,-0.08,-15.0,1.6,1.2,36.15,,,,,,,,,,
13.09.02.232,-61.7,15.4,0,,,68212.8,14.66,-0.53,-0.27,-0.51,-34.0,-4.8,7.5,35.75,,,,,,,,,,
13.09.02.241,-64.3,16.1,1,4.0,114.5,68212.8,14.66,-0.78,-0.35,-0.24,11.9,25.4,16.0,35.88,,,,,,,,,,
13.09.02.253,-73.8,18.4,0,,,68212.8,14.66,-0.79,0.05,-0.47,-0.5,-5.1,30.0,35.8,,,,,,,,,,
13.09.02.262,-81.7,20.4,0,,,68212.8,14.66,-0.5,-0.06,-0.43,-21.8,0.2,-4.4,35.64,,,,,,,,,,
13.09.02.271,-83.0,20.8,0,,,68212.8,14.66,-0.6,-0.13,0.43,20.3,-5.0,-3.0,35.84,,,,,,,,,,
13.09.02.280,-66.3,16.6,0,,,68212.8,14.66,-0.71,-0.06,-0.06,-12.1,-5.8,-2.2,35.97,,,,,,,,,,
13.09.02.288,-111.2,27.8,0,,,68212.8,14.66,-0.69,-0.12,0.53,4.1,29.5,-22.2,35.79,,,,,,,,,,
13.09.02.298,-104.4,26.1,0,,,68212.8,14.66,-0.78,0.48,-0.66,35.2,4.6,16.8,35.92,,,,,,,,,,
13.09.02.307,-121.5,30.4,0,,,68212.8,14.66,-0.73,0.19,-0.25,-2.2,22.6,9.3,35.65,,,,,,,,,,
13.09.02.316,-86.0,21.5,0,,,68212.8,14.66,-0.42,-0.19,-0.4,7.1,-36.5,3.3,36.12,,,,,,,,,,
13.09.02.325,-139.6,34.9,0,,,68212.8,14.66,-0.86,-0.09,-0.2,-14.7,33.1,-8.7,35.39,,,,,,,,,,
13.09.02.335,-93.6,23.4,0,,,68212.8,14.66,-0.58,0.06,-0.23,0.7,38.6,18.6,35.89,,,,,,,,,,
13.09.02.344,-147.6,36.9,0,,,68212.8,14.66,-1.01,0.12,-0.12,30.4,8.5,-11.6,36.15,,,,,,,,,,
13.09.02.353,-136.7,34.2,0,,,68212.8,14.66,-1.11,-0.18,0.38,-13.3,2.8,0.4,35.66,,,,,,,,,,
13.09.02.362,-138.5,34.6,0,,,68212.8,14.66,-1.03,0.19,-0.53,-23.8,5.8,-9.7,36.02,,,,,,,,,,
13.09.02.373,-147.5,36.9,0,,,68212.8,14.66,-1.08,0.31,-0.54,14.0,-6.1,25.1,35.58,,,,,,,,,,
13.09.02.383,-174.1,43.5,0,,,68212.8,14.66,-0.41,0.17,0.19,3.8,6.7,-1.9,35.97,,,,,,,,,,
13.09.02.394,-117.8,29.4,0,,,68212.8,14.66,-0.62,0.33,-0.44,13.1,-11.5,-5.2,35.83,,,,,,,,,,
13.09.02.405,63.6,15.9,0,,,68212.8,14.66,-1.1,0.04,-0.69,-10.6,-3.9,9.0,36.06,,,,,,,,,,
13.09.02.414,59.2,14.8,0,,,68212.8,14.66,-0.86,0.35,-0.14,5.3,1.5,24.4,35.79,,,,,,,,,,
13.09.02.424,151.3,37.8,0,,,68212.8,14.66,-0.72,0.36,-0.24,-21.1,18.9,-26.9,36.05,,,,,,,,,,
13.09.02.434,206.7,51.7,0,,,68212.8,14.66,-0.95,0.15,0.05,1.5,-13.7,-2.7,35.82,,,,,,,,,,
13.09.02.444,264.2,66.0,0,,,68212.8,14.66,-0.78,0.24,-0.11,31.6,22.3,-19.4,35.88,,,,,,,,,,
13.09.02.456,316.6,79.2,0,,,68212.8,14.66,-1.14,0.55,-0.04,14.3,11.8,-7.7,35.77,,,,,,,,,,
13.09.02.466,354.3,88.6,0,,,68212.8,14.66,-0.9,-0.28,-0.77,-16.9,1.8,13.6,35.74,,,,,,,,,,
13.09.02.473,385.3,96.3,0,,,68212.8,14.66,-0.46,0.14,-0.22,26.2,8.8,-16.2,35.94,,,,,,,,,,
13.09.02.482,362.7,90.7,0,,,68212.8,14.66,-0.57,-0.21,-0.55,-4.8,12.6,-3.3,35.6,,,,,,,,,,
13.09.02.492,452.6,113.2,0,,,68212.8,14.66,-1.03,0.18,-0.43,38.6,-2.0,-15.6,35.36,,,,,,,,,,
13.09.02.500,373.0,93.2,0,,,68212.8,14.66,-0.64,0.87,-0.9,-6.0,-8.1,-15.5,35.86,,,,,,,,,,
13.09.02.512,433.2,108.3,0,,,68212.8,14.66,-0.44,0.18,-0.36,22.0,11.1,-12.5,35.82,,,,,,,,,,
13.09.02.522,395.3,98.8,0,,,68212.8,14.66,-0.71,0.27,-0.05,4.1,3.3,-8.3,35.95,,,,,,,,,,
13.09.02.533,347.7,86.9,0,,,68212.8,14.66,-1.0,0.69,-0.55,-41.0,5.0,5.6,35.57,,,,,,,,,,
13.09.02.544,390.0,97.5,0,,,68212.8,14.66,-0.8,0.31,-0.42,28.9,18.1,8.8,35.64,,,,,,,,,,
13.09.02.554,328.4,82.1,0,,,68212.8,14.66,-1.46,0.18,-0.25,1.8,17.5,11.8,36.24,,,,,,,,,,
13.09.02.564,201.1,50.3,0,,,68212.8,14.66,-0.67,0.27,-0.56,27.5,12.8,19.2,35.99,,,,,,,,,,
13.09.02.575,190.2,47.6,0,,,68212.8,14.66,-0.56,0.22,-0.79,-6.7,0.1,0.1,35.68,,,,,,,,,,
13.09.02.586,144.9,36.2,0,,,68212.8,14.66,-0.82,0.13,-0.88,-34.9,-8.9,-6.1,35.65,,,,,,,,,,
13.09.02.595,,,0,,,,,,,,,,,,,,,,,,,,,
13.09.02.604,55.5,13.9,0,,,68212.8,14.66,-0.73,0.08,-0.36,-20.2,-0.1,17.6,35.94,,,,,,,,,,
13.09.02.612,-9.7,2.4,0,,,68212.8,14.66,-0.8,0.24,-0.92,-14.7,12.9,-6.6,35.77,,,,,,,,,,
13.09.02.623,44.2,11.0,0,,,68212.8,14.66,-0.78,0.5,-0.21,-5.6,-1.0,-13.0,35.89,,,,,,,,,,
13.09.02.632,39.0,9.8,0,,,68212.8,14.66,-0.52,0.09,-0.28,-16.7,39.3,-16.6,36.03,,,,,,,,,,
13.09.02.644,50.4,12.6,0,,,68212.8,14.66,-0.43,-0.25,-0.16,12.1,41.4,9.9,36.01,,,,,,,,,,
13.09.02.654,95.4,23.8,0,,,68212.8,14.66,-0.7,0.25,-0.0,-17.2,34.8,15.4,35.92,,,,,,,,,,
13.09.02.664,42.8,10.7,0,,,68212.8,14.66,-0.45,0.14,-0.42,22.6,-15.3,-8.2,35.73,,,,,,,,,,
13.09.02.674,33.1,8.3,0,,,68212.8,14.66,-0.83,0.3,-0.2,-2.8,15.5,2.4,35.85,,,,,,,,,,
13.09.02.686,84.7,21.2,0,,,68212.8,14.66,-0.96,-0.22,0.0,-7.2,14.6,12.6,35.57,,,,,,,,,,
13.09.02.698,52.6,13.2,0,,,68212.8,14.66,-0.57,0.24,0.06,7.2,-1.1,-3.9,35.72,,,,,,,,,,
13.09.02.708,33.5,8.4,0,,,68212.8,14.66,-0.63,0.67,-0.4,13.5,26.8,-4.4,35.91,,,,,,,,,,
13.09.02.717,-29.3,7.3,0,,,68212.8,14.66,-0.84,0.61,0.13,-30.5,14.5,8.1,35.95,,,,,,,,,,
13.09.02.725,-13.5,3.4,0,,,68212.8,14.66,-0.72,-0.13,0.6,10.4,7.2,-6.7,35.82,,,,,,,,,,
13.09.02.737,-31.6,7.9,0,,,68212.8,14.66,-0.49,0.55,-0.49,6.8,11.4,-26.4,35.93,,,,,,,,,,
13.09.02.748,10.1,2.5,0,,,68212.8,14.66,-0.45,0.16,0.05,-1.2,27.1,-3.2,36.0,,,,,,,,,,
13.09.02.758,-31.7,7.9,0,,,68212.8,14.66,-0.47,0.35,-0.38,-13.5,34.6,7.2,35.61,,,,,,,,,,
13.09.02.768,-3.2,0.8,0,,,68212.8,14.66,-0.71,0.04,0.14,43.7,25.3,-20.1,35.52,,,,,,,,,,
13.09.02.778,-58.9,14.7,1,5.0,111.7,68212.8,14.66,-0.65,0.04,-0.57,16.7,-5.6,3.3,35.72,,,,,,,,,,
13.09.02.788,-40.8,10.2,0,,,68212.8,14.66,-0.5,0.33,-0.31,-29.7,20.0,0.2,35.53,,,,,,,,,,
13.09.02.799,-35.4,8.8,0,,,68212.8,14.66,-0.24,0.05,-0.52,7.0,15.9,8.0,36.18,,,,,,,,,,
13.09.02.809,-41.9,10.5,0,,,68212.8,14.66,-0.79,0.59,-0.13,26.8,19.4,13.0,35.96,,,,,,,,,,
13.09.02.819,-83.7,20.9,0,,,68212.8,14.66,-0.17,-0.34,-0.32,-19.1,-13.6,-1.9,35.54,,,,,,,,,,
13.09.02.830,-48.6,12.2,0,,,68212.8,14.66,-0.37,0.31,-0.59,22.0,10.0,-15.5,35.54,,,,,,,,,,
13.09.02.839,-48.0,12.0,0,,,68212.8,14.66,-0.25,0.66,-0.35,-30.7,23.8,-31.0,36.28,,,,,,,,,,
13.09.02.847,-90.2,22.6,0,,,68212.8,14.66,-0.26,0.2,-0.31,23.0,-3.5,-5.5,35.93,,,,,,,,,,
13.09.02.855,-79.2,19.8,0,,,68212.8,14.66,-0.68,-0.23,-0.26,12.6,5.0,-18.5,35.77,,,,,,,,,,
13.09.02.866,-103.4,25.8,0,,,68212.8,14.66,-0.6,-0.21,0.01,36.2,10.8,-25.3,36.03,,,,,,,,,,
13.09.02.878,-115.8,29.0,0,,,68212.8,14.66,-0.23,-0.06,-0.34,-2.2,38.3,-3.0,36.05,,,,,,,,,,
13.09.02.890,-92.5,23.1,0,,,68212.8,14.66,-0.14,-0.35,-0.37,-5.8,-0.6,-3.9,35.86,,,,,,,,,,
13.09.02.899,-114.1,28.5,0,,,68212.8,14.66,-0.4,0.12,-0.7,8.0,-10.2,-5.1,35.64,,,,,,,,,,
13.09.02.904,-87.6,21.9,0,,,68212.8,14.66,-0.45,-0.39,-0.54,-9.3,1.9,-1.8,35.8,,,,,,,,,,
13.09.02.914,-119.0,29.8,0,,,68212.8,14.66,-0.38,0.23,0.02,-12.2,-7.3,16.0,35.76,,,,,,,,,,
13.09.02.923,-78.4,19.6,0,,,68212.8,14.66,-0.58,0.4,-0.29,10.0,6.2,-6.2,36.12,,,,,,,,,,
13.09.02.931,-137.9,34.5,0,,,68212.8,14.66,-0.5,0.15,-0.22,-21.6,9.7,-15.1,36.0,,,,,,,,,,
13.09.02.939,-110.1,27.5,0,,,68212.8,14.66,-0.64,0.21,-0.5,6.8,27.3,-12.3,35.6,,,,,,,,,,
13.09.02.952,-142.8,35.7,0,,,68212.8,14.66,-0.84,0.17,-0.74,6.2,15.6,-21.0,35.78,,,,,,,,,,
13.09.02.963,-151.6,37.9,0,,,68212.8,14.66,-0.45,-0.48,-0.32,-3.4,-0.6,-13.4,35.76,,,,,,,,,,
13.09.02.976,-171.2,42.8,0,,,68212.8,14.66,-0.56,0.01,-0.15,10.6,1.6,-12.1,35.95,,,,,,,,,,
13.09.02.985,-146.7,36.7,0,,,68212.8,14.66,-0.44,-0.15,-0.09,-16.5,-18.9,-17.8,35.65,,,,,,,,,,
13.09.02.995,-146.1,36.5,0,,,68212.8,14.66,-0.79,-0.08,-0.64,-16.5,15.8,-0.1,35.92,,,,,,,,,,
13.09.03.006,61.6,15.4,0,,,68212.8,14.66,-0.83,-0.62,-0.92,2.0,-0.8,33.6,35.7,,,,,,,,,,
13.09.03.015,110.2,27.6,0,,,68212.8,14.66,-0.66,-0.09,-0.75,11.7,5.7,4.3,35.88,,,,,,,,,,
13.09.03.025,175.5,43.9,0,,,68212.8,14.66,-0.2,-0.08,-0.56,14.2,1.2,9.8,35.68,,,,,,,,,,
13.09.03.035,199.4,49.8,0,,,68212.8,14.66,-0.38,0.1,-0.76,-24.3,35.3,-2.0,36.33,,,,,,,,,,
13.09.03.043,259.9,65.0,0,,,68212.8,14.66,-0.72,-0.12,-1.04,-29.3,20.3,0.5,35.45,,,,,,,,,,
13.09.03.054,322.6,80.6,0,,,68212.8,14.66,-0.72,-0.5,0.18,0.5,4.5,-15.5,35.98,,,,,,,,,,
13.09.03.063,321.4,80.4,0,,,68212.8,14.66,-0.84,-0.06,-0.63,-23.0,51.1,-22.2,35.69,,,,,,,,,,
13.09.03.072,332.2,83.0,0,,,68212.8,14.66,-0.55,-0.29,-0.53,3.4,0.6,-15.7,35.99,,,,,,,,,,
13.09.03.081,343.7,85.9,0,,,68212.8,14.66,-0.88,-0.36,-0.29,47.1,0.5,6.4,35.76,,,,,,,,,,
13.09.03.091,439.7,109.9,0,,,68212.8,14.66,-0.53,0.15,-0.39,16.7,-2.7,15.4,35.74,,,,,,,,,,
13.09.03.102,451.5,112.9,0,,,68212.8,14.66,-0.48,0.16,-0.1,35.1,3.8,-5.9,36.08,,,,,,,,,,
13.09.03.110,407.0,101.8,0,,,68212.8,14.66,-0.76,-0.35,-0.07,8.1,14.6,26.0,35.72,,,,,,,,,,
13.09.03.120,358.3,89.6,0,,,68212.8,14.66,-0.56,-0.49,-0.56,1.9,3.3,18.2,35.79,,,,,,,,,,
13.09.03.126,351.6,87.9,0,,,68212.8,14.66,-0.95,-0.28,-0.27,0.7,-20.0,-0.9,35.82,,,,,,,,,,
13.09.03.136,344.8,86.2,0,,,68212.8,14.66,-0.95,-0.04,-0.11,-17.2,7.2,10.6,35.68,,,,,,,,,,
13.09.03.146,360.4,90.1,0,,,68212.8,14.66,-0.91,-0.08,-0.22,13.2,-3.4,-2.9,35.91,,,,,,,,,,
13.09.03.153,292.7,73.2,0,,,68212.8,14.66,-0.64,0.01,-0.26,3.3,13.7,6.0,36.1,,,,,,,,,,
13.09.03.162,251.9,63.0,0,,,68259.4,14.65,-0.85,-0.1,-0.42,22.7,-9.0,11.4,35.49,,,,,,,,,,
13.09.03.170,210.9,52.7,0,,,68259.4,14.65,-0.68,-0.49,-0.33,-19.3,-1.1,14.1,35.84,,,,,,,,,,
13.09.03.181,165.4,41.4,0,,,68259.4,14.65,-1.02,-0.2,-0.1,40.3,7.4,-14.6,36.29,,,,,,,,,,
13.09.03.191,62.7,15.7,0,,,68259.4,14.65,-0.85,-0.86,-1.21,-6.1,40.6,-1.9,35.77,,,,,,,,,,
13.09.03.199,30.8,7.7,0,,,68259.4,14.65,-0.95,-0.19,0.26,24.5,-3.8,-1.3,35.82,,,,,,,,,,
13.09.03.210,1.6,0.4,0,,,68259.4,14.65,-0.7,-0.25,-0.53,-5.3,-10.7,11.0,36.0,,,,,,,,,,
13.09.03.220,18.9,4.7,0,,,68259.4,14.65,-1.09,0.13,-0.74,-29.7,-0.3,14.6,36.05,,,,,,,,,,
13.09.03.228,13.1,3.3,0,,,68259.4,14.65,-0.89,-0.2,-0.35,16.5,15.2,22.3,35.82,,,,,,,,,,
13.09.03.240,25.9,6.5,0,,,68259.4,14.65,-0.87,-0.25,-0.56,-4.6,10.6,13.0,35.85,,,,,,,,,,
13.09.03.250,87.5,21.9,0,,,68259.4,14.65,-0.73,0.03,-0.38,3.0,-3.2,-17.6,35.77,,,,,,,,,,
13.09.03.259,78.4,19.6,0,,,68259.4,14.65,-0.42,-0.1,-0.29,-43.1,14.6,-5.9,35.7,,,,,,,,,,
13.09.03.269,69.8,17.4,0,,,68259.4,14.65,-0.82,-0.1,-0.03,-8.9,14.1,-8.8,35.85,,,,,,,,,,
13.09.03.277,83.1,20.8,0,,,68259.4,14.65,-0.77,-0.1,-0.33,-15.0,28.0,-4.8,35.44,,,,,,,,,,
13.09.03.285,58.7,14.7,0,,,68259.4,14.65,-0.81,-0.05,-0.49,10.3,-20.1,18.7,36.15,,,,,,,,,,
13.09.03.295,77.7,19.4,0,,,68259.4,14.65,-0.54,0.33,-0.67,12.8,0.0,9.1,35.98,,,,,,,,,,
13.09.03.307,49.9,12.5,0,,,68259.4,14.65,-0.9,-0.05,-0.61,-5.5,18.0,7.5,35.61,,,,,,,,,,
13.09.03.317,15.6,3.9,0,,,68259.4,14.65,-0.89,-0.43,-0.41,-2.9,25.8,15.5,35.3,,,,,,,,,,
13.09.03.324,20.2,5.0,0,,,68259.4,14.65,-0.89,0.52,-0.59,-14.7,4.8,-12.5,35.68,,,,,,,,,,
13.09.03.332,-27.2,6.8,0,,,68259.4,14.65,-0.48,-0.21,-0.39,32.1,-3.4,-21.5,35.92,,,,,,,,,,
13.09.03.342,-31.0,7.8,0,,,68259.4,14.65,-0.62,-0.23,-0.47,-63.1,7.1,-5.7,35.8,,,,,,,,,,
13.09.03.350,-6.5,1.6,0,,,68259.4,14.65,-0.62,0.33,-1.11,-17.5,-1.8,2.5,35.37,,,,,,,,,,
13.09.03.360,-0.8,0.2,1,6.0,103.1,68259.4,14.65,-0.61,0.3,-0.76,-6.7,-5.9,12.8,35.77,,,,,,,,,,
13.09.03.368,-0.7,0.2,0,,,68259.4,14.65,-0.66,0.61,-0.43,26.7,-2.4,-12.8,35.94,,,,,,,,,,
13.09.03.376,-11.2,2.8,0,,,68259.4,14.65,-0.92,0.75,-0.45,43.1,-2.7,28.0,36.13,,,,,,,,,,
13.09.03.387,-30.1,7.5,0,,,68259.4,14.65,-0.92,0.07,-0.39,-12.4,17.5,-10.0,36.02,,,,,,,,,,
13.09.03.398,-24.3,6.1,0,,,68259.4,14.65,-1.09,0.56,-0.82,5.2,23.6,-0.5,35.76,,,,,,,,,,
13.09.03.409,-82.2,20.6,0,,,68259.4,14.65,-0.48,0.37,-0.8,25.5,15.0,-5.8,35.73,,,,,,,,,,
13.09.03.418,-84.9,21.2,0,,,68259.4,14.65,-0.95,0.91,-0.46,8.2,-7.5,-7.7,36.03,,,,,,,,,,
13.09.03.427,-72.7,18.2,0,,,68259.4,14.65,-0.56,0.11,-0.53,-35.5,-4.7,22.5,35.59,,,,,,,,,,
13.09.03.436,-66.6,16.6,0,,,68259.4,14.65,-0.64,0.15,-0.16,-10.3,-18.4,1.3,35.59,,,,,,,,,,
13.09.03.445,-77.3,19.3,0,,,68259.4,14.65,-0.57,0.29,-0.67,16.9,23.4,5.4,35.94,,,,,,,,,,
13.09.03.455,-73.0,18.2,0,,,68259.4,14.65,-0.82,-0.01,-0.53,49.7,16.8,1.9,35.68,,,,,,,,,,
13.09.03.464,-89.5,22.4,0,,,68259.4,14.65,-0.66,0.7,-0.59,27.9,19.7,7.8,35.92,,,,,,,,,,
13.09.03.474,-91.4,22.8,0,,,68259.4,14.65,-0.95,0.58,-0.41,15.9,-12.7,-0.2,35.83,,,,,,,,,,
13.09.03.482,-118.5,29.6,0,,,68259.4,14.65,-0.61,0.16,-0.51,32.3,-11.5,4.7,35.72,,,,,,,,,,
13.09.03.493,-114.9,28.7,0,,,68259.4,14.65,-0.75,0.42,-0.08,-43.7,20.1,-6.5,35.38,,,,,,,,,,
13.09.03.503,-117.5,29.4,0,,,68259.4,14.65,-0.88,0.45,-0.47,-39.5,5.3,23.6,35.91,,,,,,,,,,
13.09.03.514,-125.9,31.5,0,,,68259.4,14.65,-0.66,0.79,-0.32,-19.6,5.2,-5.4,36.0,,,,,,,,,,
13.09.03.527,-161.5,40.4,0,,,68259.4,14.65,-0.76,0.48,-0.41,41.9,7.2,-3.4,35.62,,,,,,,,,,
13.09.03.539,-114.9,28.7,0,,,68259.4,14.65,-0.67,0.06,-0.31,-21.7,-6.4,2.0,36.04,,,,,,,,,,
13.09.03.549,-98.4,24.6,0,,,68259.4,14.65,-0.87,0.36,-0.91,32.1,19.4,17.5,36.01,,,,,,,,,,
13.09.03.558,-140.1,35.0,0,,,68259.4,14.65,-0.72,0.51,-0.66,7.6,4.3,-7.0,35.51,,,,,,,,,,
13.09.03.567,-111.1,27.8,0,,,68259.4,14.65,-0.62,-0.32,0.03,-11.2,9.8,0.7,35.5,,,,,,,,,,
13.09.03.579,-137.1,34.3,0,,,68259.4,14.65,-0.83,-0.12,-0.16,11.8,20.0,-1.7,35.76,,,,,,,,,,
13.09.03.588,-163.9,41.0,0,,,68259.4,14.65,-0.74,0.22,-0.65,-21.1,-2.0,-25.7,35.73,,,,,,,,,,
13.09.03.598,-7.7,1.9,0,,,68259.4,14.65,-0.9,0.39,-0.07,-12.7,29.9,3.6,35.76,,,,,,,,,,
13.09.03.607,32.6,8.2,0,,,68259.4,14.65,-0.2,0.18,-0.16,5.1,-17.7,23.4,35.79,,,,,,,,,,
13.09.03.614,105.9,26.5,0,,,68259.4,14.65,-1.04,0.51,-0.13,-3.3,-1.1,11.1,36.01,,,,,,,,,,
13.09.03.623,143.6,35.9,0,,,68259.4,14.65,-0.45,0.27,-0.42,11.0,29.0,4.7,35.7,,,,,,,,,,
13.09.03.632,170.0,42.5,0,,,68259.4,14.65,-0.22,0.16,-0.22,14.4,10.7,3.4,36.01,,,,,,,,,,
13.09.03.642,258.0,64.5,0,,,68259.4,14.65,-0.28,0.32,-0.22,-28.2,6.5,-3.3,35.88,,,,,,,,,,
13.09.03.649,330.2,82.6,0,,,68259.4,14.65,-0.56,0.25,-0.24,17.4,17.8,0.9,35.6,,,,,,,,,,
13.09.03.659,319.6,79.9,0,,,68259.4,14.65,-0.5,0.18,-0.52,1.6,-3.0,-10.4,35.74,,,,,,,,,,
13.09.03.669,388.4,97.1,0,,,68259.4,14.65,-0.78,0.58,-0.01,-16.2,-14.6,8.0,35.92,,,,,,,,,,
13.09.03.678,380.1,95.0,0,,,68259.4,14.65,-0.61,0.43,-0.12,10.1,27.7,20.0,35.87,,,,,,,,,,
13.09.03.686,386.0,96.5,0,,,68259.4,14.65,-0.63,-0.1,-0.67,10.9,27.2,7.7,35.66,,,,,,,,,,
13.09.03.694,398.7,99.7,0,,,68259.4,14.65,-0.49,0.17,-0.47,-22.9,17.9,8.4,35.67,,,,,,,,,,
13.09.03.702,383.3,95.8,0,,,68259.4,14.65,-0.61,0.02,-0.58,-22.7,7.0,-0.4,35.66,,,,,,,,,,
13.09.03.711,414.8,103.7,0,,,68259.4,14.65,-0.2,0.1,-0.25,2.2,-21.6,-9.4,35.94,,,,,,,,,,
13.09.03.720,380.7,95.2,0,,,68259.4,14.65,-0.3,0.05,-0.03,7.1,-3.9,-23.8,35.85,,,,,,,,,,
13.09.03.729,374.8,93.7,0,,,68259.4,14.65,-0.5,0.43,-0.46,30.7,14.4,31.1,35.52,,,,,,,,,,
13.09.03.740,359.8,90.0,0,,,68259.4,14.65,-0.62,0.21,-0.25,6.5,11.3,-0.0,35.93,,,,,,,,,,
13.09.03.746,322.0,80.5,0,,,68259.4,14.65,-0.45,0.15,-0.37,1.6,10.4,19.7,35.81,,,,,,,,,,
13.09.03.756,265.4,66.4,0,,,68259.4,14.65,-0.38,-0.05,-0.37,-7.4,-8.6,1.1,35.65,,,,,,,,,,
13.09.03.767,212.3,53.1,0,,,68259.4,14.65,-0.5,-0.22,-0.53,-14.2,17.5,-0.5,35.96,,,,,,,,,,
13.09.03.776,159.1,39.8,0,,,68259.4,14.65,-0.62,0.03,-0.67,-21.9,15.5,-1.3,35.87,,,,,,,,,,
13.09.03.785,145.2,36.3,0,,,68306.0,14.64,-0.59,-0.03,-0.3,1.7,8.4,-13.9,35.74,,,,,,,,,,
13.09.03.794,94.9,23.7,0,,,68306.0,14.64,-0.55,0.15,-0.69,6.7,-20.3,11.8,35.79,,,,,,,,,,
13.09.03.806,-39.4,9.8,0,,,68306.0,14.64,-0.47,0.27,-0.97,-10.9,-26.2,-2.2,36.05,,,,,,,,,,
13.09.03.815,3.4,0.8,0,,,68306.0,14.64,-0.57,-0.09,-0.71,26.4,-3.5,-20.4,35.8,,,,,,,,,,
13.09.03.822,37.4,9.4,0,,,68306.0,14.64,-0.86,0.04,-0.54,44.1,5.6,-20.3,35.91,,,,,,,,,,
13.09.03.832,67.6,16.9,0,,,68306.0,14.64,-0.28,-0.19,-0.43,-32.2,18.9,-26.2,35.71,,,,,,,,,,
13.09.03.842,63.8,16.0,0,,,68306.0,14.64,-0.55,-0.32,-0.98,4.5,26.5,4.7,35.49,,,,,,,,,,
13.09.03.852,87.3,21.8,0,,,68306.0,14.64,-0.85,0.07,-0.17,0.7,10.7,11.4,35.92,,,,,,,,,,
13.09.03.860,95.7,23.9,0,,,68306.0,14.64,-0.97,-0.32,-0.21,-2.2,-4.9,26.6,36.04,,,,,,,,,,
13.09.03.870,85.8,21.4,0,,,68306.0,14.64,-0.42,-0.18,-0.67,7.0,19.4,-28.7,35.52,,,,,,,,,,
13.09.03.880,47.4,11.8,0,,,68306.0,14.64,-0.64,-0.29,-0.12,-46.5,2.1,4.0,35.64,,,,,,,,,,
13.09.03.889,60.1,15.0,0,,,68306.0,14.64,-0.6,0.07,-0.37,31.4,-10.9,22.2,36.03,,,,,,,,,,
13.09.03.898,53.3,13.3,0,,,68306.0,14.64,-0.61,-0.06,-0.66,7.9,17.4,11.7,35.87,,,,,,,,,,
13.09.03.906,46.3,11.6,0,,,68306.0,14.64,-0.71,-0.36,-0.68,17.2,23.8,-30.9,36.17,,,,,,,,,,
13.09.03.917,17.0,4.2,1,7.0,107.7,68306.0,14.64,-0.72,0.18,-0.38,2.0,-2.3,-20.2,35.55,,,,,,,,,,
13.09.03.927,2.7,0.7,0,,,68306.0,14.64,-0.55,-0.41,0.01,-8.9,7.1,26.5,36.1,,,,,,,,,,
13.09.03.937,-7.1,1.8,0,,,68306.0,14.64,-0.87,-0.12,0.25,-32.7,7.5,-8.1,35.53,,,,,,,,,,
13.09.03.945,12.7,3.2,0,,,68306.0,14.64,-0.88,-0.16,0.2,31.3,25.4,-13.4,35.61,,,,,,,,,,
13.09.03.954,-19.2,4.8,0,,,68306.0,14.64,-0.57,0.25,-0.67,9.8,13.7,-40.5,35.67,,,,,,,,,,
13.09.03.965,-37.4,9.4,0,,,68306.0,14.64,-0.91,-0.68,-0.7,2.1,13.9,2.1,35.7,,,,,,,,,,
13.09.03.974,-4.6,1.2,0,,,68306.0,14.64,-0.44,-0.5,-0.11,31.6,1.3,-5.7,36.14,,,,,,,,,,
13.09.03.986,-78.2,19.6,0,,,68306.0,14.64,-0.37,-0.14,-0.49,18.1,9.0,-4.3,36.12,,,,,,,,,,
13.09.03.996,-16.1,4.0,0,,,68306.0,14.64,-1.06,-0.0,-0.53,28.1,-5.0,5.1,35.85,,,,,,,,,,
13.09.04.004,-30.6,7.6,0,,,68306.0,14.64,-0.79,-0.0,-0.23,2.6,-5.5,-0.2,35.92,,,,,,,,,,
13.09.04.014,-43.8,11.0,0,,,68306.0,14.64,-0.81,-0.01,0.03,0.5,-12.9,-5.2,35.87,,,,,,,,,,
13.09.04.023,-61.2,15.3,0,,,68306.0,14.64,-0.83,0.23,-0.17,20.1,15.1,12.6,35.64,,,,,,,,,,
13.09.04.033,-93.8,23.4,0,,,68306.0,14.64,-0.67,-0.69,-0.41,6.9,18.5,-1.7,35.68,,,,,,,,,,
13.09.04.042,-96.1,24.0,0,,,68306.0,14.64,-0.88,-0.39,0.07,-2.2,7.2,-6.3,35.59,,,,,,,,,,
13.09.04.051,-44.3,11.1,0,,,68306.0,14.64,-0.78,0.44,-0.29,-2.2,-9.6,3.8,35.6,,,,,,,,,,
13.09.04.060,-82.7,20.7,0,,,68306.0,14.64,-0.73,-0.27,-0.81,15.1,5.7,-16.4,35.77,,,,,,,,,,
13.09.04.071,-49.0,12.2,0,,,68306.0,14.64,-0.74,-0.22,-0.12,18.6,0.1,-12.2,36.14,,,,,,,,,,
13.09.04.081,-88.5,22.1,0,,,68306.0,14.64,-0.62,-0.25,-0.2,7.2,31.2,-1.5,35.75,,,,,,,,,,
13.09.04.090,-108.2,27.0,0,,,68306.0,14.64,-0.49,-0.14,-0.08,11.7,14.7,-20.6,35.84,,,,,,,,,,
13.09.04.100,-94.7,23.7,0,,,68306.0,14.64,-0.42,0.4,-0.48,12.6,-3.5,8.2,35.82,,,,,,,,,,
13.09.04.110,-136.7,34.2,0,,,68306.0,14.64,-0.83,-0.14,-0.74,16.9,2.5,0.7,35.66,,,,,,,,,,
13.09.04.120,-115.6,28.9,0,,,68306.0,14.64,-0.82,-0.13,-0.35,11.3,13.4,-6.5,35.57,,,,,,,,,,
13.09.04.131,-116.5,29.1,0,,,68306.0,14.64,-0.83,-0.4,-0.44,11.5,1.9,-6.3,36.28,,,,,,,,,,
13.09.04.139,-129.9,32.5,0,,,68306.0,14.64,-0.55,0.27,-0.52,-37.2,21.7,-5.5,35.83,,,,,,,,,,
13.09.04.148,-143.6,35.9,0,,,68306.0,14.64,-0.91,-0.42,-0.18,-16.4,9.1,13.3,35.75,,,,,,,,,,
13.09.04.160,-172.1,43.0,0,,,68306.0,14.64,-0.98,0.02,-0.8,13.0,-5.6,-5.6,35.71,,,,,,,,,,
13.09.04.169,-158.0,39.5,0,,,68306.0,14.64,-1.13,-0.53,-0.18,-12.3,-12.2,0.9,35.68,,,,,,,,,,
13.09.04.177,,,0,,,,,,,,,,,,,,,,,,,,,
13.09.04.187,-174.1,43.5,0,,,68306.0,14.64,-0.77,0.15,-0.36,3.3,19.6,1.9,35.97,,,,,,,,,,
13.09.04.198,51.5,12.9,0,,,68306.0,14.64,-0.98,0.18,-0.51,-3.7,41.0,-5.2,36.06,,,,,,,,,,
13.09.04.206,90.3,22.6,0,,,68306.0,14.64,-0.74,-0.07,-0.29,1.9,7.3,18.9,35.9,,,,,,,,,,
13.09.04.217,121.3,30.3,0,,,68306.0,14.64,-0.78,0.2,-0.74,8.3,-3.8,-5.7,35.8,,,,,,,,,,
13.09.04.225,164.1,41.0,0,,,68306.0,14.64,-0.97,-0.06,-0.69,-25.7,10.7,-2.2,35.7,,,,,,,,,,
13.09.04.234,223.0,55.8,0,,,68306.0,14.64,-0.7,0.48,-0.8,15.8,-1.2,-12.6,35.7,,,,,,,,,,
13.09.04.245,303.0,75.8,0,,,68306.0,14.64,-0.42,0.37,-0.24,6.6,28.7,-22.8,36.01,,,,,,,,,,
13.09.04.255,323.9,81.0,0,,,68306.0,14.64,-1.04,0.6,-0.62,2.8,19.0,11.3,35.62,,,,,,,,,,
13.09.04.264,365.1,91.3,0,,,68306.0,14.64,-0.61,0.18,-0.79,-33.9,9.0,10.2,35.27,,,,,,,,,,
13.09.04.272,379.4,94.8,0,,,68306.0,14.64,-0.52,0.21,-0.61,-15.1,18.3,5.1,35.96,,,,,,,,,,
13.09.04.281,395.3,98.8,0,,,68306.0,14.64,-0.49,0.63,-0.96,-10.5,18.8,-22.2,35.84,,,,,,,,,,
13.09.04.291,385.8,96.4,0,,,68306.0,14.64,-0.77,0.34,-0.61,-32.9,11.3,-12.5,35.72,,,,,,,,,,
13.09.04.300,420.3,105.1,0,,,68306.0,14.64,-0.7,0.27,-0.47,0.6,-12.0,4.7,35.54,,,,,,,,,,
13.09.04.311,437.3,109.3,0,,,68306.0,14.64,-0.41,-0.08,-0.03,29.7,-20.5,5.3,36.11,,,,,,,,,,
13.09.04.322,374.0,93.5,0,,,68306.0,14.64,-0.52,0.52,-0.7,5.0,6.8,0.0,35.9,,,,,,,,,,
13.09.04.332,322.5,80.6,0,,,68306.0,14.64,-0.7,0.57,-0.65,-3.8,-3.7,12.9,35.66,,,,,,,,,,
13.09.04.341,362.9,90.7,0,,,68306.0,14.64,-1.04,0.47,-0.77,18.8,0.6,-5.7,35.97,,,,,,,,,,
13.09.04.349,300.4,75.1,0,,,68306.0,14.64,-0.98,0.31,-0.4,-1.0,14.7,-34.0,35.97,,,,,,,,,,
13.09.04.358,247.2,61.8,0,,,68306.0,14.64,-0.46,0.05,-0.32,15.1,11.0,-34.0,35.85,,,,,,,,,,
13.09.04.367,233.1,58.3,0,,,68306.0,14.64,-0.55,0.57,-0.45,-1.6,3.9,-0.0,35.52,,,,,,,,,,
13.09.04.378,132.2,33.0,0,,,68306.0,14.64,-0.73,-0.14,-0.17,5.8,11.3,-5.8,36.06,,,,,,,,,,
13.09.04.386,115.8,29.0,0,,,68306.0,14.64,-0.63,-0.01,-1.02,8.6,-6.6,15.8,35.65,,,,,,,,,,
13.09.04.395,37.8,9.4,0,,,68306.0,14.64,-0.85,-0.27,-0.48,10.7,3.1,7.7,35.66,,,,,,,,,,
13.09.04.403,28.5,7.1,0,,,68306.0,14.64,-0.66,-0.02,-0.42,-2.5,21.0,2.1,36.03,,,,,,,,,,
13.09.04.414,54.6,13.6,0,,,68306.0,14.64,-0.84,0.68,-0.38,3.2,6.7,-13.1,36.0,,,,,,,,,,
13.09.04.423,35.2,8.8,0,,,68306.0,14.64,-0.4,0.54,-0.33,-32.5,9.0,17.6,36.02,,,,,,,,,,
13.09.04.433,62.1,15.5,0,,,68306.0,14.64,-0.81,-0.02,0.09,-16.8,-12.3,21.0,35.56,,,,,,,,,,
13.09.04.443,66.5,16.6,0,,,68306.0,14.64,-0.64,-0.05,-0.59,-11.5,0.0,-11.7,36.12,,,,,,,,,,
13.09.04.451,78.3,19.6,0,,,68352.7,14.63,-0.93,0.16,-0.02,2.0,-11.1,-18.5,35.65,,,,,,,,,,
13.09.04.464,55.9,14.0,0,,,68352.7,14.63,-0.45,0.21,-0.22,14.0,-0.0,0.5,35.87,,,,,,,,,,
13.09.04.473,80.7,20.2,0,,,68352.7,14.63,-1.08,-0.17,-0.09,28.6,14.2,-14.2,35.66,,,,,,,,,,
13.09.04.483,61.4,15.4,1,8.0,106.0,68352.7,14.63,-0.38,0.13,-0.14,-0.8,8.3,-11.6,36.13,,,,,,,,,,
13.09.04.493,86.1,21.5,0,,,68352.7,14.63,-0.44,-0.17,0.1,23.5,14.6,12.2,35.73,,,,,,,,,,
13.09.04.501,23.9,6.0,0,,,68352.7,14.63,-0.63,0.26,-0.02,-3.3,10.0,-3.8,35.88,,,,,,,,,,
13.09.04.511,-8.6,2.2,0,,,68352.7,14.63,-0.22,0.37,0.37,42.1,3.5,6.3,35.66,,,,,,,,,,
13.09.04.522,-9.0,2.2,0,,,68352.7,14.63,-0.35,0.27,-0.2,8.8,-4.2,-12.4,35.63,,,,,,,,,,
13.09.04.531,11.7,2.9,0,,,68352.7,14.63,-0.5,-0.29,-0.11,10.9,10.7,10.6,36.0,,,,,,,,,,
13.09.04.539,19.6,4.9,0,,,68352.7,14.63,-0.57,-0.39,0.14,-11.2,-1.6,-4.8,35.75,,,,,,,,,,
13.09.04.551,-19.7,4.9,0,,,68352.7,14.63,-0.8,-0.12,-0.21,11.1,3.2,-13.4,35.82,,,,,,,,,,
13.09.04.561,-19.8,5.0,0,,,68352.7,14.63,-0.84,-0.4,0.21,22.5,11.8,15.6,35.8,,,,,,,,,,
13.09.04.571,-75.7,18.9,0,,,68352.7,14.63,-0.36,0.14,-0.7,2.1,-8.6,-5.8,35.68,,,,,,,,,,
13.09.04.581,-11.0,2.8,0,,,68352.7,14.63,-0.5,0.25,-0.31,8.4,-13.6,20.2,35.58,,,,,,,,,,
13.09.04.593,-22.2,5.6,0,,,68352.7,14.63,-0.13,-0.32,-0.22,-4.8,33.3,7.1,35.94,,,,,,,,,,
13.09.04.604,-46.1,11.5,0,,,68352.7,14.63,-0.46,-0.13,-0.16,29.4,-4.1,-12.4,35.56,,,,,,,,,,
13.09.04.614,-50.6,12.6,0,,,68352.7,14.63,-0.5,0.07,-0.07,29.4,12.6,0.7,35.83,,,,,,,,,,
13.09.04.623,-58.7,14.7,0,,,68352.7,14.63,-0.54,0.15,-0.41,-24.9,36.0,-15.2,35.58,,,,,,,,,,
13.09.04.632,-54.8,13.7,0,,,68352.7,14.63,-0.44,0.25,-0.81,-8.5,7.6,-15.0,35.7,,,,,,,,,,
13.09.04.642,-48.7,12.2,0,,,68352.7,14.63,-0.48,0.38,-0.8,16.7,-3.7,-3.2,35.94,,,,,,,,,,
13.09.04.653,-76.4,19.1,0,,,68352.7,14.63,-0.46,-0.31,-0.69,22.0,-10.3,26.6,35.53,,,,,,,,,,
13.09.04.664,-69.6,17.4,0,,,68352.7,14.63,-0.5,0.01,-0.59,14.2,-7.9,-18.3,35.57,,,,,,,,,,
13.09.04.673,-89.1,22.3,0,,,68352.7,14.63,-0.56,-0.34,0.03,-0.2,15.0,-11.2,35.78,,,,,,,,,,
13.09.04.683,-84.9,21.2,0,,,68352.7,14.63,-0.78,-0.43,0.34,4.9,34.1,6.4,35.69,,,,,,,,,,
13.09.04.692,-128.0,32.0,0,,,68352.7,14.63,-0.59,-0.35,-0.48,2.7,-24.5,9.0,35.92,,,,,,,,,,
13.09.04.703,-132.4,33.1,0,,,68352.7,14.63,-0.85,-0.17,-0.95,-14.2,-24.4,-10.1,35.72,,,,,,,,,,
13.09.04.711,-114.3,28.6,0,,,68352.7,14.63,-0.03,-0.01,-0.76,-0.1,-10.7,13.2,36.02,,,,,,,,,,
13.09.04.719,-128.6,32.2,0,,,68352.7,14.63,-0.28,-0.27,-0.65,9.1,2.8,-0.6,35.95,,,,,,,,,,
13.09.04.728,-155.2,38.8,0,,,68352.7,14.63,-0.47,-0.05,-0.75,8.2,9.5,-9.1,35.78,,,,,,,,,,
13.09.04.738,-120.5,30.1,0,,,68352.7,14.63,-0.46,0.24,-0.17,15.5,10.6,-11.6,35.76,,,,,,,,,,
13.09.04.747,-147.2,36.8,0,,,68352.7,14.63,-0.62,-0.2,0.37,-4.8,18.8,3.0,35.82,,,,,,,,,,
13.09.04.756,-178.3,44.6,0,,,68352.7,14.63,-0.77,-0.01,-0.25,-7.8,-4.1,12.5,35.83,,,,,,,,,,
13.09.04.763,-165.2,41.3,0,,,68352.7,14.63,-0.55,0.29,-0.41,-14.6,6.9,-6.6,35.67,,,,,,,,,,
13.09.04.772,-145.8,36.4,0,,,68352.7,14.63,-0.52,-0.11,-0.31,-28.4,23.3,-2.4,35.77,,,,,,,,,,
13.09.04.780,-156.9,39.2,0,,,68352.7,14.63,-1.16,0.24,-0.46,-7.3,1.4,6.9,35.83,,,,,,,,,,
13.09.04.787,-165.5,41.4,0,,,68352.7,14.63,-1.07,-0.16,-0.22,-27.3,11.9,-21.5,35.68,,,,,,,,,,
13.09.04.796,31.4,7.8,0,,,68352.7,14.63,-0.77,0.12,-0.59,-2.5,10.5,7.6,35.8,,,,,,,,,,
13.09.04.805,64.6,16.2,0,,,68352.7,14.63,-0.36,-0.37,0.04,9.2,23.4,13.9,36.05,,,,,,,,,,
13.09.04.815,121.7,30.4,0,,,68352.7,14.63,-0.5,-0.25,-0.47,12.7,-16.4,-6.0,36.07,,,,,,,,,,
13.09.04.823,168.8,42.2,0,,,68352.7,14.63,-0.46,0.21,-0.19,-7.9,-24.9,27.4,35.58,,,,,,,,,,
13.09.04.835,248.4,62.1,0,,,68352.7,14.63,-0.74,0.14,-0.29,-6.5,12.4,-0.4,36.14,,,,,,,,,,
13.09.04.846,312.3,78.1,0,,,68352.7,14.63,-0.85,-0.19,-0.44,-5.0,26.9,18.3,35.83,,,,,,,,,,
13.09.04.855,345.8,86.4,0,,,68352.7,14.63,-0.93,-0.24,-0.24,-0.2,13.3,10.7,35.81,,,,,,,,,,
13.09.04.866,400.0,100.0,0,,,68352.7,14.63,-0.74,0.6,-0.13,1.8,7.8,9.2,36.08,,,,,,,,,,
13.09.04.877,402.8,100.7,0,,,68352.7,14.63,-0.81,-0.22,-0.12,24.5,0.6,-15.0,35.69,,,,,,,,,,
13.09.04.888,415.1,103.8,0,,,68352.7,14.63,-1.04,0.66,-0.08,-0.9,11.1,-6.4,35.69,,,,,,,,,,
13.09.04.895,426.2,106.6,0,,,68352.7,14.63,-0.68,0.55,-0.37,-0.1,15.2,-0.1,35.52,,,,,,,,,,
13.09.04.907,384.8,96.2,0,,,68352.7,14.63,-0.42,0.1,-0.22,29.7,-3.3,8.7,35.65,,,,,,,,,,
13.09.04.916,360.3,90.1,0,,,68352.7,14.63,-0.68,-0.42,0.15,-36.9,33.3,-20.5,35.94,,,,,,,,,,
13.09.04.926,371.1,92.8,0,,,68352.7,14.63,-0.7,-0.28,-0.46,-15.1,3.7,22.0,35.82,,,,,,,,,,
13.09.04.935,357.0,89.2,0,,,68352.7,14.63,-0.76,0.07,-0.46,15.0,29.5,17.6,35.87,,,,,,,,,,
13.09.04.946,298.3,74.6,0,,,68352.7,14.63,-0.91,-0.25,0.1,11.1,-13.8,12.5,35.67,,,,,,,,,,
13.09.04.953,294.4,73.6,0,,,68352.7,14.63,-1.01,0.03,-0.53,2.5,9.4,-6.8,35.95,,,,,,,,,,
13.09.04.962,213.6,53.4,0,,,68352.7,14.63,-0.77,-0.31,0.01,14.6,-2.1,-8.1,35.95,,,,,,,,,,
13.09.04.972,172.4,43.1,0,,,68352.7,14.63,-0.97,-0.05,-0.05,-48.8,13.5,-4.0,35.89,,,,,,,,,,
13.09.04.982,158.5,39.6,0,,,68352.7,14.63,-0.42,-0.04,-0.72,38.5,4.8,5.3,36.01,,,,,,,,,,
13.09.04.991,64.7,16.2,0,,,68352.7,14.63,-0.64,-0.25,-0.12,-34.0,-7.9,-2.2,35.65,,,,,,,,,,
13.09.05.002,-7.8,2.0,0,,,68352.7,14.63,-0.9,0.19,-0.34,18.5,12.1,-13.6,36.15,100.3,,,,,,,,,
13.09.05.011,26.6,6.6,0,,,68352.7,14.63,-0.53,-0.06,-0.22,-4.6,32.3,-3.9,35.77,,,,,,,,,,
13.09.05.021,19.2,4.8,1,9.0,111.5,68352.7,14.63,-0.74,-0.25,0.22,-9.2,-10.4,-10.3,36.12,,,,,,,,,,
13.09.05.032,55.8,14.0,0,,,68352.7,14.63,-0.5,-0.32,0.24,32.8,14.8,-31.5,35.96,,,,,,,,,,
13.09.05.042,78.3,19.6,0,,,68352.7,14.63,-0.52,0.04,0.25,-2.2,-6.7,12.2,35.54,,,,,,,,,,
13.09.05.052,76.2,19.0,0,,,68352.7,14.63,-0.72,0.04,-0.15,6.7,28.5,20.8,35.81,,,,,,,,,,
13.09.05.062,60.6,15.2,0,,,68352.7,14.63,-0.86,0.25,0.04,2.1,-9.0,14.1,36.16,,,,,,,,,,
13.09.05.070,62.1,15.5,0,,,68352.7,14.63,-0.78,0.6,-0.62,-4.1,11.5,6.2,35.9,,,,,,,,,,
13.09.05.082,59.2,14.8,0,,,68352.7,14.63,-1.0,0.41,-0.52,3.1,-4.4,-5.7,35.93,,,,,,,,,,
13.09.05.092,32.4,8.1,0,,,68352.7,14.63,-0.89,0.63,-0.62,2.0,21.6,2.1,35.72,,,,,,,,,,
13.09.05.100,37.0,9.2,0,,,68352.7,14.63,-0.44,0.0,-0.01,-26.9,-5.8,0.7,35.44,,,,,,,,,,
13.09.05.110,7.8,2.0,0,,,68352.7,14.63,-0.88,0.02,-0.04,-24.8,15.8,3.8,35.55,,,,,,,,,,
13.09.05.121,-1.3,0.3,0,,,68352.7,14.63,-0.59,-0.17,-0.31,-24.5,7.9,4.3,35.63,,,,,,,,,,
13.09.05.133,-2.8,0.7,0,,,68399.5,14.62,-0.81,0.34,-0.45,-0.9,-14.1,8.6,35.96,,,,,,,,,,
13.09.05.142,-28.2,7.0,0,,,68399.5,14.62,-0.92,0.2,-0.6,28.3,2.1,-12.6,36.03,,,,,,,,,,
13.09.05.154,-17.8,4.4,0,,,68399.5,14.62,-0.79,-0.03,-0.16,-11.8,-3.8,18.4,35.76,,,,,,,,,,
13.09.05.163,-12.1,3.0,0,,,68399.5,14.62,-0.53,0.44,-0.45,24.6,-3.5,-23.0,36.06,,,,,,,,,,
13.09.05.172,,,0,,,,,,,,,,,,,,,,,,,,,
13.09.05.179,-33.9,8.5,0,,,68399.5,14.62,-0.85,0.68,-0.62,-26.0,-5.6,-21.5,35.53,,,,,,,,,,
13.09.05.189,-53.7,13.4,0,,,68399.5,14.62,-0.51,0.2,-0.69,16.6,0.4,12.9,35.75,,,,,,,,,,
13.09.05.197,-49.8,12.4,0,,,68399.5,14.62,-0.72,0.15,-0.74,-14.6,8.1,-1.3,35.73,,,,,,,,,,
13.09.05.207,-45.5,11.4,0,,,68399.5,14.62,-0.49,0.51,-0.81,-40.5,-4.8,8.4,36.07,,,,,,,,,,
13.09.05.216,-72.0,18.0,0,,,68399.5,14.62,-0.89,0.36,-0.31,14.4,-13.9,1.0,35.87,,,,,,,,,,
13.09.05.226,-59.8,15.0,0,,,68399.5,14.62,-0.76,0.67,-0.34,-1.7,33.1,-27.2,36.01,,,,,,,,,,
13.09.05.235,-97.0,24.2,0,,,68399.5,14.62,-1.14,0.2,-0.08,16.5,33.3,-5.9,35.81,,,,,,,,,,
13.09.05.244,-68.7,17.2,0,,,68399.5,14.62,-1.02,0.21,-0.57,26.4,-0.6,-7.8,35.4,,,,,,,,,,
13.09.05.256,-91.1,22.8,0,,,68399.5,14.62,-0.71,0.28,-0.21,27.2,24.4,-1.1,35.78,,,,,,,,,,
13.09.05.266,-85.2,21.3,0,,,68399.5,14.62,-0.44,-0.11,-0.85,-0.2,8.6,10.2,35.58,,,,,,,,,,
13.09.05.276,-61.8,15.4,0,,,68399.5,14.62,-0.76,0.35,-0.6,11.2,4.2,-16.7,35.95,,,,,,,,,,
13.09.05.286,-107.3,26.8,0,,,68399.5,14.62,-0.86,0.1,-0.0,1.3,-4.6,-10.7,36.13,,,,,,,,,,
13.09.05.297,-133.2,33.3,0,,,68399.5,14.62,-0.65,0.67,-0.14,-1.9,-23.6,3.3,35.91,,,,,,,,,,
13.09.05.306,-115.7,28.9,0,,,68399.5,14.62,-1.06,0.48,-0.1,-2.0,-17.1,5.9,36.15,,,,,,,,,,
13.09.05.316,-126.2,31.6,0,,,68399.5,14.62,-0.96,-0.13,-0.51,32.6,10.9,7.0,35.79,,,,,,,,,,
13.09.05.326,-107.7,26.9,0,,,68399.5,14.62,-0.85,0.27,-0.15,-24.9,21.2,3.0,36.08,,,,,,,,,,
13.09.05.335,-117.2,29.3,0,,,68399.5,14.62,-0.51,-0.51,0.01,11.9,11.4,10.4,35.73,,,,,,,,,,
13.09.05.345,-144.2,36.0,0,,,68399.5,14.62,-0.45,0.15,-0.23,18.9,7.3,-18.6,35.76,,,,,,,,,,
13.09.05.354,-129.0,32.2,0,,,68399.5,14.62,-0.84,-0.21,-0.5,12.1,-12.5,-4.2,35.66,,,,,,,,,,
13.09.05.363,-114.8,28.7,0,,,68399.5,14.62,-0.42,0.47,-0.45,-10.8,23.3,11.8,35.91,,,,,,,,,,
13.09.05.374,-171.7,42.9,0,,,68399.5,14.62,-0.58,-0.31,-0.79,8.3,-15.6,5.6,35.84,,,,,,,,,,
13.09.05.385,-151.6,37.9,0,,,68399.5,14.62,-0.84,0.18,-0.4,0.1,27.1,-8.2,35.67,,,,,,,,,,
13.09.05.396,27.1,6.8,0,,,68399.5,14.62,-0.6,0.17,-0.38,27.8,16.5,24.7,35.66,,,,,,,,,,
13.09.05.405,76.8,19.2,0,,,68399.5,14.62,-0.04,-0.01,-0.7,7.3,-0.7,11.4,35.71,,,,,,,,,,
13.09.05.414,150.5,37.6,0,,,68399.5,14.62,-0.52,0.31,0.08,15.3,-0.4,-25.3,35.73,,,,,,,,,,
13.09.05.422,236.2,59.0,0,,,68399.5,14.62,-0.4,0.45,-0.65,-13.9,-2.7,25.5,35.87,,,,,,,,,,
13.09.05.433,241.5,60.4,0,,,68399.5,14.62,-0.44,-0.43,-0.14,20.5,-44.4,-6.8,35.66,,,,,,,,,,
13.09.05.444,316.6,79.2,0,,,68399.5,14.62,-0.58,0.33,-0.31,-23.7,5.4,-16.1,35.92,,,,,,,,,,
13.09.05.453,357.8,89.4,0,,,68399.5,14.62,-0.6,-0.02,-0.19,-9.6,23.8,-24.0,35.61,,,,,,,,,,
13.09.05.463,379.8,95.0,0,,,68399.5,14.62,-0.65,0.23,0.16,26.2,24.4,-3.4,35.67,,,,,,,,,,
13.09.05.472,388.0,97.0,0,,,68399.5,14.62,-0.67,0.16,-0.29,-26.7,-15.8,-3.6,35.8,,,,,,,,,,
13.09.05.483,435.7,108.9,0,,,68399.5,14.62,-0.87,-0.07,-0.29,-16.9,4.4,6.9,35.62,,,,,,,,,,
13.09.05.493,394.6,98.6,0,,,68399.5,14.62,-0.67,0.02,-0.7,-2.5,30.8,-14.9,35.77,,,,,,,,,,
13.09.05.502,378.2,94.6,0,,,68399.5,14.62,-0.43,0.77,0.19,10.9,-1.2,31.2,35.66,,,,,,,,,,
13.09.05.514,379.2,94.8,0,,,68399.5,14.62,-0.78,-0.11,-0.31,7.3,-5.0,4.2,35.81,,,,,,,,,,
13.09.05.524,377.4,94.4,0,,,68399.5,14.62,-0.82,0.29,-0.67,0.1,14.8,-8.6,35.38,,,,,,,,,,
13.09.05.533,351.4,87.8,0,,,68399.5,14.62,-0.53,-0.26,-0.18,24.3,-4.5,2.8,35.68,,,,,,,,,,
13.09.05.543,274.4,68.6,0,,,68399.5,14.62,-0.4,-0.31,-0.43,15.4,-21.2,-6.5,35.78,,,,,,,,,,
13.09.05.555,244.6,61.2,0,,,68399.5,14.62,-0.18,0.54,-0.16,-30.5,-0.7,9.4,35.63,,,,,,,,,,
13.09.05.565,239.5,59.9,0,,,68399.5,14.62,-1.17,-0.04,-0.4,3.2,9.1,-10.2,35.75,,,,,,,,,,
13.09.05.576,110.5,27.6,0,,,68399.5,14.62,-0.32,0.04,-0.45,26.3,-11.2,-3.5,35.75,,,,,,,,,,
13.09.05.585,97.1,24.3,0,,,68399.5,14.62,-0.58,-0.42,-0.43,-3.4,0.6,21.3,35.53,,,,,,,,,,
13.09.05.595,-3.2,0.8,0,,,68399.5,14.62,-0.52,0.47,0.17,-11.2,27.0,-9.3,36.06,,,,,,,,,,
13.09.05.605,0.4,0.1,0,,,68399.5,14.62,-0.73,0.12,-0.6,-13.9,3.6,5.7,35.99,,,,,,,,,,
13.09.05.614,48.5,12.1,1,10.0,101.2,68399.5,14.62,-0.47,0.01,-0.84,-14.5,-8.7,-16.3,35.64,,,,,,,,,,
13.09.05.624,71.2,17.8,0,,,68399.5,14.62,-0.32,0.16,-0.2,-21.8,1.1,-1.1,35.97,,,,,,,,,,
13.09.05.634,45.0,11.2,0,,,68399.5,14.62,-0.75,-0.59,-0.89,-1.0,2.7,-27.3,36.02,,,,,,,,,,
13.09.05.643,91.1,22.8,0,,,68399.5,14.62,-0.5,-0.29,-0.09,-2.9,-0.9,-19.6,35.75,,,,,,,,,,
13.09.05.652,47.2,11.8,0,,,68399.5,14.62,-1.15,-0.05,-0.56,1.4,10.7,-6.3,35.81,,,,,,,,,,
13.09.05.660,79.9,20.0,0,,,68399.5,14.62,-0.81,-0.02,0.0,41.4,18.6,-29.8,35.92,,,,,,,,,,
13.09.05.671,55.2,13.8,0,,,68399.5,14.62,-0.68,0.1,-0.84,-21.4,-2.5,3.1,35.99,,,,,,,,,,
13.09.05.680,81.9,20.5,0,,,68399.5,14.62,-0.77,-0.4,0.0,5.7,6.2,-19.6,36.26,,,,,,,,,,
13.09.05.691,38.5,9.6,0,,,68399.5,14.62,-0.69,-0.65,-0.49,2.0,5.1,-9.5,35.97,,,,,,,,,,
13.09.05.698,69.5,17.4,0,,,68399.5,14.62,-0.6,-0.02,-0.18,20.3,4.8,-21.0,35.81,,,,,,,,,,
13.09.05.707,8.7,2.2,0,,,68399.5,14.62,-0.52,0.19,-0.47,20.2,31.5,12.6,35.63,,,,,,,,,,
13.09.05.719,-24.6,6.2,0,,,68399.5,14.62,-0.8,-0.49,-0.43,-3.7,1.3,18.4,35.81,,,,,,,,,,
13.09.05.730,-1.0,0.2,0,,,68399.5,14.62,-0.93,-0.3,-0.69,8.7,20.7,7.5,35.54,,,,,,,,,,
13.09.05.740,-12.0,3.0,0,,,68399.5,14.62,-1.08,0.07,-0.52,24.3,-10.5,24.0,35.77,,,,,,,,,,
13.09.05.748,11.1,2.8,0,,,68399.5,14.62,-0.8,-0.3,-0.22,-14.6,17.9,-21.0,36.09,,,,,,,,,,
13.09.05.758,-59.8,15.0,0,,,68399.5,14.62,-0.9,0.51,-0.26,-19.2,-1.3,-2.8,36.07,,,,,,,,,,
13.09.05.769,-58.8,14.7,0,,,68399.5,14.62,-0.78,0.3,-0.22,-7.1,7.7,-1.7,36.01,,,,,,,,,,
13.09.05.780,-2.7,0.7,0,,,68446.3,14.61,-0.54,0.22,-0.36,8.0,-3.6,-14.6,35.68,,,,,,,,,,
13.09.05.788,-37.5,9.4,0,,,68446.3,14.61,-0.83,-0.14,-0.43,23.6,11.6,2.8,36.23,,,,,,,,,,
13.09.05.800,-76.1,19.0,0,,,68446.3,14.61,-0.65,-0.09,0.1,17.2,29.1,-29.8,36.07,,,,,,,,,,
13.09.05.809,-19.6,4.9,0,,,68446.3,14.61,-0.73,0.51,0.27,7.5,-7.6,-1.5,35.54,,,,,,,,,,
13.09.05.819,-71.7,17.9,0,,,68446.3,14.61,-0.92,0.02,-0.58,-7.9,8.4,9.8,35.65,,,,,,,,,,
13.09.05.828,-51.4,12.8,0,,,68446.3,14.61,-0.85,0.06,0.07,1.6,10.2,11.4,35.72,,,,,,,,,,
13.09.05.837,-97.8,24.4,0,,,68446.3,14.61,-0.96,0.63,0.15,-32.1,-12.6,9.2,36.04,,,,,,,,,,
13.09.05.845,-64.0,16.0,0,,,68446.3,14.61,-0.59,-0.11,-0.24,-13.8,-22.2,1.6,35.87,,,,,,,,,,
13.09.05.856,-108.4,27.1,0,,,68446.3,14.61,-1.06,-0.08,0.12,17.6,17.2,14.2,35.82,,,,,,,,,,
13.09.05.865,-50.1,12.5,0,,,68446.3,14.61,-0.43,-0.2,0.07,-8.1,-5.6,-7.0,35.94,,,,,,,,,,
13.09.05.875,-76.7,19.2,0,,,68446.3,14.61,-0.88,-0.02,-0.0,-0.3,12.9,-13.6,35.76,,,,,,,,,,
13.09.05.884,-103.3,25.8,0,,,68446.3,14.61,-1.11,0.21,-0.01,17.9,-2.7,15.4,35.25,,,,,,,,,,
13.09.05.894,-108.3,27.1,0,,,68446.3,14.61,-0.86,0.21,0.16,19.5,4.2,34.0,35.84,,,,,,,,,,
13.09.05.903,-102.8,25.7,0,,,68446.3,14.61,-0.75,0.03,-0.33,8.5,-14.0,19.7,35.82,,,,,,,,,,
13.09.05.913,-106.1,26.5,0,,,68446.3,14.61,-0.84,0.79,-0.31,-11.0,16.9,-5.9,35.9,,,,,,,,,,
13.09.05.925,-103.5,25.9,0,,,68446.3,14.61,-1.01,0.67,-0.64,-33.7,7.4,-9.6,35.9,,,,,,,,,,
13.09.05.935,-150.8,37.7,0,,,68446.3,14.61,-0.77,0.18,-0.43,-9.8,37.5,-5.6,35.64,,,,,,,,,,
13.09.05.944,-148.5,37.1,0,,,68446.3,14.61,-0.7,-0.04,-0.33,-48.9,6.3,15.8,35.58,,,,,,,,,,
13.09.05.954,-130.9,32.7,0,,,68446.3,14.61,-0.9,0.24,-0.12,-32.8,-7.2,-0.5,36.02,,,,,,,,,,
13.09.05.962,-178.1,44.5,0,,,68446.3,14.61,-0.47,0.6,-0.87,13.3,-18.5,7.1,35.51,,,,,,,,,,
13.09.05.973,-144.0,36.0,0,,,68446.3,14.61,-0.44,0.7,-0.1,-4.2,-9.7,2.2,35.84,,,,,,,,,,
13.09.05.982,-141.5,35.4,0,,,68446.3,14.61,-0.83,0.38,-0.61,43.0,-1.7,11.1,35.52,,,,,,,,,,
13.09.05.994,24.8,6.2,0,,,68446.3,14.61,-1.05,0.32,-0.78,-23.4,-0.5,-5.8,35.61,,,,,,,,,,
13.09.06.003,120.4,30.1,0,,,68446.3,14.61,-0.42,0.3,-0.58,-13.5,23.2,-14.5,35.7,,,,,,,,,,
13.09.06.014,159.0,39.8,0,,,68446.3,14.61,-0.62,0.1,-0.57,-5.0,-12.8,-0.7,35.6,,,,,,,,,,
13.09.06.026,244.1,61.0,0,,,68446.3,14.61,-0.65,-0.09,-0.84,13.5,1.2,-19.3,35.84,,,,,,,,,,
13.09.06.037,304.0,76.0,0,,,68446.3,14.61,-0.76,-0.08,-0.84,33.4,-19.7,14.7,35.72,,,,,,,,,,
13.09.06.048,334.3,83.6,0,,,68446.3,14.61,-0.63,0.16,-0.53,24.4,-3.0,3.3,35.89,,,,,,,,,,
13.09.06.058,373.2,93.3,0,,,68446.3,14.61,-0.91,0.06,-0.3,-23.7,14.6,5.5,35.76,,,,,,,,,,
13.09.06.068,393.9,98.5,0,,,68446.3,14.61,-0.73,0.63,-0.45,-21.8,5.5,31.4,36.17,,,,,,,,,,
13.09.06.079,404.3,101.1,0,,,68446.3,14.61,-1.33,0.76,-0.38,-9.0,7.1,1.0,35.73,,,,,,,,,,
13.09.06.089,427.1,106.8,0,,,68446.3,14.61,-0.82,0.2,-0.6,-15.4,7.3,10.9,35.6,,,,,,,,,,
13.09.06.099,418.3,104.6,0,,,68446.3,14.61,-0.59,0.31,-0.15,11.7,2.5,-20.7,35.76,,,,,,,,,,
13.09.06.110,404.8,101.2,0,,,68446.3,14.61,-0.61,-0.1,-0.67,-25.6,1.0,23.7,35.88,,,,,,,,,,
13.09.06.118,397.4,99.4,0,,,68446.3,14.61,-0.73,-0.22,-0.71,-1.7,16.8,-30.3,35.66,,,,,,,,,,
13.09.06.128,355.9,89.0,0,,,68446.3,14.61,-0.76,0.11,-0.04,-21.6,-5.9,2.3,36.07,,,,,,,,,,
13.09.06.139,318.9,79.7,0,,,68446.3,14.61,-0.86,0.49,0.16,-18.5,14.5,-9.7,35.73,,,,,,,,,,
13.09.06.149,272.7,68.2,0,,,68446.3,14.61,-0.49,0.62,-0.46,14.3,10.9,15.4,36.29,,,,,,,,,,
13.09.06.160,212.0,53.0,0,,,68446.3,14.61,-0.67,0.09,-0.04,8.6,16.1,4.7,35.76,,,,,,,,,,
13.09.06.169,139.0,34.8,0,,,68446.3,14.61,-0.46,0.07,0.03,-7.1,29.5,-8.1,36.05,,,,,,,,,,
13.09.06.179,139.8,35.0,0,,,68446.3,14.61,-0.71,0.45,0.03,21.8,-5.0,2.5,35.76,,,,,,,,,,
13.09.06.186,55.6,13.9,1,11.0,104.9,68446.3,14.61,-0.31,-0.17,-0.14,-6.5,14.8,-0.8,35.84,,,,,,,,,,
13.09.06.196,8.8,2.2,0,,,68446.3,14.61,-0.55,0.18,-0.15,4.4,13.4,2.9,35.62,,,,,,,,,,
13.09.06.206,8.8,2.2,0,,,68446.3,14.61,-0.44,0.04,-0.12,-19.7,8.9,3.6,35.92,,,,,,,,,,
13.09.06.214,38.4,9.6,0,,,68446.3,14.61,-0.66,0.06,0.45,-13.8,16.5,-11.7,35.72,,,,,,,,,,
13.09.06.223,60.3,15.1,0,,,68446.3,14.61,-0.84,0.03,0.13,13.4,18.4,-14.1,35.86,,,,,,,,,,
13.09.06.233,74.0,18.5,0,,,68446.3,14.61,-0.57,0.46,-0.2,-15.2,12.7,-11.0,36.01,,,,,,,,,,
13.09.06.243,67.2,16.8,0,,,68446.3,14.61,-0.65,0.34,-0.83,-4.0,16.8,0.9,35.36,,,,,,,,,,
13.09.06.252,85.0,21.2,0,,,68446.3,14.61,-0.32,0.41,-0.35,-31.5,2.4,2.5,35.53,,,,,,,,,,
13.09.06.261,67.6,16.9,0,,,68446.3,14.61,-0.64,-0.24,-0.11,-5.0,18.9,-7.2,35.74,,,,,,,,,,
13.09.06.271,73.8,18.4,0,,,68446.3,14.61,-0.96,0.27,0.26,-18.8,4.7,0.7,35.91,,,,,,,,,,
13.09.06.280,74.1,18.5,0,,,68446.3,14.61,-0.55,0.43,-0.43,27.9,-23.6,9.2,35.61,,,,,,,,,,
13.09.06.289,71.1,17.8,0,,,68446.3,14.61,-0.49,-0.13,-0.23,29.5,11.1,2.3,35.81,,,,,,,,,,
13.09.06.300,53.5,13.4,0,,,68493.2,14.6,-0.57,0.4,-0.27,2.7,-10.0,0.7,35.87,,,,,,,,,,
13.09.06.311,25.6,6.4,0,,,68493.2,14.6,-0.65,0.52,-0.3,14.9,-8.8,7.8,35.85,,,,,,,,,,
13.09.06.321,-14.4,3.6,0,,,68493.2,14.6,-0.84,0.29,-0.53,1.3,-1.0,6.7,35.46,,,,,,,,,,
13.09.06.329,30.3,7.6,0,,,68493.2,14.6,-0.45,-0.19,-0.13,13.7,4.9,-21.1,35.64,,,,,,,,,,
13.09.06.337,-28.8,7.2,0,,,68493.2,14.6,-0.54,0.05,-0.19,35.5,-2.6,6.6,35.5,,,,,,,,,,
13.09.06.349,-20.9,5.2,0,,,68493.2,14.6,-0.77,0.14,-0.23,-10.3,7.0,6.1,35.92,,,,,,,,,,
13.09.06.358,-37.1,9.3,0,,,68493.2,14.6,-0.67,0.09,-0.82,9.7,24.6,7.2,35.75,,,,,,,,,,
13.09.06.366,-24.5,6.1,0,,,68493.2,14.6,-0.73,-0.05,-0.13,-52.6,9.0,-13.7,35.72,,,,,,,,,,
13.09.06.374,-65.8,16.4,0,,,68493.2,14.6,-0.73,-0.03,-0.18,30.4,-7.9,-15.7,35.74,,,,,,,,,,
13.09.06.381,-34.6,8.6,0,,,68493.2,14.6,-0.7,-0.02,-0.54,4.2,13.7,-1.8,35.91,,,,,,,,,,
13.09.06.391,-40.3,10.1,0,,,68493.2,14.6,-0.39,0.15,-0.61,-16.7,-7.0,2.7,35.9,,,,,,,,,,
13.09.06.401,-21.7,5.4,0,,,68493.2,14.6,-0.32,-0.18,-0.57,-12.7,0.7,11.2,35.66,,,,,,,,,,
13.09.06.410,-48.3,12.1,0,,,68493.2,14.6,-0.36,-0.04,-0.39,-2.6,13.0,-16.6,36.02,,,,,,,,,,
13.09.06.421,-60.7,15.2,0,,,68493.2,14.6,-0.65,0.26,-0.41,4.3,11.8,-4.7,35.78,,,,,,,,,,
13.09.06.431,-73.6,18.4,0,,,68493.2,14.6,-0.53,-0.32,0.04,14.3,-1.1,11.1,35.88,,,,,,,,,,
13.09.06.441,-78.8,19.7,0,,,68493.2,14.6,-0.62,-0.09,-0.43,-21.5,-10.7,3.4,35.96,,,,,,,,,,
13.09.06.451,-73.3,18.3,0,,,68493.2,14.6,-0.58,-0.5,0.13,-17.3,2.4,-3.4,36.04,,,,,,,,,,
13.09.06.460,-85.9,21.5,0,,,68493.2,14.6,-0.44,0.34,-0.4,-19.7,-6.3,-10.6,35.48,,,,,,,,,,
13.09.06.471,-96.4,24.1,0,,,68493.2,14.6,-0.98,-0.4,-0.39,10.5,-6.7,16.6,35.85,,,,,,,,,,
13.09.06.483,-95.0,23.8,0,,,68493.2,14.6,-0.45,0.06,-0.55,-13.1,-11.4,-1.0,35.54,,,,,,,,,,
13.09.06.494,-90.4,22.6,0,,,68493.2,14.6,-0.73,-0.22,-0.34,-19.8,-2.2,-4.5,35.54,,,,,,,,,,
13.09.06.503,-131.4,32.8,0,,,68493.2,14.6,-1.06,0.06,-0.57,22.8,20.0,15.3,35.83,,,,,,,,,,
13.09.06.513,-153.5,38.4,0,,,68493.2,14.6,-0.36,0.23,-0.13,-5.9,-4.1,9.0,35.87,,,,,,,,,,
13.09.06.523,-116.7,29.2,0,,,68493.2,14.6,-0.62,-0.07,-0.35,-7.0,12.6,-1.5,35.66,,,,,,,,,,
13.09.06.533,-129.7,32.4,0,,,68493.2,14.6,-1.09,-0.07,-0.45,15.5,-3.7,-16.7,35.99,,,,,,,,,,
13.09.06.542,-133.4,33.4,0,,,68493.2,14.6,-0.43,-0.09,-0.15,-2.8,23.6,-4.0,35.93,,,,,,,,,,
13.09.06.552,-157.8,39.4,0,,,68493.2,14.6,-0.84,-0.25,-0.56,19.4,35.9,9.4,35.79,,,,,,,,,,
13.09.06.562,-134.6,33.6,0,,,68493.2,14.6,-0.74,-0.03,-0.89,17.1,0.2,-21.8,35.49,,,,,,,,,,
13.09.06.570,-120.4,30.1,0,,,68493.2,14.6,-0.27,-0.3,-0.02,7.5,32.7,-0.8,35.96,,,,,,,,,,
13.09.06.581,-163.6,40.9,0,,,68493.2,14.6,-0.56,0.18,-0.72,-1.3,28.2,0.1,35.84,,,,,,,,,,
13.09.06.590,10.3,2.6,0,,,68493.2,14.6,-0.73,-0.39,-0.56,21.8,0.7,-10.5,35.62,,,,,,,,,,
13.09.06.600,91.5,22.9,0,,,68493.2,14.6,-0.85,-0.16,-0.43,-4.7,11.5,13.6,35.9,,,,,,,,,,
13.09.06.611,121.5,30.4,0,,,68493.2,14.6,-0.56,0.21,-0.3,48.0,5.0,-3.7,35.92,,,,,,,,,,
13.09.06.621,203.8,51.0,0,,,68493.2,14.6,-0.35,0.05,-0.22,-3.4,16.8,-10.4,35.72,,,,,,,,,,
13.09.06.630,215.9,54.0,0,,,68493.2,14.6,-0.47,-0.29,-0.02,-22.1,2.7,27.5,36.05,,,,,,,,,,
13.09.06.641,300.7,75.2,0,,,68493.2,14.6,-0.5,-0.08,-0.18,-25.1,-11.4,6.0,36.04,,,,,,,,,,
13.09.06.649,341.6,85.4,0,,,68493.2,14.6,-0.62,-0.18,-0.5,20.0,-27.9,-32.0,35.5,,,,,,,,,,
13.09.06.659,331.6,82.9,0,,,68493.2,14.6,-0.65,0.28,-0.12,0.7,19.0,-22.2,35.54,,,,,,,,,,
13.09.06.669,368.5,92.1,0,,,68493.2,14.6,-0.44,0.15,-0.37,29.4,10.3,-27.6,35.71,,,,,,,,,,
13.09.06.680,419.4,104.8,0,,,68493.2,14.6,-0.65,-0.19,0.24,-8.3,32.4,5.0,35.6,,,,,,,,,,
13.09.06.690,389.0,97.2,0,,,68493.2,14.6,-1.07,-0.07,-0.31,-38.1,-20.5,3.6,36.09,,,,,,,,,,
13.09.06.698,474.5,118.6,0,,,68493.2,14.6,-0.75,0.16,-0.1,12.1,-2.7,-11.7,35.83,,,,,,,,,,
13.09.06.707,425.8,106.4,0,,,68493.2,14.6,-0.71,-0.11,-0.13,-4.5,4.8,1.4,35.39,,,,,,,,,,
13.09.06.714,392.3,98.1,0,,,68493.2,14.6,-0.54,0.27,-0.49,6.3,-4.1,13.3,35.68,,,,,,,,,,
13.09.06.724,374.1,93.5,0,,,68493.2,14.6,-1.01,-0.22,-0.35,46.5,10.7,17.3,35.63,,,,,,,,,,
13.09.06.734,315.4,78.8,0,,,68493.2,14.6,-1.11,-0.05,-0.31,-4.5,20.5,15.2,35.89,,,,,,,,,,
13.09.06.742,269.9,67.5,1,12.0,107.9,68540.1,14.59,-0.76,-0.19,-0.13,8.0,-7.0,-7.4,35.78,,,,,,,,,,
13.09.06.751,243.8,61.0,0,,,68540.1,14.59,-0.7,-0.31,-0.07,-29.5,37.1,-1.1,35.8,,,,,,,,,,
13.09.06.761,246.1,61.5,0,,,68540.1,14.59,-0.79,-0.18,-0.1,-23.9,-4.6,-11.3,35.67,,,,,,,,,,
13.09.06.769,143.1,35.8,0,,,68540.1,14.59,-0.84,0.27,0.15,4.6,25.7,-12.7,35.71,,,,,,,,,,
13.09.06.782,88.4,22.1,0,,,68540.1,14.59,-1.03,-0.22,-0.23,-7.9,3.1,22.1,35.68,,,,,,,,,,
13.09.06.791,40.5,10.1,0,,,68540.1,14.59,-1.1,0.54,0.03,18.7,5.8,-3.6,35.43,,,,,,,,,,
13.09.06.801,32.5,8.1,0,,,68540.1,14.59,-0.61,-0.08,-0.16,33.7,0.9,10.0,35.96,,,,,,,,,,
13.09.06.812,27.0,6.8,0,,,68540.1,14.59,-0.75,0.29,-0.23,-2.0,-18.3,0.2,36.05,,,,,,,,,,
13.09.06.821,60.8,15.2,0,,,68540.1,14.59,-1.0,0.25,-0.35,-21.3,11.4,0.8,35.79,,,,,,,,,,
13.09.06.829,83.3,20.8,0,,,68540.1,14.59,-0.9,-0.24,-0.76,19.5,5.6,-8.0,36.09,,,,,,,,,,
13.09.06.837,34.1,8.5,0,,,68540.1,14.59,-0.89,-0.28,-0.13,-14.2,12.5,6.6,35.5,,,,,,,,,,
13.09.06.849,65.2,16.3,0,,,68540.1,14.59,-1.29,0.14,-0.38,-1.9,2.3,4.5,35.87,,,,,,,,,,
13.09.06.859,90.1,22.5,0,,,68540.1,14.59,-0.71,-0.2,-0.6,44.1,32.5,-11.4,35.84,,,,,,,,,,
13.09.06.870,65.3,16.3,0,,,68540.1,14.59,-0.95,-0.13,-0.26,-4.2,7.6,-1.5,35.9,,,,,,,,,,
13.09.06.879,44.6,11.2,0,,,68540.1,14.59,-0.46,0.28,-0.38,-17.7,15.8,-3.9,35.55,,,,,,,,,,
13.09.06.889,11.8,3.0,0,,,68540.1,14.59,-0.94,0.1,-0.62,-45.5,28.1,1.7,35.2,,,,,,,,,,
13.09.06.899,35.4,8.8,0,,,68540.1,14.59,-0.84,-0.11,-0.27,-10.9,-5.4,-12.3,35.63,,,,,,,,,,
13.09.06.908,-2.2,0.6,0,,,68540.1,14.59,-0.67,0.18,-0.34,-8.3,14.7,-10.4,35.83,,,,,,,,,,
13.09.06.917,-24.1,6.0,0,,,68540.1,14.59,-0.61,0.49,-1.07,22.9,6.9,-9.1,35.93,,,,,,,,,,
13.09.06.928,4.7,1.2,0,,,68540.1,14.59,-0.98,0.79,-0.73,37.9,12.1,-3.7,35.65,,,,,,,,,,
13.09.06.937,-22.2,5.6,0,,,68540.1,14.59,-1.08,0.35,-0.82,-25.0,-28.1,5.7,35.65,,,,,,,,,,
13.09.06.945,-28.5,7.1,0,,,68540.1,14.59,-0.98,-0.0,-0.67,4.1,9.4,-11.3,35.64,,,,,,,,,,
13.09.06.956,-23.0,5.8,0,,,68540.1,14.59,-0.57,0.66,-0.14,-43.7,-3.1,8.1,35.71,,,,,,,,,,
13.09.06.966,-2.7,0.7,0,,,68540.1,14.59,-0.55,0.54,-0.75,-3.9,17.5,15.9,35.94,,,,,,,,,,
13.09.06.977,-3.8,1.0,0,,,68540.1,14.59,-0.39,0.18,-0.34,10.6,20.7,5.1,35.83,,,,,,,,,,
13.09.06.988,-41.6,10.4,0,,,68540.1,14.59,-0.72,-0.07,-0.28,11.5,27.6,2.1,35.4,,,,,,,,,,
13.09.06.998,-61.6,15.4,0,,,68540.1,14.59,-0.84,-0.26,-0.59,31.5,7.8,5.6,35.69,,,,,,,,,,
13.09.07.007,-90.1,22.5,0,,,68540.1,14.59,-0.22,0.69,-0.38,21.0,24.9,-10.5,36.17,,,,,,,,,,
13.09.07.017,-48.4,12.1,0,,,68540.1,14.59,-1.09,0.63,-0.28,-15.6,14.6,-17.7,35.87,,,,,,,,,,
13.09.07.026,-87.1,21.8,0,,,68540.1,14.59,-0.93,0.17,-0.83,4.5,0.5,-23.6,35.83,,,,,,,,,,
13.09.07.037,-70.5,17.6,0,,,68540.1,14.59,-0.59,0.41,-0.6,2.4,14.3,-23.3,35.8,,,,,,,,,,
13.09.07.047,-86.3,21.6,0,,,68540.1,14.59,-0.65,0.35,0.04,4.5,16.7,-7.4,35.92,,,,,,,,,,
13.09.07.057,-92.8,23.2,0,,,68540.1,14.59,-0.79,0.39,0.0,13.5,-3.9,-2.1,35.81,,,,,,,,,,
13.09.07.069,-110.9,27.7,0,,,68540.1,14.59,-0.65,0.28,-0.21,-7.6,-0.5,-0.6,36.02,,,,,,,,,,
13.09.07.081,-127.7,31.9,0,,,68540.1,14.59,-0.75,0.94,-0.47,4.9,-26.2,-8.8,35.85,,,,,,,,,,
13.09.07.092,-133.8,33.4,0,,,68540.1,14.59,-0.96,0.58,-0.82,28.6,-3.7,4.9,35.8,,,,,,,,,,
13.09.07.101,-120.3,30.1,0,,,68540.1,14.59,-0.73,0.53,-0.2,-9.4,6.1,11.0,35.27,,,,,,,,,,
13.09.07.110,-109.5,27.4,0,,,68540.1,14.59,-0.72,0.56,-0.08,-36.8,17.3,7.6,35.88,,,,,,,,,,
13.09.07.120,-133.0,33.2,0,,,68540.1,14.59,-0.39,0.18,-0.01,-12.1,5.3,-10.6,36.06,,,,,,,,,,
13.09.07.129,-123.5,30.9,0,,,68540.1,14.59,-0.61,0.32,-0.03,-1.4,18.6,-3.4,35.52,,,,,,,,,,
13.09.07.140,-111.6,27.9,0,,,68540.1,14.59,-0.63,0.67,-0.16,-3.4,17.3,5.2,35.88,,,,,,,,,,
13.09.07.148,-144.8,36.2,0,,,68540.1,14.59,-0.51,0.24,-0.46,-16.5,29.5,-3.3,35.66,,,,,,,,,,
13.09.07.158,-133.9,33.5,0,,,68540.1,14.59,-0.79,0.08,0.13,-2.5,23.0,-24.6,36.03,,,,,,,,,,
13.09.07.165,-200.4,50.1,0,,,68540.1,14.59,-0.62,0.09,-0.05,-6.3,-13.3,-7.8,35.91,,,,,,,,,,
13.09.07.176,-158.9,39.7,0,,,68540.1,14.59,-0.58,0.54,0.16,-9.9,2.4,4.0,35.73,,,,,,,,,,
13.09.07.185,33.8,8.4,0,,,68540.1,14.59,-0.64,0.13,0.18,-7.3,-7.8,-14.8,35.91,,,,,,,,,,
13.09.07.193,32.8,8.2,0,,,68540.1,14.59,-0.48,0.01,0.16,-19.8,4.8,-6.2,35.77,,,,,,,,,,
13.09.07.202,117.2,29.3,0,,,68540.1,14.59,-0.35,0.07,-0.51,2.8,21.6,-14.5,35.9,,,,,,,,,,
13.09.07.212,177.4,44.4,0,,,68540.1,14.59,-0.78,0.72,0.14,-38.5,-1.2,-5.3,36.03,,,,,,,,,,
13.09.07.223,224.2,56.0,0,,,68540.1,14.59,-0.75,0.2,-0.79,25.7,-8.2,-26.2,36.22,,,,,,,,,,
13.09.07.232,246.7,61.7,0,,,68540.1,14.59,-0.26,-0.05,-0.44,-16.8,3.8,7.4,35.87,,,,,,,,,,
13.09.07.244,331.4,82.8,0,,,68540.1,14.59,-1.04,0.03,-0.59,17.0,5.8,-6.4,35.95,,,,,,,,,,
13.09.07.255,340.2,85.0,0,,,68540.1,14.59,-0.75,0.14,-0.44,9.4,40.7,-36.9,35.31,,,,,,,,,,
13.09.07.264,356.5,89.1,0,,,68540.1,14.59,-0.4,-0.31,-0.58,11.0,-0.1,2.5,35.76,,,,,,,,,,
13.09.07.273,445.5,111.4,0,,,68540.1,14.59,-0.84,0.22,-0.31,18.9,-0.7,10.1,35.93,,,,,,,,,,
13.09.07.282,434.6,108.6,0,,,68540.1,14.59,-0.35,-0.04,-0.23,7.5,19.7,17.1,35.85,,,,,,,,,,
13.09.07.292,417.3,104.3,0,,,68540.1,14.59,-0.32,0.63,-0.34,-30.7,32.0,0.5,35.96,,,,,,,,,,
13.09.07.301,414.9,103.7,1,13.0,107.3,68540.1,14.59,-0.55,-0.23,-0.03,-4.5,9.3,-0.4,35.97,,,,,,,,,,
13.09.07.310,414.8,103.7,0,,,68540.1,14.59,-0.41,-0.53,-0.26,0.4,23.3,9.0,35.95,,,,,,,,,,
13.09.07.319,309.6,77.4,0,,,68540.1,14.59,-0.7,0.07,-0.77,6.7,12.2,10.2,35.27,,,,,,,,,,
13.09.07.329,330.0,82.5,0,,,68540.1,14.59,-0.24,-0.39,-0.52,-1.4,21.6,3.5,36.02,,,,,,,,,,
13.09.07.342,299.9,75.0,0,,,68540.1,14.59,-0.63,-0.28,-0.22,2.3,24.6,13.6,35.64,,,,,,,,,,
13.09.07.348,224.8,56.2,0,,,68540.1,14.59,-0.69,-0.4,-1.12,-4.1,21.4,-33.0,35.73,,,,,,,,,,
13.09.07.356,203.1,50.8,0,,,68540.1,14.59,-0.58,0.21,-0.98,-1.9,41.0,-5.4,35.67,,,,,,,,,,
13.09.07.364,134.7,33.7,0,,,68540.1,14.59,-0.95,0.31,-0.15,-11.5,-11.3,-20.0,35.64,,,,,,,,,,
13.09.07.374,123.1,30.8,0,,,68540.1,14.59,-0.9,-0.17,-0.64,-27.2,7.8,-15.1,35.71,,,,,,,,,,
13.09.07.382,67.8,17.0,0,,,68540.1,14.59,-0.52,-0.12,-0.6,-14.9,6.9,-11.3,36.03,,,,,,,,,,
13.09.07.390,21.7,5.4,0,,,68540.1,14.59,-0.28,0.4,-0.98,31.0,-5.8,11.7,36.0,,,,,,,,,,
13.09.07.397,21.0,5.2,0,,,68540.1,14.59,-0.57,-0.13,-0.1,16.8,-10.8,-20.1,35.84,,,,,,,,,,
13.09.07.407,68.3,17.1,0,,,68540.1,14.59,-0.84,-0.15,-0.63,-20.8,12.7,2.5,35.8,,,,,,,,,,
13.09.07.414,33.6,8.4,0,,,68540.1,14.59,-0.85,0.22,-0.32,27.2,8.1,7.4,35.85,,,,,,,,,,
13.09.07.423,62.2,15.6,0,,,68540.1,14.59,-0.51,0.14,-0.06,19.7,-4.2,-16.5,35.93,,,,,,,,,,
13.09.07.435,67.4,16.8,0,,,68540.1,14.59,-0.61,-0.13,0.01,3.8,19.1,-16.1,35.8,,,,,,,,,,
13.09.07.445,54.8,13.7,0,,,68540.1,14.59,-0.76,-0.02,-0.4,33.4,4.6,10.4,35.72,,,,,,,,,,
13.09.07.454,74.8,18.7,0,,,68540.1,14.59,-0.79,-0.41,-0.61,-28.0,-3.6,4.3,36.07,,,,,,,,,,
13.09.07.463,41.8,10.4,0,,,68540.1,14.59,-0.33,-0.74,0.22,3.4,-14.8,18.7,35.42,,,,,,,,,,
13.09.07.473,52.6,13.2,0,,,68540.1,14.59,-0.58,-0.2,-0.21,-15.4,-0.0,15.1,35.61,,,,,,,,,,
13.09.07.484,41.2,10.3,0,,,68540.1,14.59,-0.54,-0.06,-0.61,-2.8,0.8,28.6,35.83,,,,,,,,,,
13.09.07.495,25.3,6.3,0,,,68540.1,14.59,-0.78,-0.33,-0.04,-24.9,-9.8,-10.1,35.54,,,,,,,,,,
13.09.07.508,14.7,3.7,0,,,68540.1,14.59,-0.61,0.0,-0.26,-14.8,-3.0,-18.3,35.87,,,,,,,,,,
13.09.07.518,1.6,0.4,0,,,68540.1,14.59,-0.94,-0.26,-0.24,19.5,18.8,3.0,35.96,,,,,,,,,,
13.09.07.526,-35.6,8.9,0,,,68540.1,14.59,-0.83,-0.16,-0.04,-8.2,21.2,-27.0,36.02,,,,,,,,,,
13.09.07.537,-33.3,8.3,0,,,68540.1,14.59,-0.8,-0.49,-0.27,8.2,-25.0,13.5,35.88,,,,,,,,,,
13.09.07.546,8.2,2.0,0,,,68540.1,14.59,-0.53,-0.33,0.17,10.3,-8.9,10.3,35.72,,,,,,,,,,
13.09.07.556,-43.5,10.9,0,,,68540.1,14.59,-0.79,0.24,0.15,-20.5,0.3,-13.9,35.81,,,,,,,,,,
13.09.07.565,-23.5,5.9,0,,,68540.1,14.59,-1.13,-0.66,-0.43,-16.9,-11.7,-17.5,35.86,,,,,,,,,,
13.09.07.576,-33.4,8.4,0,,,68540.1,14.59,-1.05,-0.06,-0.13,7.6,33.2,-20.8,35.83,,,,,,,,,,
13.09.07.582,-47.3,11.8,0,,,68540.1,14.59,-0.61,0.13,-0.39,-34.7,-12.6,-25.5,35.44,,,,,,,,,,
13.09.07.591,-57.0,14.2,0,,,68540.1,14.59,-0.73,-0.49,0.17,-14.6,2.0,22.3,36.11,,,,,,,,,,
13.09.07.601,-40.5,10.1,0,,,68540.1,14.59,-1.03,0.47,-0.0,-8.8,8.1,-14.8,35.56,,,,,,,,,,
13.09.07.607,-76.1,19.0,0,,,68540.1,14.59,-0.62,0.54,0.01,-28.1,25.7,8.8,35.89,,,,,,,,,,
13.09.07.616,-51.4,12.8,0,,,68540.1,14.59,-0.64,-0.15,0.62,-19.2,-12.6,-13.2,35.61,,,,,,,,,,
13.09.07.627,-84.0,21.0,0,,,68540.1,14.59,-0.55,0.24,-0.1,-29.8,-3.0,1.3,35.67,,,,,,,,,,
13.09.07.634,-48.3,12.1,0,,,68540.1,14.59,-0.75,0.56,-0.29,7.6,3.3,-7.7,35.53,,,,,,,,,,
13.09.07.644,-57.8,14.4,0,,,68540.1,14.59,-0.91,0.02,-0.52,33.8,0.5,-1.3,35.81,,,,,,,,,,
13.09.07.652,-100.5,25.1,0,,,68540.1,14.59,-0.58,0.0,-0.24,-9.1,1.6,4.7,35.78,,,,,,,,,,
13.09.07.663,-96.9,24.2,0,,,68540.1,14.59,-0.99,-0.37,-0.39,-3.3,-0.4,-26.8,35.95,,,,,,,,,,
13.09.07.675,-88.3,22.1,0,,,68540.1,14.59,-0.52,0.01,-0.64,-11.0,-5.5,-9.5,35.46,,,,,,,,,,
13.09.07.684,-85.5,21.4,0,,,68540.1,14.59,-0.73,0.08,-0.16,19.4,9.2,-7.2,36.17,,,,,,,,,,
13.09.07.694,-84.6,21.2,0,,,68540.1,14.59,-0.69,0.3,-0.17,3.8,25.5,27.8,35.82,,,,,,,,,,
13.09.07.706,-106.6,26.6,0,,,68540.1,14.59,-0.51,-0.01,0.24,4.3,12.5,-1.7,36.08,,,,,,,,,,
13.09.07.715,-133.1,33.3,0,,,68540.1,14.59,-1.27,0.3,-0.62,7.3,14.7,-11.2,35.98,,,,,,,,,,
13.09.07.724,-126.5,31.6,0,,,68540.1,14.59,-0.83,0.38,-0.27,3.7,25.5,-3.1,36.19,,,,,,,,,,
13.09.07.733,-118.9,29.7,0,,,68540.1,14.59,-0.65,-0.32,-0.17,23.6,9.0,6.6,36.07,,,,,,,,,,
13.09.07.743,-125.8,31.4,0,,,68540.1,14.59,-0.81,-0.1,-0.23,23.4,31.9,12.8,35.52,,,,,,,,,,
13.09.07.753,-125.8,31.4,0,,,68540.1,14.59,-1.09,0.18,-0.43,2.3,-2.4,-7.4,36.24,,,,,,,,,,
13.09.07.763,-164.4,41.1,0,,,68540.1,14.59,-0.52,-0.22,-0.36,-29.1,9.0,-5.8,35.87,,,,,,,,,,
13.09.07.773,-140.7,35.2,0,,,68540.1,14.59,-0.62,-0.26,-0.21,-5.9,1.0,-20.1,35.58,,,,,,,,,,
13.09.07.785,27.5,6.9,0,,,68540.1,14.59,-0.82,0.08,-0.39,-13.6,14.9,38.7,35.57,,,,,,,,,,
13.09.07.794,81.1,20.3,0,,,68540.1,14.59,-0.84,-0.03,-0.58,15.5,-7.7,3.8,36.06,,,,,,,,,,
13.09.07.803,105.1,26.3,0,,,68540.1,14.59,-0.61,0.05,-0.31,26.3,10.4,-11.2,35.85,,,,,,,,,,
13.09.07.815,221.5,55.4,0,,,68540.1,14.59,-0.79,0.02,-0.47,-21.7,17.0,-12.9,35.63,,,,,,,,,,
13.09.07.826,247.4,61.8,0,,,68540.1,14.59,-0.88,-0.08,-0.1,44.9,-2.1,15.2,35.88,,,,,,,,,,
13.09.07.835,303.4,75.8,0,,,68540.1,14.59,-0.85,0.2,-0.13,16.1,19.3,13.7,36.08,,,,,,,,,,
13.09.07.844,337.7,84.4,0,,,68540.1,14.59,-1.18,0.59,-0.26,-2.2,6.8,-11.4,35.93,,,,,,,,,,
13.09.07.854,330.6,82.6,0,,,68540.1,14.59,-0.82,0.73,-0.67,-24.9,17.9,-4.0,35.88,,,,,,,,,,
13.09.07.863,384.4,96.1,0,,,68540.1,14.59,-0.7,0.19,-0.23,5.5,17.2,-5.8,35.81,,,,,,,,,,
13.09.07.873,447.0,111.8,0,,,68540.1,14.59,-0.74,-0.21,-0.22,3.0,9.3,25.1,36.19,,,,,,,,,,
13.09.07.881,425.4,106.4,0,,,68540.1,14.59,-0.49,-0.12,-0.63,18.6,4.4,-25.5,35.78,,,,,,,,,,
13.09.07.890,405.6,101.4,0,,,68540.1,14.59,-0.75,0.32,-0.32,-4.1,32.8,-2.6,35.66,,,,,,,,,,
13.09.07.900,422.8,105.7,1,14.0,100.2,68540.1,14.59,-0.69,0.07,-0.16,-8.5,-8.5,1.2,35.82,,,,,,,,,,
13.09.07.910,352.7,88.2,0,,,68540.1,14.59,-0.75,0.77,-0.11,3.7,5.8,-13.3,35.79,,,,,,,,,,
13.09.07.919,338.6,84.6,0,,,68540.1,14.59,-0.62,0.41,-0.18,-0.4,41.1,7.6,36.18,,,,,,,,,,
13.09.07.928,319.1,79.8,0,,,68540.1,14.59,-0.76,0.31,-0.56,5.6,-0.7,-18.4,36.07,,,,,,,,,,
13.09.07.938,268.4,67.1,0,,,68540.1,14.59,-1.12,0.99,-0.51,-32.3,37.5,-10.7,35.89,,,,,,,,,,
13.09.07.948,246.0,61.5,0,,,68540.1,14.59,-0.75,0.36,-0.07,15.3,1.1,5.3,35.88,,,,,,,,,,
13.09.07.958,148.6,37.2,0,,,68540.1,14.59,-0.71,0.47,-0.33,18.1,17.6,10.6,35.75,,,,,,,,,,
13.09.07.966,148.9,37.2,0,,,68540.1,14.59,-0.46,0.0,-0.17,7.6,-18.7,-0.5,35.59,,,,,,,,,,
13.09.07.976,83.1,20.8,0,,,68540.1,14.59,-0.47,0.4,-0.55,-41.2,13.2,5.6,35.89,,,,,,,,,,
13.09.07.987,-10.2,2.6,0,,,68540.1,14.59,-0.04,0.08,-0.19,17.9,6.0,-0.4,35.65,,,,,,,,,,
13.09.07.997,17.4,4.4,0,,,68540.1,14.59,-0.11,-0.09,-1.13,2.9,11.5,-0.3,35.76,,,,,,,,,,
13.09.08.004,59.9,15.0,0,,,68540.1,14.59,-0.7,0.07,-0.56,-29.3,9.1,-16.7,36.06,,,,,,,,,,
13.09.08.013,66.7,16.7,0,,,68540.1,14.59,-0.85,-0.44,-0.0,20.1,12.4,12.1,35.88,,,,,,,,,,
13.09.08.022,77.4,19.4,0,,,68540.1,14.59,-0.46,-0.81,-0.65,6.3,7.5,11.3,35.65,,,,,,,,,,
13.09.08.032,50.9,12.7,0,,,68540.1,14.59,-0.27,0.19,0.04,2.2,13.8,6.6,35.78,,,,,,,,,,
13.09.08.041,47.8,12.0,0,,,68540.1,14.59,-0.36,-0.28,-0.39,-7.7,2.4,3.0,35.78,,,,,,,,,,
13.09.08.051,81.5,20.4,0,,,68540.1,14.59,-0.71,0.23,-0.1,3.3,-21.1,-12.4,35.64,,,,,,,,,,
13.09.08.059,44.2,11.0,0,,,68540.1,14.59,-0.47,0.27,-0.52,6.2,12.4,5.1,36.06,,,,,,,,,,
13.09.08.068,83.8,21.0,0,,,68540.1,14.59,-0.89,-0.25,-0.07,37.7,1.8,20.8,35.55,,,,,,,,,,
13.09.08.078,63.5,15.9,0,,,68540.1,14.59,-0.52,0.6,-0.01,-10.6,14.9,-6.2,35.87,,,,,,,,,,
13.09.08.088,43.7,10.9,0,,,68540.1,14.59,-0.49,0.07,-0.46,17.5,1.8,-4.1,35.66,,,,,,,,,,
13.09.08.096,6.4,1.6,0,,,68540.1,14.59,-0.35,0.1,-0.33,-4.2,-6.9,-7.6,35.79,,,,,,,,,,
13.09.08.105,13.1,3.3,0,,,68540.1,14.59,-0.41,-0.01,-0.18,-2.6,-4.2,-3.5,35.59,,,,,,,,,,
13.09.08.115,7.0,1.8,0,,,68540.1,14.59,-0.34,0.07,-0.28,-5.8,-16.1,15.6,35.68,,,,,,,,,,
13.09.08.124,-22.9,5.7,0,,,68540.1,14.59,-0.5,0.23,-0.09,2.2,21.5,12.1,35.7,,,,,,,,,,
13.09.08.136,-21.3,5.3,0,,,68540.1,14.59,-0.49,-0.1,-0.55,12.1,11.0,-3.3,35.86,,,,,,,,,,
13.09.08.147,-47.9,12.0,0,,,68540.1,14.59,-0.12,-0.12,-0.26,13.5,2.6,7.5,35.74,,,,,,,,,,
13.09.08.156,-37.1,9.3,0,,,68587.1,14.58,-0.58,0.27,-0.43,31.3,14.3,-0.7,35.69,,,,,,,,,,
13.09.08.165,-53.0,13.2,0,,,68587.1,14.58,-0.06,-0.3,-0.4,12.4,6.6,0.4,35.81,,,,,,,,,,
13.09.08.174,-35.2,8.8,0,,,68587.1,14.58,-0.76,0.32,-0.8,13.5,-3.6,5.0,35.91,,,,,,,,,,
13.09.08.184,-44.2,11.0,0,,,68587.1,14.58,-0.82,0.16,-0.53,14.5,21.1,3.6,35.8,,,,,,,,,,
13.09.08.193,-99.0,24.8,0,,,68587.1,14.58,-0.94,0.1,-0.29,-27.9,21.7,12.2,35.66,,,,,,,,,,
13.09.08.203,-50.2,12.6,0,,,68587.1,14.58,-0.38,-0.18,0.12,-12.4,7.7,35.2,35.67,,,,,,,,,,
13.09.08.212,-45.3,11.3,0,,,68587.1,14.58,-0.2,0.34,-0.35,39.4,-8.7,-6.6,35.9,,,,,,,,,,
13.09.08.223,-65.6,16.4,0,,,68587.1,14.58,-1.11,0.2,-0.4,17.6,6.5,-12.6,35.98,,,,,,,,,,
13.09.08.232,-78.9,19.7,0,,,68587.1,14.58,-0.61,-0.44,-0.58,-12.7,16.8,8.9,35.89,,,,,,,,,,
13.09.08.240,-73.4,18.4,0,,,68587.1,14.58,-0.45,0.33,-0.18,-8.2,-16.1,13.6,35.7,,,,,,,,,,
13.09.08.250,-109.6,27.4,0,,,68587.1,14.58,-0.47,0.07,-0.87,20.0,14.5,-15.3,35.74,,,,,,,,,,
13.09.08.259,-83.7,20.9,0,,,68587.1,14.58,-0.48,-0.37,-0.77,11.7,-14.1,-7.3,35.68,,,,,,,,,,
13.09.08.270,-101.1,25.3,0,,,68587.1,14.58,-0.62,-0.37,-0.54,11.9,2.5,5.6,35.61,,,,,,,,,,
13.09.08.280,-83.9,21.0,0,,,68587.1,14.58,-0.54,0.06,-0.35,-12.1,-18.0,16.7,35.75,,,,,,,,,,
13.09.08.289,-113.8,28.4,0,,,68587.1,14.58,-0.15,-0.53,-0.46,-6.5,33.4,-0.6,36.07,,,,,,,,,,
13.09.08.299,-109.7,27.4,0,,,68587.1,14.58,-0.89,-0.44,-0.44,7.9,2.0,13.0,35.81,,,,,,,,,,
13.09.08.308,-124.6,31.2,0,,,68587.1,14.58,-0.61,-0.2,-0.11,-21.7,-6.2,-4.0,35.55,,,,,,,,,,
13.09.08.318,-115.6,28.9,0,,,68587.1,14.58,-0.67,-0.17,0.27,-9.4,20.8,-0.1,35.82,,,,,,,,,,
13.09.08.329,-143.5,35.9,0,,,68587.1,14.58,-0.85,-0.19,-0.39,-4.6,-5.4,19.7,35.67,,,,,,,,,,
13.09.08.338,-158.8,39.7,0,,,68587.1,14.58,-0.78,-0.27,0.01,-15.2,40.9,3.4,35.91,,,,,,,,,,
13.09.08.348,-166.9,41.7,0,,,68587.1,14.58,-1.29,-0.4,-0.3,-8.8,24.7,-13.8,35.87,,,,,,,,,,
13.09.08.357,-156.9,39.2,0,,,68587.1,14.58,-0.7,-0.23,0.09,2.9,7.5,11.0,35.56,,,,,,,,,,
13.09.08.366,-164.2,41.0,0,,,68587.1,14.58,-0.73,-0.2,-0.78,-26.8,14.7,-6.8,36.22,,,,,,,,,,
13.09.08.375,-175.1,43.8,0,,,68587.1,14.58,-0.64,-0.62,-0.53,14.3,-17.6,15.9,36.03,,,,,,,,,,
13.09.08.386,76.0,19.0,0,,,68587.1,14.58,-0.61,0.26,-0.13,-43.4,-14.3,-17.8,35.48,,,,,,,,,,
13.09.08.396,114.5,28.6,0,,,68587.1,14.58,-1.04,0.11,-0.49,10.6,1.6,-10.7,35.48,,,,,,,,,,
13.09.08.404,161.1,40.3,0,,,68587.1,14.58,-0.62,0.18,-0.19,-29.7,1.3,-3.3,35.81,,,,,,,,,,
13.09.08.415,212.5,53.1,0,,,68587.1,14.58,-0.79,-0.02,0.16,7.8,-6.7,-7.1,35.69,,,,,,,,,,
13.09.08.425,264.7,66.2,0,,,68587.1,14.58,-0.92,0.15,-0.15,10.8,17.2,5.2,36.08,,,,,,,,,,
13.09.08.434,346.1,86.5,0,,,68587.1,14.58,-0.72,-0.39,-0.21,-11.0,-1.8,-0.8,35.85,,,,,,,,,,
13.09.08.442,340.9,85.2,0,,,68587.1,14.58,-0.44,-0.46,-0.1,-28.6,8.7,1.2,35.84,,,,,,,,,,
13.09.08.452,374.6,93.6,0,,,68587.1,14.58,-1.43,0.45,-0.18,-11.9,17.2,0.5,35.89,,,,,,,,,,
13.09.08.461,446.1,111.5,0,,,68587.1,14.58,-0.99,0.2,-0.55,18.3,8.1,-2.1,35.83,,,,,,,,,,
13.09.08.469,399.6,99.9,0,,,68587.1,14.58,-0.87,0.01,0.12,-3.5,3.9,-21.6,35.71,,,,,,,,,,
13.09.08.479,412.0,103.0,1,15.0,103.6,68587.1,14.58,-0.96,0.14,-0.35,8.7,22.0,3.9,35.38,,,,,,,,,,
13.09.08.487,358.6,89.6,0,,,68587.1,14.58,-0.88,0.33,0.07,-18.1,-3.7,12.4,35.9,,,,,,,,,,
13.09.08.498,434.1,108.5,0,,,68587.1,14.58,-0.63,-0.22,-0.47,-15.0,3.4,10.1,36.0,,,,,,,,,,
13.09.08.510,352.8,88.2,0,,,68587.1,14.58,-0.85,-0.02,-0.25,-8.4,25.1,-9.3,35.42,,,,,,,,,,
13.09.08.518,365.8,91.4,0,,,68587.1,14.58,-0.77,0.06,-0.58,-0.7,13.9,3.3,35.62,,,,,,,,,,
13.09.08.529,346.1,86.5,0,,,68587.1,14.58,-0.69,-0.33,-0.23,-3.6,-0.6,-0.9,35.64,,,,,,,,,,
13.09.08.538,269.4,67.4,0,,,68587.1,14.58,-0.64,-0.33,-0.03,4.6,-16.9,-11.6,35.96,,,,,,,,,,
13.09.08.546,192.2,48.0,0,,,68587.1,14.58,-1.14,-0.33,-0.23,-11.4,13.0,19.2,35.91,,,,,,,,,,
13.09.08.557,149.4,37.4,0,,,68587.1,14.58,-0.54,0.08,-0.34,22.5,-3.8,-14.3,36.3,,,,,,,,,,
13.09.08.567,89.7,22.4,0,,,68587.1,14.58,-0.79,-0.1,-0.23,-15.5,-0.9,4.8,35.75,,,,,,,,,,
13.09.08.576,14.3,3.6,0,,,68587.1,14.58,-0.66,0.44,-0.92,53.6,-5.2,-5.0,35.67,,,,,,,,,,
13.09.08.585,3.4,0.8,0,,,68587.1,14.58,-0.52,-0.28,-1.08,20.6,1.2,18.9,35.62,,,,,,,,,,
13.09.08.593,60.9,15.2,0,,,68587.1,14.58,-0.95,0.28,-0.36,4.0,2.3,18.6,35.44,,,,,,,,,,
13.09.08.603,25.1,6.3,0,,,68587.1,14.58,-0.52,0.29,-0.14,-8.1,23.5,10.2,35.84,,,,,,,,,,
13.09.08.614,40.6,10.2,0,,,68587.1,14.58,-1.24,0.48,-0.44,-29.6,11.8,-7.2,35.87,,,,,,,,,,
13.09.08.622,75.2,18.8,0,,,68587.1,14.58,-0.76,0.23,-0.33,-45.6,-2.9,-4.0,35.56,,,,,,,,,,
13.09.08.632,78.0,19.5,0,,,68587.1,14.58,-0.65,0.27,-0.48,7.2,25.6,1.0,35.87,,,,,,,,,,
13.09.08.640,108.7,27.2,0,,,68587.1,14.58,-0.91,0.25,-0.62,9.1,13.5,8.5,36.01,,,,,,,,,,
13.09.08.650,43.5,10.9,0,,,68587.1,14.58,-0.84,0.08,-0.09,-33.1,-18.1,-4.4,35.84,,,,,,,,,,
13.09.08.660,69.0,17.2,0,,,68634.2,14.57,-0.96,0.04,-0.29,-6.0,8.5,19.8,35.75,,,,,,,,,,
13.09.08.669,57.6,14.4,0,,,68634.2,14.57,-0.65,0.38,-0.33,-4.5,-22.4,4.0,35.85,,,,,,,,,,
13.09.08.679,35.0,8.8,0,,,68634.2,14.57,-0.58,0.21,-0.53,33.6,22.5,-0.3,35.83,,,,,,,,,,
13.09.08.689,42.6,10.6,0,,,68634.2,14.57,-0.92,0.33,-0.07,1.4,-3.2,0.6,35.32,,,,,,,,,,
13.09.08.699,17.8,4.4,0,,,68634.2,14.57,-0.37,-0.08,-0.62,-32.6,9.1,7.5,35.55,,,,,,,,,,
13.09.08.710,17.9,4.5,0,,,68634.2,14.57,-0.61,0.16,-0.62,24.5,30.7,3.4,35.79,,,,,,,,,,
13.09.08.720,-13.0,3.2,0,,,68634.2,14.57,-0.73,0.88,-0.04,4.1,21.8,-3.8,35.76,,,,,,,,,,
13.09.08.730,-0.7,0.2,0,,,68634.2,14.57,-0.68,0.63,-0.81,7.4,-13.6,-6.5,35.74,,,,,,,,,,
13.09.08.739,-34.9,8.7,0,,,68634.2,14.57,-0.46,0.17,-0.2,9.2,14.8,-4.2,35.97,,,,,,,,,,
13.09.08.749,-27.2,6.8,0,,,68634.2,14.57,-0.65,-0.09,-0.31,1.7,12.5,6.4,35.85,,,,,,,,,,
13.09.08.759,-10.2,2.6,0,,,68634.2,14.57,-0.66,-0.0,-0.3,18.8,-13.4,14.0,35.75,,,,,,,,,,
13.09.08.768,-36.1,9.0,0,,,68634.2,14.57,-0.7,0.43,-0.62,-20.5,7.4,-4.4,35.84,,,,,,,,,,
13.09.08.777,-18.2,4.6,0,,,68634.2,14.57,-0.71,0.53,-0.58,17.2,0.9,0.6,35.71,,,,,,,,,,
13.09.08.785,-16.3,4.1,0,,,68634.2,14.57,-0.49,0.2,-0.7,-13.8,-28.0,-10.1,35.81,,,,,,,,,,
13.09.08.795,-62.2,15.6,0,,,68634.2,14.57,-0.6,-0.14,-0.15,-4.5,8.6,25.9,35.69,,,,,,,,,,
13.09.08.805,-71.2,17.8,0,,,68634.2,14.57,-0.93,0.93,-0.23,-40.8,15.6,7.4,35.79,,,,,,,,,,
13.09.08.814,-52.0,13.0,0,,,68634.2,14.57,-0.87,0.75,-0.2,-13.8,8.7,-1.8,35.99,,,,,,,,,,
13.09.08.825,-89.1,22.3,0,,,68634.2,14.57,-0.68,0.07,0.03,15.7,11.3,-6.4,35.86,,,,,,,,,,
13.09.08.835,-72.1,18.0,0,,,68634.2,14.57,-0.68,-0.16,-0.03,10.2,-8.6,-9.0,36.11,,,,,,,,,,
13.09.08.845,-98.6,24.6,0,,,68634.2,14.57,-0.63,0.56,-0.09,15.2,6.6,-13.8,36.09,,,,,,,,,,
13.09.08.855,-97.1,24.3,0,,,68634.2,14.57,-0.7,0.25,-0.42,-0.0,8.4,3.1,35.75,,,,,,,,,,
13.09.08.865,-92.5,23.1,0,,,68634.2,14.57,-0.67,0.21,0.1,-2.5,20.0,17.4,35.82,,,,,,,,,,
13.09.08.875,-107.9,27.0,0,,,68634.2,14.57,-0.51,0.34,-0.1,30.2,13.3,-17.7,35.51,,35.81,,,,,,,,
13.09.08.882,-78.5,19.6,0,,,68634.2,14.57,-0.59,0.18,-0.64,-3.2,8.4,-19.6,35.99,,,,,,,,,,
13.09.08.893,-103.1,25.8,0,,,68634.2,14.57,-0.55,-0.32,-0.22,-18.0,5.9,16.5,35.77,,,,,,,,,,
13.09.08.905,-110.8,27.7,0,,,68634.2,14.57,-0.25,0.16,-0.11,-27.7,14.2,45.8,35.69,,,,,,,,,,
13.09.08.913,-99.4,24.8,0,,,68634.2,14.57,-0.62,0.73,-0.43,16.2,13.9,5.8,35.55,,,,,,,,,,
13.09.08.922,-134.8,33.7,0,,,68634.2,14.57,-0.48,0.25,0.01,9.0,2.3,5.7,35.71,,,,,,,,,,
13.09.08.934,-147.5,36.9,0,,,68634.2,14.57,-0.62,0.12,-0.48,5.1,20.3,-9.5,35.68,,,,,,,,,,
13.09.08.945,-157.1,39.3,0,,,68634.2,14.57,-0.6,0.06,-0.22,-10.9,19.4,-1.5,35.8,,,,,,,,,,
13.09.08.953,-129.6,32.4,0,,,68634.2,14.57,-0.24,0.32,-0.43,-1.6,17.2,5.5,35.82,,,,,,,,,,
13.09.08.964,-171.8,43.0,0,,,68634.2,14.57,-0.85,0.42,-0.1,-12.9,11.6,16.3,35.63,,,,,,,,,,
13.09.08.973,-168.9,42.2,0,,,68634.2,14.57,-0.59,0.3,-0.15,40.2,-3.2,-8.1,35.62,,,,,,,,,,
13.09.08.984,116.9,29.2,0,,,68634.2,14.57,-0.33,0.26,-0.19,6.5,8.1,-21.2,35.45,,,,,,,,,,
13.09.08.996,144.8,36.2,0,,,68634.2,14.57,-0.41,-0.02,-0.47,30.7,5.5,8.4,36.07,,,,,,,,,,
13.09.09.006,187.8,47.0,0,,,68634.2,14.57,-0.45,-0.12,-0.01,61.4,-5.5,18.7,35.46,,,,,,,,,,
13.09.09.016,227.0,56.8,1,16.0,111.7,68634.2,14.57,-0.59,-0.27,-0.02,3.7,20.8,-11.8,35.77,,,,,,,,,,
13.09.09.025,282.1,70.5,0,,,68634.2,14.57,-0.66,0.03,-0.36,44.5,8.4,-3.8,35.89,,,,,,,,,,
13.09.09.037,329.2,82.3,0,,,68634.2,14.57,-0.49,0.12,-0.44,-28.7,9.5,-6.2,35.76,,,,,,,,,,
13.09.09.046,377.9,94.5,0,,,68634.2,14.57,-0.91,0.08,-0.55,-21.1,49.4,-7.1,36.23,,,,,,,,,,
13.09.09.053,406.4,101.6,0,,,68634.2,14.57,-0.61,0.29,-0.63,5.6,1.7,-10.8,35.89,,,,,,,,,,
13.09.09.063,392.3,98.1,0,,,68634.2,14.57,-0.33,-0.42,-0.55,-13.9,3.9,-22.5,35.42,,,,,,,,,,
13.09.09.071,382.5,95.6,0,,,68634.2,14.57,-0.56,0.27,-0.85,8.0,32.2,-9.0,35.68,,,,,,,,,,
13.09.09.081,421.0,105.2,0,,,68634.2,14.57,-0.38,0.09,-0.14,-9.8,4.7,-27.9,35.74,,,,,,,,,,
13.09.09.089,369.8,92.4,0,,,68634.2,14.57,-0.87,0.58,-0.25,-8.9,12.5,8.5,36.08,,,,,,,,,,
13.09.09.098,405.7,101.4,0,,,68634.2,14.57,-0.35,0.12,-0.32,4.9,0.2,5.8,35.94,,,,,,,,,,
13.09.09.108,390.3,97.6,0,,,68634.2,14.57,-0.44,0.07,-0.75,-36.6,9.8,-6.1,35.92,,,,,,,,,,
13.09.09.118,351.8,88.0,0,,,68634.2,14.57,-0.89,-0.07,-0.3,-20.9,-11.4,-5.9,35.6,,,,,,,,,,
13.09.09.127,316.6,79.2,0,,,68634.2,14.57,-0.43,0.34,-0.33,-26.4,-5.7,12.1,35.83,,,,,,,,,,
13.09.09.137,254.8,63.7,0,,,68634.2,14.57,-0.56,-0.43,-0.36,-30.2,-5.9,-3.8,35.9,,,,,,,,,,
13.09.09.148,219.7,54.9,0,,,68681.3,14.56,-0.7,0.1,0.36,-27.6,4.0,4.7,35.54,,,,,,,,,,
13.09.09.157,137.4,34.4,0,,,68681.3,14.56,-0.26,0.16,-0.58,-17.6,14.1,-7.5,35.85,,,,,,,,,,
13.09.09.167,57.5,14.4,0,,,68681.3,14.56,-0.94,-0.29,-0.09,57.0,9.9,-4.5,35.82,,,,,,,,,,
13.09.09.175,66.0,16.5,0,,,68681.3,14.56,-0.38,-0.37,-0.53,15.1,10.0,5.7,35.66,,,,,,,,,,
13.09.09.185,22.3,5.6,0,,,68681.3,14.56,-0.17,-0.17,-0.47,6.4,-4.0,5.6,35.63,,,,,,,,,,
13.09.09.196,43.4,10.8,0,,,68681.3,14.56,-0.73,-0.05,-0.88,45.5,1.9,16.5,35.98,,,,,,,,,,
13.09.09.203,57.6,14.4,0,,,68681.3,14.56,-0.56,-0.43,-0.25,45.8,13.3,-3.4,36.0,,,,,,,,,,
13.09.09.215,58.7,14.7,0,,,68681.3,14.56,-0.45,-0.47,-0.26,16.4,26.9,-11.0,35.88,,,,,,,,,,
13.09.09.224,56.4,14.1,0,,,68681.3,14.56,-0.33,-0.26,-0.12,9.6,20.9,-9.1,35.89,,,,,,,,,,
13.09.09.233,85.0,21.2,0,,,68681.3,14.56,-0.74,0.13,-0.34,-23.4,7.7,19.6,35.88,,,,,,,,,,
13.09.09.243,97.1,24.3,0,,,68681.3,14.56,-0.44,-0.63,-0.38,-13.1,25.6,-14.8,36.05,,,,,,,,,,
13.09.09.254,78.6,19.6,0,,,68681.3,14.56,-0.88,-0.3,-0.34,-18.8,-5.5,12.8,35.67,,,,,,,,,,
13.09.09.267,64.7,16.2,0,,,68681.3,14.56,-0.53,0.1,0.17,-20.6,12.2,-11.6,35.98,,,,,,,,,,
13.09.09.278,32.6,8.2,0,,,68681.3,14.56,-0.93,-0.62,-0.59,-15.3,11.9,-6.0,36.49,,,,,,,,,,
13.09.09.285,29.8,7.4,0,,,68681.3,14.56,-0.56,-0.19,-0.51,21.8,45.0,5.9,35.2,,,,,,,,,,
13.09.09.296,-6.0,1.5,0,,,68681.3,14.56,-1.16,0.04,0.34,9.0,17.1,9.2,35.78,,,,,,,,,,
13.09.09.305,2.9,0.7,0,,,68681.3,14.56,-0.97,0.11,0.01,-5.0,-14.2,0.5,35.58,,,,,,,,,,
13.09.09.315,-20.6,5.2,0,,,68681.3,14.56,-0.52,-0.06,-0.64,-3.9,-4.0,-7.0,35.94,,,,,,,,,,
13.09.09.327,-18.0,4.5,0,,,68681.3,14.56,-1.22,0.47,-0.37,-0.0,21.1,0.8,36.02,,,,,,,,,,
13.09.09.336,-17.9,4.5,0,,,68681.3,14.56,-0.92,-0.27,-0.34,59.0,-2.2,1.3,35.92,,,,,,,,,,
13.09.09.346,9.8,2.4,0,,,68681.3,14.56,-0.74,-0.2,-0.02,-5.5,10.6,-13.4,35.65,,,,,,,,,,
13.09.09.356,-29.3,7.3,0,,,68681.3,14.56,-0.6,-0.04,-0.26,-2.5,1.6,-4.0,35.82,,,,,,,,,,
13.09.09.366,-43.8,11.0,0,,,68681.3,14.56,-0.7,0.41,-0.1,-11.6,28.8,9.2,35.81,,,,,,,,,,
13.09.09.375,-47.7,11.9,0,,,68681.3,14.56,-0.88,0.32,-0.37,22.2,9.1,14.5,35.96,,,,,,,,,,
13.09.09.386,-67.5,16.9,0,,,68681.3,14.56,-1.02,-0.36,-0.28,-4.4,3.9,-3.2,35.83,,,,,,,,,,
13.09.09.393,-54.0,13.5,0,,,68681.3,14.56,-0.34,-0.11,-0.14,4.2,26.4,-10.3,35.96,,,,,,,,,,
13.09.09.401,-53.7,13.4,0,,,68681.3,14.56,-0.77,-0.07,-0.52,-10.2,-5.3,-14.3,35.52,,,,,,,,,,
13.09.09.411,-73.1,18.3,0,,,68681.3,14.56,-0.77,-0.03,-0.32,17.3,-13.3,-8.9,35.99,,,,,,,,,,
13.09.09.421,-90.4,22.6,0,,,68681.3,14.56,-0.78,-0.27,-0.61,-18.8,28.8,11.1,35.54,,,,,,,,,,
13.09.09.428,-59.2,14.8,0,,,68681.3,14.56,-0.65,-0.24,0.12,25.5,18.4,-5.4,35.9,,,,,,,,,,
13.09.09.435,-90.2,22.6,0,,,68681.3,14.56,-0.75,0.04,-0.66,-23.8,8.3,-33.9,36.02,,,,,,,,,,
13.09.09.445,-76.5,19.1,0,,,68681.3,14.56,-1.13,-0.06,-0.43,-4.6,-2.6,-35.4,35.42,,,,,,,,,,
13.09.09.455,-98.3,24.6,0,,,68681.3,14.56,-0.72,0.21,-0.17,-7.7,9.0,8.9,35.59,,,,,,,,,,
13.09.09.464,-102.0,25.5,0,,,68681.3,14.56,-0.74,0.48,-0.48,8.5,-5.2,-14.8,35.97,,,,,,,,,,
13.09.09.472,-122.1,30.5,0,,,68681.3,14.56,-0.62,0.34,-0.01,-23.1,29.3,-4.0,35.55,,,,,,,,,,
13.09.09.482,-94.6,23.6,0,,,68681.3,14.56,-0.94,0.03,-0.15,9.5,23.5,7.7,35.8,,,,,,,,,,
13.09.09.489,-144.4,36.1,0,,,68681.3,14.56,-0.79,-0.26,-0.3,-1.0,31.9,-15.2,35.9,,,,,,,,,,
13.09.09.498,-144.5,36.1,0,,,68681.3,14.56,-0.75,-0.44,-0.75,22.9,13.1,1.2,36.04,,,,,,,,,,
13.09.09.508,-130.9,32.7,0,,,68681.3,14.56,-0.66,-0.05,-0.45,4.6,-17.1,1.1,35.69,,,,,,,,,,
13.09.09.518,-133.9,33.5,0,,,68681.3,14.56,-0.66,-0.58,-0.25,14.7,3.3,-6.5,36.17,,,,,,,,,,
13.09.09.528,-163.0,40.8,0,,,68681.3,14.56,-0.67,0.47,-0.89,21.9,15.2,-13.9,35.81,,,,,,,,,,
13.09.09.538,-161.8,40.4,0,,,68681.3,14.56,-0.71,-0.22,-0.72,22.1,5.7,-2.4,35.74,,,,,,,,,,
13.09.09.547,-130.2,32.6,0,,,68681.3,14.56,-0.85,0.12,-0.45,-20.0,6.5,-2.7,36.06,,,,,,,,,,
13.09.09.558,-182.7,45.7,1,17.0,110.7,68681.3,14.56,-0.72,0.42,-0.43,-14.8,19.8,-1.4,35.86,,,,,,,,,,
13.09.09.567,-140.6,35.2,0,,,68681.3,14.56,-0.85,0.12,-0.91,-6.7,22.9,-7.0,35.76,,,,,,,,,,
13.09.09.577,47.7,11.9,0,,,68681.3,14.56,-0.49,0.22,-0.67,-3.0,-12.6,-3.3,35.77,,,,,,,,,,
13.09.09.587,115.5,28.9,0,,,68681.3,14.56,-0.49,0.87,-0.95,12.1,-6.5,-3.7,35.47,,,,,,,,,,
13.09.09.595,155.3,38.8,0,,,68681.3,14.56,-0.84,0.43,-0.5,16.6,-18.4,1.8,35.81,,,,,,,,,,
13.09.09.606,220.1,55.0,0,,,68728.5,14.55,-0.91,0.43,-0.53,19.7,-12.2,27.7,35.63,,,,,,,,,,
13.09.09.617,239.1,59.8,0,,,68728.5,14.55,-0.38,0.27,-0.87,22.1,3.1,-15.0,35.65,,,,,,,,,,
13.09.09.627,290.2,72.6,0,,,68728.5,14.55,-0.45,0.06,-0.57,-6.3,10.6,-2.7,36.07,,,,,,,,,,
13.09.09.638,340.6,85.2,0,,,68728.5,14.55,-0.87,0.5,-0.53,10.9,31.4,-7.8,35.45,,,,,,,,,,
13.09.09.649,448.6,112.2,0,,,68728.5,14.55,-0.58,0.46,-0.41,9.1,8.2,28.4,36.13,,,,,,,,,,
13.09.09.657,408.7,102.2,0,,,68728.5,14.55,-0.57,-0.07,0.15,5.2,-12.7,-15.9,35.85,,,,,,,,,,
13.09.09.665,411.8,103.0,0,,,68728.5,14.55,-1.04,0.12,-0.13,41.1,43.0,-12.7,35.78,,,,,,,,,,
13.09.09.674,410.8,102.7,0,,,68728.5,14.55,-0.46,0.19,-0.54,22.7,-6.9,8.1,35.49,,,,,,,,,,
13.09.09.684,368.7,92.2,0,,,68728.5,14.55,-0.76,-0.17,0.74,17.0,14.0,8.5,36.05,,,,,,,,,,
13.09.09.693,403.0,100.8,0,,,68728.5,14.55,-0.48,-0.32,-0.5,26.6,-7.3,19.7,35.85,,,,,,,,,,
13.09.09.704,341.5,85.4,0,,,68728.5,14.55,-1.24,0.12,-0.29,-12.8,17.6,-6.3,36.1,,,,,,,,,,
13.09.09.714,334.4,83.6,0,,,68728.5,14.55,-0.49,0.37,0.49,7.9,-15.8,-10.9,36.04,,,,,,,,,,
13.09.09.725,289.5,72.4,0,,,68728.5,14.55,-0.79,0.28,-0.42,-16.0,-14.1,-2.3,35.86,,,,,,,,,,
13.09.09.737,239.4,59.8,0,,,68728.5,14.55,-0.3,0.04,0.19,-2.7,-20.9,-5.5,36.1,,,,,,,,,,
13.09.09.748,152.8,38.2,0,,,68728.5,14.55,-0.37,-0.32,0.17,-15.6,17.8,-25.4,35.48,,,,,,,,,,
13.09.09.757,152.9,38.2,0,,,68728.5,14.55,-0.88,-0.13,-0.21,1.2,-0.2,3.2,35.91,,,,,,,,,,
13.09.09.767,81.2,20.3,0,,,68728.5,14.55,-0.91,-0.34,-0.38,29.4,-24.2,11.4,35.66,,,,,,,,,,
13.09.09.778,16.0,4.0,0,,,68728.5,14.55,-0.54,-0.19,-0.06,9.1,-13.3,-6.3,36.04,,,,,,,,,,
13.09.09.788,44.9,11.2,0,,,68728.5,14.55,-0.7,0.82,-0.39,5.0,1.7,-15.7,35.75,,,,,,,,,,
13.09.09.798,33.5,8.4,0,,,68728.5,14.55,-0.44,0.43,-0.03,1.0,28.2,-8.4,35.66,,,,,,,,,,
13.09.09.809,54.6,13.6,0,,,68728.5,14.55,-0.84,0.34,-0.19,2.9,27.5,-1.4,35.95,,,,,,,,,,
13.09.09.818,32.8,8.2,0,,,68728.5,14.55,-0.78,0.85,-0.59,-15.0,-6.6,-23.8,36.17,,,,,,,,,,
13.09.09.827,76.6,19.2,0,,,68728.5,14.55,-0.49,-0.04,-0.78,-2.4,-7.5,-9.4,36.0,,,,,,,,,,
13.09.09.836,83.5,20.9,0,,,68728.5,14.55,-0.49,-0.03,-0.22,7.6,8.4,4.8,35.67,,,,,,,,,,
13.09.09.845,58.2,14.6,0,,,68728.5,14.55,-0.69,-0.54,-0.32,-10.4,-10.7,-1.1,35.59,,,,,,,,,,
13.09.09.855,62.8,15.7,0,,,68728.5,14.55,-0.06,0.22,-0.9,17.9,2.9,-15.0,35.82,,,,,,,,,,
13.09.09.863,75.1,18.8,0,,,68728.5,14.55,-0.3,-0.09,-0.29,-8.5,25.4,-15.6,35.51,,,,,,,,,,
13.09.09.872,55.8,14.0,0,,,68728.5,14.55,-0.42,0.23,-0.24,7.1,-11.2,-24.8,35.46,,,,,,,,,,
13.09.09.880,33.8,8.4,0,,,68728.5,14.55,-0.58,-0.21,-0.39,-26.0,20.0,-9.3,35.75,,,,,,,,,,
13.09.09.891,-4.3,1.1,0,,,68728.5,14.55,-0.56,0.13,-0.05,-17.2,-7.8,-0.1,35.64,,,,,,,,,,
13.09.09.900,-12.3,3.1,0,,,68728.5,14.55,-0.13,0.09,-0.61,16.1,1.4,-12.7,35.99,,,,,,,,,,
13.09.09.910,-13.9,3.5,0,,,68728.5,14.55,-0.34,-0.24,-0.77,12.7,-11.8,-11.6,35.37,,,,,,,,,,
13.09.09.920,1.1,0.3,0,,,68728.5,14.55,-0.32,-0.4,-0.43,-14.1,9.2,4.6,35.66,,,,,,,,,,
13.09.09.927,-9.4,2.4,0,,,68728.5,14.55,-0.6,-0.19,-0.33,-20.5,2.2,-2.4,35.76,,,,,,,,,,
13.09.09.936,-23.2,5.8,0,,,68728.5,14.55,-0.54,-0.41,-0.58,17.9,13.2,-10.9,35.59,,,,,,,,,,
13.09.09.948,-17.8,4.4,0,,,68728.5,14.55,-0.68,-0.04,-0.65,30.6,14.4,-8.7,36.14,,,,,,,,,,
13.09.09.955,-60.0,15.0,0,,,68728.5,14.55,-0.75,-0.25,-0.56,-24.9,-18.3,1.9,35.91,,,,,,,,,,
13.09.09.967,-42.6,10.6,0,,,68728.5,14.55,-0.26,0.48,-0.44,-7.2,2.8,-5.2,35.61,,,,,,,,,,
13.09.09.976,-64.2,16.0,0,,,68728.5,14.55,-0.52,0.38,-0.39,16.1,13.1,-25.8,35.79,,,,,,,,,,
13.09.09.986,-64.6,16.2,0,,,68728.5,14.55,-0.63,-0.27,-0.46,0.4,-1.6,12.4,36.0,,,,,,,,,,
13.09.09.996,-72.3,18.1,0,,,68728.5,14.55,-0.56,-0.0,-0.37,9.7,-9.6,9.3,35.63,,,,,,,,,,
13.09.10.006,-93.9,23.5,0,,,68728.5,14.55,-0.61,-0.45,-0.18,22.5,1.5,-8.0,35.69,101.7,,,,,,,,,
13.09.10.015,-101.6,25.4,0,,,68728.5,14.55,-0.32,-0.18,-0.23,-1.8,-5.7,0.0,35.9,,,,,,,,,,
13.09.10.025,-84.0,21.0,0,,,68728.5,14.55,-0.7,-0.13,0.22,20.9,51.7,-18.2,36.08,,,,,,,,,,
13.09.10.036,-106.6,26.6,0,,,68728.5,14.55,-0.7,0.15,-0.43,-3.7,33.2,-5.6,35.94,,,,,,,,,,
13.09.10.047,-87.8,22.0,0,,,68728.5,14.55,-0.65,0.06,-0.5,1.3,5.2,1.6,35.78,,,,,,,,,,
13.09.10.057,-92.7,23.2,0,,,68728.5,14.55,-0.65,-0.33,-0.11,-13.0,20.3,-10.3,35.36,,,,,,,,,,
13.09.10.068,-106.9,26.7,0,,,68728.5,14.55,-0.83,0.25,-0.36,4.2,0.3,8.5,35.83,,,,,,,,,,
13.09.10.079,-100.6,25.2,0,,,68728.5,14.55,-0.74,0.01,-0.53,-1.6,-0.2,-19.6,35.78,,,,,,,,,,
13.09.10.088,-112.6,28.2,0,,,68728.5,14.55,-0.39,-0.35,-0.19,16.2,12.6,13.8,36.09,,,,,,,,,,
13.09.10.095,-112.9,28.2,0,,,68728.5,14.55,-0.91,-0.42,-0.75,-23.6,14.0,-11.3,35.89,,,,,,,,,,
13.09.10.106,-118.2,29.6,0,,,68728.5,14.55,-0.64,-0.42,-0.89,-33.4,20.9,-5.5,35.94,,,,,,,,,,
13.09.10.116,-117.6,29.4,0,,,68775.8,14.54,-0.71,-0.33,-0.63,-5.3,22.4,-9.9,35.89,,,,,,,,,,
13.09.10.125,-129.7,32.4,0,,,68775.8,14.54,-0.94,-0.02,-0.31,18.8,15.9,-23.6,35.79,,,,,,,,,,
13.09.10.132,-172.8,43.2,1,18.0,104.5,68775.8,14.54,-1.11,-0.2,-0.41,-40.7,5.7,-6.0,35.51,,,,,,,,,,
13.09.10.141,-161.1,40.3,0,,,68775.8,14.54,-0.76,-0.31,0.24,-16.7,-14.6,-12.4,36.14,,,,,,,,,,
13.09.10.151,-150.1,37.5,0,,,68775.8,14.54,-0.8,-0.24,-0.09,-18.6,25.0,-3.6,35.84,,,,,,,,,,
13.09.10.160,-156.0,39.0,0,,,68775.8,14.54,-0.74,0.51,-0.06,-11.5,8.2,0.7,35.61,,,,,,,,,,
13.09.10.172,29.7,7.4,0,,,68775.8,14.54,-0.75,-0.54,0.2,41.9,10.9,-22.3,35.86,,,,,,,,,,
13.09.10.183,145.2,36.3,0,,,68775.8,14.54,-0.7,-0.01,-0.26,-9.9,-23.2,10.1,35.9,,,,,,,,,,
13.09.10.191,183.0,45.8,0,,,68775.8,14.54,-0.71,0.08,0.04,2.1,9.0,1.9,35.87,,,,,,,,,,
13.09.10.200,178.6,44.6,0,,,68775.8,14.54,-0.67,0.35,-0.03,-10.3,12.5,-20.9,35.79,,,,,,,,,,
13.09.10.213,286.2,71.6,0,,,68775.8,14.54,-0.77,-0.03,-0.47,5.6,-0.3,2.3,35.94,,,,,,,,,,
13.09.10.225,315.3,78.8,0,,,68775.8,14.54,-0.52,0.02,-0.47,-7.4,0.8,16.1,35.83,,,,,,,,,,
13.09.10.235,309.3,77.3,0,,,68775.8,14.54,-0.54,0.06,-0.36,2.0,27.0,-5.1,35.69,,,,,,,,,,
13.09.10.245,352.7,88.2,0,,,68775.8,14.54,-0.71,-0.36,-0.3,15.2,34.5,-4.1,35.94,,,,,,,,,,
13.09.10.253,400.7,100.2,0,,,68775.8,14.54,-0.78,0.17,-0.17,-3.2,-7.5,-0.5,35.95,,,,,,,,,,
13.09.10.263,349.6,87.4,0,,,68775.8,14.54,-0.74,0.39,0.33,2.3,-15.9,5.0,35.88,,,,,,,,,,
13.09.10.273,429.9,107.5,0,,,68775.8,14.54,-0.61,-0.08,-0.44,-3.9,22.3,-12.2,35.63,,,,,,,,,,
13.09.10.283,399.4,99.8,0,,,68775.8,14.54,-0.76,0.07,0.05,-9.5,15.0,-14.4,35.86,,,,,,,,,,
13.09.10.293,382.6,95.6,0,,,68775.8,14.54,-0.68,-0.26,-0.57,-10.0,-9.2,-15.3,35.54,,,,,,,,,,
13.09.10.303,336.8,84.2,0,,,68775.8,14.54,-1.05,-0.32,-0.28,-19.0,-24.3,-12.5,35.9,,,,,,,,,,
13.09.10.312,352.7,88.2,0,,,68775.8,14.54,-0.84,0.52,-0.64,9.0,-8.1,-23.4,35.57,,,,,,,,,,
13.09.10.320,330.8,82.7,0,,,68775.8,14.54,-0.99,-0.06,-0.57,-2.2,4.3,0.8,35.57,,,,,,,,,,
13.09.10.332,229.3,57.3,0,,,68775.8,14.54,-0.6,0.1,-0.47,-6.5,8.0,-17.0,36.1,,,,,,,,,,
13.09.10.341,184.4,46.1,0,,,68775.8,14.54,-0.61,0.31,-0.4,10.4,14.2,5.7,35.75,,,,,,,,,,
13.09.10.350,176.0,44.0,0,,,68775.8,14.54,-1.02,0.48,-0.4,-26.5,-7.9,5.2,35.55,,,,,,,,,,
13.09.10.358,82.7,20.7,0,,,68775.8,14.54,-0.92,-0.03,-0.29,-18.2,0.6,-4.1,35.95,,,,,,,,,,
13.09.10.367,,,0,,,,,,,,,,,,,,,,,,,,,
13.09.10.376,-6.3,1.6,0,,,68775.8,14.54,-0.58,-0.28,-0.96,-2.6,30.9,-12.8,35.89,,,,,,,,,,
13.09.10.387,25.1,6.3,0,,,68775.8,14.54,-0.71,0.51,-0.85,-22.2,13.3,-0.8,35.4,,,,,,,,,,
13.09.10.396,44.7,11.2,0,,,68775.8,14.54,-0.64,0.41,-0.73,3.1,-18.2,5.1,35.66,,,,,,,,,,
13.09.10.407,52.9,13.2,0,,,68775.8,14.54,-1.07,0.42,-0.22,14.4,6.6,-3.0,35.84,,,,,,,,,,
13.09.10.415,32.9,8.2,0,,,68775.8,14.54,-0.49,0.23,-0.46,-34.2,-3.2,-14.8,35.86,,,,,,,,,,
13.09.10.425,68.9,17.2,0,,,68775.8,14.54,-0.8,0.41,-0.68,0.5,-10.3,1.8,35.75,,,,,,,,,,
13.09.10.434,83.3,20.8,0,,,68775.8,14.54,-0.88,0.81,-0.74,16.6,1.9,-12.4,35.9,,,,,,,,,,
13.09.10.443,29.7,7.4,0,,,68775.8,14.54,-0.86,0.17,-0.7,31.4,5.9,5.9,35.98,,,,,,,,,,
13.09.10.454,39.3,9.8,0,,,68775.8,14.54,-0.61,-0.06,-0.67,7.1,-2.4,15.4,36.06,,,,,,,,,,
13.09.10.464,48.8,12.2,0,,,68775.8,14.54,-1.06,-0.0,-0.13,-15.2,12.4,-16.5,36.09,,,,,,,,,,
13.09.10.474,55.6,13.9,0,,,68775.8,14.54,-0.63,0.2,-0.47,-2.6,-0.3,13.6,36.16,,,,,,,,,,
13.09.10.485,12.4,3.1,0,,,68775.8,14.54,-0.8,0.28,-0.14,1.1,-3.4,7.9,35.7,,,,,,,,,,
13.09.10.495,23.1,5.8,0,,,68775.8,14.54,-0.5,0.27,-0.61,12.1,10.9,-12.6,35.8,,,,,,,,,,
13.09.10.506,-8.8,2.2,0,,,68775.8,14.54,-0.94,0.42,-0.52,-2.7,-6.5,32.6,36.01,,,,,,,,,,
13.09.10.514,-20.7,5.2,0,,,68775.8,14.54,-0.51,0.64,-0.13,-23.9,-2.8,-7.9,36.08,,,,,,,,,,
13.09.10.523,-20.4,5.1,0,,,68775.8,14.54,-0.73,0.07,0.08,31.7,19.0,-16.5,36.06,,,,,,,,,,
13.09.10.533,-33.6,8.4,0,,,68775.8,14.54,-0.44,0.03,-0.19,-23.0,16.8,4.2,35.85,,,,,,,,,,
13.09.10.542,-10.2,2.6,0,,,68775.8,14.54,-0.47,-0.04,-0.68,-28.2,11.8,12.6,35.93,,,,,,,,,,
13.09.10.550,-48.1,12.0,0,,,68775.8,14.54,-1.07,-0.1,-0.58,-14.7,-1.7,-1.6,35.75,,,,,,,,,,
13.09.10.559,-22.8,5.7,0,,,68775.8,14.54,-0.52,-0.24,-0.58,16.9,-17.0,9.4,35.7,,,,,,,,,,
13.09.10.568,-84.1,21.0,0,,,68775.8,14.54,-0.62,0.26,-0.04,-11.5,10.2,-6.4,35.78,,,,,,,,,,
13.09.10.579,-44.6,11.2,0,,,68775.8,14.54,-0.37,0.54,-0.56,20.1,31.0,25.1,35.96,,,,,,,,,,
13.09.10.586,-44.5,11.1,0,,,68775.8,14.54,-0.75,0.01,0.42,-5.4,3.4,-3.6,36.12,,,,,,,,,,
13.09.10.595,-49.6,12.4,0,,,68775.8,14.54,-0.42,0.36,-0.58,-5.7,-14.8,13.6,35.87,,,,,,,,,,
13.09.10.605,-83.1,20.8,0,,,68775.8,14.54,-0.53,0.67,-0.68,4.4,8.0,-8.2,35.96,,,,,,,,,,
13.09.10.616,-28.8,7.2,0,,,68775.8,14.54,-0.37,0.05,-0.17,-15.4,14.6,26.9,35.95,,,,,,,,,,
13.09.10.626,-87.2,21.8,0,,,68775.8,14.54,-0.42,0.08,-0.18,-1.6,-17.2,19.6,36.05,,,,,,,,,,
13.09.10.636,-73.1,18.3,0,,,68775.8,14.54,-0.88,0.21,-0.4,14.1,27.8,9.5,35.78,,,,,,,,,,
13.09.10.645,-86.1,21.5,0,,,68775.8,14.54,-0.12,0.33,-0.17,-27.2,-11.0,7.5,36.0,,,,,,,,,,
13.09.10.657,-88.9,22.2,1,19.0,114.3,68775.8,14.54,-0.89,0.49,-0.36,-1.4,-10.6,2.0,35.69,,,,,,,,,,
13.09.10.667,-94.0,23.5,0,,,68775.8,14.54,-0.97,0.78,-0.45,14.7,4.8,0.4,35.44,,,,,,,,,,
13.09.10.677,-92.2,23.0,0,,,68775.8,14.54,-0.5,0.06,-0.87,-4.6,3.5,23.3,35.88,,,,,,,,,,
13.09.10.686,-122.9,30.7,0,,,68775.8,14.54,-0.77,0.08,0.02,10.6,16.8,-2.5,35.87,,,,,,,,,,
13.09.10.693,-115.8,29.0,0,,,68775.8,14.54,-0.55,0.43,-0.53,32.0,43.5,19.0,35.62,,,,,,,,,,
13.09.10.702,-115.9,29.0,0,,,68775.8,14.54,-0.76,-0.07,-0.05,-33.8,-14.2,8.2,35.71,,,,,,,,,,
13.09.10.711,-160.3,40.1,0,,,68775.8,14.54,-0.44,0.66,-0.29,-4.1,4.3,19.4,35.92,,,,,,,,,,
13.09.10.720,-138.0,34.5,0,,,68775.8,14.54,-0.41,0.08,-0.29,-51.9,7.4,10.9,35.6,,,,,,,,,,
13.09.10.731,-161.6,40.4,0,,,68775.8,14.54,-0.44,-0.05,-0.72,21.5,5.6,-0.9,35.67,,,,,,,,,,
13.09.10.742,-161.2,40.3,0,,,68775.8,14.54,-0.35,0.52,-0.48,29.5,19.5,-15.3,35.71,,,,,,,,,,
13.09.10.748,-106.1,26.5,0,,,68775.8,14.54,-0.49,0.64,-0.1,-5.6,17.5,14.0,35.98,,,,,,,,,,
13.09.10.759,-161.2,40.3,0,,,68775.8,14.54,-0.14,0.39,-0.52,-9.1,3.8,-33.1,35.96,,,,,,,,,,
13.09.10.770,42.1,10.5,0,,,68775.8,14.54,-0.21,-0.08,-0.29,35.0,-6.1,0.8,35.65,,,,,,,,,,
13.09.10.780,113.3,28.3,0,,,68775.8,14.54,-0.56,0.07,-0.63,2.3,24.5,-18.7,36.06,,,,,,,,,,
13.09.10.789,201.9,50.5,0,,,68775.8,14.54,-0.51,0.41,-0.04,17.2,23.2,14.1,35.79,,,,,,,,,,
13.09.10.799,194.3,48.6,0,,,68775.8,14.54,-0.76,-0.31,-0.49,-6.6,-7.2,-3.3,35.61,,,,,,,,,,
13.09.10.808,256.7,64.2,0,,,68775.8,14.54,-0.94,-0.23,-0.18,2.9,2.1,4.2,36.07,,,,,,,,,,
13.09.10.817,303.9,76.0,0,,,68775.8,14.54,-0.68,-0.3,-0.82,-9.9,18.9,-15.3,35.57,,,,,,,,,,
13.09.10.825,373.0,93.2,0,,,68775.8,14.54,-0.7,-0.22,-0.18,4.8,-21.2,-1.1,36.02,,,,,,,,,,
13.09.10.832,348.7,87.2,0,,,68775.8,14.54,-0.43,-0.53,-0.82,-12.8,13.0,-4.8,36.03,,,,,,,,,,
13.09.10.841,383.1,95.8,0,,,68775.8,14.54,-0.4,-0.26,-0.68,10.1,5.5,-0.9,35.85,,,,,,,,,,
13.09.10.851,330.5,82.6,0,,,68775.8,14.54,-0.64,0.27,-0.26,-22.2,15.9,-2.2,35.71,,,,,,,,,,
13.09.10.860,443.0,110.8,0,,,68775.8,14.54,-0.57,0.38,-0.81,15.7,0.2,4.6,35.61,,,,,,,,,,
13.09.10.870,449.2,112.3,0,,,68775.8,14.54,-0.91,-0.05,-0.43,34.0,-15.2,-4.6,35.66,,,,,,,,,,
13.09.10.879,400.9,100.2,0,,,68775.8,14.54,-0.7,-0.31,-0.11,-20.2,-17.3,-4.0,35.79,,,,,,,,,,
13.09.10.889,405.7,101.4,0,,,68775.8,14.54,-0.87,-0.29,-0.19,37.1,-9.1,-4.9,35.86,,,,,,,,,,
13.09.10.899,402.5,100.6,0,,,68775.8,14.54,-0.8,-0.32,-0.6,-16.9,26.7,6.9,35.9,,,,,,,,,,
13.09.10.909,329.1,82.3,0,,,68775.8,14.54,-0.81,-0.01,-0.6,19.9,6.1,1.6,36.23,,,,,,,,,,
13.09.10.919,249.9,62.5,0,,,68823.1,14.53,-0.55,-0.23,-0.37,-13.9,-5.5,19.1,35.85,,,,,,,,,,
13.09.10.929,225.1,56.3,0,,,68823.1,14.53,-0.77,-0.26,-0.01,-12.3,12.8,-4.9,35.89,,,,,,,,,,
13.09.10.940,147.0,36.8,0,,,68823.1,14.53,-1.0,-0.01,-0.38,-13.1,8.2,7.2,35.54,,,,,,,,,,
13.09.10.950,94.1,23.5,0,,,68823.1,14.53,-0.9,-0.27,-0.69,-6.7,-3.1,-16.1,35.94,,,,,,,,,,
13.09.10.962,60.9,15.2,0,,,68823.1,14.53,-0.8,-0.13,-0.1,-2.5,9.6,-10.1,35.78,,,,,,,,,,
13.09.10.971,4.7,1.2,0,,,68823.1,14.53,-0.7,0.1,-0.36,5.2,8.4,15.9,35.71,,,,,,,,,,
13.09.10.982,31.6,7.9,0,,,68823.1,14.53,-0.53,-0.36,-0.49,17.4,-0.4,-2.2,35.55,,,,,,,,,,
13.09.10.992,39.7,9.9,0,,,68823.1,14.53,-0.71,0.08,-0.1,14.6,20.4,-3.7,35.73,,,,,,,,,,
13.09.11.002,91.3,22.8,0,,,68823.1,14.53,-0.79,0.03,-0.27,21.1,13.2,-19.0,36.02,,,,,,,,,,
13.09.11.010,50.9,12.7,0,,,68823.1,14.53,-0.87,-0.52,-0.33,9.9,-9.6,-5.4,36.17,,,,,,,,,,
13.09.11.018,49.0,12.2,0,,,68823.1,14.53,-0.59,0.51,-0.3,6.6,-5.3,10.2,35.6,,,,,,,,,,
13.09.11.029,63.2,15.8,0,,,68823.1,14.53,-0.67,0.25,0.0,-28.6,-3.6,-2.2,35.88,,,,,,,,,,
13.09.11.036,67.6,16.9,0,,,68823.1,14.53,-0.64,-0.01,0.09,32.7,16.5,8.8,35.79,,,,,,,,,,
13.09.11.047,46.5,11.6,0,,,68823.1,14.53,-1.08,0.38,-0.0,20.6,6.0,-21.8,35.84,,,,,,,,,,
13.09.11.055,73.4,18.4,0,,,68823.1,14.53,-1.02,-0.38,-0.15,0.3,4.1,10.7,35.54,,,,,,,,,,
13.09.11.065,39.2,9.8,0,,,68823.1,14.53,-0.6,-0.07,0.21,12.9,-6.4,10.4,35.95,,,,,,,,,,
13.09.11.076,46.8,11.7,0,,,68823.1,14.53,-0.7,-0.34,-0.38,-8.8,-8.8,2.9,35.85,,,,,,,,,,
13.09.11.085,-4.8,1.2,0,,,68823.1,14.53,-1.09,-0.22,-0.76,-7.3,17.0,11.4,36.16,,,,,,,,,,
13.09.11.093,-16.7,4.2,0,,,68823.1,14.53,-0.54,-0.43,-0.38,-20.8,26.3,-10.8,35.74,,,,,,,,,,
13.09.11.101,-27.9,7.0,0,,,68823.1,14.53,-0.63,0.4,0.05,3.8,-3.1,-12.4,36.24,,,,,,,,,,
13.09.11.110,0.2,0.0,0,,,68823.1,14.53,-1.12,-0.23,-0.42,12.1,-26.8,18.7,35.81,,,,,,,,,,
13.09.11.119,19.3,4.8,0,,,68823.1,14.53,-0.85,0.37,-0.04,-13.7,-4.5,14.4,36.12,,,,,,,,,,
13.09.11.126,14.1,3.5,0,,,68823.1,14.53,-0.9,-0.4,-0.51,5.4,12.7,5.5,35.73,,,,,,,,,,
13.09.11.133,-6.7,1.7,0,,,68823.1,14.53,-0.78,0.28,-0.04,20.7,21.8,19.6,35.76,,,,,,,,,,
13.09.11.140,-23.4,5.8,0,,,68823.1,14.53,-1.05,-0.02,-0.17,23.3,4.1,-9.1,35.96,,,,,,,,,,
13.09.11.150,-44.6,11.2,0,,,68823.1,14.53,-0.88,0.14,-0.19,10.8,-13.0,4.1,35.57,,,,,,,,,,
13.09.11.158,-41.8,10.4,0,,,68823.1,14.53,-0.76,-0.6,-0.6,-29.9,-4.8,-0.4,36.19,,,,,,,,,,
13.09.11.168,-54.2,13.6,0,,,68823.1,14.53,-0.41,-0.06,-0.14,-5.1,-0.1,-0.7,35.88,,,,,,,,,,
13.09.11.178,-86.8,21.7,0,,,68823.1,14.53,-0.96,0.16,-0.29,-24.0,-2.1,-5.6,36.19,,,,,,,,,,
13.09.11.190,-64.1,16.0,0,,,68823.1,14.53,-1.08,0.41,-0.66,1.0,5.6,0.6,35.81,,,,,,,,,,
13.09.11.199,-69.1,17.3,0,,,68823.1,14.53,-0.81,0.32,-0.27,-21.0,2.4,-21.1,35.98,,,,,,,,,,
13.09.11.208,-56.9,14.2,0,,,68823.1,14.53,-0.93,0.21,-0.26,-4.1,20.3,-17.4,35.95,,,,,,,,,,
13.09.11.218,-66.3,16.6,0,,,68823.1,14.53,-0.68,0.12,-0.88,18.8,-12.1,-13.8,35.85,,,,,,,,,,
13.09.11.227,-105.1,26.3,0,,,68823.1,14.53,-1.17,0.02,-0.44,-3.5,0.1,0.5,35.71,,,,,,,,,,
13.09.11.236,-89.2,22.3,0,,,68823.1,14.53,-1.23,-0.06,-0.48,8.7,29.1,-5.0,35.81,,,,,,,,,,
13.09.11.245,-95.8,24.0,0,,,68823.1,14.53,-0.68,0.15,0.11,15.3,-9.3,-20.1,35.9,,,,,,,,,,
13.09.11.256,-86.9,21.7,0,,,68823.1,14.53,-0.81,-0.07,-0.12,23.7,-10.6,-0.4,35.86,,,,,,,,,,
13.09.11.266,-123.6,30.9,1,20.0,98.5,68823.1,14.53,-1.07,0.19,-0.65,-12.9,39.2,-2.4,35.72,,,,,,,,,,
13.09.11.275,-143.1,35.8,0,,,68823.1,14.53,-0.94,-0.24,-0.59,6.1,11.8,12.4,35.74,,,,,,,,,,
13.09.11.283,-119.3,29.8,0,,,68823.1,14.53,-0.64,0.39,-0.75,-15.1,13.7,0.3,35.66,,,,,,,,,,
13.09.11.295,-96.3,24.1,0,,,68823.1,14.53,-1.1,0.66,-0.98,-39.6,-11.9,6.1,35.65,,,,,,,,,,
13.09.11.302,-129.2,32.3,0,,,68823.1,14.53,-0.97,0.24,-0.55,-19.2,-17.1,-5.1,35.73,,,,,,,,,,
13.09.11.313,-107.9,27.0,0,,,68823.1,14.53,-0.52,0.17,-0.67,27.1,-17.8,2.9,35.8,,,,,,,,,,
13.09.11.324,-179.9,45.0,0,,,68823.1,14.53,-0.99,0.53,-1.03,-20.2,-35.0,-16.4,35.81,,,,,,,,,,
13.09.11.333,-156.1,39.0,0,,,68823.1,14.53,-0.67,0.31,-0.36,8.0,16.8,-18.6,35.52,,,,,,,,,,
13.09.11.343,-166.9,41.7,0,,,68823.1,14.53,-0.8,0.35,-0.05,-11.8,-40.1,-25.0,36.01,,,,,,,,,,
13.09.11.353,-175.1,43.8,0,,,68823.1,14.53,-1.01,0.39,-0.47,-8.2,8.3,-10.9,35.43,,,,,,,,,,
13.09.11.363,64.2,16.0,0,,,68823.1,14.53,-0.76,0.2,-0.05,6.1,-20.3,-9.4,36.1,,,,,,,,,,
13.09.11.374,112.1,28.0,0,,,68823.1,14.53,-0.99,0.6,-0.24,-24.2,19.1,1.4,35.87,,,,,,,,,,
13.09.11.383,159.8,40.0,0,,,68823.1,14.53,-0.74,0.37,-0.44,-42.4,15.1,-12.4,35.45,,,,,,,,,,
13.09.11.394,189.2,47.3,0,,,68823.1,14.53,-0.41,0.39,-0.22,-11.7,8.4,-1.2,35.97,,,,,,,,,,
13.09.11.405,273.1,68.3,0,,,68823.1,14.53,-0.48,0.29,0.19,10.5,-1.2,-3.7,35.61,,,,,,,,,,
13.09.11.415,292.9,73.2,0,,,68823.1,14.53,-0.61,0.07,0.04,6.6,-4.7,-53.7,36.06,,,,,,,,,,
13.09.11.426,328.7,82.2,0,,,68823.1,14.53,-0.68,0.31,-0.28,-13.7,-2.7,-25.7,35.82,,,,,,,,,,
13.09.11.437,356.8,89.2,0,,,68823.1,14.53,-0.7,0.35,-0.25,-14.5,-16.6,0.4,35.5,,,,,,,,,,
13.09.11.447,376.1,94.0,0,,,68823.1,14.53,-0.65,0.32,-0.45,3.0,14.2,-15.4,35.45,,,,,,,,,,
13.09.11.456,372.4,93.1,0,,,68823.1,14.53,-0.75,-0.15,-0.4,-54.9,28.5,-3.3,35.92,,,,,,,,,,
13.09.11.464,426.3,106.6,0,,,68823.1,14.53,-0.77,0.31,0.31,17.7,-22.6,-27.6,35.74,,,,,,,,,,
13.09.11.474,445.4,111.4,0,,,68823.1,14.53,-0.74,0.34,-0.51,21.4,26.5,-1.1,35.97,,,,,,,,,,
13.09.11.486,374.4,93.6,0,,,68823.1,14.53,-1.05,0.03,0.27,-0.1,18.0,29.8,35.4,,,,,,,,,,
13.09.11.497,353.8,88.4,0,,,68823.1,14.53,-0.68,0.45,-0.64,3.7,22.0,-1.7,35.89,,,,,,,,,,
13.09.11.506,312.3,78.1,0,,,68823.1,14.53,-0.31,0.52,0.21,-19.7,-5.1,-4.5,36.02,,,,,,,,,,
13.09.11.517,270.3,67.6,0,,,68823.1,14.53,-0.3,0.61,0.16,4.8,27.9,-20.9,35.71,,,,,,,,,,
13.09.11.526,275.9,69.0,0,,,68870.5,14.52,-0.26,0.45,0.23,-14.0,21.6,-12.1,35.41,,,,,,,,,,
13.09.11.536,173.2,43.3,0,,,68870.5,14.52,-0.61,-0.03,-0.07,-24.7,23.6,-14.7,35.6,,,,,,,,,,
13.09.11.544,95.9,24.0,0,,,68870.5,14.52,-0.62,0.04,-0.59,5.9,-9.0,1.1,35.81,,,,,,,,,,
13.09.11.556,72.8,18.2,0,,,68870.5,14.52,-0.78,-0.0,-0.1,40.3,31.9,22.6,35.77,,,,,,,,,,
13.09.11.567,-6.5,1.6,0,,,68870.5,14.52,-0.78,0.05,-0.38,18.7,26.2,-2.2,35.63,,,,,,,,,,
13.09.11.579,-0.4,0.1,0,,,68870.5,14.52,-0.35,0.02,-0.35,36.1,-6.1,-6.6,35.9,,,,,,,,,,
13.09.11.589,35.9,9.0,0,,,68870.5,14.52,-0.47,0.39,-0.68,-38.8,5.3,-10.0,35.79,,,,,,,,,,
13.09.11.601,55.5,13.9,0,,,68870.5,14.52,-0.56,-0.06,-0.28,5.0,7.6,-17.4,36.04,,,,,,,,,,
13.09.11.610,94.5,23.6,0,,,68870.5,14.52,-0.51,-0.1,0.14,8.5,0.6,2.4,35.83,,,,,,,,,,
13.09.11.620,82.2,20.6,0,,,68870.5,14.52,-0.46,-0.01,-0.47,-11.9,9.3,6.2,36.0,,,,,,,,,,
13.09.11.628,47.8,12.0,0,,,68870.5,14.52,-0.81,-0.62,-0.45,-15.8,7.8,-2.1,35.96,,,,,,,,,,
13.09.11.638,60.3,15.1,0,,,68870.5,14.52,-0.52,-0.49,-0.49,24.3,-11.0,-6.7,35.84,,,,,,,,,,
13.09.11.648,56.9,14.2,0,,,68870.5,14.52,-0.38,-0.16,-0.22,-0.5,-25.0,-6.7,35.73,,,,,,,,,,
13.09.11.657,55.8,14.0,0,,,68870.5,14.52,-0.5,0.03,-0.77,-19.2,-5.6,8.5,36.05,,,,,,,,,,
13.09.11.666,37.7,9.4,0,,,68870.5,14.52,-0.65,0.06,-0.1,19.1,30.2,2.3,35.74,,,,,,,,,,
13.09.11.676,-26.0,6.5,0,,,68870.5,14.52,-0.74,0.14,-0.66,4.4,24.3,-6.2,35.74,,,,,,,,,,
13.09.11.688,27.5,6.9,0,,,68870.5,14.52,-0.92,0.03,-0.38,13.5,13.3,2.9,36.31,,,,,,,,,,
13.09.11.698,1.9,0.5,0,,,68870.5,14.52,-0.27,0.13,-0.32,-13.4,-6.6,-2.6,35.87,,,,,,,,,,
13.09.11.709,-11.8,3.0,0,,,68870.5,14.52,-0.37,-0.7,-0.45,25.3,-1.0,12.6,35.9,,,,,,,,,,
13.09.11.718,-10.0,2.5,0,,,68870.5,14.52,-0.5,-0.36,-0.29,-17.9,-35.9,19.5,35.74,,,,,,,,,,
13.09.11.727,-9.8,2.4,0,,,68870.5,14.52,-1.03,-0.2,-0.23,35.9,-19.8,2.7,35.7,,,,,,,,,,
13.09.11.737,-47.4,11.8,0,,,68870.5,14.52,-0.89,-0.1,-1.26,-3.9,16.4,-9.9,35.58,,,,,,,,,,
13.09.11.747,-32.4,8.1,0,,,68870.5,14.52,-0.57,0.24,-0.87,11.3,9.4,12.9,35.78,,,,,,,,,,
13.09.11.756,-63.0,15.8,0,,,68870.5,14.52,-0.81,0.02,-0.6,-3.1,-1.0,-7.7,35.61,,,,,,,,,,
13.09.11.767,-20.3,5.1,0,,,68870.5,14.52,-0.45,0.43,-0.69,33.4,8.9,-11.0,35.99,,,,,,,,,,
13.09.11.776,-46.3,11.6,0,,,68870.5,14.52,-0.43,-0.19,0.17,31.4,20.1,3.8,35.57,,,,,,,,,,
13.09.11.786,-49.0,12.2,0,,,68870.5,14.52,-0.38,0.07,-0.51,-15.8,6.1,-0.0,35.62,,,,,,,,,,
13.09.11.795,-78.1,19.5,0,,,68870.5,14.52,-0.9,-0.21,-0.06,-2.6,-7.4,12.1,35.41,,,,,,,,,,
13.09.11.804,-109.2,27.3,0,,,68870.5,14.52,-0.47,-0.13,-0.27,8.6,-3.1,-7.4,35.38,,,,,,,,,,
13.09.11.813,-103.0,25.8,0,,,68870.5,14.52,-0.75,0.07,-0.27,0.9,13.0,10.2,35.83,,,,,,,,,,
13.09.11.823,-64.2,16.0,0,,,68870.5,14.52,-0.64,-0.09,-0.34,-20.5,-4.1,8.3,35.28,,,,,,,,,,
13.09.11.833,-55.5,13.9,0,,,68870.5,14.52,-0.68,-0.2,-0.26,8.2,-11.2,11.7,36.04,,,,,,,,,,
13.09.11.843,-92.1,23.0,0,,,68870.5,14.52,-0.98,0.0,-0.9,25.0,-12.2,-5.3,35.91,,,,,,,,,,
13.09.11.851,,,0,,,,,,,,,,,,,,,,,,,,,
13.09.11.860,-128.1,32.0,0,,,68870.5,14.52,-0.49,-0.13,-0.33,23.9,13.4,3.0,36.16,,,,,,,,,,
13.09.11.870,-167.1,41.8,0,,,68870.5,14.52,-0.88,-0.51,-0.63,-0.6,15.6,-26.1,35.76,,,,,,,,,,
13.09.11.880,-114.2,28.6,1,21.0,97.7,68870.5,14.52,-0.84,0.29,-0.1,5.8,-9.4,4.8,36.22,,,,,,,,,,
13.09.11.888,-83.6,20.9,0,,,68870.5,14.52,-0.82,0.27,-0.72,-10.5,-0.1,-12.4,35.89,,,,,,,,,,
13.09.11.897,-152.8,38.2,0,,,68870.5,14.52,-1.02,0.03,-0.06,23.7,-21.2,0.7,35.85,,,,,,,,,,
13.09.11.909,-175.4,43.8,0,,,68870.5,14.52,-0.52,-0.35,-0.22,3.6,-8.6,35.5,35.78,,,,,,,,,,
13.09.11.918,-149.8,37.4,0,,,68870.5,14.52,-0.73,0.28,-0.53,29.6,8.8,18.8,35.93,,,,,,,,,,
13.09.11.927,-118.5,29.6,0,,,68870.5,14.52,-0.53,-0.4,-0.02,8.7,-13.4,-5.4,35.7,,,,,,,,,,
13.09.11.940,-176.0,44.0,0,,,68870.5,14.52,-1.04,0.02,-0.12,13.0,6.5,14.5,36.11,,,,,,,,,,
13.09.11.948,-156.8,39.2,0,,,68870.5,14.52,-0.72,0.4,-0.02,-0.6,4.2,3.2,35.9,,,,,,,,,,
13.09.11.958,23.9,6.0,0,,,68870.5,14.52,-0.67,-0.11,-0.5,12.2,1.8,15.7,35.32,,,,,,,,,,
13.09.11.966,96.6,24.2,0,,,68870.5,14.52,-1.07,-0.02,-0.24,-11.3,2.2,-5.8,35.98,,,,,,,,,,
13.09.11.977,151.6,37.9,0,,,68870.5,14.52,-0.99,-0.66,0.24,-30.8,-5.4,1.6,35.57,,,,,,,,,,
13.09.11.987,217.8,54.4,0,,,68870.5,14.52,-1.06,0.01,-0.04,9.0,2.8,-6.4,35.82,,,,,,,,,,
13.09.11.997,264.5,66.1,0,,,68870.5,14.52,-0.68,-0.44,-0.45,-12.9,-25.7,3.6,35.95,,,,,,,,,,
13.09.12.007,276.5,69.1,0,,,68870.5,14.52,-0.87,-0.06,0.0,28.1,6.6,23.5,35.88,,,,,,,,,,
13.09.12.016,341.1,85.3,0,,,68870.5,14.52,-0.65,0.35,-0.32,27.2,3.3,-6.6,35.21,,,,,,,,,,
13.09.12.025,394.7,98.7,0,,,68870.5,14.52,-0.52,-0.49,-0.38,20.2,18.5,12.6,35.83,,,,,,,,,,
13.09.12.035,369.6,92.4,0,,,68870.5,14.52,-0.73,0.2,0.11,-11.4,7.1,23.9,35.93,,,,,,,,,,
13.09.12.046,388.3,97.1,0,,,68870.5,14.52,-0.89,0.04,-0.36,-3.9,16.0,-4.1,35.8,,,,,,,,,,
13.09.12.058,386.2,96.6,0,,,68870.5,14.52,-0.78,-0.38,-0.38,14.2,2.8,6.2,35.86,,,,,,,,,,
13.09.12.067,379.6,94.9,0,,,68870.5,14.52,-0.95,0.03,-0.37,-40.3,20.1,-1.0,35.96,,,,,,,,,,
13.09.12.078,378.6,94.6,0,,,68870.5,14.52,-1.18,0.01,-0.85,-0.5,-12.4,-12.1,35.68,,,,,,,,,,
13.09.12.089,339.1,84.8,0,,,68870.5,14.52,-0.93,0.27,-0.23,-45.2,33.3,-6.3,35.63,,,,,,,,,,
13.09.12.100,294.2,73.6,0,,,68870.5,14.52,-0.93,0.03,-0.4,37.7,23.4,1.9,35.62,,,,,,,,,,
13.09.12.110,294.5,73.6,0,,,68870.5,14.52,-0.67,0.6,-0.19,-25.9,-11.5,18.4,35.9,,,,,,,,,,
13.09.12.121,224.0,56.0,0,,,68918.0,14.51,-0.79,0.0,-0.92,31.4,8.0,0.5,36.04,,,,,,,,,,
13.09.12.132,182.1,45.5,0,,,68918.0,14.51,-0.82,0.32,-1.0,-29.6,11.7,6.6,35.78,,,,,,,,,,
13.09.12.143,126.5,31.6,0,,,68918.0,14.51,-0.82,0.01,-0.04,-6.7,14.3,12.1,35.64,,,,,,,,,,
13.09.12.152,52.6,13.2,0,,,68918.0,14.51,-0.75,0.3,0.1,-1.2,3.7,-2.8,35.65,,,,,,,,,,
13.09.12.161,12.5,3.1,0,,,68918.0,14.51,-0.58,-0.18,-0.15,5.1,-2.2,-0.7,35.48,,,,,,,,,,
13.09.12.172,2.0,0.5,0,,,68918.0,14.51,-0.54,0.43,-0.28,-16.0,-17.2,-0.7,35.6,,,,,,,,,,
13.09.12.183,65.3,16.3,0,,,68918.0,14.51,-0.61,0.39,-0.7,-20.3,-6.7,5.9,35.56,,,,,,,,,,
13.09.12.194,67.3,16.8,0,,,68918.0,14.51,-0.31,0.41,-0.82,3.1,33.8,-7.8,36.07,,,,,,,,,,
13.09.12.204,103.8,26.0,0,,,68918.0,14.51,-0.78,0.59,-0.39,-6.6,6.6,1.7,35.98,,,,,,,,,,
13.09.12.215,71.1,17.8,0,,,68918.0,14.51,-0.72,0.32,-0.6,4.1,5.5,3.5,35.98,,,,,,,,,,
13.09.12.223,81.8,20.4,0,,,68918.0,14.51,-0.79,0.24,-0.37,-7.7,-7.7,11.6,35.97,,,,,,,,,,
13.09.12.233,94.7,23.7,0,,,68918.0,14.51,-0.79,0.1,-0.56,12.1,22.9,10.0,35.75,,,,,,,,,,
13.09.12.241,64.6,16.2,0,,,68918.0,14.51,-0.7,0.07,-0.58,9.9,14.3,20.0,36.05,,,,,,,,,,
13.09.12.248,47.1,11.8,0,,,68918.0,14.51,-0.38,0.47,-0.43,34.2,16.1,0.5,35.36,,,,,,,,,,
13.09.12.255,74.4,18.6,0,,,68918.0,14.51,-0.68,0.42,-0.25,14.3,20.0,-21.0,35.63,,,,,,,,,,
13.09.12.265,44.1,11.0,0,,,68918.0,14.51,-0.43,-0.31,-0.51,3.4,13.0,4.3,35.95,,,,,,,,,,
13.09.12.274,8.6,2.2,0,,,68918.0,14.51,-0.67,0.61,-0.34,11.6,-29.5,14.1,35.75,,,,,,,,,,
13.09.12.283,-3.1,0.8,0,,,68918.0,14.51,-0.7,0.59,-0.78,4.8,41.8,19.3,35.86,,,,,,,,,,
13.09.12.291,5.2,1.3,0,,,68918.0,14.51,-0.56,0.63,-0.7,-8.8,3.1,-2.7,35.99,,,,,,,,,,
13.09.12.304,7.7,1.9,0,,,68918.0,14.51,-0.62,0.07,-0.4,36.3,16.5,-0.5,35.77,,,,,,,,,,
13.09.12.312,5.0,1.2,0,,,68918.0,14.51,-0.39,0.35,-0.21,5.8,11.0,-3.7,35.71,,,,,,,,,,
13.09.12.321,-15.6,3.9,0,,,68918.0,14.51,-0.68,0.07,-0.43,-5.8,-8.8,-18.4,35.9,,,,,,,,,,
13.09.12.332,-16.7,4.2,0,,,68918.0,14.51,-0.37,0.04,-0.15,-2.6,19.1,-2.0,35.66,,,,,,,,,,
13.09.12.342,-59.9,15.0,0,,,68918.0,14.51,-0.75,0.29,-0.54,10.8,18.3,-1.4,35.77,,,,,,,,,,
13.09.12.351,-45.7,11.4,0,,,68918.0,14.51,-0.86,0.63,-0.38,36.3,-0.9,-15.2,35.88,,,,,,,,,,
13.09.12.362,-25.3,6.3,0,,,68918.0,14.51,-1.01,0.51,0.06,12.1,-24.7,-11.1,35.68,,,,,,,,,,
13.09.12.373,-39.6,9.9,0,,,68918.0,14.51,-0.55,0.26,0.09,-13.5,0.2,-25.9,35.79,,,,,,,,,,
13.09.12.382,-64.9,16.2,0,,,68918.0,14.51,-0.44,0.56,0.03,-0.6,-3.6,19.1,36.17,,,,,,,,,,
13.09.12.390,-43.2,10.8,0,,,68918.0,14.51,-0.53,0.5,-0.21,-0.1,9.9,11.5,36.11,,,,,,,,,,
13.09.12.398,-29.6,7.4,0,,,68918.0,14.51,-0.21,0.49,0.53,-1.9,16.9,11.4,35.7,,,,,,,,,,
13.09.12.407,-85.0,21.2,0,,,68918.0,14.51,-0.65,-0.01,0.1,-25.8,10.1,-9.7,36.0,,,,,,,,,,
13.09.12.416,-62.3,15.6,0,,,68918.0,14.51,-0.67,0.07,-0.37,-23.2,15.0,-7.8,36.03,,,,,,,,,,
13.09.12.426,-70.1,17.5,0,,,68918.0,14.51,-0.87,0.22,0.08,-20.1,-1.6,-10.8,35.76,,,,,,,,,,
13.09.12.435,-128.1,32.0,0,,,68918.0,14.51,-0.58,0.63,-0.25,-17.4,-10.0,7.4,35.47,,,,,,,,,,
13.09.12.443,-87.2,21.8,1,22.0,106.6,68918.0,14.51,-0.26,0.04,-0.66,30.9,-20.1,10.7,35.7,,,,,,,,,,
13.09.12.453,-91.6,22.9,0,,,68918.0,14.51,-0.67,0.49,-0.02,9.0,-4.6,-29.6,35.78,,,,,,,,,,
13.09.12.463,-107.3,26.8,0,,,68918.0,14.51,-0.55,0.02,-0.27,23.9,-10.5,-5.8,35.61,,,,,,,,,,
13.09.12.471,-138.6,34.6,0,,,68918.0,14.51,-0.26,0.2,-0.33,-16.0,24.1,19.9,35.81,,,,,,,,,,
13.09.12.479,-141.2,35.3,0,,,68918.0,14.51,-0.35,-0.08,-0.12,44.6,-4.7,-6.9,35.81,,,,,,,,,,
13.09.12.489,-137.2,34.3,0,,,68918.0,14.51,-0.74,-0.06,-0.3,-2.2,-4.9,3.4,35.59,,,,,,,,,,
13.09.12.498,-119.2,29.8,0,,,68918.0,14.51,-0.63,-0.09,-0.25,-3.7,34.6,-6.0,35.88,,,,,,,,,,
13.09.12.509,-127.5,31.9,0,,,68918.0,14.51,-0.74,0.27,-0.75,-41.4,12.2,-0.9,35.66,,,,,,,,,,
13.09.12.519,-138.7,34.7,0,,,68918.0,14.51,-0.44,0.43,-0.34,-25.3,15.9,2.8,36.01,,,,,,,,,,
13.09.12.530,-117.2,29.3,0,,,68918.0,14.51,-0.32,-0.16,-0.39,-0.5,-6.2,-6.2,35.87,,,,,,,,,,
13.09.12.539,-187.1,46.8,0,,,68918.0,14.51,-0.38,-0.51,-0.56,-25.5,-2.6,-11.4,35.88,,,,,,,,,,
13.09.12.549,-3.2,0.8,0,,,68918.0,14.51,-0.73,-0.03,-0.3,-42.6,13.7,-9.2,35.82,,,,,,,,,,
13.09.12.557,68.6,17.2,0,,,68918.0,14.51,-0.43,-0.2,-0.39,18.4,-19.6,1.2,36.1,,,,,,,,,,
13.09.12.565,107.4,26.8,0,,,68918.0,14.51,-0.59,0.18,-0.56,-4.6,12.5,-7.8,35.7,,,,,,,,,,
13.09.12.573,138.4,34.6,0,,,68918.0,14.51,-0.6,-0.02,-0.21,2.2,-14.0,-3.2,35.74,,,,,,,,,,
13.09.12.582,226.8,56.7,0,,,68918.0,14.51,-0.9,-0.25,-0.73,15.6,8.8,3.2,35.55,,,,,,,,,,
13.09.12.592,231.2,57.8,0,,,68918.0,14.51,-0.53,0.28,-0.49,-9.0,-5.4,2.0,35.84,,,,,,,,,,
13.09.12.603,306.7,76.7,0,,,68918.0,14.51,-0.66,0.04,-0.62,3.3,22.4,-8.6,35.41,,,,,,,,,,
13.09.12.614,361.3,90.3,0,,,68918.0,14.51,-0.64,0.01,-0.12,-28.6,6.9,18.9,35.7,,,,,,,,,,
13.09.12.622,386.9,96.7,0,,,68918.0,14.51,-0.43,0.24,-0.68,1.8,-14.1,-4.2,35.68,,,,,,,,,,
13.09.12.631,385.4,96.4,0,,,68918.0,14.51,-0.95,0.18,-0.63,12.2,22.9,-8.0,35.9,,,,,,,,,,
13.09.12.640,393.9,98.5,0,,,68918.0,14.51,-0.43,-0.11,-0.82,-0.9,-8.4,8.8,35.72,,,,,,,,,,
13.09.12.650,418.4,104.6,0,,,68918.0,14.51,-0.77,-0.4,-1.14,17.7,-8.0,-0.1,36.09,,,,,,,,,,
13.09.12.660,425.0,106.2,0,,,68918.0,14.51,-0.86,-0.45,-0.59,13.6,-0.1,-14.1,36.11,,,,,,,,,,
13.09.12.669,374.9,93.7,0,,,68918.0,14.51,-0.61,-0.53,-0.51,6.0,-11.6,0.8,36.01,,,,,,,,,,
13.09.12.677,407.1,101.8,0,,,68918.0,14.51,-0.73,-0.53,-0.02,-7.6,13.7,5.1,35.94,,,,,,,,,,
13.09.12.689,305.2,76.3,0,,,68918.0,14.51,-0.78,0.1,-0.35,35.8,-6.4,-1.7,35.88,,,,,,,,,,
13.09.12.696,306.3,76.6,0,,,68918.0,14.51,-0.76,-0.51,-0.54,-17.5,-18.0,-31.2,35.61,,,,,,,,,,
13.09.12.704,309.9,77.5,0,,,68918.0,14.51,-1.0,-0.27,-0.53,23.1,-14.4,8.2,35.68,,,,,,,,,,
13.09.12.714,246.5,61.6,0,,,68918.0,14.51,-0.74,-0.14,-0.21,28.4,2.9,10.8,35.28,,,,,,,,,,
13.09.12.725,185.3,46.3,0,,,68918.0,14.51,-0.75,-0.23,-0.42,-15.6,21.7,-17.8,35.83,,,,,,,,,,
13.09.12.734,155.2,38.8,0,,,68918.0,14.51,-0.85,-0.6,-0.29,-43.3,1.2,-5.5,35.71,,,,,,,,,,
13.09.12.745,40.2,10.0,0,,,68918.0,14.51,-0.85,0.01,-0.24,20.3,-12.6,-14.1,35.8,,,,,,,,,,
13.09.12.755,-14.0,3.5,0,,,68918.0,14.51,-0.51,-0.98,0.02,-27.3,10.7,-3.3,35.74,,,,,,,,,,
13.09.12.764,17.8,4.4,0,,,68918.0,14.51,-0.39,-0.1,0.17,7.4,28.5,14.2,35.97,,,,,,,,,,
13.09.12.774,5.6,1.4,0,,,68965.5,14.5,-0.66,-0.05,-0.42,-2.2,-11.1,-27.6,35.78,,,,,,,,,,
13.09.12.785,54.5,13.6,0,,,68965.5,14.5,-1.03,0.3,-0.37,28.5,-16.7,13.4,35.8,,,,,,,,,,
13.09.12.794,62.4,15.6,0,,,68965.5,14.5,-0.94,-0.02,-0.32,3.0,-0.3,-2.5,36.03,,,,,,,,,,
13.09.12.800,24.7,6.2,0,,,68965.5,14.5,-0.72,-0.26,-0.1,14.5,15.2,-6.3,35.65,,,,,,,,,,
13.09.12.810,59.6,14.9,0,,,68965.5,14.5,-0.79,0.11,-0.11,-7.0,-25.3,-18.5,35.69,,,,,,,,,,
13.09.12.821,75.7,18.9,0,,,68965.5,14.5,-0.8,0.4,0.07,-12.8,-18.7,3.4,35.65,,,,,,,,,,
13.09.12.832,72.5,18.1,0,,,68965.5,14.5,-0.67,-0.2,-0.36,35.0,13.7,10.6,35.8,,,,,,,,,,
13.09.12.841,55.0,13.8,0,,,68965.5,14.5,-0.64,-0.19,0.18,16.5,-5.2,13.1,35.96,,,,,,,,,,
13.09.12.851,53.8,13.4,0,,,68965.5,14.5,-0.84,0.25,-0.8,7.5,14.1,-12.1,35.71,,,,,,,,,,
13.09.12.862,30.0,7.5,0,,,68965.5,14.5,-0.44,0.65,-0.71,-1.6,2.7,-7.4,36.08,,,,,,,,,,
13.09.12.874,8.8,2.2,0,,,68965.5,14.5,-1.34,0.15,-0.25,11.4,25.4,-12.2,36.1,,,,,,,,,,
13.09.12.883,-22.8,5.7,0,,,68965.5,14.5,-0.87,0.25,-0.67,7.1,-14.5,-10.1,35.33,,,,,,,,,,
13.09.12.892,11.6,2.9,0,,,68965.5,14.5,-1.05,0.08,0.01,-22.3,-17.5,8.2,35.95,,,,,,,,,,
13.09.12.902,-38.9,9.7,0,,,68965.5,14.5,-0.72,-0.31,-0.53,-6.6,-13.3,-16.5,35.57,,,,,,,,,,
13.09.12.912,-30.8,7.7,0,,,68965.5,14.5,-1.37,-0.07,-0.24,-18.6,1.4,15.3,35.88,,,,,,,,,,
