timestamp,ppg,threshold,beat,beat_count,inst_bpm,gsr_resistance_ohm,gsr_conductance_us,accel_x,accel_y,accel_z,gyro_x,gyro_y,gyro_z,temp_c,window_bpm,window_temp_c,status_message,SpO2,bmi,age,height,weight,env_temp_c,env_humidity_pct
13.06.00.000,0.0,0.0,0,,,21290.2,46.97,-0.26,0.39,0.56,-6.3,-19.6,5.6,34.81,123.9,,,,28.3,22.0,170.18,82.0,31.44,45.0
13.06.00.010,115.5,28.9,0,,,21290.2,46.97,-0.11,0.34,0.33,-15.4,17.0,1.3,34.65,,,,,,,,,,
13.06.00.020,267.0,66.8,0,,,21290.2,46.97,-0.24,0.94,1.2,-1.8,17.2,-17.4,34.8,,,,,,,,,,
13.06.00.030,267.7,66.9,0,,,21290.2,46.97,-0.7,1.58,0.85,-12.2,1.9,12.5,34.86,,,,,,,,,,
13.06.00.041,311.0,77.8,0,,,21294.7,46.96,0.05,1.24,0.34,-31.7,17.7,-0.4,34.4,,,,,,,,,,
13.06.00.050,343.3,85.8,0,,,21294.7,46.96,-0.24,0.66,1.33,41.8,-7.1,-16.3,34.81,,,,,,,,,,
13.06.00.060,466.3,116.6,0,,,21294.7,46.96,-0.15,0.28,0.62,-5.4,32.2,-21.1,34.91,,,,,,,,,,
13.06.00.069,436.3,109.1,0,,,21294.7,46.96,0.23,0.1,0.33,20.5,-12.9,-7.9,34.96,,,,,,,,,,
13.06.00.079,471.4,117.8,0,,,21294.7,46.96,0.03,0.15,1.37,-0.4,-1.8,8.6,34.86,,,,,,,,,,
13.06.00.090,547.3,136.8,0,,,21294.7,46.96,-0.29,0.8,0.55,-1.2,-4.9,6.7,34.69,,,,,,,,,,
13.06.00.099,397.4,99.4,0,,,21294.7,46.96,-0.31,0.83,0.78,-20.9,11.6,9.7,34.8,,,,,,,,,,
13.06.00.112,407.4,101.8,0,,,21294.7,46.96,-0.15,0.02,0.85,3.5,-1.1,10.1,34.99,,,,,,,,,,
13.06.00.122,381.2,95.3,0,,,21294.7,46.96,-0.19,-0.07,0.14,8.1,2.4,5.4,34.89,,,,,,,,,,
13.06.00.132,344.9,86.2,0,,,21294.7,46.96,-0.34,1.05,1.0,6.2,-8.4,0.2,34.9,,,,,,,,,,
13.06.00.139,248.1,62.0,0,,,21294.7,46.96,-0.4,-0.5,0.82,3.3,2.8,0.4,35.03,,,,,,,,,,
13.06.00.149,202.0,50.5,0,,,21299.3,46.95,-0.12,0.6,0.6,-19.0,13.2,-2.2,34.9,,,,,,,,,,
13.06.00.159,60.7,15.2,0,,,21299.3,46.95,-0.34,-0.09,-0.14,11.0,-9.8,12.1,35.05,,,,,,,,,,
13.06.00.168,-16.4,4.1,0,,,21299.3,46.95,-0.36,0.2,-0.19,-2.4,5.9,-15.0,35.12,,,,,,,,,,
13.06.00.177,4.8,1.2,0,,,21299.3,46.95,-0.22,0.09,0.2,5.1,-19.4,-18.1,34.82,,,,,,,,,,
13.06.00.186,24.4,6.1,0,,,21299.3,46.95,-0.58,-0.12,0.39,14.9,-4.0,8.2,35.19,,,,,,,,,,
13.06.00.196,57.4,14.4,0,,,21299.3,46.95,-0.32,-0.23,-0.08,-11.6,32.6,9.9,34.52,,,,,,,,,,
13.06.00.205,91.9,23.0,0,,,21299.3,46.95,-0.57,0.56,-0.63,-17.8,2.9,-18.8,34.98,,,,,,,,,,
13.06.00.215,24.3,6.1,0,,,21299.3,46.95,-0.6,0.2,-0.55,-61.5,3.9,-5.4,34.97,,,,,,,,,,
13.06.00.225,71.1,17.8,0,,,21299.3,46.95,-0.38,-0.09,-0.25,11.2,-30.1,0.1,35.13,,,,,,,,,,
13.06.00.235,89.7,22.4,0,,,21299.3,46.95,-0.21,-0.26,-0.33,-12.9,-18.8,-22.9,34.78,,,,,,,,,,
13.06.00.244,48.8,12.2,0,,,21299.3,46.95,-0.57,0.24,-0.06,34.0,-21.0,-10.7,35.06,,,,,,,,,,
13.06.00.252,0.2,0.0,0,,,21299.3,46.95,-0.14,0.74,0.05,57.6,15.4,11.2,34.82,,,,,,,,,,
13.06.00.262,22.4,5.6,0,,,21303.8,46.94,-0.81,0.53,-1.03,24.8,26.4,-17.8,34.83,,,,,,,,,,
13.06.00.271,-7.2,1.8,0,,,21303.8,46.94,-0.38,0.69,-0.54,0.8,11.9,24.3,35.0,,,,,,,,,,
13.06.00.279,-74.7,18.7,0,,,21303.8,46.94,-0.47,0.5,-0.11,42.6,-6.4,5.7,34.99,,,,,,,,,,
13.06.00.289,-44.3,11.1,0,,,21303.8,46.94,-0.52,1.15,-0.63,1.0,-7.4,-8.3,34.91,,,,,,,,,,
13.06.00.297,-31.9,8.0,0,,,21303.8,46.94,-0.32,0.94,-0.74,-16.4,9.1,18.2,34.89,,,,,,,,,,
13.06.00.308,-10.1,2.5,0,,,21303.8,46.94,-0.6,0.88,-0.82,2.8,-15.3,-2.3,34.95,,,,,,,,,,
13.06.00.318,-88.7,22.2,0,,,21303.8,46.94,-0.51,0.46,-0.31,-21.6,1.9,8.4,34.79,,,,,,,,,,
13.06.00.329,-41.1,10.3,0,,,21303.8,46.94,-0.17,0.26,-0.83,9.7,-3.0,-18.9,35.23,,,,,,,,,,
13.06.00.339,-51.1,12.8,0,,,21303.8,46.94,-0.8,0.51,-0.01,44.3,2.5,9.2,35.23,,,,,,,,,,
13.06.00.350,-49.2,12.3,0,,,21303.8,46.94,0.18,0.63,0.41,27.3,-5.9,-1.3,35.05,,,,,,,,,,
13.06.00.362,-81.9,20.5,0,,,21308.3,46.93,-0.86,0.6,0.66,7.7,-7.6,-4.6,35.01,,,,,,,,,,
13.06.00.374,-63.9,16.0,0,,,21308.3,46.93,-0.4,0.56,0.74,7.8,18.4,-0.3,35.14,,,,,,,,,,
13.06.00.382,-38.6,9.6,0,,,21308.3,46.93,-0.14,0.82,0.89,-7.1,-5.9,-10.0,35.06,,,,,,,,,,
13.06.00.390,-131.3,32.8,0,,,21308.3,46.93,0.04,0.77,1.12,5.2,36.6,-26.1,34.81,,,,,,,,,,
13.06.00.401,-129.4,32.4,0,,,21308.3,46.93,-0.72,0.15,0.43,0.1,13.0,-11.4,34.99,,,,,,,,,,
13.06.00.412,-126.5,31.6,0,,,21308.3,46.93,-0.09,0.36,0.98,24.4,5.5,13.9,34.74,,,,,,,,,,
13.06.00.423,-202.6,50.6,0,,,21308.3,46.93,0.12,0.67,0.52,13.3,2.6,3.2,34.95,,,,,,,,,,
13.06.00.433,-141.7,35.4,0,,,21308.3,46.93,-0.11,-0.04,0.79,-7.0,10.4,-13.7,35.05,,,,,,,,,,
13.06.00.442,-189.6,47.4,0,,,21308.3,46.93,0.33,0.29,1.01,-7.9,3.4,-14.8,34.74,,,,,,,,,,
13.06.00.450,-107.3,26.8,0,,,21308.3,46.93,-0.09,0.33,1.56,26.1,-9.1,-45.0,34.5,,,,,,,,,,
13.06.00.460,-194.8,48.7,0,,,21308.3,46.93,-0.52,-0.57,0.05,-0.5,8.2,12.2,34.75,,,,,,,,,,
13.06.00.469,-154.3,38.6,0,,,21308.3,46.93,-0.37,0.06,0.29,24.6,-5.7,19.8,35.16,,,,,,,,,,
13.06.00.478,-201.4,50.4,0,,,21312.9,46.92,-0.21,-0.17,-0.14,14.5,17.5,-14.8,34.54,,,,,,,,,,
13.06.00.488,95.6,23.9,1,1.0,,21312.9,46.92,-0.18,0.31,0.83,6.4,-6.7,-10.4,34.91,,,,,,,,,,
13.06.00.498,122.5,30.6,0,,,21312.9,46.92,-0.57,-0.52,0.56,-13.6,-3.9,6.3,35.14,,,,,,,,,,
13.06.00.509,289.4,72.4,0,,,21312.9,46.92,-0.33,-0.22,0.14,-3.8,-21.0,-0.8,34.8,,,,,,,,,,
13.06.00.518,320.1,80.0,0,,,21312.9,46.92,-0.65,-0.32,-0.11,44.4,22.7,16.1,34.89,,,,,,,,,,
13.06.00.526,385.7,96.4,0,,,21312.9,46.92,-0.58,0.45,-0.09,6.8,1.2,12.5,34.56,,,,,,,,,,
13.06.00.537,368.5,92.1,0,,,21312.9,46.92,-0.44,0.04,0.39,-1.8,11.1,-20.3,35.04,,,,,,,,,,
13.06.00.546,429.6,107.4,0,,,21312.9,46.92,-0.17,0.64,-0.0,-19.6,18.0,-18.3,35.35,,,,,,,,,,
13.06.00.555,499.8,125.0,0,,,21312.9,46.92,-0.39,-0.01,0.15,-9.3,2.0,-8.9,34.8,,,,,,,,,,
13.06.00.564,509.7,127.4,0,,,21312.9,46.92,-0.43,-0.25,-0.13,-5.4,14.9,-6.7,35.17,,,,,,,,,,
13.06.00.574,427.1,106.8,0,,,21312.9,46.92,-0.86,0.54,-0.54,-2.2,33.8,0.6,34.81,,,,,,,,,,
13.06.00.582,411.7,102.9,0,,,21317.4,46.91,-0.6,0.51,-0.48,19.3,13.0,-0.7,35.27,,,,,,,,,,
13.06.00.593,391.5,97.9,0,,,21317.4,46.91,-0.33,0.72,0.25,-2.5,17.2,8.5,35.08,,,,,,,,,,
13.06.00.606,374.0,93.5,0,,,21317.4,46.91,-0.42,0.76,-0.87,-44.7,3.8,15.0,34.97,,,,,,,,,,
13.06.00.618,201.0,50.2,0,,,21317.4,46.91,-0.69,0.6,0.06,19.8,18.9,13.3,34.68,,,,,,,,,,
13.06.00.629,160.2,40.0,0,,,21317.4,46.91,-1.23,0.21,-1.35,22.2,-2.9,6.3,35.22,,,,,,,,,,
13.06.00.640,77.9,19.5,0,,,21317.4,46.91,-0.89,0.91,0.37,-19.3,-23.8,-0.3,34.85,,,,,,,,,,
13.06.00.651,-0.7,0.2,0,,,21317.4,46.91,-0.25,0.8,0.19,-11.2,12.8,-10.5,34.73,,,,,,,,,,
13.06.00.659,9.6,2.4,0,,,21317.4,46.91,-0.64,0.82,-0.1,-42.9,6.6,-26.5,35.15,,,,,,,,,,
13.06.00.668,39.3,9.8,0,,,21317.4,46.91,-0.58,0.81,0.26,-15.3,6.2,2.8,34.9,,,,,,,,,,
13.06.00.680,68.1,17.0,0,,,21317.4,46.91,-0.29,0.86,-0.19,-3.9,-14.1,-10.7,35.05,,,,,,,,,,
13.06.00.688,82.8,20.7,0,,,21322.0,46.9,-0.55,0.87,0.52,3.0,13.3,18.8,34.77,,,,,,,,,,
13.06.00.699,120.4,30.1,0,,,21322.0,46.9,-0.27,1.02,-0.5,-7.5,12.8,-0.2,35.19,,,,,,,,,,
13.06.00.710,93.4,23.4,0,,,21322.0,46.9,-0.62,0.86,0.11,6.6,14.4,-28.1,34.58,,,,,,,,,,
13.06.00.720,58.3,14.6,0,,,21322.0,46.9,-0.24,1.06,1.39,13.5,15.1,-9.7,34.89,,,,,,,,,,
13.06.00.729,33.6,8.4,0,,,21322.0,46.9,-0.03,0.63,0.13,-24.7,24.5,3.9,35.13,,,,,,,,,,
13.06.00.739,-29.1,7.3,0,,,21322.0,46.9,-0.03,0.29,0.89,21.2,16.5,3.3,35.02,,,,,,,,,,
13.06.00.749,-29.1,7.3,0,,,21322.0,46.9,-0.06,0.66,1.28,-1.4,18.9,-11.5,34.86,,,,,,,,,,
13.06.00.759,29.3,7.3,0,,,21322.0,46.9,0.16,-0.16,-0.12,2.2,-16.6,-23.6,35.18,,,,,,,,,,
13.06.00.769,-32.4,8.1,0,,,21322.0,46.9,-0.33,-0.17,-0.2,18.0,-2.8,13.1,34.83,,,,,,,,,,
13.06.00.780,-92.5,23.1,0,,,21322.0,46.9,-0.57,0.27,1.15,52.4,7.8,6.8,34.82,,,,,,,,,,
13.06.00.788,-2.8,0.7,0,,,21322.0,46.9,-0.21,-0.39,1.23,48.9,1.2,-2.3,34.97,,,,,,,,,,
13.06.00.797,-29.3,7.3,0,,,21326.5,46.89,-0.2,-0.04,0.37,-24.3,-1.1,5.0,35.08,,,,,,,,,,
13.06.00.807,-79.2,19.8,0,,,21326.5,46.89,-0.4,-0.06,0.93,-5.1,18.4,1.4,34.97,,,,,,,,,,
13.06.00.817,-94.2,23.6,0,,,21326.5,46.89,0.37,0.5,0.62,-11.6,3.7,2.9,35.08,,,,,,,,,,
13.06.00.827,-95.2,23.8,0,,,21326.5,46.89,-0.24,0.42,0.47,-32.0,-22.6,1.0,35.06,,,,,,,,,,
13.06.00.838,-117.3,29.3,0,,,21326.5,46.89,-0.19,-0.01,0.28,5.3,-6.8,8.8,34.95,,,,,,,,,,
13.06.00.849,-64.7,16.2,1,2.0,166.2,21326.5,46.89,-0.25,0.49,0.6,-32.4,4.7,0.0,35.01,,,,,,,,,,
13.06.00.860,-106.1,26.5,0,,,21326.5,46.89,-0.54,-0.52,0.56,-3.0,14.7,-5.9,35.16,,,,,,,,,,
13.06.00.870,-127.8,32.0,0,,,21326.5,46.89,-0.26,0.31,0.2,-1.2,0.7,4.2,34.79,,,,,,,,,,
13.06.00.879,-111.0,27.8,0,,,21326.5,46.89,-0.41,-0.31,1.37,0.7,8.0,-7.6,35.01,,,,,,,,,,
13.06.00.890,-142.9,35.7,0,,,21326.5,46.89,-0.58,0.06,0.15,24.2,-0.9,-6.5,35.26,,,,,,,,,,
13.06.00.901,-130.3,32.6,0,,,21326.5,46.89,0.0,-0.04,0.3,-12.2,13.8,11.2,35.14,,,,,,,,,,
13.06.00.912,-100.3,25.1,0,,,21331.1,46.88,-0.55,0.46,-0.24,-10.2,4.0,-0.5,35.0,,,,,,,,,,
13.06.00.922,-203.1,50.8,0,,,21331.1,46.88,-0.53,-0.43,0.46,-6.5,-25.3,-3.1,34.7,,,,,,,,,,
13.06.00.931,-180.6,45.2,0,,,21331.1,46.88,-0.64,-0.15,-0.44,-6.1,18.3,-29.0,35.28,,,,,,,,,,
13.06.00.941,-185.7,46.4,0,,,21331.1,46.88,-0.98,0.45,-0.28,10.6,8.3,2.7,34.82,,,,,,,,,,
13.06.00.952,-224.7,56.2,0,,,21331.1,46.88,-0.94,0.37,-0.46,15.6,-3.6,20.9,34.99,,,,,,,,,,
13.06.00.962,-16.5,4.1,0,,,21331.1,46.88,-0.7,0.59,-0.22,-20.7,-2.9,-0.7,35.14,,,,,,,,,,
13.06.00.972,121.9,30.5,0,,,21331.1,46.88,-0.25,0.64,-0.51,20.1,13.3,-9.7,34.7,,,,,,,,,,
13.06.00.981,178.9,44.7,0,,,21331.1,46.88,-1.03,0.77,0.84,37.6,5.7,14.5,35.18,,,,,,,,,,
13.06.00.991,233.5,58.4,0,,,21331.1,46.88,-0.33,-0.24,-1.06,-0.3,8.6,-15.7,35.04,,,,,,,,,,
13.06.00.999,368.4,92.1,0,,,21331.1,46.88,-0.24,0.32,-0.08,-8.7,-4.0,-18.0,34.92,,,,,,,,,,
13.06.01.008,349.2,87.3,0,,,21331.1,46.88,-0.72,0.71,-0.09,-29.4,10.3,1.7,35.08,,,,,,,,,,
13.06.01.016,446.8,111.7,0,,,21335.6,46.87,-0.36,0.42,-0.53,-12.0,-2.7,-3.5,35.0,,,,,,,,,,
13.06.01.027,503.0,125.8,0,,,21335.6,46.87,-0.24,0.7,-0.35,5.5,9.2,-13.5,34.58,,,,,,,,,,
13.06.01.038,537.5,134.4,0,,,21335.6,46.87,-0.35,0.21,0.62,-3.8,14.7,9.5,34.78,,,,,,,,,,
13.06.01.048,441.6,110.4,0,,,21335.6,46.87,-0.67,0.73,0.39,-57.9,-5.8,5.8,34.57,,,,,,,,,,
13.06.01.059,470.3,117.6,0,,,21335.6,46.87,-0.2,0.94,0.46,-13.9,-0.6,1.3,34.9,,,,,,,,,,
13.06.01.067,375.9,94.0,0,,,21335.6,46.87,-0.14,0.64,0.33,-21.4,18.7,-2.3,34.61,,,,,,,,,,
13.06.01.077,486.1,121.5,0,,,21335.6,46.87,0.05,0.97,0.88,-5.8,0.2,7.0,34.57,,,,,,,,,,
13.06.01.088,281.2,70.3,0,,,21335.6,46.87,-0.17,1.1,0.24,-9.0,3.4,15.4,34.79,,,,,,,,,,
13.06.01.099,264.0,66.0,0,,,21335.6,46.87,-0.49,0.4,1.31,-4.2,11.5,20.7,35.02,,,,,,,,,,
13.06.01.110,94.6,23.6,0,,,21335.6,46.87,-0.28,0.64,2.0,6.0,2.2,-12.9,34.56,,,,,,,,,,
13.06.01.119,80.5,20.1,0,,,21335.6,46.87,-0.19,0.53,0.58,24.7,38.7,1.7,34.76,,,,,,,,,,
13.06.01.130,44.4,11.1,0,,,21335.6,46.87,-0.47,1.78,0.64,-28.5,24.2,7.6,34.65,,,,,,,,,,
13.06.01.141,16.1,4.0,0,,,21335.6,46.87,0.24,0.96,0.63,10.2,13.1,-22.5,35.1,,,,,,,,,,
13.06.01.150,15.1,3.8,0,,,21340.2,46.86,-0.05,0.23,0.3,21.9,46.7,-13.8,34.85,,,,,,,,,,
13.06.01.158,87.9,22.0,0,,,21340.2,46.86,0.09,0.2,1.08,-7.9,6.2,1.1,34.76,,,,,,,,,,
13.06.01.168,88.9,22.2,0,,,21340.2,46.86,-0.14,0.34,0.9,27.9,0.8,21.2,34.73,,,,,,,,,,
13.06.01.178,80.0,20.0,0,,,21340.2,46.86,-0.18,-0.76,0.28,17.3,16.3,25.8,34.99,,,,,,,,,,
13.06.01.190,76.0,19.0,0,,,21340.2,46.86,-0.42,0.39,0.13,11.5,-2.5,-5.3,34.82,,,,,,,,,,
13.06.01.200,65.3,16.3,0,,,21340.2,46.86,-0.6,0.11,1.32,-9.2,-6.5,-16.7,35.12,,,,,,,,,,
13.06.01.212,-5.1,1.3,0,,,21340.2,46.86,-0.44,0.38,0.77,-14.5,15.1,6.4,35.06,,,,,,,,,,
13.06.01.222,-5.9,1.5,0,,,21340.2,46.86,-0.16,0.04,0.51,17.3,14.5,3.0,35.08,,,,,,,,,,
13.06.01.231,-13.8,3.4,0,,,21340.2,46.86,-0.46,0.15,0.47,6.5,-27.1,-4.7,34.59,,,,,,,,,,
13.06.01.239,-62.9,15.7,0,,,21340.2,46.86,0.01,0.29,1.03,41.0,4.6,-7.2,35.1,,,,,,,,,,
13.06.01.248,16.9,4.2,0,,,21340.2,46.86,-0.61,-0.04,0.33,-20.0,28.1,-2.2,34.77,,,,,,,,,,
13.06.01.256,-61.1,15.3,0,,,21340.2,46.86,-0.12,0.48,0.09,-15.0,6.7,5.2,34.95,,,,,,,,,,
13.06.01.264,2.2,0.6,1,3.0,144.6,21340.2,46.86,-0.79,-0.19,-0.37,-8.6,-1.2,-1.4,35.05,,,,,,,,,,
13.06.01.274,-76.0,19.0,0,,,21340.2,46.86,-0.54,0.68,0.48,-15.7,-15.0,7.3,34.8,,,,,,,,,,
13.06.01.284,-36.4,9.1,0,,,21344.7,46.85,-0.22,0.45,-0.16,-21.7,3.8,-0.7,34.98,,,,,,,,,,
13.06.01.295,-94.6,23.6,0,,,21344.7,46.85,-0.63,0.62,-0.05,-15.2,1.2,-0.7,34.88,,,,,,,,,,
13.06.01.305,-19.1,4.8,0,,,21344.7,46.85,-0.49,-0.14,-0.34,-27.8,7.4,-4.1,34.71,,,,,,,,,,
13.06.01.316,-110.1,27.5,0,,,21344.7,46.85,-0.59,0.56,-0.56,7.8,12.0,-2.1,34.97,,,,,,,,,,
13.06.01.325,-108.8,27.2,0,,,21344.7,46.85,-0.5,0.63,0.27,2.4,-0.1,-32.6,34.82,,,,,,,,,,
13.06.01.335,-165.0,41.2,0,,,21344.7,46.85,-0.46,1.04,-0.35,-2.8,-1.7,-3.6,34.9,,,,,,,,,,
13.06.01.345,-113.2,28.3,0,,,21344.7,46.85,-0.58,0.25,0.22,-40.0,-43.8,-4.8,35.38,,,,,,,,,,
13.06.01.354,-145.8,36.4,0,,,21344.7,46.85,-0.65,0.52,0.31,36.6,-19.4,-13.5,35.19,,,,,,,,,,
13.06.01.362,-130.0,32.5,0,,,21344.7,46.85,-0.83,0.99,-1.01,24.6,-11.9,3.2,34.67,,,,,,,,,,
13.06.01.371,-152.8,38.2,0,,,21344.7,46.85,-0.26,0.65,0.06,4.3,6.8,-14.0,34.91,,,,,,,,,,
13.06.01.378,-156.8,39.2,0,,,21344.7,46.85,-0.18,0.82,-0.27,0.7,5.5,-1.7,34.98,,,,,,,,,,
13.06.01.388,-93.4,23.4,0,,,21344.7,46.85,-0.22,1.2,-0.74,3.6,-6.5,-16.6,34.85,,,,,,,,,,
13.06.01.398,-202.8,50.7,0,,,21344.7,46.85,-0.77,0.5,-0.25,-6.4,-3.3,15.0,35.03,,,,,,,,,,
13.06.01.406,-179.4,44.8,0,,,21344.7,46.85,-0.4,0.82,0.04,20.6,5.8,-5.0,34.83,,,,,,,,,,
13.06.01.417,-224.5,56.1,0,,,21349.3,46.84,-0.18,0.11,-0.35,-7.4,11.1,7.6,34.8,,,,,,,,,,
13.06.01.428,-242.3,60.6,0,,,21349.3,46.84,-0.63,0.72,0.63,-6.9,10.0,-5.7,34.76,,,,,,,,,,
13.06.01.438,64.8,16.2,0,,,21349.3,46.84,-0.57,1.12,0.17,-1.1,18.9,-6.8,34.82,,,,,,,,,,
13.06.01.447,34.7,8.7,0,,,21349.3,46.84,-0.42,0.34,0.82,-24.9,14.1,-2.4,35.07,,,,,,,,,,
13.06.01.458,191.6,47.9,0,,,21349.3,46.84,-0.14,0.62,1.22,-6.3,-20.0,-4.8,34.94,,,,,,,,,,
13.06.01.468,258.8,64.7,0,,,21349.3,46.84,-0.48,0.43,0.15,17.9,-5.3,22.6,34.88,,,,,,,,,,
13.06.01.479,382.7,95.7,0,,,21349.3,46.84,-0.28,1.02,0.32,17.3,7.2,9.0,35.11,,,,,,,,,,
13.06.01.489,391.4,97.8,0,,,21349.3,46.84,-0.24,0.04,0.39,-18.5,21.1,20.0,35.01,,,,,,,,,,
13.06.01.501,369.2,92.3,0,,,21349.3,46.84,0.2,-0.28,1.26,20.3,11.9,13.5,34.81,,,,,,,,,,
13.06.01.511,473.1,118.3,0,,,21349.3,46.84,-0.19,0.88,0.61,1.1,19.6,-1.9,35.02,,,,,,,,,,
13.06.01.519,489.3,122.3,0,,,21349.3,46.84,-0.06,0.9,0.52,-6.8,17.4,-2.5,35.11,,,,,,,,,,
13.06.01.527,531.6,132.9,0,,,21349.3,46.84,-0.29,-0.07,0.68,-35.2,-8.7,-3.9,35.02,,,,,,,,,,
13.06.01.536,434.7,108.7,0,,,21349.3,46.84,0.15,0.71,0.72,5.3,4.8,13.8,35.01,,,,,,,,,,
13.06.01.544,453.4,113.4,0,,,21353.8,46.83,-0.16,-0.72,0.82,22.7,6.2,17.5,34.88,,,,,,,,,,
13.06.01.554,338.3,84.6,0,,,21353.8,46.83,-0.26,-0.18,0.92,0.2,2.1,-10.3,35.0,,,,,,,,,,
13.06.01.566,308.9,77.2,0,,,21353.8,46.83,-0.44,-0.26,0.49,-2.1,9.8,-12.0,35.18,,,,,,,,,,
13.06.01.576,217.2,54.3,0,,,21353.8,46.83,-0.49,0.66,0.81,1.3,4.6,24.8,35.06,,,,,,,,,,
13.06.01.584,198.7,49.7,0,,,21353.8,46.83,-0.65,0.21,0.99,-3.3,2.5,0.6,35.13,,,,,,,,,,
13.06.01.594,128.7,32.2,0,,,21353.8,46.83,-0.09,0.61,0.34,3.8,-4.8,7.1,34.85,,,,,,,,,,
13.06.01.604,15.5,3.9,0,,,21353.8,46.83,-0.66,0.44,-0.3,-11.3,19.1,-12.3,35.08,,,,,,,,,,
13.06.01.614,41.7,10.4,0,,,21353.8,46.83,-0.13,0.13,0.6,12.6,-4.1,7.6,34.78,,,,,,,,,,
13.06.01.625,57.6,14.4,1,4.0,166.2,21353.8,46.83,-0.71,0.4,0.16,31.0,-3.7,-24.7,34.8,,,,,,,,,,
13.06.01.636,70.0,17.5,0,,,21353.8,46.83,0.04,-0.08,0.12,33.2,-8.8,4.7,34.44,,,,,,,,,,
13.06.01.648,88.3,22.1,0,,,21353.8,46.83,-0.7,0.13,-0.24,-9.7,14.4,-19.9,34.7,,,,,,,,,,
13.06.01.657,95.9,24.0,0,,,21353.8,46.83,-0.24,-0.11,-0.37,-11.2,-17.2,14.2,34.96,,,,,,,,,,
13.06.01.664,91.6,22.9,0,,,21353.8,46.83,-0.57,0.87,0.03,5.6,27.0,-18.3,35.14,,,,,,,,,,
13.06.01.673,73.1,18.3,0,,,21358.4,46.82,-1.04,-0.29,0.66,14.9,10.8,17.9,35.25,,,,,,,,,,
13.06.01.682,18.8,4.7,0,,,21358.4,46.82,-0.8,0.68,-0.12,14.1,-9.1,-5.9,35.0,,,,,,,,,,
13.06.01.691,-9.4,2.4,0,,,21358.4,46.82,-0.46,0.26,-0.22,3.0,3.5,-10.6,34.96,,,,,,,,,,
13.06.01.700,-24.2,6.0,0,,,21358.4,46.82,-0.62,1.67,-1.21,3.7,37.4,-12.7,34.99,,,,,,,,,,
13.06.01.708,-8.0,2.0,0,,,21358.4,46.82,-0.66,0.43,-0.57,57.2,32.7,-17.5,34.87,,,,,,,,,,
13.06.01.718,-31.6,7.9,0,,,21358.4,46.82,-0.5,0.25,-0.39,0.9,11.6,-16.7,34.83,,,,,,,,,,
13.06.01.726,-23.3,5.8,0,,,21358.4,46.82,-0.66,0.68,0.33,-7.1,31.0,-4.7,34.92,,,,,,,,,,
13.06.01.736,-38.0,9.5,0,,,21358.4,46.82,-0.51,0.29,-0.88,-16.1,-9.4,14.6,35.01,,,,,,,,,,
13.06.01.744,-30.4,7.6,0,,,21358.4,46.82,-0.42,1.33,0.25,-44.6,10.9,18.1,35.0,,,,,,,,,,
13.06.01.753,-42.8,10.7,0,,,21358.4,46.82,-0.06,1.21,-0.34,25.6,-2.4,1.4,35.16,,,,,,,,,,
13.06.01.763,-48.9,12.2,0,,,21358.4,46.82,-0.36,0.8,0.8,-4.5,3.7,9.7,34.74,,,,,,,,,,
13.06.01.772,-83.2,20.8,0,,,21358.4,46.82,0.14,0.84,0.31,-33.0,-10.9,-8.2,34.71,,,,,,,,,,
13.06.01.783,-94.6,23.6,0,,,21358.4,46.82,0.12,0.46,0.39,-24.4,-14.0,3.9,34.83,,,,,,,,,,
13.06.01.794,-105.2,26.3,0,,,21358.4,46.82,-0.33,1.0,1.56,11.8,12.2,-7.9,34.97,,,,,,,,,,
13.06.01.803,-38.6,9.6,0,,,21358.4,46.82,-0.11,0.19,0.26,-6.5,16.7,-11.3,34.63,,,,,,,,,,
13.06.01.811,-100.8,25.2,0,,,21363.0,46.81,-0.58,0.52,1.32,9.9,9.5,9.4,34.89,,,,,,,,,,
13.06.01.822,-90.9,22.7,0,,,21363.0,46.81,0.08,0.53,1.07,21.6,-26.0,4.3,34.83,,,,,,,,,,
13.06.01.832,-78.0,19.5,0,,,21363.0,46.81,-0.19,0.47,-0.15,-10.1,12.6,14.4,35.01,,,,,,,,,,
13.06.01.844,-65.6,16.4,0,,,21363.0,46.81,-0.22,0.3,0.58,-8.4,9.1,-18.5,34.91,,,,,,,,,,
13.06.01.853,-89.6,22.4,0,,,21363.0,46.81,-0.2,0.62,0.52,32.9,6.8,27.5,35.04,,,,,,,,,,
13.06.01.862,-142.3,35.6,0,,,21363.0,46.81,-0.04,0.13,1.16,-27.7,28.4,-9.9,34.98,,,,,,,,,,
13.06.01.872,-140.4,35.1,0,,,21363.0,46.81,0.03,-0.25,0.43,19.7,22.0,-2.6,34.79,,,,,,,,,,
13.06.01.881,-170.2,42.6,0,,,21363.0,46.81,-0.09,-0.39,0.23,-3.6,-9.5,-6.6,35.13,,,,,,,,,,
13.06.01.889,-203.0,50.8,0,,,21363.0,46.81,-0.21,-0.09,0.88,-19.1,13.3,-5.9,35.05,,,,,,,,,,
13.06.01.901,-155.8,39.0,0,,,21363.0,46.81,-0.31,-0.02,0.3,35.3,-1.5,-14.3,35.01,,,,,,,,,,
13.06.01.912,-198.8,49.7,0,,,21363.0,46.81,-0.34,-0.25,-0.53,-34.0,7.5,6.2,35.08,,,,,,,,,,
13.06.01.921,97.4,24.4,0,,,21363.0,46.81,-0.16,0.58,0.77,-35.4,-18.4,-11.5,34.78,,,,,,,,,,
13.06.01.930,98.3,24.6,0,,,21363.0,46.81,-0.08,-0.11,0.12,24.3,-11.4,-15.6,34.91,,,,,,,,,,
13.06.01.941,248.5,62.1,0,,,21367.5,46.8,-0.67,0.63,0.01,8.9,-5.4,-8.0,34.9,,,,,,,,,,
13.06.01.950,283.1,70.8,0,,,21367.5,46.8,-0.29,0.13,0.09,-6.5,-7.7,-1.7,35.03,,,,,,,,,,
13.06.01.960,402.3,100.6,0,,,21367.5,46.8,-0.47,0.59,-0.17,37.5,-2.1,6.6,34.85,,,,,,,,,,
13.06.01.970,472.4,118.1,0,,,21367.5,46.8,-0.6,0.39,-0.16,-30.1,9.5,2.4,35.06,,,,,,,,,,
13.06.01.979,521.7,130.4,0,,,21367.5,46.8,-0.29,0.96,-0.16,-1.9,-8.9,5.0,34.36,,,,,,,,,,
13.06.01.986,473.8,118.4,0,,,21367.5,46.8,-0.52,0.79,0.23,0.3,-8.0,-20.2,34.6,,,,,,,,,,
13.06.01.996,473.8,118.4,0,,,21367.5,46.8,-0.8,0.25,-0.19,-17.3,-8.6,18.4,34.53,,,,,,,,,,
13.06.02.007,563.0,140.8,0,,,21367.5,46.8,-0.83,0.51,-0.58,1.3,-18.6,-2.6,34.93,,,,,,,,,,
13.06.02.019,397.0,99.2,0,,,21367.5,46.8,-0.64,0.24,-0.5,31.8,29.9,-13.2,35.45,,,,,,,,,,
13.06.02.027,458.2,114.6,0,,,21367.5,46.8,-0.41,0.73,-0.26,46.2,-3.2,13.8,35.15,,,,,,,,,,
13.06.02.036,386.3,96.6,1,5.0,146.0,21372.1,46.79,-0.62,1.05,-0.43,-12.4,13.9,-4.9,34.71,,,,,,,,,,
13.06.02.046,320.9,80.2,0,,,21372.1,46.79,-0.04,0.93,-0.17,-12.2,23.8,15.9,34.62,,,,,,,,,,
13.06.02.056,218.1,54.5,0,,,21372.1,46.79,-0.63,1.0,0.31,-3.2,24.3,6.8,34.72,,,,,,,,,,
13.06.02.067,124.7,31.2,0,,,21372.1,46.79,-0.43,0.18,0.08,-29.7,-23.0,-16.1,35.28,,,,,,,,,,
13.06.02.077,42.2,10.6,0,,,21372.1,46.79,-0.16,0.57,0.74,-2.3,-8.5,-0.2,34.93,,,,,,,,,,
13.06.02.087,-0.5,0.1,0,,,21372.1,46.79,-0.48,1.08,-0.19,29.9,3.6,-20.1,35.37,,,,,,,,,,
13.06.02.097,-24.8,6.2,0,,,21372.1,46.79,-0.58,1.05,-0.78,11.0,14.2,5.9,35.25,,,,,,,,,,
13.06.02.106,75.3,18.8,0,,,21376.7,46.78,-0.44,0.46,-0.42,33.4,-1.5,-21.3,34.84,,,,,,,,,,
13.06.02.117,46.3,11.6,0,,,21376.7,46.78,-0.47,1.19,-0.44,-0.4,30.6,-1.2,34.83,,,,,,,,,,
13.06.02.128,79.6,19.9,0,,,21376.7,46.78,0.01,0.54,1.2,-19.2,10.0,-6.0,34.68,,,,,,,,,,
13.06.02.138,130.8,32.7,0,,,21376.7,46.78,-0.36,0.55,1.3,-3.2,-6.9,-7.4,34.74,,,,,,,,,,
13.06.02.150,71.2,17.8,0,,,21376.7,46.78,-0.33,-0.16,0.57,-12.9,-26.0,-0.8,34.94,,,,,,,,,,
13.06.02.160,51.6,12.9,0,,,21376.7,46.78,-0.1,0.29,1.14,38.8,11.0,-8.4,34.87,,,,,,,,,,
13.06.02.171,51.2,12.8,0,,,21381.2,46.77,-0.19,0.26,1.07,12.6,5.3,-38.6,35.02,,,,,,,,,,
13.06.02.179,-38.0,9.5,0,,,21381.2,46.77,-0.2,0.59,1.1,16.8,-3.7,0.6,34.73,,,,,,,,,,
13.06.02.188,7.8,2.0,0,,,21381.2,46.77,-0.18,0.46,0.44,34.7,8.9,-15.3,34.68,,,,,,,,,,
13.06.02.199,-59.1,14.8,0,,,21381.2,46.77,-0.25,0.48,1.36,-11.9,12.8,-4.7,34.56,,,,,,,,,,
13.06.02.209,13.5,3.4,0,,,21381.2,46.77,-0.03,0.02,0.65,-4.5,-5.5,5.1,35.09,,,,,,,,,,
13.06.02.218,18.8,4.7,0,,,21381.2,46.77,-0.36,0.22,1.19,-13.9,16.0,-4.4,34.92,,,,,,,,,,
13.06.02.228,-80.2,20.0,0,,,21381.2,46.77,-0.49,-0.55,0.51,-6.6,14.3,-0.6,34.77,,,,,,,,,,
13.06.02.237,-69.6,17.4,0,,,21385.8,46.76,-0.48,0.18,0.82,-7.7,5.2,-4.0,34.74,,,,,,,,,,
13.06.02.246,-71.5,17.9,0,,,21385.8,46.76,0.2,-0.25,0.56,11.5,16.2,13.0,34.91,,,,,,,,,,
13.06.02.256,-31.4,7.8,0,,,21385.8,46.76,-0.75,0.39,-0.09,35.7,2.3,-4.3,34.99,,,,,,,,,,
13.06.02.266,-39.9,10.0,0,,,21385.8,46.76,-0.38,-0.09,-0.25,7.0,-3.9,24.3,34.78,,,,,,,,,,
13.06.02.276,-56.8,14.2,0,,,21385.8,46.76,-0.13,-0.4,0.8,4.3,17.9,-11.8,34.79,,,,,,,,,,
13.06.02.285,-93.5,23.4,0,,,21385.8,46.76,-0.54,-0.0,-0.15,16.6,36.5,2.8,35.03,,,,,,,,,,
13.06.02.296,-92.0,23.0,0,,,21390.4,46.75,-0.48,0.13,0.31,-4.8,0.5,15.1,35.19,,,,,,,,,,
13.06.02.307,-140.5,35.1,0,,,21390.4,46.75,-0.43,-0.01,1.04,14.5,0.8,-0.5,34.92,,,,,,,,,,
13.06.02.316,-143.6,35.9,0,,,21390.4,46.75,-0.66,-0.34,-0.42,6.3,-27.5,-1.4,34.79,,,,,,,,,,
13.06.02.327,-110.3,27.6,0,,,21390.4,46.75,-0.41,1.06,-0.04,9.4,7.4,-5.6,34.62,,,,,,,,,,
13.06.02.338,-146.6,36.6,0,,,21390.4,46.75,-0.58,0.19,-0.23,8.1,10.0,21.7,35.51,,,,,,,,,,
13.06.02.348,-135.9,34.0,0,,,21390.4,46.75,-0.91,0.21,-0.34,5.4,5.0,3.7,35.01,,,,,,,,,,
13.06.02.359,-200.1,50.0,0,,,21395.0,46.74,-0.39,0.36,-0.35,-4.7,7.2,-4.9,34.7,,,,,,,,,,
13.06.02.370,-108.8,27.2,0,,,21395.0,46.74,-0.44,0.88,-0.65,-9.6,-18.1,-3.6,34.73,,,,,,,,,,
13.06.02.378,-131.9,33.0,0,,,21395.0,46.74,-0.16,1.0,-0.83,32.0,15.2,-10.0,34.84,,,,,,,,,,
13.06.02.388,-211.2,52.8,1,6.0,170.5,21395.0,46.74,-0.85,0.51,0.67,-7.8,21.8,14.9,34.92,,,,,,,,,,
13.06.02.399,48.2,12.0,0,,,21395.0,46.74,-0.52,1.04,-0.07,-23.3,2.5,-0.4,34.89,,,,,,,,,,
13.06.02.409,116.8,29.2,0,,,21395.0,46.74,-0.56,0.75,-0.2,5.9,40.7,-16.2,35.03,,,,,,,,,,
13.06.02.418,226.9,56.7,0,,,21395.0,46.74,-0.03,0.58,-0.52,15.8,14.2,-11.1,34.97,,,,,,,,,,
13.06.02.428,295.6,73.9,0,,,21399.5,46.73,-0.66,0.49,-0.41,-18.3,5.6,-17.6,34.92,,,,,,,,,,
13.06.02.436,382.9,95.7,0,,,21399.5,46.73,-0.36,0.94,-0.19,-4.2,-8.8,0.3,35.17,,,,,,,,,,
13.06.02.447,390.2,97.6,0,,,21399.5,46.73,-0.25,1.06,0.63,-30.2,-1.1,5.7,34.71,,,,,,,,,,
13.06.02.458,400.1,100.0,0,,,21399.5,46.73,-0.37,1.28,0.17,41.7,1.9,1.0,34.7,,,,,,,,,,
13.06.02.467,443.2,110.8,0,,,21399.5,46.73,-0.38,0.94,0.17,6.3,30.7,0.6,34.78,,,,,,,,,,
13.06.02.477,512.1,128.0,0,,,21399.5,46.73,-0.4,0.84,0.43,31.2,-13.9,5.9,34.74,,,,,,,,,,
13.06.02.484,532.8,133.2,0,,,21399.5,46.73,-0.24,0.91,0.4,31.4,8.0,-7.2,34.66,,,,,,,,,,
13.06.02.495,445.7,111.4,0,,,21404.1,46.72,-0.61,0.49,0.7,24.2,-5.6,2.5,34.93,,,,,,,,,,
13.06.02.506,383.5,95.9,0,,,21404.1,46.72,-0.49,1.07,0.98,8.0,10.7,-5.3,35.1,,,,,,,,,,
13.06.02.515,323.0,80.8,0,,,21404.1,46.72,-0.22,0.25,0.15,15.7,-22.5,8.9,34.51,,,,,,,,,,
13.06.02.526,293.2,73.3,0,,,21404.1,46.72,0.08,0.78,0.21,-3.3,-6.6,2.0,34.86,,,,,,,,,,
13.06.02.535,221.0,55.2,0,,,21404.1,46.72,-0.17,0.72,0.44,-9.0,-15.0,15.9,34.86,,,,,,,,,,
13.06.02.544,135.6,33.9,0,,,21404.1,46.72,0.35,-0.11,0.88,0.4,-14.4,-4.4,34.88,,,,,,,,,,
13.06.02.552,34.7,8.7,0,,,21404.1,46.72,-0.35,-0.25,0.51,-13.9,9.7,-4.9,34.84,,,,,,,,,,
13.06.02.562,20.4,5.1,0,,,21408.7,46.71,-0.18,0.25,0.19,3.1,14.2,17.5,34.86,,,,,,,,,,
13.06.02.572,94.5,23.6,0,,,21408.7,46.71,-0.34,-0.38,0.18,-15.1,7.1,-19.6,34.96,,,,,,,,,,
13.06.02.581,43.3,10.8,0,,,21408.7,46.71,-0.5,-0.22,0.6,-5.6,9.9,7.9,35.06,,,,,,,,,,
13.06.02.592,39.8,10.0,0,,,21408.7,46.71,-0.04,0.26,-0.08,5.6,20.4,-4.1,35.04,,,,,,,,,,
13.06.02.603,84.0,21.0,0,,,21408.7,46.71,-0.19,0.78,0.58,-37.1,2.9,8.4,34.71,,,,,,,,,,
13.06.02.614,79.0,19.8,0,,,21408.7,46.71,-0.15,-0.48,0.26,1.6,-24.8,-15.2,34.47,,,,,,,,,,
13.06.02.626,137.2,34.3,0,,,21413.3,46.7,-0.79,0.11,-0.0,-21.4,-15.3,2.3,35.33,,,,,,,,,,
13.06.02.637,105.6,26.4,0,,,21413.3,46.7,-0.44,0.12,0.16,4.6,37.8,2.6,34.91,,,,,,,,,,
13.06.02.647,30.0,7.5,0,,,21413.3,46.7,-0.39,-0.29,0.41,14.3,10.1,-14.5,35.23,,,,,,,,,,
13.06.02.657,38.6,9.6,0,,,21413.3,46.7,-0.24,0.34,0.3,13.0,20.1,12.4,35.0,,,,,,,,,,
13.06.02.667,6.7,1.7,0,,,21413.3,46.7,-0.64,0.31,0.1,10.0,7.3,-11.0,34.66,,,,,,,,,,
13.06.02.677,-47.2,11.8,0,,,21413.3,46.7,-0.46,-0.31,-0.06,6.3,5.9,-10.3,34.88,,,,,,,,,,
13.06.02.686,-15.7,3.9,0,,,21417.9,46.69,-0.55,-0.32,-0.22,-25.1,16.1,19.0,35.02,,,,,,,,,,
13.06.02.696,-9.0,2.2,0,,,21417.9,46.69,-0.32,0.23,-0.16,1.8,9.5,1.9,35.3,,,,,,,,,,
13.06.02.706,-73.5,18.4,0,,,21417.9,46.69,0.05,0.68,-0.92,-14.1,29.7,-22.3,34.51,,,,,,,,,,
13.06.02.715,-21.2,5.3,0,,,21417.9,46.69,-0.45,0.25,-0.73,-12.2,11.4,5.0,34.96,,,,,,,,,,
13.06.02.725,-75.6,18.9,0,,,21417.9,46.69,-0.56,0.68,0.14,-11.6,6.6,-3.3,34.79,,,,,,,,,,
13.06.02.733,-18.4,4.6,0,,,21417.9,46.69,-0.68,0.83,-0.23,34.1,6.3,6.7,35.08,,,,,,,,,,
13.06.02.745,-32.4,8.1,0,,,21417.9,46.69,-0.61,0.78,-1.49,35.3,32.0,-11.7,34.54,,,,,,,,,,
13.06.02.752,-98.2,24.6,0,,,21422.5,46.68,-0.77,0.4,-1.07,-1.7,17.9,-3.7,34.74,,,,,,,,,,
13.06.02.762,-58.9,14.7,0,,,21422.5,46.68,-0.31,0.36,0.09,2.9,4.9,-18.4,34.84,,,,,,,,,,
13.06.02.772,-162.7,40.7,0,,,21422.5,46.68,-0.34,0.55,0.07,-28.1,9.4,5.5,34.93,,,,,,,,,,
13.06.02.786,-119.1,29.8,0,,,21422.5,46.68,-0.63,0.78,-0.01,-9.6,-7.3,-9.6,34.84,,,,,,,,,,
13.06.02.796,-109.3,27.3,0,,,21422.5,46.68,-0.29,0.75,0.25,-33.3,23.4,-5.4,35.0,,,,,,,,,,
13.06.02.804,-99.4,24.8,1,7.0,144.2,21422.5,46.68,-0.3,0.9,0.37,17.6,5.8,-8.7,35.3,,,,,,,,,,
13.06.02.814,-99.0,24.8,0,,,21427.0,46.67,-0.44,1.24,0.62,5.8,-9.7,-3.9,34.93,,,,,,,,,,
13.06.02.825,-164.9,41.2,0,,,21427.0,46.67,-0.57,0.44,0.96,14.7,33.6,-2.2,34.62,,,,,,,,,,
13.06.02.835,-173.2,43.3,0,,,21427.0,46.67,-0.3,0.88,0.51,-0.5,1.1,6.9,34.93,,,,,,,,,,
13.06.02.844,-190.5,47.6,0,,,21427.0,46.67,0.08,0.46,0.91,21.5,-4.1,19.8,35.12,,,,,,,,,,
13.06.02.855,-185.2,46.3,0,,,21427.0,46.67,0.05,0.76,-0.35,-27.1,13.0,6.5,35.12,,,,,,,,,,
13.06.02.864,-225.8,56.4,0,,,21427.0,46.67,0.07,0.49,1.33,2.8,2.7,5.3,34.88,,,,,,,,,,
13.06.02.874,41.6,10.4,0,,,21427.0,46.67,-0.22,0.57,0.56,46.9,13.0,17.7,34.93,,,,,,,,,,
13.06.02.884,73.0,18.2,0,,,21431.6,46.66,-0.06,0.65,0.35,3.9,-4.4,8.8,34.94,,,,,,,,,,
13.06.02.894,246.1,61.5,0,,,21431.6,46.66,0.11,1.06,0.59,-17.2,17.3,16.3,34.79,,,,,,,,,,
13.06.02.903,302.6,75.6,0,,,21431.6,46.66,-0.23,1.02,1.01,-15.1,16.1,2.1,34.61,,,,,,,,,,
13.06.02.915,387.2,96.8,0,,,21431.6,46.66,-0.2,0.28,0.6,6.3,48.7,12.4,34.96,,,,,,,,,,
13.06.02.924,489.5,122.4,0,,,21431.6,46.66,-0.28,0.08,0.76,30.8,25.5,18.4,34.67,,,,,,,,,,
13.06.02.935,514.3,128.6,0,,,21431.6,46.66,-0.31,0.68,1.29,-33.2,-7.6,-20.3,35.2,,,,,,,,,,
13.06.02.945,506.0,126.5,0,,,21436.2,46.65,-0.3,0.59,0.36,-24.7,-18.7,0.3,35.07,,,,,,,,,,
13.06.02.954,405.3,101.3,0,,,21436.2,46.65,-0.01,-0.49,1.21,-35.9,-6.5,13.3,34.67,,,,,,,,,,
13.06.02.962,448.0,112.0,0,,,21436.2,46.65,-0.54,0.43,0.27,-17.4,28.6,1.0,34.74,,,,,,,,,,
13.06.02.972,463.8,116.0,0,,,21436.2,46.65,-0.29,0.36,1.02,-2.7,-1.5,6.8,34.94,,,,,,,,,,
13.06.02.981,374.5,93.6,0,,,21436.2,46.65,-0.36,-0.01,0.25,11.6,4.0,11.6,35.22,,,,,,,,,,
13.06.02.991,341.3,85.3,0,,,21436.2,46.65,-0.03,0.21,0.29,6.3,19.7,13.1,34.88,,,,,,,,,,
13.06.03.001,320.8,80.2,0,,,21436.2,46.65,-0.84,0.13,-0.57,16.4,-11.7,0.7,34.78,,,,,,,,,,
13.06.03.013,217.3,54.3,0,,,21436.2,46.65,-0.39,0.83,-0.08,-25.6,24.8,5.8,35.04,,,,,,,,,,
13.06.03.022,128.1,32.0,0,,,21436.2,46.65,-0.37,0.03,-0.01,14.1,11.3,-17.8,35.22,,,,,,,,,,
13.06.03.032,45.3,11.3,0,,,21436.2,46.65,-0.63,0.83,0.05,-37.3,-2.3,11.6,35.11,,,,,,,,,,
13.06.03.044,49.5,12.4,0,,,21436.2,46.65,-0.4,0.22,-0.07,-3.7,25.2,4.1,34.59,,,,,,,,,,
13.06.03.055,58.0,14.5,0,,,21436.2,46.65,-0.63,-0.07,-0.24,-13.6,-13.3,-3.0,35.29,,,,,,,,,,
13.06.03.064,43.0,10.8,0,,,21436.2,46.65,-0.58,-0.1,-0.6,-10.1,-15.3,12.7,34.69,,,,,,,,,,
13.06.03.074,40.2,10.0,0,,,21431.6,46.66,-0.27,-0.08,-0.03,-44.3,10.9,29.5,34.9,,,,,,,,,,
13.06.03.085,109.4,27.4,0,,,21431.6,46.66,-0.76,0.4,0.01,1.5,8.0,5.5,35.14,,,,,,,,,,
13.06.03.094,39.6,9.9,0,,,21431.6,46.66,-1.0,1.31,0.13,-7.9,12.2,-17.8,34.77,,,,,,,,,,
13.06.03.103,79.4,19.8,0,,,21431.6,46.66,-0.92,0.02,0.54,31.0,7.5,5.9,34.79,,,,,,,,,,
13.06.03.111,89.1,22.3,0,,,21431.6,46.66,-0.93,0.99,-0.14,12.6,-4.1,-19.1,35.07,,,,,,,,,,
13.06.03.120,0.7,0.2,0,,,21431.6,46.66,-0.39,1.33,-0.29,12.8,8.7,-7.4,35.04,,,,,,,,,,
13.06.03.129,42.6,10.6,0,,,21431.6,46.66,-0.49,0.64,-0.16,-50.5,-18.1,9.2,35.09,,,,,,,,,,
13.06.03.140,-2.3,0.6,0,,,21431.6,46.66,-0.42,0.38,0.02,-12.3,7.4,-14.2,35.1,,,,,,,,,,
13.06.03.148,-23.2,5.8,0,,,21427.0,46.67,-0.64,1.02,0.12,-4.5,28.3,-14.1,34.8,,,,,,,,,,
13.06.03.158,-39.2,9.8,1,8.0,169.5,21427.0,46.67,0.09,1.19,0.99,1.0,-4.0,-4.9,34.81,,,,,,,,,,
13.06.03.167,-62.8,15.7,0,,,21427.0,46.67,-0.61,1.43,0.36,1.6,10.0,17.7,34.53,,,,,,,,,,
13.06.03.177,-47.5,11.9,0,,,21427.0,46.67,-0.04,-0.03,0.9,-10.2,10.7,-13.1,34.85,,,,,,,,,,
13.06.03.187,-59.3,14.8,0,,,21427.0,46.67,-0.58,0.93,1.23,16.1,18.2,3.5,34.95,,,,,,,,,,
13.06.03.195,-15.5,3.9,0,,,21427.0,46.67,-0.49,0.13,0.76,-7.7,-19.4,-1.7,34.84,,,,,,,,,,
13.06.03.206,-41.3,10.3,0,,,21427.0,46.67,-0.35,0.61,0.09,-32.9,17.8,17.1,35.02,,,,,,,,,,
13.06.03.215,-64.0,16.0,0,,,21427.0,46.67,-0.46,0.21,0.16,19.0,25.8,11.5,35.0,,,,,,,,,,
13.06.03.227,-24.3,6.1,0,,,21422.5,46.68,-0.67,1.0,1.0,45.8,20.8,-4.5,35.05,,,,,,,,,,
13.06.03.235,-91.9,23.0,0,,,21422.5,46.68,-0.11,1.17,0.61,28.0,20.8,9.3,35.45,,,,,,,,,,
13.06.03.244,-108.2,27.0,0,,,21422.5,46.68,-0.21,-0.02,0.81,0.8,3.9,-2.0,35.07,,,,,,,,,,
13.06.03.254,-32.3,8.1,0,,,21422.5,46.68,-0.12,0.58,0.71,-20.1,13.1,-21.5,34.81,,,,,,,,,,
13.06.03.263,-133.2,33.3,0,,,21422.5,46.68,0.13,0.67,0.39,-20.4,22.8,-12.2,34.69,,,,,,,,,,
13.06.03.272,-141.3,35.3,0,,,21422.5,46.68,-0.03,0.19,0.85,12.9,-6.0,6.3,34.74,,,,,,,,,,
13.06.03.282,-147.2,36.8,0,,,21422.5,46.68,0.07,-0.4,0.51,-9.0,2.5,-5.8,34.75,,,,,,,,,,
13.06.03.291,-121.2,30.3,0,,,21422.5,46.68,-0.22,0.22,0.61,15.8,17.9,-28.8,35.09,,,,,,,,,,
13.06.03.301,-219.7,54.9,0,,,21417.9,46.69,-0.19,-0.24,0.49,-12.9,-2.4,-14.1,35.05,,,,,,,,,,
13.06.03.311,-194.9,48.7,0,,,21417.9,46.69,-0.48,-0.21,1.05,16.9,3.5,-6.5,34.83,,,,,,,,,,
13.06.03.322,-195.8,49.0,0,,,21417.9,46.69,-0.09,0.36,-0.07,-17.3,-5.6,-5.3,34.69,,,,,,,,,,
13.06.03.329,-201.8,50.4,0,,,21417.9,46.69,-0.06,0.75,-0.28,12.2,-13.0,8.7,34.54,,,,,,,,,,
13.06.03.340,-179.7,44.9,0,,,21417.9,46.69,-0.14,-0.26,0.32,1.2,1.8,17.9,34.85,,,,,,,,,,
13.06.03.350,85.1,21.3,0,,,21417.9,46.69,-0.44,0.3,-0.52,2.0,0.5,3.4,35.16,,,,,,,,,,
13.06.03.360,146.1,36.5,0,,,21417.9,46.69,-0.65,0.66,0.37,-1.8,27.2,8.9,35.09,,,,,,,,,,
13.06.03.369,143.2,35.8,0,,,21417.9,46.69,-0.26,-0.45,0.2,2.3,4.2,-1.4,35.19,,,,,,,,,,
13.06.03.380,306.4,76.6,0,,,21413.3,46.7,-0.53,0.04,0.12,2.9,25.8,-18.3,34.81,,,,,,,,,,
13.06.03.387,321.8,80.4,0,,,21413.3,46.7,-0.67,-0.25,-0.5,-10.9,2.7,-8.1,34.53,,,,,,,,,,
13.06.03.395,401.5,100.4,0,,,21413.3,46.7,-0.41,0.83,-0.43,7.9,2.4,-12.4,34.64,,,,,,,,,,
13.06.03.405,477.0,119.2,0,,,21413.3,46.7,-0.16,0.49,-0.41,-7.9,5.4,-2.5,35.24,,,,,,,,,,
13.06.03.415,501.7,125.4,0,,,21413.3,46.7,-0.78,0.04,0.11,17.6,7.6,-18.4,34.78,,,,,,,,,,
13.06.03.425,453.7,113.4,0,,,21413.3,46.7,-0.41,0.25,0.07,-5.1,-29.8,-6.8,35.19,,,,,,,,,,
13.06.03.436,466.7,116.7,0,,,21413.3,46.7,-0.26,1.16,0.9,13.2,25.1,-14.1,34.89,,,,,,,,,,
13.06.03.446,488.6,122.2,0,,,21413.3,46.7,-0.9,0.09,-0.07,17.7,20.4,-5.7,34.89,,,,,,,,,,
13.06.03.456,404.4,101.1,0,,,21408.7,46.71,-0.35,0.88,-0.69,-1.3,4.0,1.9,34.57,,,,,,,,,,
13.06.03.467,365.2,91.3,0,,,21408.7,46.71,-0.51,0.38,0.15,-0.9,38.3,-31.7,34.94,,,,,,,,,,
13.06.03.478,334.8,83.7,0,,,21408.7,46.71,-0.3,1.06,-0.15,26.1,-9.7,3.2,34.87,,,,,,,,,,
13.06.03.489,205.0,51.2,0,,,21408.7,46.71,-0.55,0.79,-0.04,8.3,14.5,2.5,34.88,,,,,,,,,,
13.06.03.498,64.4,16.1,0,,,21408.7,46.71,-0.71,0.41,0.12,-2.6,-9.3,2.8,34.91,,,,,,,,,,
13.06.03.509,60.7,15.2,1,9.0,170.9,21408.7,46.71,-0.71,0.98,0.61,11.2,6.6,9.5,35.15,,,,,,,,,,
13.06.03.519,42.7,10.7,0,,,21408.7,46.71,-0.23,0.61,0.7,-13.8,-6.0,3.8,34.85,,,,,,,,,,
13.06.03.529,44.9,11.2,0,,,21404.1,46.72,-0.21,1.0,-0.6,-2.7,-2.6,30.9,34.77,,,,,,,,,,
13.06.03.539,64.3,16.1,0,,,21404.1,46.72,0.22,0.5,-0.18,-11.2,10.8,-20.5,34.67,,,,,,,,,,
13.06.03.548,70.6,17.6,0,,,21404.1,46.72,-0.27,0.74,0.65,-0.7,5.7,-9.7,35.3,,,,,,,,,,
13.06.03.559,117.1,29.3,0,,,21404.1,46.72,-0.2,0.76,0.75,-30.4,20.1,2.3,34.95,,,,,,,,,,
13.06.03.567,73.1,18.3,0,,,21404.1,46.72,-0.22,0.87,1.34,-11.4,-8.8,7.7,34.96,,,,,,,,,,
13.06.03.578,64.9,16.2,0,,,21404.1,46.72,-0.31,0.57,1.54,15.5,26.8,0.6,35.01,,,,,,,,,,
13.06.03.588,112.4,28.1,0,,,21404.1,46.72,0.18,-0.04,1.43,5.6,11.1,-4.3,34.73,,,,,,,,,,
13.06.03.597,1.7,0.4,0,,,21404.1,46.72,-0.07,0.65,-0.2,-3.0,11.0,1.6,34.77,,,,,,,,,,
13.06.03.607,-13.2,3.3,0,,,21399.5,46.73,0.03,0.54,-0.01,-0.1,-21.2,2.4,35.06,,,,,,,,,,
13.06.03.615,-10.6,2.6,0,,,21399.5,46.73,-0.23,0.85,0.17,6.6,-1.7,6.9,35.24,,,,,,,,,,
13.06.03.624,-18.2,4.6,0,,,21399.5,46.73,-0.12,0.01,0.87,20.6,-14.0,-2.0,34.91,,,,,,,,,,
13.06.03.635,-14.1,3.5,0,,,21399.5,46.73,-0.33,-0.19,0.11,12.1,10.6,5.8,34.69,,,,,,,,,,
13.06.03.643,-23.3,5.8,0,,,21399.5,46.73,-0.45,0.48,0.25,-15.7,-2.7,3.7,34.79,,,,,,,,,,
13.06.03.651,-34.7,8.7,0,,,21399.5,46.73,-0.27,0.47,0.75,28.7,-7.4,-8.2,34.8,,,,,,,,,,
13.06.03.663,-30.0,7.5,0,,,21399.5,46.73,-0.02,0.34,0.45,23.3,-1.9,10.7,35.2,,,,,,,,,,
13.06.03.671,-3.6,0.9,0,,,21399.5,46.73,-0.49,-0.0,-0.46,17.5,8.8,-7.1,34.89,,,,,,,,,,
13.06.03.681,-23.1,5.8,0,,,21395.0,46.74,-0.32,0.11,0.07,35.0,-18.7,-6.7,34.82,,,,,,,,,,
13.06.03.690,-65.0,16.2,0,,,21395.0,46.74,-0.25,0.28,-0.22,5.8,1.0,-3.8,35.23,,,,,,,,,,
13.06.03.701,-60.6,15.2,0,,,21395.0,46.74,-0.63,-0.3,0.71,-15.0,1.5,-3.6,34.82,,,,,,,,,,
13.06.03.712,-118.5,29.6,0,,,21395.0,46.74,-0.36,1.07,0.57,-3.0,12.1,-11.9,34.91,,,,,,,,,,
13.06.03.723,-178.9,44.7,0,,,21395.0,46.74,-0.94,0.35,0.31,6.8,16.0,-4.2,34.62,,,,,,,,,,
13.06.03.733,-96.4,24.1,0,,,21395.0,46.74,-0.67,0.24,-0.99,-1.5,14.6,-5.5,34.8,,,,,,,,,,
13.06.03.744,-93.0,23.2,0,,,21395.0,46.74,-0.64,-0.06,0.96,12.4,38.3,4.5,34.91,,,,,,,,,,
13.06.03.752,-208.4,52.1,0,,,21395.0,46.74,-0.78,1.0,-0.42,-39.2,4.1,14.4,35.07,,,,,,,,,,
13.06.03.763,-192.4,48.1,0,,,21390.4,46.75,-0.87,0.17,-0.56,17.8,32.4,-15.0,35.38,,,,,,,,,,
13.06.03.772,-144.4,36.1,0,,,21390.4,46.75,-0.39,0.24,-1.22,2.7,0.9,19.9,34.75,,,,,,,,,,
13.06.03.782,-158.8,39.7,0,,,21390.4,46.75,-1.04,0.04,-0.08,-6.3,12.2,-2.8,34.91,,,,,,,,,,
13.06.03.794,-169.1,42.3,0,,,21390.4,46.75,-0.39,0.58,0.37,-9.3,-10.6,30.3,34.6,,,,,,,,,,
13.06.03.804,-88.5,22.1,0,,,21390.4,46.75,-0.67,0.4,-0.28,-39.8,26.9,14.9,34.84,,,,,,,,,,
13.06.03.812,-226.5,56.6,0,,,21390.4,46.75,-0.51,1.02,-0.07,9.2,10.6,-11.7,35.32,,,,,,,,,,
13.06.03.823,2.3,0.6,0,,,21390.4,46.75,-0.59,1.07,-0.78,-17.1,6.3,-4.3,34.64,,,,,,,,,,
13.06.03.833,132.0,33.0,0,,,21385.8,46.76,-0.36,0.79,-0.17,-13.6,3.8,1.9,35.16,,,,,,,,,,
13.06.03.840,130.9,32.7,0,,,21385.8,46.76,-0.53,0.98,0.31,35.9,-20.4,-15.6,35.14,,,,,,,,,,
13.06.03.850,288.7,72.2,0,,,21385.8,46.76,-0.51,0.69,0.89,26.9,-11.4,10.6,34.94,,,,,,,,,,
13.06.03.858,337.0,84.2,0,,,21385.8,46.76,-0.23,0.68,0.49,2.4,22.3,-6.4,34.79,,,,,,,,,,
13.06.03.869,374.9,93.7,0,,,21385.8,46.76,-0.09,0.83,0.12,39.3,3.5,14.4,34.81,,,,,,,,,,
13.06.03.878,534.2,133.6,0,,,21385.8,46.76,-0.53,0.3,0.57,27.7,-20.5,8.2,34.73,,,,,,,,,,
13.06.03.889,406.1,101.5,0,,,21385.8,46.76,-0.21,0.09,0.61,5.1,-6.6,-9.9,35.23,,,,,,,,,,
13.06.03.898,505.2,126.3,1,10.0,154.2,21385.8,46.76,-0.08,0.8,1.31,-5.1,11.1,-13.1,35.2,,,,,,,,,,
13.06.03.909,533.6,133.4,0,,,21381.2,46.77,0.17,1.13,-0.34,7.9,16.0,-3.5,35.24,,,,,,,,,,
13.06.03.919,431.9,108.0,0,,,21381.2,46.77,-0.13,0.34,1.47,-43.3,14.9,-6.4,35.12,,,,,,,,,,
13.06.03.930,421.3,105.3,0,,,21381.2,46.77,0.07,0.47,0.08,-17.1,-5.7,5.4,35.04,,,,,,,,,,
13.06.03.940,305.0,76.2,0,,,21381.2,46.77,-0.08,-0.03,0.96,-1.5,-6.6,-11.8,34.68,,,,,,,,,,
13.06.03.951,319.1,79.8,0,,,21381.2,46.77,-0.71,0.25,1.05,34.1,14.2,-6.2,34.79,,,,,,,,,,
13.06.03.963,209.0,52.2,0,,,21381.2,46.77,0.09,0.59,0.82,10.3,21.2,-6.5,34.95,,,,,,,,,,
13.06.03.972,185.5,46.4,0,,,21381.2,46.77,-0.02,0.66,1.05,-14.8,-11.7,-23.8,34.88,,,,,,,,,,
13.06.03.982,23.7,5.9,0,,,21381.2,46.77,-0.78,-0.13,0.35,29.9,18.0,11.8,35.11,,,,,,,,,,
13.06.03.989,52.4,13.1,0,,,21376.7,46.78,0.43,0.29,0.99,3.5,1.3,14.0,34.96,,,,,,,,,,
13.06.03.997,20.9,5.2,0,,,21376.7,46.78,-0.75,-0.15,0.89,-30.8,16.9,-21.0,35.01,,,,,,,,,,
13.06.04.009,48.3,12.1,0,,,21376.7,46.78,-0.28,-0.8,0.73,-10.1,2.2,18.0,35.03,,,,,,,,,,
13.06.04.019,44.2,11.0,0,,,21376.7,46.78,-0.32,-0.11,0.33,7.8,16.6,1.9,34.93,,,,,,,,,,
13.06.04.029,63.5,15.9,0,,,21376.7,46.78,-0.44,0.72,-0.33,-32.4,13.6,-2.5,34.83,,,,,,,,,,
13.06.04.039,71.2,17.8,0,,,21376.7,46.78,0.07,-0.21,0.82,11.6,-29.1,-0.4,35.04,,,,,,,,,,
13.06.04.050,68.2,17.0,0,,,21376.7,46.78,-0.35,0.05,0.79,-14.6,33.3,-26.4,34.83,,,,,,,,,,
13.06.04.061,92.8,23.2,0,,,21376.7,46.78,-1.01,0.24,-0.3,17.4,32.9,-1.9,35.12,,,,,,,,,,
13.06.04.071,2.6,0.6,0,,,21372.1,46.79,-0.02,0.13,0.51,-17.1,-24.6,-2.7,34.66,,,,,,,,,,
13.06.04.081,26.3,6.6,0,,,21372.1,46.79,-0.48,0.06,-0.5,-2.7,-1.1,-15.3,34.91,,,,,,,,,,
13.06.04.091,1.9,0.5,0,,,21372.1,46.79,-0.67,0.07,-0.08,13.4,13.5,11.1,34.99,,,,,,,,,,
13.06.04.100,-61.4,15.4,0,,,21372.1,46.79,-0.63,-0.05,0.26,40.1,-2.8,-13.3,34.99,,,,,,,,,,
13.06.04.110,-44.1,11.0,0,,,21372.1,46.79,-0.79,0.53,0.44,-3.6,39.3,19.1,35.08,,,,,,,,,,
13.06.04.118,-61.1,15.3,0,,,21372.1,46.79,-0.16,0.34,0.1,-9.7,11.8,-5.3,34.85,,,,,,,,,,
13.06.04.130,-54.2,13.6,0,,,21372.1,46.79,-0.53,0.35,-0.29,29.5,6.1,3.0,34.88,,,,,,,,,,
13.06.04.143,-58.0,14.5,0,,,21372.1,46.79,-0.32,0.73,-0.91,-3.4,6.7,-5.3,34.71,,,,,,,,,,
13.06.04.152,-3.7,0.9,0,,,21372.1,46.79,-0.28,0.39,-0.3,-31.0,5.6,-5.6,34.74,,,,,,,,,,
13.06.04.161,-81.7,20.4,0,,,21367.5,46.8,-0.37,1.21,-0.16,-4.8,-31.8,13.1,34.8,,,,,,,,,,
13.06.04.170,-48.3,12.1,0,,,21367.5,46.8,-0.54,0.88,-0.39,-14.8,-3.8,-19.1,34.98,,,,,,,,,,
13.06.04.180,-120.9,30.2,0,,,21367.5,46.8,-0.49,0.98,-0.78,-30.8,19.7,-8.7,34.91,,,,,,,,,,
13.06.04.190,-86.6,21.6,0,,,21367.5,46.8,-0.28,0.7,-0.04,-18.9,19.3,19.8,35.12,,,,,,,,,,
13.06.04.200,-126.4,31.6,0,,,21367.5,46.8,-0.27,0.99,-0.63,-9.0,7.6,-0.7,34.65,,,,,,,,,,
13.06.04.210,-78.7,19.7,0,,,21367.5,46.8,-0.48,0.83,-0.09,-38.7,3.9,9.1,34.62,,,,,,,,,,
13.06.04.220,-143.9,36.0,0,,,21367.5,46.8,-0.52,1.02,0.21,0.5,11.8,-2.7,34.69,,,,,,,,,,
13.06.04.228,-126.9,31.7,0,,,21367.5,46.8,-0.59,0.76,0.43,-5.1,13.4,-5.1,34.74,,,,,,,,,,
13.06.04.235,-136.8,34.2,0,,,21367.5,46.8,-0.56,1.05,-0.07,-17.5,-10.2,1.2,34.97,,,,,,,,,,
13.06.04.247,-139.6,34.9,0,,,21363.0,46.81,0.32,0.65,0.93,0.2,19.1,-22.4,34.68,,,,,,,,,,
13.06.04.257,-105.5,26.4,0,,,21363.0,46.81,-0.18,1.18,0.94,-16.8,21.1,-6.6,34.93,,,,,,,,,,
13.06.04.268,-153.3,38.3,1,11.0,162.2,21363.0,46.81,-0.02,0.82,0.32,-31.4,23.0,-10.4,35.24,,,,,,,,,,
13.06.04.278,-132.4,33.1,0,,,21363.0,46.81,-0.27,0.61,1.06,-8.6,0.6,4.5,34.47,,,,,,,,,,
13.06.04.288,-217.2,54.3,0,,,21363.0,46.81,-0.56,0.47,0.26,12.7,0.4,6.1,34.96,,,,,,,,,,
13.06.04.299,18.6,4.6,0,,,21363.0,46.81,-0.01,-0.01,-0.17,-0.3,-13.9,-1.5,34.77,,,,,,,,,,
13.06.04.310,107.5,26.9,0,,,21363.0,46.81,0.53,0.75,0.92,11.3,-26.1,-11.6,35.26,,,,,,,,,,
13.06.04.321,182.9,45.7,0,,,21363.0,46.81,-0.07,-0.18,-0.07,-13.3,13.8,-14.3,34.72,,,,,,,,,,
13.06.04.333,274.7,68.7,0,,,21358.4,46.82,-0.19,0.28,0.66,17.7,6.6,5.9,34.81,,,,,,,,,,
13.06.04.342,363.3,90.8,0,,,21358.4,46.82,-0.14,0.07,0.97,-24.8,9.3,-13.2,34.91,,,,,,,,,,
13.06.04.353,405.9,101.5,0,,,21358.4,46.82,-0.21,0.65,1.3,-4.2,-12.2,-9.0,34.99,,,,,,,,,,
13.06.04.363,422.4,105.6,0,,,21358.4,46.82,-0.18,0.38,1.16,15.0,-10.9,2.1,34.78,,,,,,,,,,
13.06.04.374,499.9,125.0,0,,,21358.4,46.82,-0.23,0.42,1.19,-21.8,16.2,22.0,34.9,,,,,,,,,,
13.06.04.386,443.7,110.9,0,,,21358.4,46.82,-0.32,-0.21,0.2,3.6,4.9,-29.1,34.99,,,,,,,,,,
13.06.04.396,454.7,113.7,0,,,21358.4,46.82,-0.1,0.2,0.22,5.2,10.5,12.2,35.11,,,,,,,,,,
13.06.04.406,447.9,112.0,0,,,21358.4,46.82,-0.41,-0.06,0.67,13.3,-2.3,7.2,35.25,,,,,,,,,,
13.06.04.416,406.6,101.6,0,,,21353.8,46.83,-0.24,0.9,0.53,5.6,-1.3,3.0,34.83,,,,,,,,,,
13.06.04.425,354.2,88.6,0,,,21353.8,46.83,0.07,0.29,-0.19,-24.2,2.4,2.0,35.04,,,,,,,,,,
13.06.04.436,211.8,53.0,0,,,21353.8,46.83,-0.89,0.21,-0.03,2.8,25.1,0.5,34.72,,,,,,,,,,
13.06.04.449,120.0,30.0,0,,,21353.8,46.83,-0.51,-0.31,0.53,12.3,11.4,13.8,34.81,,,,,,,,,,
13.06.04.459,33.6,8.4,0,,,21353.8,46.83,-0.23,0.62,-0.07,-10.7,-16.8,-7.9,34.69,,,,,,,,,,
13.06.04.469,-2.0,0.5,0,,,21353.8,46.83,-0.18,0.46,-0.45,34.6,19.5,1.4,35.22,,,,,,,,,,
13.06.04.477,48.1,12.0,0,,,21353.8,46.83,-0.39,0.14,-0.39,4.7,8.4,-8.1,35.1,,,,,,,,,,
13.06.04.486,58.8,14.7,0,,,21353.8,46.83,-1.14,0.34,-0.2,7.9,19.4,-19.1,34.89,,,,,,,,,,
13.06.04.494,76.2,19.0,0,,,21353.8,46.83,-0.39,0.55,-0.17,-2.8,6.4,9.0,34.9,,,,,,,,,,
13.06.04.503,113.7,28.4,0,,,21349.3,46.84,-0.48,0.17,-0.15,4.7,7.1,9.7,34.82,,,,,,,,,,
13.06.04.512,80.8,20.2,0,,,21349.3,46.84,-0.52,0.84,0.25,-44.2,12.2,7.5,35.05,,,,,,,,,,
13.06.04.522,67.5,16.9,0,,,21349.3,46.84,-0.36,0.97,-1.18,-4.5,2.2,-10.7,35.03,,,,,,,,,,
13.06.04.530,66.9,16.7,0,,,21349.3,46.84,-0.65,1.01,-0.89,-1.5,15.0,26.2,35.05,,,,,,,,,,
13.06.04.540,30.7,7.7,0,,,21349.3,46.84,-0.61,0.74,-0.58,-6.5,-12.6,-8.9,34.67,,,,,,,,,,
13.06.04.550,23.4,5.8,0,,,21349.3,46.84,-0.63,1.28,-0.14,10.5,-0.3,-10.1,35.16,,,,,,,,,,
13.06.04.558,-17.8,4.4,0,,,21349.3,46.84,-0.64,0.79,0.71,25.3,23.9,2.2,35.12,,,,,,,,,,
13.06.04.567,65.0,16.2,0,,,21349.3,46.84,-0.6,0.8,0.61,-3.0,26.0,-2.0,34.71,,,,,,,,,,
13.06.04.576,-3.9,1.0,0,,,21349.3,46.84,-0.31,1.26,0.32,0.0,-14.8,11.9,34.53,,,,,,,,,,
13.06.04.585,-53.0,13.2,0,,,21344.7,46.85,0.0,1.31,0.09,-5.4,14.0,-6.0,34.73,,,,,,,,,,
13.06.04.595,-21.6,5.4,0,,,21344.7,46.85,-0.4,0.54,-0.3,-11.4,18.5,16.7,35.1,,,,,,,,,,
13.06.04.605,-70.3,17.6,0,,,21344.7,46.85,-0.29,0.8,1.31,2.7,9.1,0.1,35.0,,,,,,,,,,
13.06.04.614,-20.6,5.2,0,,,21344.7,46.85,0.27,0.84,0.1,-12.5,-4.4,-4.6,35.17,,,,,,,,,,
13.06.04.623,-39.6,9.9,0,,,21344.7,46.85,0.05,0.63,-0.04,5.3,2.8,-10.3,35.07,,,,,,,,,,
13.06.04.631,-41.5,10.4,0,,,21344.7,46.85,-0.21,0.17,1.03,-7.4,-27.5,11.8,34.95,,,,,,,,,,
13.06.04.643,-54.9,13.7,0,,,21344.7,46.85,0.04,0.16,1.03,-0.6,4.8,-4.9,35.12,,,,,,,,,,
13.06.04.653,-64.2,16.0,0,,,21344.7,46.85,-0.51,1.25,1.12,10.3,23.5,0.2,34.45,,,,,,,,,,
13.06.04.662,-58.6,14.6,0,,,21344.7,46.85,-0.26,0.51,0.7,3.0,9.5,-11.1,34.95,,,,,,,,,,
13.06.04.671,-86.5,21.6,1,12.0,148.9,21340.2,46.86,0.29,-0.19,0.66,-20.1,29.8,12.5,35.15,,,,,,,,,,
13.06.04.681,-98.4,24.6,0,,,21340.2,46.86,0.04,0.59,0.99,-5.0,8.0,-2.3,35.02,,,,,,,,,,
13.06.04.691,-116.6,29.2,0,,,21340.2,46.86,-0.38,-0.44,0.04,2.9,-12.5,-16.9,34.96,,,,,,,,,,
13.06.04.700,-74.9,18.7,0,,,21340.2,46.86,0.05,0.69,0.54,13.3,2.9,5.2,34.71,,,,,,,,,,
13.06.04.712,-194.6,48.6,0,,,21340.2,46.86,0.02,0.34,-0.58,-13.5,21.4,-3.5,34.76,,,,,,,,,,
13.06.04.720,-123.7,30.9,0,,,21340.2,46.86,-0.14,-0.18,0.41,-9.3,8.2,3.5,35.01,,,,,,,,,,
13.06.04.731,-149.3,37.3,0,,,21340.2,46.86,-0.41,-0.12,0.36,-17.1,2.1,4.0,35.11,,,,,,,,,,
13.06.04.741,-104.9,26.2,0,,,21340.2,46.86,-0.42,0.64,0.02,39.4,20.8,24.1,35.05,,,,,,,,,,
13.06.04.750,-168.2,42.0,0,,,21340.2,46.86,0.05,0.02,0.82,-4.3,9.6,5.7,34.82,,,,,,,,,,
13.06.04.760,-175.5,43.9,0,,,21335.6,46.87,-0.82,-0.49,-0.02,-10.4,-17.4,3.7,35.12,,,,,,,,,,
13.06.04.770,-162.3,40.6,0,,,21335.6,46.87,-0.16,0.62,0.18,-1.0,-18.4,10.8,34.62,,,,,,,,,,
13.06.04.778,40.6,10.2,0,,,21335.6,46.87,-0.63,-0.01,-0.82,11.9,31.6,3.4,34.73,,,,,,,,,,
13.06.04.788,147.8,37.0,0,,,21335.6,46.87,-0.65,0.38,-0.89,-0.4,14.2,-2.7,34.85,,,,,,,,,,
13.06.04.795,224.1,56.0,0,,,21335.6,46.87,-0.93,0.11,-0.32,4.5,-1.7,0.5,34.95,,,,,,,,,,
13.06.04.804,298.9,74.7,0,,,21335.6,46.87,-0.84,0.82,-0.23,50.0,20.3,19.7,35.0,,,,,,,,,,
13.06.04.817,333.6,83.4,0,,,21335.6,46.87,-0.78,0.33,-0.44,10.7,13.0,-3.4,35.2,,,,,,,,,,
13.06.04.827,451.3,112.8,0,,,21335.6,46.87,-0.65,-0.5,0.25,-3.9,-15.3,-2.0,34.83,,,,,,,,,,
13.06.04.837,413.2,103.3,0,,,21335.6,46.87,-0.27,0.27,-0.89,-4.0,2.1,-18.3,35.12,,,,,,,,,,
13.06.04.845,508.7,127.2,0,,,21331.1,46.88,-0.35,0.62,0.13,-22.4,22.7,3.8,35.37,,,,,,,,,,
13.06.04.857,533.0,133.2,0,,,21331.1,46.88,-0.76,0.51,0.18,-25.8,20.9,-22.1,34.93,,,,,,,,,,
13.06.04.867,495.7,123.9,0,,,21331.1,46.88,-0.24,0.88,0.24,9.4,4.8,-1.9,35.01,,,,,,,,,,
13.06.04.878,514.5,128.6,0,,,21331.1,46.88,-1.2,1.28,-0.33,-7.5,17.5,-1.3,34.96,,,,,,,,,,
13.06.04.887,367.7,91.9,0,,,21331.1,46.88,-0.54,0.25,0.02,16.7,27.0,-7.6,34.68,,,,,,,,,,
13.06.04.897,,,0,,,,,,,,,,,,,,,,,,,,,
13.06.04.908,254.3,63.6,0,,,21331.1,46.88,-0.6,0.94,-0.82,-1.2,-12.2,6.9,35.0,,,,,,,,,,
13.06.04.916,157.6,39.4,0,,,21331.1,46.88,-0.51,0.81,0.05,16.9,-1.2,8.6,34.6,,,,,,,,,,
13.06.04.926,49.7,12.4,0,,,21331.1,46.88,-0.32,0.45,0.08,-24.9,29.7,-12.0,35.36,,,,,,,,,,
13.06.04.936,-59.4,14.8,0,,,21326.5,46.89,-0.22,0.46,-0.05,-7.5,16.1,-3.0,34.59,,,,,,,,,,
13.06.04.945,16.7,4.2,0,,,21326.5,46.89,0.05,1.43,0.54,12.9,-5.2,-11.5,34.95,,,,,,,,,,
13.06.04.955,-5.5,1.4,0,,,21326.5,46.89,-0.0,0.81,0.35,-31.8,-8.4,-5.2,34.86,,,,,,,,,,
13.06.04.965,17.8,4.4,0,,,21326.5,46.89,-0.13,1.1,0.18,-10.7,11.4,-4.2,34.96,,,,,,,,,,
13.06.04.975,82.5,20.6,0,,,21326.5,46.89,-0.2,1.11,1.05,-10.5,7.5,-19.4,34.71,,,,,,,,,,
13.06.04.985,106.7,26.7,0,,,21326.5,46.89,0.33,0.28,0.58,-19.7,11.7,0.6,34.86,,,,,,,,,,
13.06.04.996,54.0,13.5,0,,,21326.5,46.89,-0.2,0.44,0.27,-9.7,1.8,-6.7,34.88,,,,,,,,,,
13.06.05.005,71.4,17.8,0,,,21326.5,46.89,-0.26,0.38,0.61,21.1,9.7,2.9,34.92,125.6,,,,,,,,,
13.06.05.016,75.9,19.0,0,,,21326.5,46.89,0.52,0.37,1.18,14.8,15.7,28.5,34.91,,,,,,,,,,
13.06.05.024,49.0,12.2,1,13.0,170.0,21326.5,46.89,0.03,0.53,0.02,17.7,-14.6,15.0,35.02,,,,,,,,,,
13.06.05.034,11.5,2.9,0,,,21326.5,46.89,0.14,-0.12,1.54,8.4,-24.0,3.0,34.89,,,,,,,,,,
13.06.05.043,-17.2,4.3,0,,,21326.5,46.89,-0.05,-0.3,0.04,14.1,-12.7,-6.4,34.74,,,,,,,,,,
13.06.05.051,60.4,15.1,0,,,21326.5,46.89,-0.49,0.28,0.59,24.0,-9.6,27.8,34.76,,,,,,,,,,
13.06.05.063,-55.2,13.8,0,,,21326.5,46.89,-0.29,-0.07,0.99,-11.7,26.6,6.5,34.55,,,,,,,,,,
13.06.05.073,-141.6,35.4,0,,,21326.5,46.89,-0.29,0.56,0.13,12.2,9.3,0.6,34.84,,,,,,,,,,
13.06.05.083,-70.5,17.6,0,,,21326.5,46.89,-0.5,0.46,1.07,-7.0,13.4,-12.3,35.2,,,,,,,,,,
13.06.05.093,-40.2,10.0,0,,,21326.5,46.89,-0.86,0.4,0.21,-24.8,-9.4,-13.3,35.08,,,,,,,,,,
13.06.05.103,-89.0,22.2,0,,,21326.5,46.89,-0.36,0.48,0.64,-12.4,26.6,-0.2,35.01,,,,,,,,,,
13.06.05.112,-102.8,25.7,0,,,21326.5,46.89,-0.49,-0.42,0.39,-30.6,22.8,32.3,35.13,,,,,,,,,,
13.06.05.122,-191.3,47.8,0,,,21326.5,46.89,-0.29,0.38,-0.55,12.7,19.2,1.5,34.77,,,,,,,,,,
13.06.05.133,-103.7,25.9,0,,,21326.5,46.89,-0.26,-0.16,-0.92,15.1,22.7,-2.1,34.89,,,,,,,,,,
13.06.05.141,-72.0,18.0,0,,,21326.5,46.89,-0.44,-0.22,-0.13,-39.7,-9.3,12.7,34.89,,,,,,,,,,
13.06.05.149,-143.9,36.0,0,,,21331.1,46.88,-0.53,0.04,-0.0,25.6,-8.6,3.2,34.59,,,,,,,,,,
13.06.05.159,-106.6,26.6,0,,,21331.1,46.88,-0.55,-0.59,-0.46,18.3,-16.5,-3.7,35.12,,,,,,,,,,
13.06.05.170,-166.3,41.6,0,,,21331.1,46.88,-1.0,0.77,-0.14,-6.5,-6.4,5.9,34.89,,,,,,,,,,
13.06.05.180,-125.1,31.3,0,,,21331.1,46.88,-0.5,0.42,0.2,0.7,-8.3,0.7,35.13,,,,,,,,,,
13.06.05.191,-159.7,39.9,0,,,21331.1,46.88,-0.61,0.64,-0.26,-22.5,-7.9,-3.0,35.29,,,,,,,,,,
13.06.05.199,-115.4,28.8,0,,,21331.1,46.88,-0.64,0.74,0.0,4.6,-5.7,5.7,34.77,,,,,,,,,,
13.06.05.209,-125.8,31.4,0,,,21331.1,46.88,-0.97,0.69,-0.62,-0.9,1.7,-7.8,35.11,,,,,,,,,,
13.06.05.219,-172.6,43.2,0,,,21331.1,46.88,-0.08,0.63,0.4,-29.6,-11.0,-3.2,34.68,,,,,,,,,,
13.06.05.228,-237.1,59.3,0,,,21331.1,46.88,-0.64,0.66,-0.47,-12.2,-5.6,-11.1,35.0,,,,,,,,,,
13.06.05.238,-207.3,51.8,0,,,21331.1,46.88,-0.62,0.15,-0.11,-16.6,15.6,6.2,35.07,,,,,,,,,,
13.06.05.248,32.6,8.2,0,,,21331.1,46.88,-0.65,-0.06,0.21,12.7,-10.2,-17.5,34.94,,,,,,,,,,
13.06.05.257,136.4,34.1,0,,,21331.1,46.88,-0.28,0.43,-0.2,8.4,2.0,8.2,34.76,,,,,,,,,,
13.06.05.265,164.9,41.2,0,,,21331.1,46.88,-0.61,0.69,0.56,-2.2,-22.0,17.1,35.3,,,,,,,,,,
13.06.05.275,264.8,66.2,0,,,21331.1,46.88,-0.35,0.86,0.73,-9.1,16.4,-22.5,34.77,,,,,,,,,,
13.06.05.286,311.9,78.0,0,,,21331.1,46.88,-0.76,1.13,0.58,-17.4,16.3,-12.1,35.21,,,,,,,,,,
13.06.05.295,428.4,107.1,0,,,21331.1,46.88,-0.45,0.9,0.17,-17.4,-8.6,-3.9,34.93,,,,,,,,,,
13.06.05.307,419.7,104.9,0,,,21331.1,46.88,-0.4,1.05,0.57,25.2,-1.4,-3.0,35.12,,,,,,,,,,
13.06.05.317,532.2,133.0,0,,,21331.1,46.88,-0.28,0.58,0.07,-29.0,9.3,-9.9,34.9,,,,,,,,,,
13.06.05.327,461.2,115.3,0,,,21335.6,46.87,0.21,0.41,1.06,29.6,-13.4,-20.1,34.81,,,,,,,,,,
13.06.05.338,459.7,114.9,0,,,21335.6,46.87,0.05,-0.14,1.1,38.2,10.1,30.3,35.14,,,,,,,,,,
13.06.05.348,426.1,106.5,0,,,21335.6,46.87,-0.23,0.27,0.71,36.5,7.8,11.0,35.18,,,,,,,,,,
13.06.05.358,403.1,100.8,0,,,21335.6,46.87,-0.08,0.16,0.36,-16.8,22.5,1.3,34.68,,,,,,,,,,
13.06.05.367,374.9,93.7,1,14.0,174.9,21335.6,46.87,0.0,0.12,1.37,19.6,7.1,10.8,34.9,,,,,,,,,,
13.06.05.375,275.0,68.8,0,,,21335.6,46.87,-0.0,0.25,0.61,-22.3,-0.7,1.5,34.91,,,,,,,,,,
13.06.05.386,161.7,40.4,0,,,21335.6,46.87,-0.15,1.06,1.02,-13.8,9.9,18.4,34.72,,,,,,,,,,
13.06.05.396,164.1,41.0,0,,,21335.6,46.87,-0.01,-0.01,0.04,20.4,-12.7,2.6,34.71,,,,,,,,,,
13.06.05.403,33.2,8.3,0,,,21335.6,46.87,-0.44,-0.62,0.16,-13.1,20.6,-12.7,34.74,,,,,,,,,,
13.06.05.413,-9.9,2.5,0,,,21335.6,46.87,0.01,0.06,0.87,7.5,5.0,3.8,35.02,,,,,,,,,,
13.06.05.424,77.1,19.3,0,,,21335.6,46.87,-0.44,-0.5,1.54,-37.6,10.7,-13.7,34.72,,,,,,,,,,
13.06.05.433,-27.2,6.8,0,,,21335.6,46.87,-0.49,-0.12,0.24,7.6,11.0,-6.4,34.55,,,,,,,,,,
13.06.05.444,77.2,19.3,0,,,21335.6,46.87,-0.62,0.66,0.98,19.7,-19.4,-16.5,34.91,,,,,,,,,,
13.06.05.452,72.7,18.2,0,,,21335.6,46.87,-0.53,-0.5,0.53,-17.5,-10.3,3.3,34.72,,,,,,,,,,
13.06.05.463,105.5,26.4,0,,,21335.6,46.87,-0.4,0.27,-0.04,1.3,21.7,4.9,34.65,,,,,,,,,,
13.06.05.475,48.2,12.0,0,,,21335.6,46.87,-0.44,0.07,-1.24,-7.5,-0.0,-3.1,34.55,,,,,,,,,,
13.06.05.484,53.4,13.4,0,,,21335.6,46.87,-0.42,-0.04,-0.84,5.1,8.4,4.9,35.0,,,,,,,,,,
13.06.05.496,-27.1,6.8,0,,,21335.6,46.87,-0.63,0.13,-1.04,0.1,12.3,12.7,34.83,,,,,,,,,,
13.06.05.505,6.9,1.7,0,,,21340.2,46.86,-0.61,0.28,-0.2,4.6,17.7,13.4,35.01,,,,,,,,,,
13.06.05.518,-42.2,10.6,0,,,21340.2,46.86,-0.62,0.33,0.3,13.1,-0.2,5.3,35.11,,,,,,,,,,
13.06.05.528,13.7,3.4,0,,,21340.2,46.86,-0.78,0.65,-0.39,38.1,1.3,0.8,34.84,,,,,,,,,,
13.06.05.537,-44.4,11.1,0,,,21340.2,46.86,-0.87,-0.38,1.02,-13.6,-4.7,-8.8,35.03,,,,,,,,,,
13.06.05.548,1.7,0.4,0,,,21340.2,46.86,-0.71,0.06,-0.5,11.8,-17.5,3.4,35.03,,,,,,,,,,
13.06.05.557,-50.3,12.6,0,,,21340.2,46.86,-0.41,0.77,0.38,-3.5,12.4,5.0,34.74,,,,,,,,,,
13.06.05.566,-68.4,17.1,0,,,21340.2,46.86,-0.69,0.53,0.68,21.6,-36.5,3.2,35.27,,,,,,,,,,
13.06.05.575,-63.0,15.8,0,,,21340.2,46.86,-0.71,1.39,0.33,1.0,-11.1,22.0,34.92,,,,,,,,,,
13.06.05.587,-43.8,11.0,0,,,21340.2,46.86,-0.42,1.08,0.81,9.2,19.5,-0.7,34.62,,,,,,,,,,
13.06.05.598,-134.3,33.6,0,,,21340.2,46.86,-0.35,0.93,-0.5,25.0,-23.4,-5.3,35.17,,,,,,,,,,
13.06.05.608,-167.3,41.8,0,,,21340.2,46.86,-0.6,0.33,0.13,-2.1,-6.2,-13.4,34.5,,,,,,,,,,
13.06.05.617,-103.0,25.8,0,,,21340.2,46.86,-0.23,1.01,0.28,-24.8,13.8,-14.0,34.83,,,,,,,,,,
13.06.05.630,-128.6,32.2,0,,,21340.2,46.86,-0.44,0.51,0.91,4.0,34.1,7.5,34.71,,,,,,,,,,
13.06.05.639,-55.2,13.8,0,,,21340.2,46.86,-0.2,0.57,-0.59,-1.6,20.1,42.1,34.88,,,,,,,,,,
13.06.05.648,-121.5,30.4,0,,,21340.2,46.86,0.18,0.89,0.39,5.2,22.4,-19.1,35.12,,,,,,,,,,
13.06.05.658,-114.6,28.6,0,,,21340.2,46.86,-0.61,1.11,-0.16,-5.7,21.4,17.6,34.8,,,,,,,,,,
13.06.05.668,-179.0,44.8,0,,,21340.2,46.86,-0.47,1.44,0.55,38.1,23.4,-14.4,34.72,,,,,,,,,,
13.06.05.678,-203.1,50.8,0,,,21344.7,46.85,-0.05,1.1,0.06,7.7,-25.0,9.0,35.06,,,,,,,,,,
13.06.05.687,-227.9,57.0,0,,,21344.7,46.85,-0.15,0.4,1.01,24.1,29.4,-15.5,35.03,,,,,,,,,,
13.06.05.698,-145.2,36.3,0,,,21344.7,46.85,-0.05,0.99,0.8,-2.9,-15.5,4.6,34.84,,,,,,,,,,
13.06.05.706,-215.5,53.9,0,,,21344.7,46.85,-0.07,0.49,-0.17,-16.5,4.3,20.5,35.06,,,,,,,,,,
13.06.05.716,-249.9,62.5,0,,,21344.7,46.85,-0.15,0.32,0.85,6.8,-8.8,11.4,34.73,,,,,,,,,,
13.06.05.725,31.6,7.9,0,,,21344.7,46.85,0.35,0.12,1.11,-21.5,10.6,1.4,34.99,,,,,,,,,,
13.06.05.733,131.0,32.8,1,15.0,163.9,21344.7,46.85,-0.01,0.39,0.77,8.1,-6.7,7.1,34.88,,,,,,,,,,
13.06.05.742,224.6,56.2,0,,,21344.7,46.85,-0.04,0.29,-0.29,10.9,3.8,11.6,34.81,,,,,,,,,,
13.06.05.752,241.4,60.4,0,,,21344.7,46.85,-0.19,0.41,1.28,4.9,24.3,4.8,35.38,,,,,,,,,,
13.06.05.761,360.4,90.1,0,,,21344.7,46.85,-0.55,-0.0,0.54,25.8,9.3,-1.4,35.11,,,,,,,,,,
13.06.05.773,426.2,106.6,0,,,21344.7,46.85,-0.38,-0.16,0.01,31.2,8.6,5.7,35.08,,,,,,,,,,
13.06.05.784,466.1,116.5,0,,,21344.7,46.85,-0.18,-0.13,0.03,-12.5,-20.3,7.1,34.59,,,,,,,,,,
13.06.05.792,505.7,126.4,0,,,21344.7,46.85,-0.14,0.53,0.04,-0.4,-24.3,7.6,34.84,,,,,,,,,,
13.06.05.801,456.6,114.2,0,,,21344.7,46.85,-0.46,-0.11,1.19,5.4,19.2,-16.7,34.57,,,,,,,,,,
13.06.05.809,438.2,109.6,0,,,21344.7,46.85,-0.49,0.32,0.09,-9.4,28.5,16.7,34.91,,,,,,,,,,
13.06.05.819,543.1,135.8,0,,,21344.7,46.85,-0.23,-0.13,-0.41,24.2,27.7,6.7,34.71,,,,,,,,,,
13.06.05.830,421.7,105.4,0,,,21344.7,46.85,-0.82,0.04,0.15,9.5,5.9,0.9,34.86,,,,,,,,,,
13.06.05.840,322.1,80.5,0,,,21344.7,46.85,-0.68,0.45,-0.5,-2.9,-1.8,4.8,34.92,,,,,,,,,,
13.06.05.851,352.1,88.0,0,,,21349.3,46.84,-0.86,-0.46,0.11,8.4,-3.2,-4.2,34.88,,,,,,,,,,
13.06.05.860,222.6,55.6,0,,,21349.3,46.84,-0.71,0.14,-0.57,19.3,8.4,-12.4,34.85,,,,,,,,,,
13.06.05.872,170.6,42.6,0,,,21349.3,46.84,-0.61,0.68,0.13,3.0,13.2,-0.3,35.08,,,,,,,,,,
13.06.05.884,0.6,0.2,0,,,21349.3,46.84,-0.21,0.23,-0.14,-47.4,2.6,-13.6,35.03,,,,,,,,,,
13.06.05.895,-2.2,0.6,0,,,21349.3,46.84,-0.39,0.29,0.4,41.2,38.6,-11.4,34.95,,,,,,,,,,
13.06.05.903,41.0,10.2,0,,,21349.3,46.84,-0.54,0.51,-0.32,5.2,-15.6,2.0,34.68,,,,,,,,,,
13.06.05.913,56.0,14.0,0,,,21349.3,46.84,-0.47,1.0,0.06,53.9,12.7,-8.9,35.1,,,,,,,,,,
13.06.05.923,76.1,19.0,0,,,21349.3,46.84,-0.18,1.36,0.14,-4.9,-15.0,-12.5,35.38,,,,,,,,,,
13.06.05.934,105.2,26.3,0,,,21349.3,46.84,-0.37,1.07,0.54,-16.8,4.5,21.9,35.22,,,,,,,,,,
13.06.05.944,138.6,34.6,0,,,21349.3,46.84,-0.76,0.33,0.1,-20.1,-4.9,-11.6,35.05,,,,,,,,,,
13.06.05.953,50.8,12.7,0,,,21349.3,46.84,-0.36,0.15,0.64,10.6,12.8,0.6,34.82,,,,,,,,,,
13.06.05.963,35.5,8.9,0,,,21349.3,46.84,-0.49,0.09,0.58,-6.5,-3.0,3.1,34.95,,,,,,,,,,
13.06.05.973,19.9,5.0,0,,,21349.3,46.84,-0.54,0.98,0.05,9.3,-19.7,19.8,35.09,,,,,,,,,,
13.06.05.981,4.2,1.0,0,,,21349.3,46.84,-0.3,0.72,1.26,0.6,-1.3,-11.3,34.95,,,,,,,,,,
13.06.05.991,18.8,4.7,0,,,21349.3,46.84,-0.14,1.08,0.39,1.4,-4.5,-9.6,34.89,,,,,,,,,,
13.06.06.001,-29.4,7.4,0,,,21349.3,46.84,-0.35,1.12,0.55,-17.4,3.5,-6.1,34.78,,,,,,,,,,
13.06.06.013,-6.3,1.6,0,,,21353.8,46.83,-0.28,0.64,0.67,-30.6,-9.3,18.7,35.2,,,,,,,,,,
13.06.06.025,-90.0,22.5,0,,,21353.8,46.83,-0.52,0.69,0.94,-0.8,-10.4,36.8,34.72,,,,,,,,,,
13.06.06.035,-34.1,8.5,0,,,21353.8,46.83,-0.48,0.13,0.97,-22.1,14.4,-12.4,35.31,,,,,,,,,,
13.06.06.044,-93.9,23.5,0,,,21358.4,46.82,-0.48,1.01,0.3,18.9,10.5,-0.4,35.28,,,,,,,,,,
13.06.06.054,-69.5,17.4,0,,,21358.4,46.82,-0.18,0.35,0.66,-14.3,-29.2,12.5,34.9,,,,,,,,,,
13.06.06.063,-112.9,28.2,0,,,21358.4,46.82,-0.21,-0.19,1.02,-1.7,14.4,-21.6,35.11,,,,,,,,,,
13.06.06.071,-41.4,10.4,0,,,21358.4,46.82,-0.08,0.71,0.53,24.0,29.9,-4.8,35.05,,,,,,,,,,
13.06.06.081,-82.9,20.7,0,,,21363.0,46.81,0.22,0.54,0.52,3.4,21.5,-3.2,34.8,,,,,,,,,,
13.06.06.090,-72.3,18.1,1,16.0,168.1,21363.0,46.81,-0.09,0.92,0.23,7.3,-13.0,-0.0,34.84,,,,,,,,,,
13.06.06.097,-145.6,36.4,0,,,21363.0,46.81,-0.45,-0.45,0.75,-0.7,2.6,1.1,34.9,,,,,,,,,,
13.06.06.108,-107.1,26.8,0,,,21363.0,46.81,-0.04,0.39,0.18,17.1,13.4,0.7,35.14,,,,,,,,,,
13.06.06.119,-90.1,22.5,0,,,21367.5,46.8,-0.05,0.04,1.36,-11.7,-11.6,-13.8,35.06,,,,,,,,,,
13.06.06.127,-166.8,41.7,0,,,21367.5,46.8,-0.43,-0.46,-0.39,34.1,12.4,8.7,34.85,,,,,,,,,,
13.06.06.137,-168.5,42.1,0,,,21367.5,46.8,-0.18,0.23,0.47,-20.9,22.7,-8.6,35.2,,,,,,,,,,
13.06.06.148,-163.7,40.9,0,,,21372.1,46.79,-0.11,0.59,-0.5,-21.0,27.6,-4.2,35.02,,,,,,,,,,
13.06.06.156,-138.5,34.6,0,,,21372.1,46.79,-0.65,0.05,0.45,28.9,16.4,14.5,34.88,,,,,,,,,,
13.06.06.168,-132.5,33.1,0,,,21372.1,46.79,-0.3,-0.3,-0.76,16.8,-9.6,-3.2,34.58,,,,,,,,,,
13.06.06.178,-246.1,61.5,0,,,21372.1,46.79,-0.14,0.01,0.37,5.1,-2.8,-27.8,34.78,,,,,,,,,,
13.06.06.190,-227.7,56.9,0,,,21376.7,46.78,-0.11,0.08,-1.14,2.2,7.1,-4.9,35.06,,,,,,,,,,
13.06.06.200,9.6,2.4,0,,,21376.7,46.78,-0.28,0.13,-0.86,-17.0,25.3,2.5,34.87,,,,,,,,,,
13.06.06.210,170.1,42.5,0,,,21376.7,46.78,-0.51,-0.16,-0.58,0.9,0.3,-5.5,34.69,,,,,,,,,,
13.06.06.221,272.5,68.1,0,,,21381.2,46.77,-0.55,1.17,-0.54,-21.6,-18.2,-6.9,35.12,,,,,,,,,,
13.06.06.230,340.7,85.2,0,,,21381.2,46.77,-0.78,-0.04,-1.14,13.6,13.2,4.7,35.53,,,,,,,,,,
13.06.06.239,381.0,95.2,0,,,21381.2,46.77,-1.06,0.27,-0.43,-20.8,20.3,-12.2,34.74,,,,,,,,,,
13.06.06.247,472.2,118.0,0,,,21381.2,46.77,-0.52,0.86,-0.04,-6.8,-8.7,3.4,34.87,,,,,,,,,,
13.06.06.257,401.7,100.4,0,,,21385.8,46.76,-0.71,0.67,-0.39,-4.2,1.4,-2.1,34.53,,,,,,,,,,
13.06.06.267,497.6,124.4,0,,,21385.8,46.76,-0.83,0.23,-0.44,-16.3,-8.2,-12.8,34.81,,,,,,,,,,
13.06.06.276,444.7,111.2,0,,,21385.8,46.76,-0.4,0.8,0.44,-22.3,5.5,-4.0,35.03,,,,,,,,,,
13.06.06.285,517.6,129.4,0,,,21385.8,46.76,-0.81,0.73,0.21,-7.6,9.2,8.9,34.78,,,,,,,,,,
13.06.06.294,392.5,98.1,0,,,21390.4,46.75,-0.17,1.28,-0.22,18.4,8.1,16.9,34.99,,,,,,,,,,
13.06.06.301,469.0,117.2,0,,,21390.4,46.75,-0.4,1.07,-0.01,58.1,-5.1,-16.1,34.8,,,,,,,,,,
13.06.06.311,410.5,102.6,0,,,21390.4,46.75,-0.43,0.72,0.17,4.4,-14.4,0.1,35.03,,,,,,,,,,
13.06.06.320,279.3,69.8,0,,,21390.4,46.75,-0.29,0.71,0.21,-23.7,25.2,-14.5,35.05,,,,,,,,,,
13.06.06.329,298.2,74.6,0,,,21395.0,46.74,-0.09,1.16,-0.0,20.4,-0.9,15.5,35.11,,,,,,,,,,
13.06.06.337,121.8,30.4,0,,,21395.0,46.74,-0.18,0.66,0.67,-33.1,5.6,-5.4,34.81,,,,,,,,,,
13.06.06.345,140.8,35.2,0,,,21395.0,46.74,-0.39,1.0,0.08,-16.4,29.0,17.9,35.08,,,,,,,,,,
13.06.06.356,6.0,1.5,0,,,21395.0,46.74,-0.14,0.48,0.43,-13.5,5.1,5.2,34.78,,,,,,,,,,
13.06.06.366,40.7,10.2,0,,,21399.5,46.73,-0.37,0.55,0.23,30.1,24.1,-7.5,35.06,,,,,,,,,,
13.06.06.378,83.6,20.9,0,,,21399.5,46.73,0.19,0.86,0.64,17.7,-4.4,8.4,35.26,,,,,,,,,,
13.06.06.386,92.3,23.1,0,,,21399.5,46.73,-0.28,0.43,0.57,8.5,-0.3,11.3,35.23,,,,,,,,,,
13.06.06.394,90.4,22.6,0,,,21399.5,46.73,-0.06,0.49,1.18,18.5,-26.8,8.6,34.69,,,,,,,,,,
13.06.06.405,52.6,13.2,0,,,21404.1,46.72,-0.31,0.95,-0.55,-5.8,10.3,0.3,34.72,,,,,,,,,,
13.06.06.417,46.5,11.6,0,,,21404.1,46.72,0.05,-0.29,0.74,-18.4,7.4,-33.4,34.48,,,,,,,,,,
13.06.06.427,70.7,17.7,0,,,21404.1,46.72,-0.42,0.16,0.72,-7.8,-9.4,7.0,34.82,,,,,,,,,,
13.06.06.438,53.2,13.3,0,,,21408.7,46.71,-0.09,0.12,0.95,11.5,9.7,21.7,34.75,,,,,,,,,,
13.06.06.448,48.9,12.2,0,,,21408.7,46.71,-0.39,0.9,-0.31,2.4,3.5,8.0,35.2,,,,,,,,,,
13.06.06.458,26.4,6.6,0,,,21408.7,46.71,-0.33,0.63,0.65,-13.2,6.8,-4.1,35.19,,,,,,,,,,
13.06.06.467,-22.6,5.6,0,,,21408.7,46.71,-0.33,-0.37,-0.36,8.5,8.1,7.0,35.14,,,,,,,,,,
13.06.06.475,-12.9,3.2,0,,,21413.3,46.7,0.13,0.15,0.56,17.5,-27.2,-9.0,35.28,,,,,,,,,,
13.06.06.483,-77.7,19.4,0,,,21413.3,46.7,-0.41,0.05,0.89,15.1,11.1,13.8,35.14,,,,,,,,,,
13.06.06.492,41.7,10.4,1,17.0,149.3,21413.3,46.7,-0.53,-0.68,0.52,-4.3,8.4,17.9,35.19,,,,,,,,,,
13.06.06.502,-60.8,15.2,0,,,21413.3,46.7,-0.26,-0.81,0.74,-14.4,9.3,-14.6,34.67,,,,,,,,,,
13.06.06.512,12.4,3.1,0,,,21417.9,46.69,-0.26,0.47,0.46,36.7,18.1,12.3,34.85,,,,,,,,,,
13.06.06.525,-79.6,19.9,0,,,21417.9,46.69,-0.47,0.3,0.2,8.4,12.0,-2.5,35.18,,,,,,,,,,
13.06.06.534,-76.7,19.2,0,,,21417.9,46.69,-0.84,-0.17,0.82,-14.7,19.0,-8.8,35.04,,,,,,,,,,
13.06.06.543,-71.2,17.8,0,,,21422.5,46.68,-0.25,-0.06,0.28,20.5,20.4,-18.8,35.03,,,,,,,,,,
13.06.06.554,-108.1,27.0,0,,,21422.5,46.68,-0.69,0.35,0.2,-13.6,-21.6,-18.2,34.78,,,,,,,,,,
13.06.06.565,-183.9,46.0,0,,,21422.5,46.68,-0.41,-0.02,-0.08,-17.1,-17.8,8.5,34.68,,,,,,,,,,
13.06.06.574,-108.9,27.2,0,,,21422.5,46.68,-1.05,1.04,-0.38,-17.7,-10.5,-6.4,35.16,,,,,,,,,,
13.06.06.584,-82.5,20.6,0,,,21427.0,46.67,-0.5,0.78,-0.08,-25.2,-14.1,-23.0,35.0,,,,,,,,,,
13.06.06.594,-99.6,24.9,0,,,21427.0,46.67,-1.02,0.04,-0.84,4.0,0.9,-14.6,34.56,,,,,,,,,,
13.06.06.602,-109.3,27.3,0,,,21427.0,46.67,-0.7,0.68,-0.37,-1.8,5.7,16.6,34.66,,,,,,,,,,
13.06.06.610,-168.8,42.2,0,,,21431.6,46.66,-0.86,1.11,0.33,-12.3,7.1,-16.9,34.91,,,,,,,,,,
13.06.06.621,-79.6,19.9,0,,,21431.6,46.66,-0.72,0.73,0.04,12.6,-1.7,-9.8,35.25,,,,,,,,,,
13.06.06.630,-188.0,47.0,0,,,21431.6,46.66,-0.54,0.78,0.36,7.5,23.5,2.5,34.92,,,,,,,,,,
13.06.06.642,-66.8,16.7,0,,,21431.6,46.66,-0.77,1.23,-0.28,22.5,14.9,3.5,35.04,,,,,,,,,,
13.06.06.653,-165.6,41.4,0,,,21436.2,46.65,-0.63,0.09,0.83,8.2,9.8,-0.0,35.07,,,,,,,,,,
13.06.06.661,-184.2,46.0,0,,,21436.2,46.65,-0.79,0.72,0.13,-34.4,24.8,-0.5,34.88,,,,,,,,,,
13.06.06.670,60.2,15.0,0,,,21436.2,46.65,-0.53,1.3,-0.12,3.9,-2.3,-6.6,34.84,,,,,,,,,,
13.06.06.680,108.6,27.2,0,,,21436.2,46.65,-0.45,0.9,0.09,2.7,-29.9,1.0,34.64,,,,,,,,,,
13.06.06.690,276.0,69.0,0,,,21440.8,46.64,-0.64,0.68,0.02,35.3,27.6,-8.8,34.97,,,,,,,,,,
13.06.06.699,287.7,71.9,0,,,21440.8,46.64,-0.13,1.19,0.6,1.4,-16.0,-6.4,34.91,,,,,,,,,,
13.06.06.710,377.1,94.3,0,,,21440.8,46.64,-0.16,0.67,0.81,-6.9,22.3,-8.7,35.12,,,,,,,,,,
13.06.06.718,395.2,98.8,0,,,21445.4,46.63,-0.11,0.04,0.09,-39.5,4.9,-16.9,35.42,,,,,,,,,,
13.06.06.728,427.5,106.9,0,,,21445.4,46.63,-0.05,0.47,0.89,-2.1,20.2,-13.8,35.04,,,,,,,,,,
13.06.06.739,460.1,115.0,0,,,21445.4,46.63,-0.49,0.94,0.08,-21.4,14.8,-17.8,35.02,,,,,,,,,,
13.06.06.749,574.6,143.6,0,,,21445.4,46.63,0.0,0.09,0.1,-6.8,29.0,12.2,34.75,,,,,,,,,,
13.06.06.759,410.9,102.7,0,,,21450.0,46.62,-0.14,-0.09,0.92,-59.8,10.7,-4.5,35.06,,,,,,,,,,
13.06.06.769,423.0,105.8,0,,,21450.0,46.62,0.16,0.45,0.94,4.9,-9.2,-15.7,34.79,,,,,,,,,,
13.06.06.775,359.5,89.9,0,,,21450.0,46.62,0.07,0.17,0.16,16.9,-26.1,3.9,35.36,,,,,,,,,,
13.06.06.783,355.5,88.9,0,,,21450.0,46.62,0.24,0.09,-0.42,8.2,16.4,-4.1,35.18,,,,,,,,,,
13.06.06.793,356.9,89.2,0,,,21454.6,46.61,-0.29,0.16,-0.12,4.1,-4.4,-18.8,34.84,,,,,,,,,,
13.06.06.802,272.4,68.1,0,,,21454.6,46.61,-0.03,0.7,0.18,10.0,-3.6,-9.7,34.43,,,,,,,,,,
13.06.06.811,150.3,37.6,0,,,21454.6,46.61,-0.21,0.27,0.34,4.8,-11.0,-6.7,34.66,,,,,,,,,,
13.06.06.820,99.4,24.8,0,,,21454.6,46.61,-0.08,0.22,0.58,9.5,24.9,-16.4,35.04,,,,,,,,,,
13.06.06.830,6.6,1.6,0,,,21459.2,46.6,-0.39,0.01,-0.37,-52.3,21.5,-0.0,35.01,,,,,,,,,,
13.06.06.839,35.0,8.8,0,,,21459.2,46.6,-1.02,0.31,-0.05,12.4,6.2,2.3,34.96,,,,,,,,,,
13.06.06.849,98.4,24.6,0,,,21459.2,46.6,-0.5,-0.15,-0.6,17.6,3.8,-14.2,35.12,,,,,,,,,,
13.06.06.861,28.7,7.2,1,18.0,162.6,21463.8,46.59,-0.5,0.67,0.57,-19.7,-12.9,-14.6,34.99,,,,,,,,,,
13.06.06.870,114.2,28.6,0,,,21463.8,46.59,-0.7,0.16,0.33,31.0,26.1,-1.7,34.9,,,,,,,,,,
13.06.06.878,121.2,30.3,0,,,21463.8,46.59,-0.4,0.01,-0.44,-12.5,-17.5,-27.8,34.64,,,,,,,,,,
13.06.06.890,79.3,19.8,0,,,21463.8,46.59,-0.67,0.8,-1.92,25.7,6.7,2.3,34.88,,,,,,,,,,
13.06.06.898,45.8,11.4,0,,,21468.4,46.58,-0.71,0.97,-0.42,9.0,3.1,2.4,35.12,,,,,,,,,,
13.06.06.908,23.9,6.0,0,,,21468.4,46.58,-0.25,0.2,1.28,-6.9,-6.2,-11.6,34.84,,,,,,,,,,
13.06.06.919,24.5,6.1,0,,,21468.4,46.58,-0.54,0.65,-0.23,12.2,-20.4,1.1,34.95,,,,,,,,,,
13.06.06.929,-25.0,6.2,0,,,21468.4,46.58,-0.36,0.42,-0.77,17.4,-5.2,-32.0,35.24,,,,,,,,,,
13.06.06.938,-71.5,17.9,0,,,21473.1,46.57,-0.78,0.85,0.24,-2.2,-6.7,-7.0,35.1,,,,,,,,,,
13.06.06.947,-25.8,6.4,0,,,21473.1,46.57,-0.8,0.57,0.25,-22.9,-0.0,4.1,34.87,,,,,,,,,,
13.06.06.956,-16.6,4.2,0,,,21473.1,46.57,-0.38,0.98,0.28,-8.9,2.1,5.9,34.79,,,,,,,,,,
13.06.06.967,-53.6,13.4,0,,,21477.7,46.56,-0.63,0.65,-0.72,-4.0,0.3,-12.2,34.6,,,,,,,,,,
13.06.06.976,-9.8,2.4,0,,,21477.7,46.56,-0.79,0.69,0.49,-4.0,4.5,-6.7,35.52,,,,,,,,,,
13.06.06.986,-37.9,9.5,0,,,21477.7,46.56,-0.21,1.23,0.33,23.9,-7.6,-3.4,35.08,,,,,,,,,,
13.06.06.996,-79.7,19.9,0,,,21477.7,46.56,-0.24,0.4,0.75,-18.3,-18.6,21.9,34.94,,,,,,,,,,
13.06.07.007,-122.7,30.7,0,,,21482.3,46.55,-0.32,0.76,0.02,9.0,-4.9,-20.8,35.01,,,,,,,,,,
13.06.07.015,-117.4,29.4,0,,,21482.3,46.55,-0.78,0.61,-0.25,-19.2,16.6,-18.1,35.22,,,,,,,,,,
13.06.07.026,-94.2,23.6,0,,,21482.3,46.55,-0.22,0.7,-0.52,-1.4,-17.7,-5.8,34.96,,,,,,,,,,
13.06.07.036,-113.3,28.3,0,,,21482.3,46.55,-0.53,-0.05,1.35,17.7,25.9,-13.5,34.94,,,,,,,,,,
13.06.07.046,-175.5,43.9,0,,,21482.3,46.55,-0.08,0.61,0.48,-14.8,2.0,-27.2,34.94,,,,,,,,,,
13.06.07.056,-221.2,55.3,0,,,21482.3,46.55,-0.53,0.23,0.92,-6.8,14.1,5.1,34.74,,,,,,,,,,
13.06.07.067,-116.8,29.2,0,,,21486.9,46.54,0.13,0.95,-0.15,7.6,1.0,-10.1,35.1,,,,,,,,,,
13.06.07.076,-104.6,26.2,0,,,21486.9,46.54,-0.08,-0.02,0.89,9.4,-15.4,2.2,34.83,,,,,,,,,,
13.06.07.086,-126.0,31.5,0,,,21486.9,46.54,-0.17,0.57,0.65,12.0,-39.7,-14.9,35.12,,,,,,,,,,
13.06.07.096,-227.4,56.8,0,,,21486.9,46.54,-0.2,0.36,0.8,57.6,3.8,-10.1,34.95,,,,,,,,,,
13.06.07.107,-235.4,58.8,0,,,21486.9,46.54,-0.13,0.17,1.1,4.6,13.7,-5.6,34.5,,,,,,,,,,
13.06.07.116,-203.5,50.9,0,,,21491.5,46.53,-0.34,0.17,0.82,-0.4,-9.2,-5.1,34.96,,,,,,,,,,
13.06.07.127,-217.0,54.2,0,,,21491.5,46.53,0.07,0.74,0.45,17.3,19.2,-7.5,35.02,,,,,,,,,,
13.06.07.139,39.0,9.8,0,,,21491.5,46.53,0.02,0.16,0.32,-1.3,-1.0,5.4,34.99,,,,,,,,,,
13.06.07.150,143.1,35.8,0,,,21491.5,46.53,-0.26,0.37,1.59,8.3,-13.4,-24.2,34.74,,,,,,,,,,
13.06.07.162,244.0,61.0,0,,,21491.5,46.53,-0.42,-0.39,0.96,-2.2,11.1,15.1,34.81,,,,,,,,,,
13.06.07.173,333.2,83.3,0,,,21496.1,46.52,-0.32,0.26,0.52,14.0,-11.8,-13.4,35.07,,,,,,,,,,
13.06.07.184,366.6,91.6,0,,,21496.1,46.52,-0.13,0.3,0.78,22.2,2.9,-33.4,34.66,,,,,,,,,,
13.06.07.195,444.0,111.0,1,19.0,179.6,21496.1,46.52,-0.4,0.12,0.21,0.9,-6.8,-14.3,35.02,,,,,,,,,,
13.06.07.205,478.2,119.6,0,,,21496.1,46.52,-0.41,0.02,0.13,32.1,-13.6,-24.8,35.18,,,,,,,,,,
13.06.07.215,560.6,140.2,0,,,21496.1,46.52,-0.87,0.07,-0.56,-35.9,11.5,0.3,34.86,,,,,,,,,,
13.06.07.223,494.3,123.6,0,,,21496.1,46.52,-0.05,0.17,-1.0,31.9,16.6,-3.0,34.92,,,,,,,,,,
13.06.07.230,488.6,122.2,0,,,21500.8,46.51,-0.43,-0.05,-0.87,12.2,10.5,-12.5,34.91,,,,,,,,,,
13.06.07.238,455.1,113.8,0,,,21500.8,46.51,-0.59,-0.2,0.29,-22.8,0.7,-12.3,35.46,,,,,,,,,,
13.06.07.246,331.7,82.9,0,,,21500.8,46.51,-0.4,-0.2,-0.83,7.1,13.8,-7.0,35.24,,,,,,,,,,
13.06.07.256,436.9,109.2,0,,,21500.8,46.51,-0.36,0.58,-0.01,27.1,-10.7,-3.8,34.91,,,,,,,,,,
13.06.07.264,304.8,76.2,0,,,21500.8,46.51,-0.47,-0.06,0.48,29.4,13.0,-0.6,34.97,,,,,,,,,,
13.06.07.273,240.9,60.2,0,,,21500.8,46.51,-0.57,1.09,-0.31,3.2,-12.7,-5.6,35.21,,,,,,,,,,
13.06.07.284,169.4,42.4,0,,,21500.8,46.51,-0.16,0.89,-0.5,19.1,36.4,-23.2,34.83,,,,,,,,,,
13.06.07.295,78.1,19.5,0,,,21505.4,46.5,-0.56,1.26,-0.16,10.0,14.3,-0.3,34.97,,,,,,,,,,
13.06.07.305,12.4,3.1,0,,,21505.4,46.5,-0.35,0.84,0.05,-13.5,-2.7,-19.5,34.76,,,,,,,,,,
13.06.07.316,31.2,7.8,0,,,21505.4,46.5,-0.5,1.09,0.21,-32.5,-5.3,13.3,34.91,,,,,,,,,,
13.06.07.326,51.9,13.0,0,,,21505.4,46.5,-0.48,0.68,0.9,-9.3,-17.9,-17.5,34.65,,,,,,,,,,
13.06.07.334,14.9,3.7,0,,,21505.4,46.5,-0.54,0.61,-0.61,-16.4,15.7,-2.5,34.62,,,,,,,,,,
13.06.07.345,97.1,24.3,0,,,21510.0,46.49,-0.49,0.37,0.42,19.4,5.0,7.2,34.97,,,,,,,,,,
13.06.07.354,50.7,12.7,0,,,21510.0,46.49,-0.39,0.8,0.31,-7.2,21.7,-9.4,35.14,,,,,,,,,,
13.06.07.363,120.8,30.2,0,,,21510.0,46.49,-0.3,0.24,0.42,-16.4,13.8,-8.3,34.76,,,,,,,,,,
13.06.07.372,29.5,7.4,0,,,21510.0,46.49,-0.36,0.3,0.46,19.6,9.7,20.7,34.97,,,,,,,,,,
13.06.07.382,26.9,6.7,0,,,21510.0,46.49,0.15,1.11,-0.26,-15.4,-2.4,14.4,34.85,,,,,,,,,,
13.06.07.391,44.9,11.2,0,,,21510.0,46.49,0.17,0.96,1.65,-17.3,10.1,-4.0,34.83,,,,,,,,,,
13.06.07.400,-12.8,3.2,0,,,21510.0,46.49,0.07,1.19,0.93,6.0,1.8,11.0,35.06,,,,,,,,,,
13.06.07.410,-18.4,4.6,0,,,21514.6,46.48,-0.16,0.59,0.6,23.2,5.5,12.0,35.02,,,,,,,,,,
13.06.07.417,,,0,,,,,,,,,,,,,,,,,,,,,
13.06.07.427,-78.3,19.6,0,,,21514.6,46.48,-0.4,0.68,0.69,-3.8,1.3,-9.6,34.94,,,,,,,,,,
13.06.07.438,-42.3,10.6,0,,,21514.6,46.48,-0.05,0.51,0.51,-26.6,0.2,0.7,34.85,,,,,,,,,,
13.06.07.447,-59.3,14.8,0,,,21514.6,46.48,-0.03,0.08,0.73,16.3,3.4,-0.5,35.26,,,,,,,,,,
13.06.07.456,-14.9,3.7,0,,,21514.6,46.48,-0.06,-0.07,0.48,21.9,-8.7,-1.4,35.03,,,,,,,,,,
13.06.07.465,-38.4,9.6,0,,,21519.3,46.47,-0.09,-0.14,1.01,3.8,9.1,-6.1,34.84,,,,,,,,,,
13.06.07.474,-62.4,15.6,0,,,21519.3,46.47,-0.12,0.36,0.93,12.9,17.6,5.4,34.71,,,,,,,,,,
13.06.07.484,-64.8,16.2,0,,,21519.3,46.47,-0.05,-0.54,0.79,0.2,22.7,-22.9,35.01,,,,,,,,,,
13.06.07.494,-103.2,25.8,0,,,21519.3,46.47,-0.33,0.43,-0.09,53.8,16.1,-5.5,34.76,,,,,,,,,,
13.06.07.504,-106.1,26.5,0,,,21519.3,46.47,-0.47,0.27,0.73,-8.3,2.7,-17.1,34.93,,,,,,,,,,
13.06.07.515,-110.8,27.7,0,,,21523.9,46.46,-0.31,-0.1,0.43,-15.4,5.1,0.1,34.71,,,,,,,,,,
13.06.07.523,-106.1,26.5,0,,,21523.9,46.46,-0.37,0.64,1.1,12.6,-7.2,-11.4,35.0,,,,,,,,,,
13.06.07.533,-136.6,34.2,0,,,21523.9,46.46,-0.88,0.28,-0.09,11.5,14.6,5.3,34.95,,,,,,,,,,
13.06.07.542,-83.0,20.8,0,,,21523.9,46.46,-0.36,0.24,0.19,-38.7,-8.0,-4.2,34.97,,,,,,,,,,
13.06.07.551,-104.2,26.0,1,20.0,168.5,21523.9,46.46,-0.69,0.14,0.24,25.3,10.9,-7.2,34.84,,,,,,,,,,
13.06.07.561,-114.9,28.7,0,,,21523.9,46.46,-0.76,-0.21,0.31,7.9,-9.3,-9.4,35.07,,,,,,,,,,
13.06.07.570,-145.9,36.5,0,,,21523.9,46.46,-0.58,-0.11,0.73,-6.2,-3.3,6.0,35.31,,,,,,,,,,
13.06.07.580,-209.6,52.4,0,,,21528.5,46.45,-0.8,0.46,0.27,-8.8,0.6,6.2,34.98,,,,,,,,,,
13.06.07.591,-213.7,53.4,0,,,21528.5,46.45,-0.87,0.53,-0.43,8.0,33.0,-9.4,34.91,,,,,,,,,,
13.06.07.602,-207.2,51.8,0,,,21528.5,46.45,-0.64,0.42,0.37,-2.0,-9.8,2.9,34.93,,,,,,,,,,
13.06.07.612,62.7,15.7,0,,,21528.5,46.45,-0.96,0.27,-0.36,-27.3,19.6,23.6,34.75,,,,,,,,,,
13.06.07.622,101.0,25.2,0,,,21528.5,46.45,-0.53,0.36,-0.36,0.9,8.2,-3.8,35.08,,,,,,,,,,
13.06.07.629,208.0,52.0,0,,,21533.2,46.44,-0.54,1.34,-0.3,-6.5,4.1,-7.4,35.07,,,,,,,,,,
13.06.07.642,327.8,82.0,0,,,21533.2,46.44,-0.46,0.34,0.41,0.4,12.8,0.7,35.16,,,,,,,,,,
13.06.07.652,329.4,82.4,0,,,21533.2,46.44,-0.87,0.54,-0.3,17.2,11.3,17.3,34.99,,,,,,,,,,
13.06.07.662,436.7,109.2,0,,,21533.2,46.44,-0.43,0.71,0.35,-9.6,-19.9,-3.6,35.02,,,,,,,,,,
13.06.07.671,420.5,105.1,0,,,21533.2,46.44,-0.42,0.51,-0.53,4.2,14.8,-19.3,34.95,,,,,,,,,,
13.06.07.681,410.9,102.7,0,,,21533.2,46.44,-0.47,0.82,0.26,-12.7,-2.1,6.4,34.62,,,,,,,,,,
13.06.07.692,487.2,121.8,0,,,21537.8,46.43,-0.68,0.53,0.41,-22.4,8.7,17.3,35.32,,,,,,,,,,
13.06.07.701,526.7,131.7,0,,,21537.8,46.43,-0.25,1.34,-0.12,0.7,11.8,1.9,35.2,,,,,,,,,,
13.06.07.710,455.6,113.9,0,,,21537.8,46.43,-0.4,1.53,0.46,-11.0,-28.0,-1.9,34.83,,,,,,,,,,
13.06.07.720,445.8,111.4,0,,,21537.8,46.43,-0.09,0.6,0.19,6.7,4.0,-11.6,34.76,,,,,,,,,,
13.06.07.731,351.9,88.0,0,,,21537.8,46.43,-0.55,0.76,-0.26,-17.0,12.4,14.9,34.71,,,,,,,,,,
13.06.07.742,292.3,73.1,0,,,21537.8,46.43,-0.05,0.45,0.49,5.7,-20.0,13.9,35.04,,,,,,,,,,
13.06.07.753,247.8,62.0,0,,,21542.4,46.42,-0.18,0.51,0.63,-34.2,12.6,0.3,34.62,,,,,,,,,,
13.06.07.764,108.5,27.1,0,,,21542.4,46.42,-0.41,0.72,0.6,12.2,-8.6,-7.3,34.86,,,,,,,,,,
13.06.07.774,-34.9,8.7,0,,,21542.4,46.42,-0.07,0.42,0.51,30.1,-11.7,-4.8,34.95,,,,,,,,,,
13.06.07.782,90.5,22.6,0,,,21542.4,46.42,-0.18,0.58,0.69,-1.7,9.9,6.5,34.79,,,,,,,,,,
13.06.07.793,36.3,9.1,0,,,21542.4,46.42,-0.15,0.0,0.98,18.7,20.6,-7.5,34.79,,,,,,,,,,
13.06.07.802,44.8,11.2,0,,,21547.1,46.41,-0.32,-0.01,1.2,8.8,-14.8,20.7,35.18,,,,,,,,,,
13.06.07.811,120.8,30.2,0,,,21547.1,46.41,0.05,1.08,0.9,-9.8,10.8,-4.5,35.28,,,,,,,,,,
13.06.07.819,84.1,21.0,0,,,21547.1,46.41,-0.49,-0.07,1.47,-2.8,11.5,-1.9,35.01,,,,,,,,,,
13.06.07.828,61.8,15.4,0,,,21547.1,46.41,-0.17,0.13,-0.49,-6.2,27.4,-14.7,35.2,,,,,,,,,,
13.06.07.838,87.4,21.8,0,,,21547.1,46.41,0.09,0.94,-0.41,-26.1,-6.5,-3.1,35.09,,,,,,,,,,
13.06.07.847,54.0,13.5,0,,,21547.1,46.41,-0.44,0.35,0.7,-17.6,-28.0,8.4,35.14,,,,,,,,,,
13.06.07.857,9.6,2.4,0,,,21547.1,46.41,-0.24,0.16,0.56,-2.3,-0.9,13.7,34.92,,,,,,,,,,
13.06.07.868,0.6,0.2,0,,,21551.7,46.4,-0.36,0.4,1.07,-5.6,-2.3,-3.3,34.86,,,,,,,,,,
13.06.07.876,33.1,8.3,0,,,21551.7,46.4,-0.1,0.27,-0.38,-3.6,13.5,2.4,34.86,,,,,,,,,,
13.06.07.885,6.6,1.6,0,,,21551.7,46.4,-0.47,0.02,0.31,-1.5,3.8,-9.0,34.89,,,,,,,,,,
13.06.07.893,-5.0,1.2,0,,,21551.7,46.4,-0.71,0.09,0.07,8.1,1.5,-21.3,35.15,,,,,,,,,,
13.06.07.901,-20.9,5.2,0,,,21551.7,46.4,-0.38,0.24,-0.17,-11.3,-16.9,-4.0,34.89,,,,,,,,,,
13.06.07.912,-6.8,1.7,0,,,21551.7,46.4,-0.31,0.38,0.4,20.0,-10.4,-15.6,34.92,,,,,,,,,,
13.06.07.923,-48.5,12.1,0,,,21556.4,46.39,-0.82,0.47,-0.14,24.3,-14.0,15.8,34.88,,,,,,,,,,
13.06.07.933,-32.5,8.1,0,,,21556.4,46.39,-0.79,0.27,-0.83,-10.6,-2.7,-11.7,35.11,,,,,,,,,,
13.06.07.945,-100.7,25.2,0,,,21556.4,46.39,-0.11,-0.37,-1.13,1.1,-10.0,8.6,34.68,,,,,,,,,,
13.06.07.956,-83.9,21.0,0,,,21556.4,46.39,-0.65,0.63,-0.5,45.1,9.0,-14.2,35.03,,,,,,,,,,
13.06.07.967,-111.9,28.0,1,21.0,144.2,21556.4,46.39,-0.47,0.12,0.0,1.4,15.5,-12.7,35.1,,,,,,,,,,
13.06.07.978,-151.0,37.8,0,,,21561.0,46.38,-1.21,1.07,-0.39,-29.7,8.4,5.6,35.12,,,,,,,,,,
13.06.07.991,-84.9,21.2,0,,,21561.0,46.38,-0.3,0.61,0.68,-32.2,18.2,-16.2,34.73,,,,,,,,,,
13.06.08.001,-131.0,32.8,0,,,21561.0,46.38,-0.35,0.1,0.38,-7.1,15.7,3.8,34.84,,,,,,,,,,
13.06.08.010,-75.4,18.8,0,,,21561.0,46.38,-0.56,0.93,-0.24,-27.3,13.6,9.8,35.17,,,,,,,,,,
13.06.08.020,-125.5,31.4,0,,,21561.0,46.38,-0.62,0.38,0.57,3.4,26.6,-7.0,34.88,,,,,,,,,,
13.06.08.028,-198.3,49.6,0,,,21565.7,46.37,-0.82,0.69,-0.3,-50.4,13.4,-3.4,34.75,,,,,,,,,,
13.06.08.039,-153.8,38.4,0,,,21565.7,46.37,-0.41,1.2,0.28,-14.9,6.7,18.0,35.06,,,,,,,,,,
13.06.08.048,-93.6,23.4,0,,,21565.7,46.37,-0.23,1.4,-0.28,-17.0,-21.3,-4.9,35.27,,,,,,,,,,
13.06.08.060,-186.2,46.6,0,,,21565.7,46.37,-0.54,1.11,-0.14,-3.5,21.9,-5.5,35.14,,,,,,,,,,
13.06.08.070,-234.5,58.6,0,,,21570.3,46.36,-0.29,0.71,0.2,-14.9,14.7,4.5,35.45,,,,,,,,,,
13.06.08.079,-194.3,48.6,0,,,21570.3,46.36,0.3,1.3,-0.13,19.1,-26.4,-22.6,34.87,,,,,,,,,,
13.06.08.090,36.8,9.2,0,,,21570.3,46.36,-0.02,1.21,0.91,3.2,-5.3,-1.8,34.69,,,,,,,,,,
13.06.08.100,200.4,50.1,0,,,21570.3,46.36,0.14,0.4,-0.4,38.6,3.5,21.8,34.85,,,,,,,,,,
13.06.08.109,168.1,42.0,0,,,21575.0,46.35,-0.33,1.57,0.2,-42.3,22.9,-9.4,35.32,,,,,,,,,,
13.06.08.118,368.5,92.1,0,,,21575.0,46.35,-0.19,0.45,0.46,19.7,-4.5,-9.8,34.73,,,,,,,,,,
13.06.08.127,404.4,101.1,0,,,21575.0,46.35,-0.05,1.32,-0.36,-5.5,13.5,7.6,35.05,,,,,,,,,,
13.06.08.135,413.2,103.3,0,,,21575.0,46.35,0.15,0.08,0.99,-20.4,3.7,-1.8,34.73,,,,,,,,,,
13.06.08.146,468.1,117.0,0,,,21579.6,46.34,-0.06,1.18,0.89,42.0,15.4,-17.8,34.7,,,,,,,,,,
13.06.08.156,494.9,123.7,0,,,21579.6,46.34,-0.26,0.43,-0.1,-0.4,12.5,21.8,35.03,,,,,,,,,,
13.06.08.165,463.2,115.8,0,,,21579.6,46.34,-0.13,0.41,-0.17,1.4,-2.9,-14.3,35.1,,,,,,,,,,
13.06.08.176,481.8,120.4,0,,,21579.6,46.34,0.18,0.59,0.19,-47.0,37.4,-26.0,34.81,,,,,,,,,,
13.06.08.186,439.6,109.9,0,,,21584.3,46.33,0.02,0.3,0.53,20.3,9.0,-8.3,34.65,,,,,,,,,,
13.06.08.197,393.1,98.3,0,,,21584.3,46.33,-0.45,0.34,0.18,13.3,13.8,-12.3,34.56,,,,,,,,,,
13.06.08.207,374.4,93.6,0,,,21584.3,46.33,-0.09,0.97,0.86,-7.5,9.7,2.7,34.58,,,,,,,,,,
13.06.08.217,230.7,57.7,0,,,21584.3,46.33,-0.71,-0.39,0.21,34.2,17.9,18.9,35.04,,,,,,,,,,
13.06.08.228,209.2,52.3,0,,,21588.9,46.32,-0.39,-0.11,0.07,-25.7,-2.5,5.4,34.65,,,,,,,,,,
13.06.08.237,89.2,22.3,0,,,21588.9,46.32,-0.02,0.08,0.31,3.1,1.4,-19.7,34.72,,,,,,,,,,
13.06.08.248,34.8,8.7,0,,,21588.9,46.32,-0.31,0.33,-0.54,-2.0,17.3,7.5,35.16,,,,,,,,,,
13.06.08.259,73.9,18.5,0,,,21588.9,46.32,-0.17,0.17,-0.23,-17.6,3.8,-13.9,34.66,,,,,,,,,,
13.06.08.270,77.2,19.3,0,,,21593.6,46.31,-0.77,-0.47,-0.08,9.9,30.5,0.6,35.05,,,,,,,,,,
13.06.08.280,54.9,13.7,0,,,21593.6,46.31,-0.22,0.75,0.26,-11.9,-22.6,34.7,35.07,,,,,,,,,,
13.06.08.289,155.6,38.9,0,,,21593.6,46.31,-0.54,0.78,-0.06,-4.0,-1.4,-2.5,35.1,,,,,,,,,,
13.06.08.298,59.1,14.8,0,,,21593.6,46.31,-0.42,0.12,0.02,-37.2,14.2,9.3,34.82,,,,,,,,,,
13.06.08.306,48.9,12.2,0,,,21593.6,46.31,-0.48,-0.25,-0.47,3.3,23.5,-2.4,34.88,,,,,,,,,,
13.06.08.316,-1.2,0.3,0,,,21598.3,46.3,-0.69,0.36,0.15,-8.5,9.0,7.8,35.06,,,,,,,,,,
13.06.08.327,-24.4,6.1,0,,,21598.3,46.3,-0.71,0.7,-0.04,43.8,-0.6,3.4,35.21,,,,,,,,,,
13.06.08.335,57.9,14.5,0,,,21598.3,46.3,-0.95,0.63,-0.24,-20.1,14.6,16.6,35.16,,,,,,,,,,
13.06.08.343,-23.2,5.8,1,22.0,159.6,21598.3,46.3,-0.89,0.95,-0.52,27.5,14.2,-3.9,35.1,,,,,,,,,,
13.06.08.351,-40.1,10.0,0,,,21602.9,46.29,-0.41,0.93,-0.4,-7.5,20.8,-6.5,34.87,,,,,,,,,,
13.06.08.362,-56.9,14.2,0,,,21602.9,46.29,-0.45,0.43,-0.3,30.3,4.7,-1.1,34.91,,,,,,,,,,
13.06.08.374,-69.5,17.4,0,,,21602.9,46.29,-0.75,0.28,0.95,-17.8,32.6,-6.0,34.89,,,,,,,,,,
13.06.08.386,-71.2,17.8,0,,,21602.9,46.29,-0.14,0.23,0.48,3.9,17.9,-0.5,34.75,,,,,,,,,,
13.06.08.397,-8.8,2.2,0,,,21607.6,46.28,-0.59,0.76,0.33,-11.1,13.0,13.1,35.03,,,,,,,,,,
13.06.08.406,-96.7,24.2,0,,,21607.6,46.28,-0.24,0.39,0.76,11.5,-12.5,-3.4,35.24,,,,,,,,,,
13.06.08.416,-63.2,15.8,0,,,21607.6,46.28,-0.79,1.47,-0.01,-16.4,-4.1,-38.9,35.13,,,,,,,,,,
13.06.08.425,-67.5,16.9,0,,,21607.6,46.28,-0.13,0.5,1.5,34.7,21.5,19.4,34.79,,,,,,,,,,
13.06.08.434,-42.7,10.7,0,,,21612.3,46.27,-0.49,0.91,0.46,22.3,2.9,13.7,34.84,,,,,,,,,,
13.06.08.442,-87.9,22.0,0,,,21612.3,46.27,-0.62,0.83,-0.05,17.1,-11.6,-7.0,34.92,,,,,,,,,,
13.06.08.452,-94.3,23.6,0,,,21612.3,46.27,-0.16,0.58,1.55,11.2,6.2,-11.5,34.93,,,,,,,,,,
13.06.08.462,-173.8,43.4,0,,,21612.3,46.27,-0.28,0.54,0.85,-2.0,19.8,18.3,34.77,,,,,,,,,,
13.06.08.472,-151.2,37.8,0,,,21612.3,46.27,-0.55,0.09,0.38,-8.5,-31.7,-6.4,34.85,,,,,,,,,,
13.06.08.482,-182.1,45.5,0,,,21616.9,46.26,-0.09,0.2,1.06,-2.5,-3.9,2.4,34.84,,,,,,,,,,
13.06.08.491,-157.7,39.4,0,,,21616.9,46.26,-0.38,0.08,1.38,-15.7,36.4,-11.9,35.08,,,,,,,,,,
13.06.08.500,-230.9,57.7,0,,,21616.9,46.26,-0.66,0.52,0.72,8.6,20.4,-1.1,34.89,,,,,,,,,,
13.06.08.511,-167.3,41.8,0,,,21616.9,46.26,-0.2,0.14,0.15,41.4,-16.6,-9.1,34.69,,,,,,,,,,
13.06.08.523,-145.5,36.4,0,,,21621.6,46.25,-0.03,-0.09,1.07,-6.8,3.1,-29.6,35.14,,,,,,,,,,
13.06.08.534,-161.2,40.3,0,,,21621.6,46.25,-0.44,0.3,0.36,6.9,-23.3,-10.2,34.75,,,,,,,,,,
13.06.08.543,-166.9,41.7,0,,,21621.6,46.25,-0.12,0.39,1.41,-7.4,5.8,4.4,35.28,,,,,,,,,,
13.06.08.553,38.6,9.6,0,,,21621.6,46.25,-0.2,0.49,0.94,25.2,-2.2,14.0,35.18,,,,,,,,,,
13.06.08.562,109.8,27.4,0,,,21626.3,46.24,-0.34,0.26,0.52,8.4,10.3,-17.2,34.88,,,,,,,,,,
13.06.08.570,95.1,23.8,0,,,21626.3,46.24,-0.13,-0.45,0.29,21.0,-16.4,4.8,35.28,,,,,,,,,,
13.06.08.581,332.1,83.0,0,,,21626.3,46.24,-0.51,0.48,0.38,-11.7,-2.8,13.9,34.75,,,,,,,,,,
13.06.08.590,332.7,83.2,0,,,21626.3,46.24,-0.46,0.77,0.35,-14.5,-1.7,6.0,35.05,,,,,,,,,,
13.06.08.598,405.5,101.4,0,,,21631.0,46.23,-0.33,-0.14,-0.07,-29.9,-1.7,3.6,34.84,,,,,,,,,,
13.06.08.607,430.1,107.5,0,,,21631.0,46.23,-0.29,0.45,0.2,3.6,7.9,8.7,35.18,,,,,,,,,,
13.06.08.618,439.3,109.8,0,,,21631.0,46.23,-0.44,0.25,0.47,-0.6,5.3,6.4,34.73,,,,,,,,,,
13.06.08.628,449.3,112.3,0,,,21631.0,46.23,-0.93,-0.37,-0.56,-1.6,16.8,-27.6,34.82,,,,,,,,,,
13.06.08.639,486.9,121.7,0,,,21635.7,46.22,-0.52,0.49,0.06,40.8,7.6,-4.4,35.19,,,,,,,,,,
13.06.08.650,444.5,111.1,0,,,21635.7,46.22,-0.78,0.34,0.48,-7.3,-3.4,28.9,35.07,,,,,,,,,,
13.06.08.659,404.6,101.2,0,,,21635.7,46.22,-0.51,0.7,-0.38,-17.2,-8.7,-9.2,34.87,,,,,,,,,,
13.06.08.672,378.3,94.6,0,,,21635.7,46.22,-0.42,1.24,-0.17,32.5,10.3,13.4,35.29,,,,,,,,,,
13.06.08.681,289.3,72.3,0,,,21640.3,46.21,-0.71,0.44,-0.03,-1.6,1.1,-8.6,34.66,,,,,,,,,,
13.06.08.692,246.0,61.5,0,,,21640.3,46.21,-0.31,0.44,-0.11,-24.7,-5.8,4.5,34.97,,,,,,,,,,
13.06.08.700,119.5,29.9,0,,,21640.3,46.21,-0.47,0.25,0.58,-10.8,-1.1,5.8,35.28,,,,,,,,,,
13.06.08.710,7.6,1.9,0,,,21640.3,46.21,-0.52,0.5,-0.06,11.9,6.8,24.0,35.01,,,,,,,,,,
13.06.08.717,31.4,7.8,0,,,21640.3,46.21,-0.85,0.46,-0.07,-18.3,8.6,0.9,34.73,,,,,,,,,,
13.06.08.727,45.6,11.4,1,23.0,156.3,21645.0,46.2,-0.45,0.42,0.49,6.9,-5.2,-5.5,35.16,,,,,,,,,,
13.06.08.737,29.4,7.4,0,,,21645.0,46.2,0.0,0.85,-0.02,4.6,21.5,-7.5,35.17,,,,,,,,,,
13.06.08.747,99.8,25.0,0,,,21645.0,46.2,-0.45,0.95,-0.2,-3.4,27.4,9.8,34.92,,,,,,,,,,
13.06.08.756,45.6,11.4,0,,,21645.0,46.2,-0.3,0.2,0.03,-31.0,2.7,-5.4,35.22,,,,,,,,,,
13.06.08.767,72.9,18.2,0,,,21649.7,46.19,-0.59,1.01,0.63,8.9,-1.4,1.2,34.98,,,,,,,,,,
13.06.08.776,39.9,10.0,0,,,21649.7,46.19,-0.52,0.58,0.63,-7.6,-7.1,-12.6,34.79,,,,,,,,,,
13.06.08.787,17.7,4.4,0,,,21649.7,46.19,-0.38,0.63,0.53,24.3,40.7,1.6,35.11,,,,,,,,,,
13.06.08.797,55.5,13.9,0,,,21649.7,46.19,-0.34,0.55,0.42,-12.7,-10.2,-10.9,34.84,,,,,,,,,,
13.06.08.805,-31.7,7.9,0,,,21654.4,46.18,-0.02,1.13,0.65,3.8,-15.8,-5.1,34.25,,,,,,,,,,
13.06.08.815,-36.3,9.1,0,,,21654.4,46.18,-0.29,0.63,0.32,-18.0,-4.0,13.8,35.06,,,,,,,,,,
13.06.08.825,45.9,11.5,0,,,21654.4,46.18,-0.22,0.82,0.52,6.1,-10.0,-2.7,34.97,,,,,,,,,,
13.06.08.834,-12.3,3.1,0,,,21654.4,46.18,-0.24,0.57,1.08,-25.5,14.6,-21.4,35.07,,,,,,,,,,
13.06.08.842,-36.7,9.2,0,,,21659.1,46.17,-0.48,0.67,1.35,9.7,-18.6,6.8,34.7,,,,,,,,,,
13.06.08.851,-11.9,3.0,0,,,21659.1,46.17,-0.08,0.42,0.66,27.8,12.2,-27.7,34.84,,,,,,,,,,
13.06.08.859,-17.8,4.4,0,,,21659.1,46.17,-0.18,0.42,1.19,12.8,6.8,0.7,35.05,,,,,,,,,,
13.06.08.870,-27.4,6.8,0,,,21659.1,46.17,-0.17,0.43,1.37,-21.6,-24.1,8.8,34.69,,,,,,,,,,
13.06.08.879,-61.1,15.3,0,,,21659.1,46.17,-0.02,0.21,0.57,-28.6,19.0,-22.5,34.75,,,,,,,,,,
13.06.08.890,-97.6,24.4,0,,,21663.8,46.16,-0.39,0.93,0.63,-20.1,19.3,7.8,34.92,,,,,,,,,,
13.06.08.899,-113.6,28.4,0,,,21663.8,46.16,-0.33,-0.24,0.36,28.9,-17.7,-11.1,34.91,,,,,,,,,,
13.06.08.908,-96.8,24.2,0,,,21663.8,46.16,-0.01,-0.63,-0.04,7.2,-9.3,-20.2,34.81,,,,,,,,,,
13.06.08.916,-85.4,21.4,0,,,21663.8,46.16,-0.11,-0.02,0.17,33.6,20.3,-36.0,34.75,,,,,,,,,,
13.06.08.925,-75.6,18.9,0,,,21668.5,46.15,-0.26,0.21,-0.43,2.7,16.0,18.4,35.15,,,,,,,,,,
13.06.08.933,-130.3,32.6,0,,,21668.5,46.15,-0.5,0.51,0.38,-1.7,18.1,14.7,34.7,,,,,,,,,,
13.06.08.941,-162.3,40.6,0,,,21668.5,46.15,-0.89,0.33,-0.22,17.4,-6.1,12.9,34.8,,,,,,,,,,
13.06.08.949,-125.8,31.4,0,,,21668.5,46.15,-0.5,-0.36,-0.07,-0.1,-30.6,2.0,34.59,,,,,,,,,,
13.06.08.956,-79.5,19.9,0,,,21668.5,46.15,-0.83,-0.14,0.46,-21.4,-8.3,0.2,34.88,,,,,,,,,,
13.06.08.966,-133.5,33.4,0,,,21673.2,46.14,-0.52,0.53,0.56,13.4,16.1,-4.3,34.97,,,,,,,,,,
13.06.08.977,-163.1,40.8,0,,,21673.2,46.14,-0.47,0.23,-0.29,42.3,17.0,15.6,34.48,,,,,,,,,,
13.06.08.988,-175.8,44.0,0,,,21673.2,46.14,-0.68,0.23,-0.18,-14.6,7.5,1.5,34.87,,,,,,,,,,
13.06.08.997,-181.9,45.5,0,,,21673.2,46.14,-0.35,0.03,-0.77,12.1,17.9,8.2,34.68,,,,,,,,,,
13.06.09.008,-185.1,46.3,0,,,21673.2,46.14,-0.76,0.45,-0.97,4.5,-10.2,15.7,34.74,,,,,,,,,,
13.06.09.016,-127.0,31.8,0,,,21673.2,46.14,-0.42,0.4,-0.85,-13.9,5.6,21.2,34.7,,34.93,,,,,,,,
13.06.09.026,28.4,7.1,0,,,21677.9,46.13,-0.95,0.87,-0.37,1.4,-11.3,9.4,34.97,,,,,,,,,,
13.06.09.036,73.8,18.4,0,,,21677.9,46.13,-1.02,0.54,-0.89,35.1,-3.3,-7.2,34.82,,,,,,,,,,
13.06.09.045,247.6,61.9,0,,,21677.9,46.13,-0.5,0.54,-0.76,-5.2,14.0,3.8,34.86,,,,,,,,,,
13.06.09.055,312.3,78.1,0,,,21677.9,46.13,-0.25,1.01,0.02,17.9,8.9,2.9,35.14,,,,,,,,,,
13.06.09.064,320.5,80.1,0,,,21677.9,46.13,-0.23,0.96,-1.25,-10.4,13.2,2.9,35.04,,,,,,,,,,
13.06.09.074,433.7,108.4,0,,,21677.9,46.13,-0.19,0.85,0.25,-24.1,37.7,-15.8,34.79,,,,,,,,,,
13.06.09.085,433.5,108.4,0,,,21677.9,46.13,-0.6,0.57,0.08,9.9,24.6,-11.1,34.63,,,,,,,,,,
13.06.09.094,483.4,120.8,0,,,21677.9,46.13,-0.49,0.44,0.14,6.3,20.6,-10.2,35.03,,,,,,,,,,
13.06.09.106,550.3,137.6,0,,,21677.9,46.13,-0.43,1.83,0.77,-8.7,11.4,-1.4,34.83,,,,,,,,,,
13.06.09.114,464.2,116.0,0,,,21677.9,46.13,-0.48,0.75,-0.58,-21.2,-1.0,0.5,34.58,,,,,,,,,,
13.06.09.122,452.6,113.2,0,,,21677.9,46.13,0.34,0.52,0.84,-34.1,25.0,-5.6,34.62,,,,,,,,,,
13.06.09.131,398.2,99.6,0,,,21682.6,46.12,0.15,0.74,0.15,-7.5,9.6,18.0,35.12,,,,,,,,,,
13.06.09.141,298.5,74.6,0,,,21682.6,46.12,-0.32,0.45,0.45,-27.6,11.9,2.4,34.69,,,,,,,,,,
13.06.09.151,249.0,62.2,1,24.0,141.5,21682.6,46.12,-0.34,0.73,0.69,-7.7,15.4,9.1,35.09,,,,,,,,,,
13.06.09.159,236.5,59.1,0,,,21682.6,46.12,0.17,1.15,0.94,10.8,23.9,7.0,35.1,,,,,,,,,,
13.06.09.169,128.0,32.0,0,,,21682.6,46.12,0.04,0.45,0.93,-8.8,6.7,7.3,34.99,,,,,,,,,,
13.06.09.180,63.8,16.0,0,,,21682.6,46.12,-0.54,1.33,0.62,7.2,-1.0,2.6,35.0,,,,,,,,,,
13.06.09.189,9.4,2.4,0,,,21682.6,46.12,-0.35,0.29,0.07,27.5,20.5,18.4,34.58,,,,,,,,,,
13.06.09.200,76.2,19.0,0,,,21682.6,46.12,-0.43,-0.4,0.86,-38.3,30.3,6.2,34.82,,,,,,,,,,
13.06.09.209,11.7,2.9,0,,,21682.6,46.12,-0.31,0.07,0.25,15.4,4.8,-15.3,35.0,,,,,,,,,,
13.06.09.220,79.6,19.9,0,,,21682.6,46.12,0.37,0.53,0.22,-35.8,-7.5,-0.0,34.83,,,,,,,,,,
13.06.09.229,99.9,25.0,0,,,21682.6,46.12,-0.95,-0.01,0.81,-5.3,14.9,23.5,35.26,,,,,,,,,,
13.06.09.240,64.0,16.0,0,,,21682.6,46.12,-0.0,0.61,0.36,1.3,-7.4,-28.8,35.23,,,,,,,,,,
13.06.09.251,28.4,7.1,0,,,21687.3,46.11,-0.03,0.24,0.06,-4.1,14.6,-5.8,34.99,,,,,,,,,,
13.06.09.258,41.2,10.3,0,,,21687.3,46.11,-0.21,0.02,1.01,-18.3,22.9,3.2,34.74,,,,,,,,,,
13.06.09.267,41.3,10.3,0,,,21687.3,46.11,-0.58,-0.33,0.11,18.5,12.4,-13.7,34.92,,,,,,,,,,
13.06.09.277,28.1,7.0,0,,,21687.3,46.11,-0.5,-0.27,0.67,8.3,-3.3,18.9,35.09,,,,,,,,,,
13.06.09.287,33.1,8.3,0,,,21687.3,46.11,-0.18,0.09,0.39,-2.2,15.9,8.4,34.91,,,,,,,,,,
13.06.09.298,35.7,8.9,0,,,21687.3,46.11,-0.49,0.5,0.38,-23.2,18.6,-2.7,34.7,,,,,,,,,,
13.06.09.307,-42.3,10.6,0,,,21687.3,46.11,-0.27,0.76,0.12,-1.1,2.2,20.7,34.82,,,,,,,,,,
13.06.09.318,-84.3,21.1,0,,,21687.3,46.11,-0.71,0.49,-0.39,-43.5,-0.5,-8.5,34.85,,,,,,,,,,
13.06.09.328,-38.1,9.5,0,,,21687.3,46.11,-0.37,0.16,0.11,-18.2,6.0,-9.6,34.99,,,,,,,,,,
13.06.09.338,-13.5,3.4,0,,,21687.3,46.11,-0.57,0.35,-0.05,-15.4,-7.6,-10.2,34.55,,,,,,,,,,
13.06.09.348,-101.3,25.3,0,,,21687.3,46.11,-0.81,0.56,0.45,-4.1,10.5,-10.7,35.06,,,,,,,,,,
13.06.09.356,-52.6,13.2,0,,,21687.3,46.11,-0.83,0.15,-0.13,1.1,8.6,-19.6,35.24,,,,,,,,,,
13.06.09.366,-89.0,22.2,0,,,21692.0,46.1,-0.61,0.21,-0.83,15.2,9.2,-0.1,34.81,,,,,,,,,,
13.06.09.377,-120.6,30.2,0,,,21692.0,46.1,-0.4,0.37,0.18,19.4,6.8,-5.8,34.92,,,,,,,,,,
13.06.09.388,-63.7,15.9,0,,,21692.0,46.1,-0.73,-0.57,-0.17,-25.1,18.2,7.6,34.62,,,,,,,,,,
13.06.09.397,-114.1,28.5,0,,,21692.0,46.1,-0.09,0.52,0.15,-9.7,2.0,-13.8,35.09,,,,,,,,,,
13.06.09.407,-105.3,26.3,0,,,21692.0,46.1,-0.22,0.03,-0.16,-14.0,0.1,-35.0,34.69,,,,,,,,,,
13.06.09.417,-89.5,22.4,0,,,21692.0,46.1,-0.51,0.82,-0.75,-20.8,-13.4,10.1,34.84,,,,,,,,,,
13.06.09.426,-118.6,29.6,0,,,21692.0,46.1,-0.17,0.0,0.07,-13.3,8.9,-1.1,34.87,,,,,,,,,,
13.06.09.437,-92.8,23.2,0,,,21692.0,46.1,-0.37,0.55,0.83,0.4,9.8,-0.5,34.9,,,,,,,,,,
13.06.09.447,-179.3,44.8,0,,,21692.0,46.1,-0.44,0.95,0.73,-5.1,16.2,-9.6,35.03,,,,,,,,,,
13.06.09.459,-126.7,31.7,0,,,21692.0,46.1,-0.26,0.48,0.23,-17.8,18.1,-12.8,35.11,,,,,,,,,,
13.06.09.469,-183.6,45.9,0,,,21692.0,46.1,-0.25,1.0,0.72,0.9,0.6,9.5,35.18,,,,,,,,,,
13.06.09.480,-218.8,54.7,0,,,21696.7,46.09,-0.52,0.63,0.18,-25.9,12.7,-4.3,35.08,,,,,,,,,,
13.06.09.491,89.1,22.3,0,,,21696.7,46.09,-0.18,0.05,0.37,1.7,4.3,-11.3,34.94,,,,,,,,,,
13.06.09.499,144.5,36.1,0,,,21696.7,46.09,-0.09,0.75,0.1,8.2,13.5,16.0,34.71,,,,,,,,,,
13.06.09.509,137.1,34.3,1,25.0,167.6,21696.7,46.09,-0.36,1.07,1.41,4.4,8.4,2.4,35.33,,,,,,,,,,
13.06.09.518,229.6,57.4,0,,,21696.7,46.09,-0.38,1.34,1.67,31.3,9.8,5.5,34.91,,,,,,,,,,
13.06.09.527,350.0,87.5,0,,,21696.7,46.09,-0.29,0.47,-0.33,36.7,5.1,7.9,35.03,,,,,,,,,,
13.06.09.538,386.5,96.6,0,,,21696.7,46.09,-0.23,0.7,1.1,14.5,15.3,9.4,35.22,,,,,,,,,,
13.06.09.548,472.7,118.2,0,,,21696.7,46.09,-0.52,0.86,0.98,-18.9,1.5,2.8,34.89,,,,,,,,,,
13.06.09.558,461.3,115.3,0,,,21696.7,46.09,-0.54,0.29,1.42,-3.7,9.8,-8.7,35.13,,,,,,,,,,
13.06.09.567,517.2,129.3,0,,,21696.7,46.09,-0.41,0.4,0.66,-6.4,4.5,-3.0,35.02,,,,,,,,,,
13.06.09.578,489.9,122.5,0,,,21696.7,46.09,-0.69,0.64,0.62,-21.2,19.1,-22.0,35.11,,,,,,,,,,
13.06.09.588,537.4,134.4,0,,,21701.4,46.08,-0.1,0.09,0.19,-7.2,14.3,2.7,34.75,,,,,,,,,,
13.06.09.597,448.3,112.1,0,,,21701.4,46.08,-0.52,-0.17,0.78,11.4,7.6,4.3,34.85,,,,,,,,,,
13.06.09.607,484.8,121.2,0,,,21701.4,46.08,-0.06,0.15,0.48,4.0,19.4,-0.0,34.76,,,,,,,,,,
13.06.09.617,261.2,65.3,0,,,21701.4,46.08,-0.28,-0.26,0.92,5.0,10.9,-5.2,35.13,,,,,,,,,,
13.06.09.628,246.5,61.6,0,,,21701.4,46.08,-0.64,0.06,0.52,-10.4,1.6,2.2,35.04,,,,,,,,,,
13.06.09.635,172.4,43.1,0,,,21701.4,46.08,-0.65,-0.29,0.2,-17.7,20.0,-12.9,34.86,,,,,,,,,,
13.06.09.645,51.6,12.9,0,,,21701.4,46.08,-0.6,0.24,0.01,-20.3,20.2,-27.4,35.14,,,,,,,,,,
13.06.09.653,54.7,13.7,0,,,21701.4,46.08,-0.9,0.04,0.09,33.1,-2.2,0.6,34.35,,,,,,,,,,
13.06.09.662,40.5,10.1,0,,,21701.4,46.08,-0.49,-0.08,-0.6,16.5,-17.6,-21.9,35.04,,,,,,,,,,
13.06.09.669,12.9,3.2,0,,,21701.4,46.08,-0.65,0.59,0.4,-20.3,10.3,-15.8,35.02,,,,,,,,,,
13.06.09.678,81.6,20.4,0,,,21701.4,46.08,-1.03,0.33,-0.04,-25.4,5.7,-18.7,35.1,,,,,,,,,,
13.06.09.686,92.7,23.2,0,,,21701.4,46.08,-0.83,-0.0,0.6,17.8,-16.6,26.2,34.74,,,,,,,,,,
13.06.09.694,136.9,34.2,0,,,21701.4,46.08,-0.44,0.71,0.25,20.0,-7.5,-21.2,35.05,,,,,,,,,,
13.06.09.704,117.0,29.2,0,,,21706.1,46.07,-0.36,0.52,-0.16,43.9,-10.8,-13.7,34.87,,,,,,,,,,
13.06.09.715,14.6,3.6,0,,,21706.1,46.07,-1.05,0.21,0.42,4.3,-6.6,-0.8,34.84,,,,,,,,,,
13.06.09.723,62.4,15.6,0,,,21706.1,46.07,-0.14,0.35,0.12,-26.8,30.5,0.8,34.92,,,,,,,,,,
13.06.09.732,34.4,8.6,0,,,21706.1,46.07,-0.51,0.69,-0.21,-15.5,2.9,5.5,34.95,,,,,,,,,,
13.06.09.743,16.6,4.2,0,,,21706.1,46.07,-0.5,0.52,1.01,-6.1,-9.3,-26.4,35.13,,,,,,,,,,
13.06.09.753,46.1,11.5,0,,,21706.1,46.07,-0.49,0.26,-0.39,13.0,4.9,7.2,34.65,,,,,,,,,,
13.06.09.762,-17.7,4.4,0,,,21706.1,46.07,-0.97,0.49,0.12,-31.6,8.9,7.9,34.78,,,,,,,,,,
13.06.09.774,-56.5,14.1,0,,,21706.1,46.07,-0.18,1.01,-0.57,-6.4,11.6,-0.9,34.61,,,,,,,,,,
13.06.09.783,-21.6,5.4,0,,,21706.1,46.07,-0.24,1.14,0.7,15.1,-3.6,4.6,35.23,,,,,,,,,,
13.06.09.794,-62.5,15.6,0,,,21706.1,46.07,-0.44,0.25,0.2,40.8,-4.6,-19.4,34.84,,,,,,,,,,
13.06.09.805,-98.9,24.7,0,,,21706.1,46.07,-0.22,0.69,0.71,-4.7,-7.1,13.1,34.91,,,,,,,,,,
13.06.09.814,-60.1,15.0,0,,,21710.8,46.06,0.1,0.51,0.55,47.9,-6.0,9.6,34.94,,,,,,,,,,
13.06.09.826,-111.7,27.9,0,,,21710.8,46.06,-0.14,1.21,0.34,3.4,-13.6,11.1,34.74,,,,,,,,,,
13.06.09.834,-47.7,11.9,0,,,21710.8,46.06,-0.15,1.11,-0.92,-1.5,5.1,27.8,35.0,,,,,,,,,,
13.06.09.843,-92.2,23.0,0,,,21710.8,46.06,-0.5,0.64,0.54,24.6,-22.0,8.9,34.68,,,,,,,,,,
13.06.09.854,-161.7,40.4,0,,,21710.8,46.06,-0.07,0.63,0.29,-21.5,18.1,-21.7,35.0,,,,,,,,,,
13.06.09.864,-85.7,21.4,0,,,21710.8,46.06,-0.33,0.62,0.87,-25.5,8.2,-5.6,34.71,,,,,,,,,,
13.06.09.873,-103.9,26.0,0,,,21710.8,46.06,-0.14,0.66,1.01,-9.7,16.3,13.1,34.87,,,,,,,,,,
13.06.09.881,-140.5,35.1,0,,,21710.8,46.06,0.32,0.68,0.2,18.7,-7.7,-1.4,35.02,,,,,,,,,,
13.06.09.892,-96.8,24.2,0,,,21710.8,46.06,0.09,0.39,0.83,16.8,0.1,-9.4,35.05,,,,,,,,,,
13.06.09.901,-170.8,42.7,0,,,21710.8,46.06,0.02,-0.1,0.1,16.3,13.2,9.4,35.15,,,,,,,,,,
13.06.09.907,-171.2,42.8,0,,,21710.8,46.06,-0.07,0.01,0.3,-14.5,3.1,-0.7,34.61,,,,,,,,,,
13.06.09.916,-161.5,40.4,0,,,21710.8,46.06,-0.35,0.33,0.76,-3.2,10.3,37.8,35.15,,,,,,,,,,
13.06.09.925,-134.4,33.6,0,,,21710.8,46.06,-0.0,-0.13,-0.39,22.5,8.7,-6.2,35.11,,,,,,,,,,
13.06.09.938,-222.8,55.7,1,26.0,139.9,21715.5,46.05,-0.3,0.16,0.8,-15.2,-2.0,-12.0,35.13,,,,,,,,,,
13.06.09.947,-206.9,51.7,0,,,21715.5,46.05,-0.29,0.07,0.39,-0.5,2.1,-0.1,34.83,,,,,,,,,,
13.06.09.958,-28.0,7.0,0,,,21715.5,46.05,-0.27,0.13,-0.33,27.7,19.4,-1.8,35.03,,,,,,,,,,
13.06.09.967,69.9,17.5,0,,,21715.5,46.05,-0.14,-0.05,0.04,18.7,0.3,6.0,34.62,,,,,,,,,,
13.06.09.976,180.0,45.0,0,,,21715.5,46.05,-0.59,0.11,0.09,-12.1,9.5,31.8,34.95,,,,,,,,,,
13.06.09.985,213.5,53.4,0,,,21715.5,46.05,-0.33,-0.31,0.29,21.9,18.0,25.7,34.78,,,,,,,,,,
13.06.09.995,289.6,72.4,0,,,21715.5,46.05,-0.35,-0.17,0.64,18.7,25.3,6.5,35.16,,,,,,,,,,
13.06.10.005,375.0,93.8,0,,,21715.5,46.05,-0.57,0.97,0.58,-21.5,23.8,7.9,34.72,130.5,,,,,,,,,
13.06.10.016,400.4,100.1,0,,,21715.5,46.05,-0.39,-0.58,-0.22,11.8,16.3,-2.9,34.82,,,,,,,,,,
13.06.10.026,474.7,118.7,0,,,21715.5,46.05,-0.44,0.21,0.09,-11.0,-21.3,-3.3,34.91,,,,,,,,,,
13.06.10.035,560.4,140.1,0,,,21715.5,46.05,-0.57,-0.36,-0.22,-6.3,36.3,-5.7,34.65,,,,,,,,,,
13.06.10.044,511.7,127.9,0,,,21710.8,46.06,-0.79,0.8,0.33,-3.2,18.1,-22.9,35.05,,,,,,,,,,
13.06.10.053,487.6,121.9,0,,,21710.8,46.06,-0.52,-0.06,-0.39,11.9,19.2,-22.4,35.04,,,,,,,,,,
13.06.10.063,411.9,103.0,0,,,21710.8,46.06,-0.18,0.35,-0.76,-10.8,4.4,-6.1,35.33,,,,,,,,,,
13.06.10.072,373.5,93.4,0,,,21710.8,46.06,-0.23,0.9,-0.52,-15.7,-17.4,9.8,35.01,,,,,,,,,,
13.06.10.082,318.2,79.6,0,,,21710.8,46.06,-0.69,1.15,-0.34,5.3,-3.3,-9.5,34.78,,,,,,,,,,
13.06.10.090,279.9,70.0,0,,,21710.8,46.06,-0.46,0.34,0.38,10.8,1.2,13.4,35.23,,,,,,,,,,
13.06.10.100,206.0,51.5,0,,,21710.8,46.06,-0.45,0.73,0.05,9.4,-2.2,16.5,35.23,,,,,,,,,,
13.06.10.111,133.0,33.2,0,,,21706.1,46.07,-0.38,1.03,-0.9,7.7,21.7,-18.1,34.69,,,,,,,,,,
13.06.10.121,-14.3,3.6,0,,,21706.1,46.07,-0.57,1.03,0.97,-8.2,-30.9,-4.1,35.35,,,,,,,,,,
13.06.10.131,-9.0,2.2,0,,,21706.1,46.07,-0.62,0.75,-0.21,10.3,12.2,-0.1,35.33,,,,,,,,,,
13.06.10.141,2.9,0.7,0,,,21706.1,46.07,-0.34,0.51,0.46,27.1,-12.3,5.3,35.03,,,,,,,,,,
13.06.10.151,77.8,19.4,0,,,21706.1,46.07,-0.24,0.79,0.8,6.4,8.4,-4.4,34.85,,,,,,,,,,
13.06.10.162,86.8,21.7,0,,,21706.1,46.07,-0.11,1.12,1.22,0.2,-7.1,-3.4,35.36,,,,,,,,,,
13.06.10.170,49.5,12.4,0,,,21706.1,46.07,-0.03,0.39,0.06,21.7,-17.0,5.0,35.09,,,,,,,,,,
13.06.10.181,34.1,8.5,0,,,21701.4,46.08,-0.16,1.25,1.35,-1.6,0.8,-29.0,34.92,,,,,,,,,,
13.06.10.190,125.3,31.3,0,,,21701.4,46.08,0.07,0.95,1.09,10.4,9.7,-40.0,34.66,,,,,,,,,,
13.06.10.200,53.3,13.3,0,,,21701.4,46.08,0.09,0.54,1.17,9.8,4.3,12.9,34.9,,,,,,,,,,
13.06.10.211,20.7,5.2,0,,,21701.4,46.08,-0.25,0.41,-0.23,-18.5,11.5,-29.6,34.79,,,,,,,,,,
13.06.10.222,-82.0,20.5,0,,,21701.4,46.08,-0.13,0.96,0.91,19.4,1.6,-4.4,35.0,,,,,,,,,,
13.06.10.231,-25.0,6.2,0,,,21701.4,46.08,-0.54,-0.12,0.98,1.2,42.8,-9.9,34.79,,,,,,,,,,
13.06.10.238,-13.8,3.4,0,,,21696.7,46.09,-0.04,0.26,0.45,36.4,23.8,-2.5,34.65,,,,,,,,,,
13.06.10.248,-20.5,5.1,1,27.0,193.5,21696.7,46.09,-0.15,-0.19,0.62,44.7,-7.0,-11.4,34.93,,,,,,,,,,
13.06.10.260,-2.2,0.6,0,,,21696.7,46.09,-0.43,-0.0,0.15,-27.6,-5.5,-3.7,34.94,,,,,,,,,,
13.06.10.271,16.2,4.0,0,,,21696.7,46.09,-0.23,0.24,1.33,26.9,1.5,-9.4,34.7,,,,,,,,,,
13.06.10.282,-86.7,21.7,0,,,21696.7,46.09,-0.2,-0.08,0.23,-55.0,19.6,-12.4,34.93,,,,,,,,,,
13.06.10.291,-40.1,10.0,0,,,21696.7,46.09,-0.07,-0.11,-0.14,35.8,-19.1,20.7,34.52,,,,,,,,,,
13.06.10.300,-50.9,12.7,0,,,21692.0,46.1,-0.68,0.76,0.07,-7.3,9.3,18.0,34.72,,,,,,,,,,
13.06.10.310,-70.0,17.5,0,,,21692.0,46.1,-0.13,-0.14,-0.23,18.5,-23.4,-21.1,34.59,,,,,,,,,,
13.06.10.319,-110.8,27.7,0,,,21692.0,46.1,-0.79,0.35,0.88,-13.6,10.4,0.4,35.44,,,,,,,,,,
13.06.10.327,-152.3,38.1,0,,,21692.0,46.1,-0.62,-0.02,0.14,-22.8,-19.9,-19.5,34.65,,,,,,,,,,
13.06.10.336,-75.4,18.8,0,,,21692.0,46.1,-0.92,0.25,0.12,-19.3,-6.4,4.6,34.74,,,,,,,,,,
13.06.10.344,-101.8,25.4,0,,,21692.0,46.1,-0.93,0.19,0.32,-2.8,37.9,4.1,34.56,,,,,,,,,,
13.06.10.355,-111.9,28.0,0,,,21692.0,46.1,-0.27,0.56,0.26,-15.0,-10.8,0.6,35.03,,,,,,,,,,
13.06.10.363,-101.5,25.4,0,,,21692.0,46.1,-0.47,-0.32,0.37,15.2,-18.5,-14.9,34.77,,,,,,,,,,
13.06.10.372,-159.8,40.0,0,,,21687.3,46.11,-0.57,0.2,-0.05,-2.6,22.9,-8.8,35.05,,,,,,,,,,
13.06.10.382,-142.8,35.7,0,,,21687.3,46.11,-0.65,-0.33,-1.09,-4.0,2.7,-32.7,34.85,,,,,,,,,,
13.06.10.392,-163.3,40.8,0,,,21687.3,46.11,-1.04,0.2,-0.55,-11.9,1.3,14.6,35.38,,,,,,,,,,
13.06.10.403,-132.9,33.2,0,,,21687.3,46.11,-0.39,0.64,-0.54,-6.7,14.1,-5.5,34.93,,,,,,,,,,
13.06.10.411,-193.4,48.4,0,,,21687.3,46.11,-0.78,0.48,0.05,0.6,25.2,-2.7,34.93,,,,,,,,,,
13.06.10.421,-141.0,35.2,0,,,21687.3,46.11,-0.96,0.06,-0.43,4.7,-7.2,-3.1,35.02,,,,,,,,,,
13.06.10.429,16.9,4.2,0,,,21682.6,46.12,-0.47,0.18,-0.19,16.6,13.5,-13.0,34.93,,,,,,,,,,
13.06.10.439,117.6,29.4,0,,,21682.6,46.12,-0.58,0.68,1.1,2.6,3.9,5.6,34.58,,,,,,,,,,
13.06.10.451,237.1,59.3,0,,,21682.6,46.12,-0.49,1.13,0.17,43.3,10.0,7.1,35.12,,,,,,,,,,
13.06.10.460,326.6,81.6,0,,,21682.6,46.12,-0.35,0.87,0.37,-4.4,28.3,3.7,35.11,,,,,,,,,,
13.06.10.468,336.2,84.0,0,,,21682.6,46.12,-0.2,0.52,0.33,11.4,20.6,18.8,34.57,,,,,,,,,,
13.06.10.477,383.7,95.9,0,,,21682.6,46.12,-0.79,0.99,-0.07,-39.6,-26.8,-13.0,34.9,,,,,,,,,,
13.06.10.486,451.4,112.8,0,,,21682.6,46.12,-0.51,1.1,0.82,4.5,4.8,-11.2,35.0,,,,,,,,,,
13.06.10.496,463.4,115.8,0,,,21677.9,46.13,-0.41,0.66,0.49,-20.7,24.1,-7.7,34.35,,,,,,,,,,
13.06.10.505,512.8,128.2,0,,,21677.9,46.13,-0.11,0.73,-0.31,3.7,1.7,-23.1,34.72,,,,,,,,,,
13.06.10.515,511.3,127.8,0,,,21677.9,46.13,-0.15,1.13,0.61,-4.7,20.8,16.5,35.03,,,,,,,,,,
13.06.10.525,453.3,113.3,0,,,21677.9,46.13,-0.18,1.34,1.13,-11.9,31.5,6.4,34.99,,,,,,,,,,
13.06.10.536,429.0,107.2,0,,,21677.9,46.13,0.03,0.74,0.48,-26.9,28.5,4.3,35.14,,,,,,,,,,
13.06.10.547,352.7,88.2,0,,,21677.9,46.13,-0.03,-0.0,1.02,7.4,3.8,-0.3,34.91,,,,,,,,,,
13.06.10.558,280.9,70.2,0,,,21677.9,46.13,-0.09,0.02,1.06,-14.1,11.2,22.6,34.86,,,,,,,,,,
13.06.10.569,175.7,43.9,0,,,21673.2,46.14,-0.24,0.52,0.86,5.4,7.0,6.2,35.01,,,,,,,,,,
13.06.10.579,75.4,18.8,0,,,21673.2,46.14,-0.48,0.57,0.95,17.0,-3.4,13.2,34.89,,,,,,,,,,
13.06.10.588,3.5,0.9,0,,,21673.2,46.14,-0.2,-0.54,1.3,6.7,30.9,14.3,34.99,,,,,,,,,,
13.06.10.595,68.7,17.2,0,,,21673.2,46.14,0.14,-0.14,0.59,22.4,-3.5,-1.3,34.75,,,,,,,,,,
13.06.10.605,42.5,10.6,0,,,21673.2,46.14,-0.5,0.2,1.27,2.8,15.0,23.4,35.27,,,,,,,,,,
13.06.10.614,74.1,18.5,0,,,21673.2,46.14,-0.16,0.21,-0.14,-2.5,-5.5,17.0,35.22,,,,,,,,,,
13.06.10.623,48.3,12.1,0,,,21668.5,46.15,-0.18,0.19,0.71,-18.6,-6.5,11.0,34.99,,,,,,,,,,
13.06.10.632,89.0,22.2,0,,,21668.5,46.15,-0.17,0.2,0.82,-20.4,-1.3,-13.5,34.98,,,,,,,,,,
13.06.10.641,62.8,15.7,1,28.0,152.7,21668.5,46.15,-0.14,0.0,0.55,-11.7,7.9,19.5,34.99,,,,,,,,,,
13.06.10.650,124.5,31.1,0,,,21668.5,46.15,-0.59,-0.1,1.44,5.7,14.1,7.9,34.65,,,,,,,,,,
13.06.10.659,99.4,24.8,0,,,21668.5,46.15,0.03,0.0,-0.75,37.4,-1.6,-2.4,34.74,,,,,,,,,,
13.06.10.668,85.4,21.4,0,,,21668.5,46.15,-0.54,-0.14,-0.07,-3.4,-7.5,1.3,34.94,,,,,,,,,,
13.06.10.679,-19.0,4.8,0,,,21668.5,46.15,-0.4,0.22,-0.1,1.9,22.6,19.1,34.67,,,,,,,,,,
13.06.10.689,-26.7,6.7,0,,,21663.8,46.16,-0.61,0.57,0.04,-5.7,-12.8,8.1,34.93,,,,,,,,,,
13.06.10.699,-65.3,16.3,0,,,21663.8,46.16,-0.85,0.13,0.1,15.2,5.8,4.9,35.32,,,,,,,,,,
13.06.10.709,-26.2,6.6,0,,,21663.8,46.16,-0.63,-0.14,-0.81,-19.6,13.5,-14.6,35.08,,,,,,,,,,
13.06.10.719,-27.6,6.9,0,,,21663.8,46.16,-0.71,0.54,-0.06,9.3,15.4,16.3,35.04,,,,,,,,,,
13.06.10.727,-24.9,6.2,0,,,21663.8,46.16,-0.72,0.29,-0.06,9.2,-1.7,-1.8,35.3,,,,,,,,,,
13.06.10.738,-47.0,11.8,0,,,21663.8,46.16,-0.56,0.7,0.1,12.6,-1.5,8.5,34.98,,,,,,,,,,
13.06.10.749,-64.5,16.1,0,,,21663.8,46.16,-0.84,0.56,-0.11,-3.3,4.1,-12.6,34.97,,,,,,,,,,
13.06.10.758,-34.5,8.6,0,,,21659.1,46.17,-0.92,0.38,0.55,-7.0,25.7,-16.4,34.87,,,,,,,,,,
13.06.10.767,-76.6,19.2,0,,,21659.1,46.17,-0.62,1.0,0.03,29.8,-2.9,11.0,34.72,,,,,,,,,,
13.06.10.775,-89.3,22.3,0,,,21659.1,46.17,-0.65,0.88,-0.36,-0.6,-18.0,-10.0,35.15,,,,,,,,,,
13.06.10.785,-104.1,26.0,0,,,21659.1,46.17,-0.53,0.77,-0.06,36.0,9.1,-6.5,35.35,,,,,,,,,,
13.06.10.795,-72.5,18.1,0,,,21659.1,46.17,-0.6,-0.19,0.61,1.6,-12.6,-2.7,34.65,,,,,,,,,,
13.06.10.804,-99.3,24.8,0,,,21659.1,46.17,-0.39,0.24,-0.95,6.1,15.5,-8.9,35.06,,,,,,,,,,
13.06.10.814,-149.9,37.5,0,,,21659.1,46.17,-0.69,0.48,0.58,7.3,13.6,-0.5,34.92,,,,,,,,,,
13.06.10.824,-110.3,27.6,0,,,21654.4,46.18,-0.68,0.98,0.39,47.8,-11.5,-13.0,34.73,,,,,,,,,,
13.06.10.832,-100.9,25.2,0,,,21654.4,46.18,-0.66,1.16,0.05,9.6,18.7,-0.9,34.39,,,,,,,,,,
13.06.10.841,-61.6,15.4,0,,,21654.4,46.18,-0.3,0.99,0.72,-2.6,17.5,4.1,35.08,,,,,,,,,,
13.06.10.851,-201.1,50.3,0,,,21654.4,46.18,-0.37,1.05,0.7,5.6,-1.5,19.7,35.07,,,,,,,,,,
13.06.10.861,,,0,,,,,,,,,,,,,,,,,,,,,
13.06.10.871,-157.4,39.4,0,,,21654.4,46.18,0.15,0.19,0.43,-2.9,1.5,4.1,34.72,,,,,,,,,,
13.06.10.879,-140.6,35.2,0,,,21654.4,46.18,-0.4,0.87,-0.32,2.1,-2.3,14.9,35.11,,,,,,,,,,
13.06.10.889,-214.2,53.6,0,,,21649.7,46.19,-0.06,0.2,0.55,-2.0,10.2,-13.0,34.56,,,,,,,,,,
13.06.10.897,43.2,10.8,0,,,21649.7,46.19,0.26,0.5,0.02,11.1,5.9,-11.2,35.24,,,,,,,,,,
13.06.10.905,100.4,25.1,0,,,21649.7,46.19,-0.09,0.25,0.53,-23.6,18.7,-16.7,35.23,,,,,,,,,,
13.06.10.914,193.8,48.4,0,,,21649.7,46.19,0.07,0.27,0.14,21.1,-1.6,17.1,34.84,,,,,,,,,,
13.06.10.923,285.4,71.4,0,,,21649.7,46.19,0.22,0.52,0.72,9.5,22.6,6.7,35.04,,,,,,,,,,
13.06.10.931,317.0,79.2,0,,,21649.7,46.19,-0.09,0.22,0.97,10.6,14.6,3.0,34.92,,,,,,,,,,
13.06.10.940,353.4,88.4,0,,,21649.7,46.19,-0.27,0.85,0.93,1.6,20.3,-5.5,34.74,,,,,,,,,,
13.06.10.948,549.8,137.4,0,,,21645.0,46.2,-0.17,1.1,0.32,16.4,-5.0,13.8,34.88,,,,,,,,,,
13.06.10.959,512.6,128.2,0,,,21645.0,46.2,-0.0,-0.28,1.92,-0.2,1.9,21.7,34.82,,,,,,,,,,
13.06.10.970,430.3,107.6,0,,,21645.0,46.2,-0.36,0.11,-0.08,8.7,10.7,3.3,35.02,,,,,,,,,,
13.06.10.979,484.2,121.0,0,,,21645.0,46.2,-0.28,-0.1,0.72,12.2,-26.5,23.5,35.3,,,,,,,,,,
13.06.10.989,532.4,133.1,0,,,21645.0,46.2,0.08,0.36,0.45,-8.1,14.3,-0.6,35.03,,,,,,,,,,
13.06.10.998,468.5,117.1,0,,,21645.0,46.2,-0.39,-0.2,0.67,4.8,14.7,18.2,35.15,,,,,,,,,,
13.06.11.009,373.9,93.5,0,,,21645.0,46.2,-0.36,0.23,-0.98,2.5,-3.7,9.5,35.23,,,,,,,,,,
13.06.11.019,317.0,79.2,0,,,21645.0,46.2,-0.47,0.78,-0.91,-10.4,5.5,-26.0,34.77,,,,,,,,,,
13.06.11.027,306.6,76.6,0,,,21645.0,46.2,-0.81,0.4,-0.3,-16.9,22.1,8.3,34.94,,,,,,,,,,
13.06.11.038,100.8,25.2,0,,,21645.0,46.2,-0.37,0.39,-0.07,-6.5,-9.0,-18.1,34.92,,,,,,,,,,
13.06.11.047,92.7,23.2,0,,,21645.0,46.2,-0.87,0.41,-0.14,-4.8,28.7,0.6,35.0,,,,,,,,,,
13.06.11.057,-4.7,1.2,0,,,21645.0,46.2,-0.72,0.39,0.77,-26.3,-10.7,14.5,34.86,,,,,,,,,,
13.06.11.066,60.8,15.2,1,29.0,141.2,21645.0,46.2,-0.4,0.59,-0.38,-9.9,6.5,11.1,34.86,,,,,,,,,,
13.06.11.076,15.2,3.8,0,,,21645.0,46.2,-1.48,0.82,-0.1,-5.4,-5.0,-19.5,34.97,,,,,,,,,,
13.06.11.086,96.1,24.0,0,,,21645.0,46.2,-0.63,0.3,0.1,19.9,8.7,5.9,34.69,,,,,,,,,,
13.06.11.096,131.7,32.9,0,,,21645.0,46.2,-0.67,0.55,-1.14,9.4,10.4,-0.4,34.7,,,,,,,,,,
13.06.11.107,43.7,10.9,0,,,21645.0,46.2,-0.51,0.69,-0.36,8.9,13.5,-6.5,34.52,,,,,,,,,,
13.06.11.117,116.4,29.1,0,,,21645.0,46.2,-0.72,1.32,-0.19,7.6,17.1,1.2,34.92,,,,,,,,,,
13.06.11.127,55.8,14.0,0,,,21645.0,46.2,-0.71,0.4,-0.28,-3.6,18.3,-4.5,34.77,,,,,,,,,,
13.06.11.139,26.4,6.6,0,,,21645.0,46.2,-0.45,0.49,-0.55,-8.9,3.3,-14.3,35.23,,,,,,,,,,
13.06.11.149,-56.8,14.2,0,,,21645.0,46.2,-0.36,0.35,0.0,26.0,7.2,-1.5,35.01,,,,,,,,,,
13.06.11.160,-61.1,15.3,0,,,21645.0,46.2,-0.06,0.7,-0.66,11.0,33.9,-24.7,34.74,,,,,,,,,,
13.06.11.169,44.7,11.2,0,,,21645.0,46.2,-0.77,0.86,0.62,22.4,-16.0,16.3,34.91,,,,,,,,,,
13.06.11.179,-49.9,12.5,0,,,21645.0,46.2,-0.25,0.99,-0.01,-1.7,18.9,5.8,34.94,,,,,,,,,,
13.06.11.188,9.1,2.3,0,,,21645.0,46.2,-0.31,0.98,0.53,-5.8,-2.2,-5.0,35.06,,,,,,,,,,
13.06.11.199,-55.0,13.8,0,,,21645.0,46.2,-0.14,0.51,0.84,-2.1,-4.5,20.7,34.84,,,,,,,,,,
13.06.11.207,-52.0,13.0,0,,,21649.7,46.19,-0.15,0.77,1.08,14.4,-19.6,-12.0,34.8,,,,,,,,,,
13.06.11.220,-99.3,24.8,0,,,21649.7,46.19,-0.55,0.79,0.66,-19.4,18.5,-6.4,34.95,,,,,,,,,,
13.06.11.230,-86.4,21.6,0,,,21649.7,46.19,-0.25,0.19,0.92,34.5,7.5,6.3,35.19,,,,,,,,,,
13.06.11.240,-91.0,22.8,0,,,21649.7,46.19,-0.21,0.92,0.32,-12.0,-1.9,-13.9,35.2,,,,,,,,,,
13.06.11.250,-85.1,21.3,0,,,21649.7,46.19,-0.22,0.81,0.95,-6.8,13.9,-12.5,35.07,,,,,,,,,,
13.06.11.259,-127.4,31.8,0,,,21649.7,46.19,0.02,0.57,0.25,-13.3,54.9,-11.6,35.14,,,,,,,,,,
13.06.11.268,-133.1,33.3,0,,,21649.7,46.19,-0.36,0.43,0.15,-10.9,4.3,-12.6,35.13,,,,,,,,,,
13.06.11.278,-146.9,36.7,0,,,21649.7,46.19,-0.58,0.48,0.13,14.1,-4.2,-27.7,34.56,,,,,,,,,,
13.06.11.288,-67.5,16.9,0,,,21649.7,46.19,-0.07,-0.16,-0.06,3.3,-5.9,-6.4,35.27,,,,,,,,,,
13.06.11.299,-140.6,35.2,0,,,21649.7,46.19,0.1,1.04,0.16,7.9,7.8,-4.3,35.12,,,,,,,,,,
13.06.11.311,-113.9,28.5,0,,,21649.7,46.19,-0.35,0.01,-0.78,16.6,3.6,0.2,34.7,,,,,,,,,,
13.06.11.322,-112.2,28.0,0,,,21649.7,46.19,-0.37,0.75,-0.77,-22.0,4.1,-11.4,35.34,,,,,,,,,,
13.06.11.332,-154.3,38.6,0,,,21649.7,46.19,-0.47,0.18,0.27,-9.8,-1.3,2.6,34.66,,,,,,,,,,
13.06.11.342,-173.7,43.4,0,,,21649.7,46.19,-0.7,0.49,0.22,-11.4,25.1,2.3,35.0,,,,,,,,,,
13.06.11.352,-239.6,59.9,0,,,21649.7,46.19,0.02,0.52,-0.75,5.4,16.7,-2.1,34.95,,,,,,,,,,
13.06.11.361,-25.5,6.4,0,,,21649.7,46.19,-0.26,-0.16,0.21,36.6,-9.0,4.3,35.23,,,,,,,,,,
13.06.11.372,80.8,20.2,0,,,21649.7,46.19,-0.32,0.71,0.55,-0.7,-4.2,8.7,34.79,,,,,,,,,,
13.06.11.381,206.9,51.7,0,,,21649.7,46.19,-0.46,0.03,0.48,13.7,3.0,-17.4,34.7,,,,,,,,,,
13.06.11.388,220.3,55.1,0,,,21649.7,46.19,-0.59,-0.15,-0.53,5.5,3.9,-11.6,34.79,,,,,,,,,,
13.06.11.396,280.7,70.2,0,,,21649.7,46.19,-0.32,-0.69,-0.42,3.9,15.0,2.8,34.82,,,,,,,,,,
13.06.11.407,356.4,89.1,0,,,21649.7,46.19,-0.31,0.29,-0.93,-16.1,-1.0,-0.2,35.25,,,,,,,,,,
13.06.11.418,372.0,93.0,0,,,21649.7,46.19,-0.82,0.23,-0.37,9.5,11.7,-3.1,34.66,,,,,,,,,,
13.06.11.430,489.2,122.3,0,,,21649.7,46.19,-0.5,0.1,-0.07,11.9,6.7,4.3,35.16,,,,,,,,,,
13.06.11.438,500.5,125.1,0,,,21649.7,46.19,-1.05,-0.18,-0.33,-4.0,-12.1,10.1,34.96,,,,,,,,,,
13.06.11.447,504.6,126.2,0,,,21654.4,46.18,-0.54,0.1,0.37,-1.6,-0.9,-19.4,35.15,,,,,,,,,,
13.06.11.456,539.3,134.8,0,,,21654.4,46.18,-0.99,0.33,0.38,3.8,-13.8,-3.0,35.08,,,,,,,,,,
13.06.11.465,398.5,99.6,0,,,21654.4,46.18,-0.28,0.44,-0.3,7.3,9.2,9.6,34.99,,,,,,,,,,
13.06.11.472,441.0,110.2,0,,,21654.4,46.18,-0.71,0.5,-0.37,-12.6,-44.5,12.2,34.67,,,,,,,,,,
13.06.11.482,289.7,72.4,0,,,21654.4,46.18,-0.98,0.47,0.9,18.3,-28.6,8.3,35.05,,,,,,,,,,
13.06.11.492,300.9,75.2,0,,,21654.4,46.18,-0.36,0.77,0.91,-26.0,9.0,9.8,34.87,,,,,,,,,,
13.06.11.501,172.1,43.0,0,,,21654.4,46.18,-0.33,0.65,0.3,11.4,-5.2,-3.8,35.2,,,,,,,,,,
13.06.11.509,61.9,15.5,0,,,21654.4,46.18,-0.38,0.75,-0.78,-16.5,4.8,-24.7,34.72,,,,,,,,,,
13.06.11.519,30.1,7.5,1,30.0,132.5,21654.4,46.18,-0.4,0.95,0.27,14.8,25.6,7.9,35.13,,,,,,,,,,
13.06.11.531,39.8,10.0,0,,,21654.4,46.18,-0.4,0.87,-0.17,-5.3,2.2,3.1,34.71,,,,,,,,,,
13.06.11.539,45.0,11.2,0,,,21654.4,46.18,-0.01,1.44,0.39,3.2,26.9,-10.2,35.14,,,,,,,,,,
13.06.11.548,-12.2,3.0,0,,,21654.4,46.18,-0.27,0.59,0.37,32.5,15.0,10.5,34.69,,,,,,,,,,
13.06.11.558,83.5,20.9,0,,,21654.4,46.18,-0.12,0.91,0.17,-9.5,11.5,4.0,34.83,,,,,,,,,,
13.06.11.568,85.0,21.2,0,,,21654.4,46.18,0.08,0.59,0.92,13.2,30.3,-13.4,35.07,,,,,,,,,,
13.06.11.577,118.9,29.7,0,,,21654.4,46.18,-0.11,0.23,0.75,5.0,-9.4,13.9,34.66,,,,,,,,,,
13.06.11.587,45.9,11.5,0,,,21654.4,46.18,-0.63,0.52,0.73,-20.3,18.5,-17.2,34.78,,,,,,,,,,
13.06.11.596,56.9,14.2,0,,,21654.4,46.18,0.2,0.66,0.79,12.7,13.4,-2.6,34.85,,,,,,,,,,
13.06.11.604,30.7,7.7,0,,,21654.4,46.18,0.07,0.18,0.53,19.9,26.7,-23.2,35.07,,,,,,,,,,
13.06.11.615,9.1,2.3,0,,,21654.4,46.18,-0.23,-0.0,0.82,-5.5,19.3,-17.0,35.21,,,,,,,,,,
13.06.11.626,-49.1,12.3,0,,,21654.4,46.18,-0.06,0.65,1.3,46.8,-12.8,-5.4,34.9,,,,,,,,,,
13.06.11.635,-36.7,9.2,0,,,21654.4,46.18,0.04,0.25,1.22,9.4,2.5,10.5,34.7,,,,,,,,,,
13.06.11.643,-17.5,4.4,0,,,21654.4,46.18,-0.38,-0.06,0.65,-35.3,-12.9,7.7,35.19,,,,,,,,,,
13.06.11.653,-36.9,9.2,0,,,21654.4,46.18,-0.01,0.99,1.07,1.4,15.9,16.8,34.99,,,,,,,,,,
13.06.11.663,-23.1,5.8,0,,,21654.4,46.18,-0.68,0.15,-0.13,15.0,15.6,-7.2,34.54,,,,,,,,,,
13.06.11.672,-49.8,12.4,0,,,21654.4,46.18,-0.37,0.28,-0.2,15.8,-1.7,3.3,35.0,,,,,,,,,,
13.06.11.683,-77.9,19.5,0,,,21659.1,46.17,-0.26,0.38,0.53,-40.0,1.3,-15.5,35.07,,,,,,,,,,
13.06.11.693,-82.2,20.6,0,,,21659.1,46.17,-0.75,-0.25,-0.25,-1.7,1.5,14.6,34.94,,,,,,,,,,
13.06.11.703,-45.2,11.3,0,,,21659.1,46.17,-0.77,0.26,0.79,-9.9,16.1,4.0,34.74,,,,,,,,,,
13.06.11.712,-90.1,22.5,0,,,21659.1,46.17,-0.49,0.65,0.87,-44.2,23.1,-9.1,35.22,,,,,,,,,,
13.06.11.722,-65.5,16.4,0,,,21659.1,46.17,-0.42,0.3,0.59,-21.5,5.8,3.9,35.06,,,,,,,,,,
13.06.11.731,-72.9,18.2,0,,,21659.1,46.17,-0.46,0.02,0.86,14.5,-20.1,6.4,34.87,,,,,,,,,,
13.06.11.740,-151.5,37.9,0,,,21659.1,46.17,-0.84,0.18,0.05,13.1,8.3,5.0,34.69,,,,,,,,,,
13.06.11.749,-127.5,31.9,0,,,21659.1,46.17,-0.57,0.59,0.27,13.4,30.5,-1.1,34.73,,,,,,,,,,
13.06.11.758,-133.9,33.5,0,,,21659.1,46.17,-0.55,0.63,-0.37,13.8,15.0,15.8,35.04,,,,,,,,,,
13.06.11.768,-146.4,36.6,0,,,21659.1,46.17,-0.66,0.63,0.0,26.4,9.4,-7.6,34.93,,,,,,,,,,
13.06.11.778,-187.8,47.0,0,,,21659.1,46.17,-0.55,0.68,-0.01,27.8,3.9,-8.0,34.75,,,,,,,,,,
13.06.11.787,-192.2,48.0,0,,,21659.1,46.17,-0.65,0.98,0.25,-19.0,-23.5,-8.3,34.82,,,,,,,,,,
13.06.11.797,-110.1,27.5,0,,,21659.1,46.17,-0.66,0.99,-1.03,21.0,8.0,3.8,34.93,,,,,,,,,,
13.06.11.804,-173.9,43.5,0,,,21659.1,46.17,-0.6,0.48,0.34,4.8,6.6,-7.1,34.94,,,,,,,,,,
13.06.11.811,-155.7,38.9,0,,,21659.1,46.17,-0.52,0.39,0.36,10.6,-11.3,2.6,35.15,,,,,,,,,,
13.06.11.821,-172.8,43.2,0,,,21659.1,46.17,-0.63,1.14,0.69,1.5,-2.8,10.7,34.92,,,,,,,,,,
13.06.11.832,-15.8,4.0,0,,,21659.1,46.17,-0.56,1.07,0.24,2.4,11.9,12.3,35.07,,,,,,,,,,
13.06.11.842,187.6,46.9,0,,,21659.1,46.17,-0.19,0.39,0.32,-15.2,-17.3,18.1,34.86,,,,,,,,,,
13.06.11.852,204.7,51.2,0,,,21659.1,46.17,-0.16,0.36,0.36,5.5,16.2,-14.3,35.21,,,,,,,,,,
13.06.11.860,284.7,71.2,0,,,21659.1,46.17,-0.63,0.67,1.05,5.9,0.0,1.3,34.99,,,,,,,,,,
13.06.11.869,355.2,88.8,0,,,21659.1,46.17,-0.04,1.05,0.31,15.8,-26.3,-14.3,35.3,,,,,,,,,,
13.06.11.880,395.0,98.8,0,,,21659.1,46.17,-0.23,1.21,0.86,-0.7,-1.8,7.6,34.38,,,,,,,,,,
13.06.11.889,563.8,141.0,0,,,21659.1,46.17,0.24,0.93,0.98,10.1,14.4,-0.4,34.86,,,,,,,,,,
13.06.11.900,410.1,102.5,0,,,21659.1,46.17,-0.37,0.78,0.33,5.3,17.1,9.9,35.13,,,,,,,,,,
13.06.11.909,433.0,108.2,0,,,21659.1,46.17,-0.25,0.62,0.77,17.8,-17.3,-10.8,35.18,,,,,,,,,,
13.06.11.919,456.9,114.2,0,,,21663.8,46.16,-0.49,0.39,0.03,-1.8,0.4,-8.4,35.16,,,,,,,,,,
13.06.11.930,389.3,97.3,0,,,21663.8,46.16,-0.1,0.36,0.81,21.3,5.4,-7.9,35.06,,,,,,,,,,
13.06.11.939,455.2,113.8,1,31.0,142.9,21663.8,46.16,-0.03,1.03,0.8,-14.4,13.1,4.3,35.47,,,,,,,,,,
13.06.11.951,297.9,74.5,0,,,21663.8,46.16,-0.01,0.17,0.53,1.8,12.9,-17.7,35.18,,,,,,,,,,
13.06.11.960,282.0,70.5,0,,,21663.8,46.16,0.08,0.34,1.29,8.1,10.7,20.6,34.83,,,,,,,,,,
13.06.11.968,230.2,57.6,0,,,21663.8,46.16,-0.27,0.57,0.81,18.0,-11.2,9.6,34.63,,,,,,,,,,
13.06.11.977,193.8,48.4,0,,,21663.8,46.16,-0.37,-0.04,0.87,26.7,1.4,3.7,35.01,,,,,,,,,,
13.06.11.985,37.0,9.2,0,,,21663.8,46.16,0.12,0.18,0.29,-26.1,-8.9,8.0,34.75,,,,,,,,,,
13.06.11.994,-52.4,13.1,0,,,21663.8,46.16,-0.11,0.62,1.73,-47.7,0.8,-11.1,34.51,,,,,,,,,,
13.06.12.003,55.9,14.0,0,,,21663.8,46.16,0.03,0.29,0.7,8.9,-14.2,3.1,34.87,,,,,,,,,,
13.06.12.013,46.7,11.7,0,,,21663.8,46.16,0.05,-0.21,0.61,-2.6,7.3,-28.0,35.01,,,,,,,,,,
13.06.12.022,85.1,21.3,0,,,21659.1,46.17,-0.22,0.12,0.03,8.0,1.5,15.9,34.92,,,,,,,,,,
13.06.12.032,89.9,22.5,0,,,21659.1,46.17,-0.54,0.31,0.66,-7.8,7.6,0.3,34.86,,,,,,,,,,
13.06.12.043,50.3,12.6,0,,,21659.1,46.17,-0.57,0.99,-0.11,9.7,-4.8,4.0,34.69,,,,,,,,,,
13.06.12.052,79.8,20.0,0,,,21659.1,46.17,-0.27,0.52,-0.62,31.3,14.3,1.9,34.83,,,,,,,,,,
13.06.12.061,79.8,20.0,0,,,21659.1,46.17,-0.19,0.81,0.06,2.7,-5.9,-9.3,35.03,,,,,,,,,,
13.06.12.072,16.4,4.1,0,,,21659.1,46.17,-0.62,0.65,-0.13,7.9,19.2,11.7,35.12,,,,,,,,,,
13.06.12.081,0.7,0.2,0,,,21654.4,46.18,-0.33,0.78,-0.04,-22.7,13.0,4.7,34.76,,,,,,,,,,
13.06.12.090,-9.3,2.3,0,,,21654.4,46.18,-0.42,0.85,-1.18,-4.4,-17.6,18.7,34.76,,,,,,,,,,
13.06.12.103,-71.8,18.0,0,,,21654.4,46.18,-1.04,1.41,-0.48,-28.0,8.9,2.3,35.03,,,,,,,,,,
13.06.12.113,0.6,0.2,0,,,21654.4,46.18,-0.88,0.62,-0.06,18.7,-1.8,0.9,34.9,,,,,,,,,,
13.06.12.123,-67.1,16.8,0,,,21654.4,46.18,-0.81,0.44,-0.34,-22.3,-1.8,-0.3,34.89,,,,,,,,,,
13.06.12.132,-26.6,6.6,0,,,21654.4,46.18,-0.75,0.13,0.21,6.9,-2.1,11.6,34.75,,,,,,,,,,
13.06.12.143,-110.3,27.6,0,,,21649.7,46.19,-0.56,0.41,0.23,16.7,-13.6,-17.9,35.14,,,,,,,,,,
13.06.12.151,-63.5,15.9,0,,,21649.7,46.19,-0.16,0.31,-0.47,8.8,4.4,8.7,34.95,,,,,,,,,,
13.06.12.160,-56.4,14.1,0,,,21649.7,46.19,-0.74,0.32,0.38,-30.7,25.4,-8.3,34.94,,,,,,,,,,
13.06.12.171,-84.5,21.1,0,,,21649.7,46.19,-0.82,0.79,-0.58,13.8,24.0,-0.5,34.99,,,,,,,,,,
13.06.12.179,-27.6,6.9,0,,,21649.7,46.19,-0.81,0.47,-0.2,-6.4,8.6,-4.4,34.85,,,,,,,,,,
13.06.12.190,-123.6,30.9,0,,,21645.0,46.2,-0.55,1.38,0.32,0.4,19.0,1.5,35.04,,,,,,,,,,
13.06.12.199,-143.4,35.8,0,,,21645.0,46.2,-0.39,1.18,0.26,5.5,-6.1,23.6,35.37,,,,,,,,,,
13.06.12.208,-96.9,24.2,0,,,21645.0,46.2,-0.59,0.8,-0.04,-5.8,15.6,-3.1,35.07,,,,,,,,,,
13.06.12.219,-114.6,28.6,0,,,21645.0,46.2,-0.36,0.99,-1.01,4.5,13.1,-18.7,34.88,,,,,,,,,,
13.06.12.226,-159.7,39.9,0,,,21645.0,46.2,-0.36,1.11,0.71,-4.3,13.7,-3.1,34.68,,,,,,,,,,
13.06.12.238,-203.1,50.8,0,,,21645.0,46.2,0.27,0.49,-0.13,-5.8,-4.0,-21.1,35.27,,,,,,,,,,
13.06.12.246,-186.8,46.7,0,,,21640.3,46.21,-0.11,0.65,0.02,-20.9,14.8,10.9,35.31,,,,,,,,,,
13.06.12.255,-75.3,18.8,0,,,21640.3,46.21,-0.4,0.29,1.44,-21.0,-1.0,-9.8,34.93,,,,,,,,,,
13.06.12.264,-170.5,42.6,0,,,21640.3,46.21,0.02,0.67,1.0,6.5,-24.4,1.0,35.26,,,,,,,,,,
13.06.12.275,-276.4,69.1,0,,,21640.3,46.21,0.24,0.2,0.63,-12.6,8.7,-7.7,34.69,,,,,,,,,,
13.06.12.285,-175.5,43.9,0,,,21640.3,46.21,-0.06,0.54,0.1,0.8,5.8,1.3,34.93,,,,,,,,,,
13.06.12.294,-12.9,3.2,1,32.0,169.0,21640.3,46.21,-0.22,0.54,0.39,3.5,22.9,-1.4,35.12,,,,,,,,,,
13.06.12.304,134.0,33.5,0,,,21635.7,46.22,-0.31,0.02,1.47,1.5,-4.2,0.3,35.28,,,,,,,,,,
13.06.12.314,187.2,46.8,0,,,21635.7,46.22,-0.33,0.77,1.18,9.4,-22.6,-3.7,35.18,,,,,,,,,,
13.06.12.325,250.5,62.6,0,,,21635.7,46.22,-0.4,-0.25,-0.53,-5.2,18.8,0.2,34.88,,,,,,,,,,
13.06.12.334,334.8,83.7,0,,,21635.7,46.22,0.29,0.21,0.57,6.7,-1.6,2.4,35.04,,,,,,,,,,
13.06.12.347,455.8,114.0,0,,,21635.7,46.22,-0.4,-0.13,0.87,-13.1,9.7,3.0,34.82,,,,,,,,,,
13.06.12.358,477.3,119.3,0,,,21631.0,46.23,0.01,-0.46,1.07,-2.2,22.0,6.8,35.11,,,,,,,,,,
13.06.12.368,523.9,131.0,0,,,21631.0,46.23,-0.28,0.07,0.77,0.2,-23.1,17.9,35.24,,,,,,,,,,
13.06.12.377,530.4,132.6,0,,,21631.0,46.23,0.1,-0.2,0.17,-8.9,2.7,-21.8,35.07,,,,,,,,,,
13.06.12.387,472.1,118.0,0,,,21631.0,46.23,-0.58,0.01,0.24,11.4,21.8,-19.2,34.92,,,,,,,,,,
13.06.12.398,493.3,123.3,0,,,21631.0,46.23,0.11,0.89,-0.17,16.3,-9.0,4.5,34.84,,,,,,,,,,
13.06.12.405,411.8,103.0,0,,,21631.0,46.23,-0.37,-0.09,-0.13,9.7,6.6,-0.3,34.97,,,,,,,,,,
13.06.12.416,374.1,93.5,0,,,21626.3,46.24,-0.18,0.58,0.32,32.8,26.7,-6.3,35.01,,,,,,,,,,
13.06.12.427,249.3,62.3,0,,,21626.3,46.24,0.04,-0.0,-0.22,18.7,10.4,-12.9,34.95,,,,,,,,,,
13.06.12.434,218.3,54.6,0,,,21626.3,46.24,-0.9,0.26,-0.37,-13.9,29.9,-1.6,34.9,,,,,,,,,,
13.06.12.443,109.5,27.4,0,,,21626.3,46.24,-0.77,-0.22,-1.21,8.6,0.3,-0.2,35.3,,,,,,,,,,
13.06.12.454,32.3,8.1,0,,,21626.3,46.24,-0.56,0.2,0.28,11.7,6.0,-11.5,34.78,,,,,,,,,,
13.06.12.465,16.4,4.1,0,,,21626.3,46.24,-0.14,0.45,-0.02,-5.9,32.4,-5.6,34.89,,,,,,,,,,
13.06.12.475,79.9,20.0,0,,,21621.6,46.25,-0.14,-0.07,-0.39,1.8,30.5,-17.4,35.23,,,,,,,,,,
13.06.12.484,79.5,19.9,0,,,21621.6,46.25,-1.05,0.16,0.48,-0.4,4.9,-9.7,35.02,,,,,,,,,,
13.06.12.495,98.5,24.6,0,,,21621.6,46.25,-0.91,0.68,-0.26,-6.6,22.6,-2.0,34.94,,,,,,,,,,
13.06.12.504,41.9,10.5,0,,,21621.6,46.25,-0.54,0.71,-0.09,13.7,13.2,18.0,35.38,,,,,,,,,,
13.06.12.515,149.3,37.3,0,,,21621.6,46.25,-0.49,0.3,0.23,4.7,-0.8,-8.7,34.96,,,,,,,,,,
13.06.12.525,79.9,20.0,0,,,21621.6,46.25,-0.44,0.59,1.13,2.9,40.1,-6.3,34.48,,,,,,,,,,
13.06.12.534,-4.8,1.2,0,,,21616.9,46.26,-0.33,0.53,0.3,6.9,-18.4,-28.1,34.85,,,,,,,,,,
13.06.12.544,-40.2,10.0,0,,,21616.9,46.26,-0.51,1.12,0.31,-5.6,5.5,1.2,34.61,,,,,,,,,,
13.06.12.554,25.1,6.3,0,,,21616.9,46.26,-0.28,0.49,0.3,5.3,13.7,-2.7,35.02,,,,,,,,,,
13.06.12.563,6.5,1.6,0,,,21616.9,46.26,-0.2,0.33,1.07,-28.8,13.8,11.3,34.92,,,,,,,,,,
13.06.12.573,-15.1,3.8,0,,,21616.9,46.26,0.0,0.81,0.27,-4.5,0.8,-8.4,35.08,,,,,,,,,,
13.06.12.582,-35.1,8.8,0,,,21616.9,46.26,-0.21,0.79,0.78,13.8,25.1,0.1,34.82,,,,,,,,,,
13.06.12.591,10.5,2.6,0,,,21612.3,46.27,-0.64,0.89,0.78,-3.0,15.8,-16.1,35.23,,,,,,,,,,
13.06.12.601,6.8,1.7,0,,,21612.3,46.27,0.05,1.04,0.48,-5.5,19.2,2.5,34.8,,,,,,,,,,
13.06.12.613,-132.6,33.2,0,,,21612.3,46.27,-0.6,0.9,0.6,18.6,7.4,8.7,35.08,,,,,,,,,,
13.06.12.623,-95.3,23.8,0,,,21612.3,46.27,-0.18,0.59,0.79,-50.4,39.6,-11.9,34.94,,,,,,,,,,
13.06.12.632,-124.7,31.2,0,,,21612.3,46.27,-0.44,0.94,-0.17,34.1,-3.6,3.7,34.78,,,,,,,,,,
13.06.12.643,-60.0,15.0,0,,,21607.6,46.28,-0.54,0.26,1.27,-13.4,17.5,20.5,35.1,,,,,,,,,,
13.06.12.651,-181.6,45.4,0,,,21607.6,46.28,-0.26,-0.05,0.78,17.6,11.5,-15.9,34.97,,,,,,,,,,
13.06.12.661,-140.9,35.2,0,,,21607.6,46.28,-0.03,0.91,-0.02,-8.6,-5.9,-3.1,34.83,,,,,,,,,,
13.06.12.672,-84.0,21.0,0,,,21607.6,46.28,-0.27,0.04,1.11,-19.8,18.1,19.2,34.78,,,,,,,,,,
13.06.12.681,-116.0,29.0,0,,,21607.6,46.28,0.21,0.18,1.37,18.3,-10.7,14.4,34.78,,,,,,,,,,
13.06.12.691,-155.8,39.0,0,,,21607.6,46.28,-1.0,0.13,0.77,-19.4,10.8,5.2,35.1,,,,,,,,,,
13.06.12.701,-140.8,35.2,0,,,21602.9,46.29,-0.61,-0.15,-0.1,12.8,9.8,1.4,35.03,,,,,,,,,,
13.06.12.712,-151.5,37.9,0,,,21602.9,46.29,-0.53,0.13,0.1,-0.4,26.0,-11.8,34.89,,,,,,,,,,
13.06.12.722,-181.2,45.3,0,,,21602.9,46.29,-0.35,-0.2,0.15,11.0,-21.8,-5.4,35.04,,,,,,,,,,
13.06.12.733,-246.2,61.6,1,33.0,136.7,21602.9,46.29,-0.4,-0.36,0.28,14.8,27.4,13.8,35.29,,,,,,,,,,
13.06.12.741,-162.9,40.7,0,,,21602.9,46.29,-0.66,0.56,-0.53,15.3,15.9,0.7,35.09,,,,,,,,,,
13.06.12.750,-151.4,37.8,0,,,21602.9,46.29,-0.4,0.3,0.46,34.7,25.0,20.3,34.62,,,,,,,,,,
13.06.12.759,-196.3,49.1,0,,,21598.3,46.3,-0.65,-0.43,0.31,-21.0,-1.4,-12.4,34.85,,,,,,,,,,
13.06.12.770,84.8,21.2,0,,,21598.3,46.3,-0.21,0.57,-1.14,20.6,13.2,13.7,34.72,,,,,,,,,,
13.06.12.779,197.5,49.4,0,,,21598.3,46.3,-0.65,0.09,-1.08,33.9,-9.6,8.0,34.5,,,,,,,,,,
13.06.12.787,278.4,69.6,0,,,21598.3,46.3,-0.51,0.09,-0.41,-9.2,5.3,-17.9,34.98,,,,,,,,,,
13.06.12.796,311.2,77.8,0,,,21598.3,46.3,-0.24,-0.17,-0.33,-11.1,-9.7,-1.4,35.02,,,,,,,,,,
13.06.12.806,443.8,111.0,0,,,21598.3,46.3,-0.99,0.07,0.4,-11.8,-8.2,0.1,34.92,,,,,,,,,,
13.06.12.817,436.5,109.1,0,,,21593.6,46.31,-0.36,0.49,-0.44,-24.5,-29.9,-9.7,34.62,,,,,,,,,,
13.06.12.827,478.0,119.5,0,,,21593.6,46.31,-0.75,0.28,0.24,-29.1,22.5,33.1,34.6,,,,,,,,,,
13.06.12.835,533.2,133.3,0,,,21593.6,46.31,-0.61,-0.0,-0.31,20.8,-20.2,20.0,35.07,,,,,,,,,,
13.06.12.846,439.5,109.9,0,,,21593.6,46.31,-0.59,0.75,-0.25,-9.2,2.2,-5.5,34.84,,,,,,,,,,
13.06.12.857,455.8,114.0,0,,,21593.6,46.31,-0.6,0.32,-1.27,-30.2,20.1,-7.0,34.79,,,,,,,,,,
13.06.12.869,389.1,97.3,0,,,21588.9,46.32,-0.29,0.97,-0.24,-9.5,5.9,-14.0,35.14,,,,,,,,,,
13.06.12.879,351.1,87.8,0,,,21588.9,46.32,-0.58,0.15,0.37,5.1,40.6,14.2,35.07,,,,,,,,,,
13.06.12.886,315.1,78.8,0,,,21588.9,46.32,-0.43,0.3,-0.46,-8.3,10.0,-2.3,34.88,,,,,,,,,,
13.06.12.896,217.0,54.2,0,,,21588.9,46.32,0.09,0.33,-0.2,18.7,2.1,13.4,34.94,,,,,,,,,,
13.06.12.904,165.2,41.3,0,,,21588.9,46.32,-0.91,0.6,0.15,14.9,2.8,-12.6,35.09,,,,,,,,,,
13.06.12.911,53.4,13.4,0,,,21588.9,46.32,-0.63,0.67,0.88,-7.0,-3.1,-14.2,35.38,,,,,,,,,,
13.06.12.920,37.9,9.5,0,,,21584.3,46.33,-0.16,0.77,0.65,-1.4,-25.2,9.0,34.83,,,,,,,,,,
13.06.12.929,93.6,23.4,0,,,21584.3,46.33,-0.21,0.62,0.69,15.1,26.0,-10.5,35.03,,,,,,,,,,
13.06.12.939,36.7,9.2,0,,,21584.3,46.33,-0.24,1.2,0.42,-5.1,-15.0,11.6,34.99,,,,,,,,,,
13.06.12.947,21.9,5.5,0,,,21584.3,46.33,-0.42,0.85,1.12,17.6,7.4,19.6,35.07,,,,,,,,,,
13.06.12.958,44.2,11.0,0,,,21584.3,46.33,0.17,0.66,0.81,22.5,-9.6,-12.5,35.26,,,,,,,,,,
13.06.12.967,77.4,19.4,0,,,21584.3,46.33,-0.11,0.32,1.49,-20.9,-13.2,-12.5,34.79,,,,,,,,,,
13.06.12.975,89.8,22.4,0,,,21584.3,46.33,-0.53,0.48,0.61,-22.5,20.6,-1.9,35.32,,,,,,,,,,
13.06.12.986,103.0,25.8,0,,,21579.6,46.34,-0.13,0.8,1.17,25.9,2.3,-5.3,34.47,,,,,,,,,,
13.06.12.995,57.7,14.4,0,,,21579.6,46.34,0.08,0.26,1.06,2.5,-11.3,-0.1,34.65,,,,,,,,,,
13.06.13.006,60.8,15.2,0,,,21579.6,46.34,0.43,0.74,0.52,-1.8,16.2,-18.2,35.02,,,,,,,,,,
13.06.13.016,-21.1,5.3,0,,,21579.6,46.34,-0.13,0.64,0.89,-13.2,16.4,5.1,34.94,,,,,,,,,,
13.06.13.026,-64.5,16.1,0,,,21579.6,46.34,-0.42,0.45,0.46,-9.5,28.9,-0.9,34.74,,,,,,,,,,
13.06.13.036,-34.8,8.7,0,,,21579.6,46.34,-0.26,-0.04,-0.01,23.2,-9.4,-6.8,34.42,,,,,,,,,,
13.06.13.045,10.0,2.5,0,,,21584.3,46.33,-0.18,0.24,1.21,-14.5,-2.3,0.1,34.82,,,,,,,,,,
13.06.13.054,-30.3,7.6,0,,,21584.3,46.33,-0.09,0.37,0.26,-22.9,-16.2,-10.6,34.76,,,,,,,,,,
13.06.13.061,-23.2,5.8,0,,,21584.3,46.33,-0.36,0.18,0.53,26.3,26.6,-8.5,34.92,,,,,,,,,,
13.06.13.072,-51.8,13.0,0,,,21584.3,46.33,-0.38,-0.36,-0.71,8.5,-15.4,-2.9,35.0,,,,,,,,,,
13.06.13.082,-41.8,10.4,0,,,21584.3,46.33,-0.33,0.59,0.45,43.0,18.3,14.0,34.73,,,,,,,,,,
13.06.13.091,-25.9,6.5,0,,,21584.3,46.33,-0.9,0.48,-0.18,-0.3,-7.5,1.6,34.86,,,,,,,,,,
13.06.13.102,-75.2,18.8,0,,,21584.3,46.33,-0.59,0.38,-0.66,-41.6,3.8,19.9,34.99,,,,,,,,,,
13.06.13.111,-158.4,39.6,0,,,21584.3,46.33,-0.45,0.13,0.42,-11.9,15.4,-19.6,34.86,,,,,,,,,,
13.06.13.119,-77.6,19.4,1,34.0,155.4,21584.3,46.33,-0.37,-0.16,-0.81,-16.2,-4.2,-4.2,35.21,,,,,,,,,,
13.06.13.131,-79.1,19.8,0,,,21584.3,46.33,-0.64,0.55,-0.28,-8.2,-0.5,7.6,34.93,,,,,,,,,,
13.06.13.140,-95.9,24.0,0,,,21584.3,46.33,-0.92,0.62,0.23,-23.7,-2.2,-13.6,34.81,,,,,,,,,,
