timestamp,ppg,threshold,beat,beat_count,inst_bpm,gsr_resistance_ohm,gsr_conductance_us,accel_x,accel_y,accel_z,gyro_x,gyro_y,gyro_z,temp_c,window_bpm,window_temp_c,status_message,SpO2,bmi,age,height,weight,env_temp_c,env_humidity_pct
15.44.00.000,0.0,0.0,0,,,72046.1,13.88,-0.78,0.36,0.02,6.9,8.9,19.0,35.42,94.4,,,,20.2,21.0,165.1,55.0,31.44,45.0
15.44.00.011,42.2,10.6,0,,,72046.1,13.88,-0.89,-0.07,-0.69,-1.3,-22.0,-0.9,35.25,,,,,,,,,,
15.44.00.021,109.5,27.4,0,,,72046.1,13.88,-0.85,0.2,0.09,-14.9,-7.2,-4.1,35.7,,,,,,,,,,
15.44.00.031,166.6,41.6,0,,,72046.1,13.88,-1.18,-0.21,-0.04,2.8,22.2,-5.8,35.46,,,,,,,,,,
15.44.00.042,240.5,60.1,0,,,72046.1,13.88,-0.72,-0.15,-0.2,35.9,2.5,-5.5,35.46,,,,,,,,,,
15.44.00.052,280.6,70.2,0,,,72046.1,13.88,-0.81,-0.19,0.2,-20.4,-6.5,10.9,35.1,,,,,,,,,,
15.44.00.064,289.8,72.4,0,,,72046.1,13.88,-0.34,0.37,-0.46,24.6,9.0,19.0,35.28,,,,,,,,,,
15.44.00.075,,,0,,,,,,,,,,,,,,,,,,,,,
15.44.00.086,388.0,97.0,0,,,72046.1,13.88,-0.7,0.29,-0.05,-18.9,3.7,-10.7,35.46,,,,,,,,,,
15.44.00.093,321.2,80.3,0,,,72046.1,13.88,-1.36,-0.11,-0.26,-9.3,7.3,13.1,35.47,,,,,,,,,,
15.44.00.102,438.0,109.5,0,,,72046.1,13.88,-0.84,-0.43,-0.37,13.9,17.7,-19.3,35.24,,,,,,,,,,
15.44.00.113,444.6,111.2,0,,,72046.1,13.88,-0.72,-0.05,0.14,-15.4,25.3,-28.7,35.36,,,,,,,,,,
15.44.00.122,434.1,108.5,0,,,72046.1,13.88,-0.78,0.06,0.31,-9.3,9.0,-22.5,35.38,,,,,,,,,,
15.44.00.130,369.2,92.3,0,,,72046.1,13.88,-0.66,0.24,-0.13,-0.9,8.5,18.5,35.8,,,,,,,,,,
15.44.00.137,390.1,97.5,0,,,72046.1,13.88,-0.64,-0.26,-0.64,1.3,-20.8,5.8,35.65,,,,,,,,,,
15.44.00.146,373.0,93.2,0,,,72046.1,13.88,-0.37,-0.23,0.27,16.2,-4.1,8.6,35.54,,,,,,,,,,
15.44.00.156,307.9,77.0,0,,,72046.1,13.88,-0.72,0.19,0.17,-16.1,-6.3,-14.9,35.63,,,,,,,,,,
15.44.00.167,286.7,71.7,0,,,72046.1,13.88,-0.95,0.12,0.25,8.2,0.4,15.4,35.48,,,,,,,,,,
15.44.00.175,208.9,52.2,0,,,72046.1,13.88,-0.74,-0.59,-0.1,14.5,28.4,8.2,35.74,,,,,,,,,,
15.44.00.183,234.0,58.5,0,,,72046.1,13.88,-0.81,-0.19,-0.03,-23.4,9.3,-17.2,35.47,,,,,,,,,,
15.44.00.190,175.2,43.8,0,,,72046.1,13.88,-0.6,-0.17,-0.03,14.0,20.0,-0.7,35.37,,,,,,,,,,
15.44.00.200,121.1,30.3,0,,,72046.1,13.88,-0.55,-0.11,0.11,0.9,8.5,4.3,35.71,,,,,,,,,,
15.44.00.209,47.4,11.8,0,,,72046.1,13.88,-1.04,-0.27,0.18,-21.2,10.4,8.1,35.62,,,,,,,,,,
15.44.00.219,40.8,10.2,0,,,72046.1,13.88,-0.93,0.12,-0.1,-7.3,-4.9,4.8,35.23,,,,,,,,,,
15.44.00.229,11.5,2.9,0,,,72046.1,13.88,-1.05,-0.02,-0.23,35.2,6.0,-15.6,35.55,,,,,,,,,,
15.44.00.239,4.6,1.2,0,,,72046.1,13.88,-0.71,-0.15,-0.34,-12.1,21.5,-8.9,35.43,,,,,,,,,,
15.44.00.248,62.5,15.6,0,,,72046.1,13.88,-1.01,-0.57,0.13,-4.2,6.4,0.6,35.67,,,,,,,,,,
15.44.00.259,96.6,24.2,0,,,72046.1,13.88,-0.8,-0.01,0.03,17.3,12.7,-5.9,35.43,,,,,,,,,,
15.44.00.270,78.5,19.6,0,,,72046.1,13.88,-0.85,0.12,-0.2,-4.1,-2.7,-21.7,35.47,,,,,,,,,,
15.44.00.280,72.8,18.2,0,,,72046.1,13.88,-0.85,-0.6,-0.41,-14.3,4.3,16.2,35.24,,,,,,,,,,
15.44.00.291,70.4,17.6,0,,,72046.1,13.88,-0.52,0.5,-0.31,14.0,15.1,19.3,35.33,,,,,,,,,,
15.44.00.301,47.0,11.8,0,,,71994.2,13.89,-0.63,0.04,-0.51,33.2,17.0,-4.5,35.72,,,,,,,,,,
15.44.00.310,71.2,17.8,0,,,71994.2,13.89,-0.71,-0.21,-0.3,-26.2,16.0,11.8,35.69,,,,,,,,,,
15.44.00.321,68.5,17.1,0,,,71994.2,13.89,-0.94,-0.41,-0.4,2.5,2.1,-16.3,35.41,,,,,,,,,,
15.44.00.328,13.3,3.3,0,,,71994.2,13.89,-0.84,-0.25,-0.67,11.4,8.3,-15.5,35.76,,,,,,,,,,
15.44.00.336,11.3,2.8,0,,,71994.2,13.89,-0.98,-0.15,-0.54,-28.8,20.0,8.7,35.54,,,,,,,,,,
15.44.00.347,-32.0,8.0,0,,,71994.2,13.89,-0.33,-0.09,-0.39,-11.4,10.5,-14.8,35.47,,,,,,,,,,
15.44.00.354,-2.7,0.7,0,,,71994.2,13.89,-1.06,-0.3,0.13,15.5,8.1,3.4,35.53,,,,,,,,,,
15.44.00.365,-3.7,0.9,0,,,71994.2,13.89,-1.08,-0.25,-0.33,-13.4,10.8,14.4,35.42,,,,,,,,,,
15.44.00.373,-54.4,13.6,0,,,71994.2,13.89,-0.58,-0.98,-0.19,10.9,12.1,15.7,35.34,,,,,,,,,,
15.44.00.383,-17.8,4.4,0,,,71994.2,13.89,-0.73,-0.48,-0.07,10.8,-8.2,6.2,35.5,,,,,,,,,,
15.44.00.393,-11.8,3.0,0,,,71994.2,13.89,-1.08,-0.47,-0.97,7.3,-1.5,-19.4,35.64,,,,,,,,,,
15.44.00.402,-31.5,7.9,0,,,71994.2,13.89,-1.05,-0.31,-0.44,5.8,3.5,-43.6,35.16,,,,,,,,,,
15.44.00.412,8.4,2.1,0,,,71994.2,13.89,-0.67,-0.71,0.05,-19.4,35.9,-3.0,35.45,,,,,,,,,,
15.44.00.421,-46.4,11.6,0,,,71994.2,13.89,-1.22,-0.36,-0.11,1.9,-3.7,7.8,35.52,,,,,,,,,,
15.44.00.432,-51.5,12.9,0,,,71994.2,13.89,-0.6,-0.72,-0.09,-30.6,5.7,-19.5,35.73,,,,,,,,,,
15.44.00.441,-34.5,8.6,0,,,71994.2,13.89,-1.02,-0.54,-0.33,8.2,-7.9,5.2,35.64,,,,,,,,,,
15.44.00.449,-61.2,15.3,0,,,71994.2,13.89,-0.77,-0.65,-0.14,3.7,0.6,-13.7,35.32,,,,,,,,,,
15.44.00.459,-39.6,9.9,0,,,71994.2,13.89,-0.99,-0.37,0.01,-5.8,7.1,2.0,35.62,,,,,,,,,,
15.44.00.467,-100.9,25.2,0,,,71994.2,13.89,-0.85,-0.29,-0.55,3.5,13.1,-9.9,35.38,,,,,,,,,,
15.44.00.475,-75.1,18.8,0,,,71994.2,13.89,-0.86,-0.61,0.43,13.7,-2.2,20.4,35.19,,,,,,,,,,
15.44.00.488,-105.7,26.4,0,,,71994.2,13.89,-1.16,-0.1,0.18,-4.4,8.8,3.7,35.38,,,,,,,,,,
15.44.00.499,-73.9,18.5,0,,,71994.2,13.89,-0.45,-0.24,0.38,-26.3,56.6,16.2,35.22,,,,,,,,,,
15.44.00.509,-72.5,18.1,0,,,71994.2,13.89,-1.11,-0.2,-0.09,27.0,15.4,10.5,35.41,,,,,,,,,,
15.44.00.517,-105.2,26.3,0,,,71994.2,13.89,-1.3,-0.46,0.15,-14.0,15.3,0.3,35.67,,,,,,,,,,
15.44.00.529,-100.8,25.2,0,,,71994.2,13.89,-0.88,-0.67,0.11,5.8,17.4,-5.0,35.94,,,,,,,,,,
15.44.00.538,-110.6,27.6,0,,,71994.2,13.89,-1.22,-0.12,0.42,-12.6,5.8,-17.8,35.72,,,,,,,,,,
15.44.00.548,-115.4,28.8,0,,,71994.2,13.89,-1.11,-0.31,0.48,4.4,7.5,-8.1,35.41,,,,,,,,,,
15.44.00.555,,,0,,,,,,,,,,,,,,,,,,,,,
15.44.00.565,-82.5,20.6,0,,,71994.2,13.89,-0.65,-0.19,0.11,-35.4,4.7,1.4,35.42,,,,,,,,,,
15.44.00.576,-164.0,41.0,0,,,71994.2,13.89,-1.1,-0.3,0.45,-10.7,19.1,-0.2,35.23,,,,,,,,,,
15.44.00.585,-140.9,35.2,0,,,71994.2,13.89,-1.03,-0.3,0.04,18.2,-2.6,4.5,35.91,,,,,,,,,,
15.44.00.595,-152.1,38.0,0,,,71994.2,13.89,-0.61,-0.58,0.09,28.3,7.5,7.8,35.55,,,,,,,,,,
15.44.00.604,-163.8,41.0,0,,,71994.2,13.89,-0.77,-0.37,-0.0,14.1,1.4,-16.1,35.65,,,,,,,,,,
15.44.00.611,-171.0,42.8,0,,,71994.2,13.89,-0.99,0.22,0.08,11.8,-7.9,-16.9,35.51,,,,,,,,,,
15.44.00.621,-168.4,42.1,0,,,71994.2,13.89,-0.74,-0.11,-0.17,-28.5,8.8,10.8,35.29,,,,,,,,,,
15.44.00.630,-168.7,42.2,0,,,71994.2,13.89,-0.88,-0.69,0.03,4.0,6.8,-2.2,35.55,,,,,,,,,,
15.44.00.639,43.8,11.0,1,1.0,,71994.2,13.89,-1.31,-0.11,-0.14,-9.5,5.4,-8.3,35.61,,,,,,,,,,
15.44.00.649,114.6,28.6,0,,,71994.2,13.89,-1.3,-0.38,0.66,15.8,11.3,-8.3,35.74,,,,,,,,,,
15.44.00.659,155.1,38.8,0,,,71994.2,13.89,-0.81,-0.11,-0.58,15.6,18.9,-1.7,35.27,,,,,,,,,,
15.44.00.668,183.2,45.8,0,,,71994.2,13.89,-1.26,-0.48,-0.07,18.0,-9.1,8.2,35.43,,,,,,,,,,
15.44.00.677,248.6,62.2,0,,,71994.2,13.89,-0.66,-0.42,-0.09,19.7,15.3,3.2,35.8,,,,,,,,,,
15.44.00.685,286.9,71.7,0,,,71994.2,13.89,-0.78,0.17,-0.16,43.2,-0.3,1.1,35.51,,,,,,,,,,
15.44.00.697,381.0,95.2,0,,,71994.2,13.89,-0.91,-0.24,-0.53,9.7,-2.4,1.4,35.53,,,,,,,,,,
15.44.00.708,329.3,82.3,0,,,71994.2,13.89,-0.62,0.35,-0.38,0.4,19.3,3.4,35.47,,,,,,,,,,
15.44.00.717,421.1,105.3,0,,,71994.2,13.89,-1.02,-0.24,-0.4,-17.9,0.2,4.3,35.34,,,,,,,,,,
15.44.00.726,439.5,109.9,0,,,71994.2,13.89,-0.82,0.2,-0.55,-5.3,2.1,-17.6,35.49,,,,,,,,,,
15.44.00.735,437.4,109.4,0,,,71994.2,13.89,-0.82,-0.25,-0.75,14.7,18.6,-8.6,35.79,,,,,,,,,,
15.44.00.745,418.6,104.6,0,,,71994.2,13.89,-1.19,-0.02,-0.82,-8.0,6.8,6.9,35.43,,,,,,,,,,
15.44.00.756,369.5,92.4,0,,,71994.2,13.89,-0.63,-0.48,-0.51,1.2,-14.5,-7.4,35.35,,,,,,,,,,
15.44.00.768,352.0,88.0,0,,,71994.2,13.89,-1.37,0.19,-0.65,-11.6,-10.9,9.0,35.52,,,,,,,,,,
15.44.00.777,357.1,89.3,0,,,71942.4,13.9,-1.02,-0.47,-0.1,37.2,10.2,-6.4,35.25,,,,,,,,,,
15.44.00.787,289.9,72.5,0,,,71942.4,13.9,-0.81,0.4,-0.62,-45.2,21.2,18.1,35.53,,,,,,,,,,
15.44.00.797,328.5,82.1,0,,,71942.4,13.9,-0.91,-0.43,-0.37,10.7,15.1,-28.3,35.61,,,,,,,,,,
15.44.00.808,231.6,57.9,0,,,71942.4,13.9,-0.99,-0.22,-0.61,17.6,14.4,-14.5,35.44,,,,,,,,,,
15.44.00.817,189.3,47.3,0,,,71942.4,13.9,-0.82,-0.06,-0.14,-21.1,16.6,7.5,35.4,,,,,,,,,,
15.44.00.825,164.5,41.1,0,,,71942.4,13.9,-1.12,0.19,-0.31,-24.5,32.4,8.0,35.51,,,,,,,,,,
15.44.00.835,117.6,29.4,0,,,71942.4,13.9,-0.84,-0.54,-0.06,-8.2,36.2,8.6,35.49,,,,,,,,,,
15.44.00.845,27.9,7.0,0,,,71942.4,13.9,-1.02,-0.31,-0.34,-20.5,-16.4,15.1,35.31,,,,,,,,,,
15.44.00.856,-1.8,0.4,0,,,71942.4,13.9,-0.77,-0.4,0.02,12.2,13.9,20.4,35.57,,,,,,,,,,
15.44.00.865,32.3,8.1,0,,,71942.4,13.9,-0.86,-0.14,-0.11,-6.1,4.7,-14.5,35.57,,,,,,,,,,
15.44.00.874,73.6,18.4,0,,,71942.4,13.9,-1.16,0.59,-0.15,-19.7,36.0,-3.7,35.32,,,,,,,,,,
15.44.00.882,49.0,12.2,0,,,71942.4,13.9,-0.74,0.36,0.34,-10.7,-1.2,-5.3,35.32,,,,,,,,,,
15.44.00.892,58.1,14.5,0,,,71942.4,13.9,-0.9,0.13,0.24,-0.2,32.8,-13.9,35.49,,,,,,,,,,
15.44.00.901,48.7,12.2,0,,,71942.4,13.9,-0.89,0.02,0.04,-7.0,1.1,-6.0,35.55,,,,,,,,,,
15.44.00.910,84.9,21.2,0,,,71942.4,13.9,-1.11,0.15,-0.06,-51.5,6.9,-7.2,35.16,,,,,,,,,,
15.44.00.918,100.7,25.2,0,,,71942.4,13.9,-0.74,-0.33,0.16,-0.0,-2.9,36.3,35.56,,,,,,,,,,
15.44.00.926,114.9,28.7,0,,,71942.4,13.9,-0.88,-0.05,0.23,26.9,16.9,-21.8,35.39,,,,,,,,,,
15.44.00.936,47.3,11.8,0,,,71942.4,13.9,-0.87,-0.58,0.31,-3.6,5.9,-1.5,35.46,,,,,,,,,,
15.44.00.946,65.4,16.4,0,,,71942.4,13.9,-0.77,0.08,-0.13,-1.8,2.1,4.4,35.62,,,,,,,,,,
15.44.00.956,18.0,4.5,0,,,71942.4,13.9,-0.56,-0.03,-0.06,-0.1,1.7,4.9,35.45,,,,,,,,,,
15.44.00.966,12.9,3.2,0,,,71942.4,13.9,-0.64,-0.08,0.07,2.8,18.6,1.8,35.6,,,,,,,,,,
15.44.00.977,-1.4,0.4,0,,,71942.4,13.9,-0.5,0.14,0.4,-56.9,5.0,-14.3,35.69,,,,,,,,,,
15.44.00.987,-33.7,8.4,0,,,71942.4,13.9,-0.84,0.17,0.02,-1.3,10.2,-6.1,35.36,,,,,,,,,,
15.44.00.999,-8.2,2.0,0,,,71942.4,13.9,-0.39,0.07,-0.16,-23.7,6.8,-11.1,35.61,,,,,,,,,,
15.44.01.007,-6.6,1.6,0,,,71942.4,13.9,-0.62,0.09,0.08,-19.7,-16.8,4.5,35.45,,,,,,,,,,
15.44.01.016,-9.6,2.4,0,,,71942.4,13.9,-0.65,0.38,-0.17,-32.5,19.3,-6.9,35.54,,,,,,,,,,
15.44.01.025,-10.2,2.6,0,,,71942.4,13.9,-0.9,-0.45,-0.04,42.9,-5.5,0.6,35.34,,,,,,,,,,
15.44.01.034,-40.2,10.0,0,,,71942.4,13.9,-0.96,-0.37,-0.46,9.0,22.4,-12.9,35.65,,,,,,,,,,
15.44.01.045,-49.5,12.4,0,,,71942.4,13.9,-1.0,-0.11,0.61,42.0,28.0,-0.3,35.72,,,,,,,,,,
15.44.01.055,-45.9,11.5,0,,,71942.4,13.9,-0.77,-0.13,0.11,22.0,12.9,19.0,35.48,,,,,,,,,,
15.44.01.066,-70.2,17.6,0,,,71942.4,13.9,-0.66,0.01,-0.02,7.5,2.7,-6.9,35.66,,,,,,,,,,
15.44.01.077,-66.4,16.6,0,,,71942.4,13.9,-0.49,-0.5,-0.11,26.9,16.8,-19.2,35.66,,,,,,,,,,
15.44.01.087,-72.9,18.2,0,,,71942.4,13.9,-0.54,0.41,-0.45,9.1,-18.6,13.9,35.67,,,,,,,,,,
15.44.01.097,-92.9,23.2,0,,,71942.4,13.9,-0.64,-0.43,-0.16,24.1,9.7,8.9,35.37,,,,,,,,,,
15.44.01.108,-89.5,22.4,0,,,71942.4,13.9,-0.54,0.15,-0.2,3.0,-4.2,6.3,35.61,,,,,,,,,,
15.44.01.118,-46.9,11.7,0,,,71942.4,13.9,-0.78,-0.29,-0.62,26.8,18.5,6.2,35.53,,,,,,,,,,
15.44.01.126,-100.0,25.0,0,,,71942.4,13.9,-0.76,-0.74,0.26,12.7,22.0,-10.2,35.62,,,,,,,,,,
15.44.01.136,-98.8,24.7,0,,,71942.4,13.9,-0.4,-0.25,-0.2,-1.2,20.6,-5.3,35.27,,,,,,,,,,
15.44.01.150,-121.3,30.3,0,,,71942.4,13.9,-0.83,-0.16,-0.16,13.7,4.3,12.8,35.46,,,,,,,,,,
15.44.01.159,-114.4,28.6,0,,,71942.4,13.9,-0.97,0.1,-0.47,-23.8,-6.8,0.8,35.67,,,,,,,,,,
15.44.01.169,-108.2,27.0,0,,,71942.4,13.9,-0.66,-0.24,-0.0,-31.9,6.7,7.3,35.77,,,,,,,,,,
15.44.01.178,-111.4,27.8,0,,,71942.4,13.9,-0.69,-0.23,-0.6,8.9,26.9,3.1,35.83,,,,,,,,,,
15.44.01.190,-122.4,30.6,0,,,71942.4,13.9,-0.51,-0.18,-0.68,-26.9,-26.0,13.2,35.28,,,,,,,,,,
15.44.01.201,-159.8,40.0,0,,,71942.4,13.9,-1.01,0.16,-0.61,-2.2,-15.4,19.5,35.42,,,,,,,,,,
15.44.01.211,-106.6,26.6,1,2.0,104.9,71942.4,13.9,-0.57,-0.44,-0.45,1.5,-4.3,-2.3,35.56,,,,,,,,,,
15.44.01.222,-125.2,31.3,0,,,71942.4,13.9,-1.18,-0.74,-0.38,0.1,-16.9,-6.8,35.26,,,,,,,,,,
15.44.01.231,-166.3,41.6,0,,,71942.4,13.9,-0.92,-0.65,-0.68,-2.4,25.4,-5.0,35.57,,,,,,,,,,
15.44.01.241,-146.5,36.6,0,,,71942.4,13.9,-0.93,-0.52,-0.0,-9.2,-4.4,0.9,35.66,,,,,,,,,,
15.44.01.251,-177.9,44.5,0,,,71942.4,13.9,-0.74,-0.27,-0.49,5.4,21.4,-7.0,35.93,,,,,,,,,,
15.44.01.262,-0.3,0.1,0,,,71942.4,13.9,-0.89,-0.45,-0.74,3.3,15.8,9.9,35.34,,,,,,,,,,
15.44.01.272,86.4,21.6,0,,,71942.4,13.9,-0.89,-0.44,-0.11,6.7,-37.9,8.5,35.49,,,,,,,,,,
15.44.01.282,139.9,35.0,0,,,71942.4,13.9,-0.95,-0.87,-0.15,28.7,-16.7,-2.0,35.54,,,,,,,,,,
15.44.01.294,165.0,41.2,0,,,71942.4,13.9,-0.95,-0.47,-0.22,-2.1,26.2,14.0,35.73,,,,,,,,,,
15.44.01.306,224.3,56.1,0,,,71942.4,13.9,-0.66,-0.83,-0.48,-17.8,12.5,14.4,35.47,,,,,,,,,,
15.44.01.317,310.4,77.6,0,,,71942.4,13.9,-1.08,-0.02,0.15,-13.4,-2.9,-8.0,35.39,,,,,,,,,,
15.44.01.328,323.1,80.8,0,,,71942.4,13.9,-1.11,-0.29,-0.09,39.0,36.8,12.6,35.67,,,,,,,,,,
15.44.01.339,365.9,91.5,0,,,71942.4,13.9,-0.66,-0.77,-0.21,-25.6,14.4,11.6,35.46,,,,,,,,,,
15.44.01.348,408.2,102.0,0,,,71942.4,13.9,-0.78,-0.2,-0.1,-8.8,12.0,16.9,35.61,,,,,,,,,,
15.44.01.359,370.9,92.7,0,,,71942.4,13.9,-0.92,-0.58,-0.12,-14.7,26.3,-4.1,35.2,,,,,,,,,,
15.44.01.367,382.8,95.7,0,,,71942.4,13.9,-0.92,-0.08,-0.29,6.3,28.4,35.0,35.41,,,,,,,,,,
15.44.01.375,458.1,114.5,0,,,71942.4,13.9,-1.27,-0.15,0.22,-16.2,3.0,-18.2,35.56,,,,,,,,,,
15.44.01.386,356.3,89.1,0,,,71942.4,13.9,-1.07,-0.03,-0.07,-17.1,4.7,18.4,35.03,,,,,,,,,,
15.44.01.395,391.1,97.8,0,,,71942.4,13.9,-1.11,-0.74,0.62,-1.8,43.4,-0.2,35.65,,,,,,,,,,
15.44.01.405,427.6,106.9,0,,,71942.4,13.9,-0.78,-0.7,-0.38,22.5,8.3,-16.1,35.4,,,,,,,,,,
15.44.01.416,321.3,80.3,0,,,71942.4,13.9,-1.28,-0.72,-0.23,9.0,10.4,7.1,35.58,,,,,,,,,,
15.44.01.427,267.0,66.8,0,,,71942.4,13.9,-0.74,-0.75,-0.25,5.5,-10.9,-12.6,35.55,,,,,,,,,,
15.44.01.437,218.2,54.6,0,,,71942.4,13.9,-1.16,-0.51,-0.14,-10.1,13.3,8.7,35.58,,,,,,,,,,
15.44.01.447,176.0,44.0,0,,,71942.4,13.9,-0.8,-0.39,-0.27,18.8,-15.6,-7.8,35.67,,,,,,,,,,
15.44.01.456,162.2,40.6,0,,,71942.4,13.9,-1.21,-0.17,-0.5,-26.7,20.6,14.5,35.37,,,,,,,,,,
15.44.01.465,80.1,20.0,0,,,71942.4,13.9,-1.04,-0.22,0.08,-9.8,5.7,-7.7,35.58,,,,,,,,,,
15.44.01.474,42.5,10.6,0,,,71942.4,13.9,-0.96,-0.3,-0.21,-8.2,1.8,13.6,35.22,,,,,,,,,,
15.44.01.485,21.0,5.2,0,,,71942.4,13.9,-0.98,-0.11,0.15,6.8,23.8,13.5,35.49,,,,,,,,,,
15.44.01.494,26.3,6.6,0,,,71942.4,13.9,-1.05,-0.07,-0.14,-22.4,15.5,5.1,35.62,,,,,,,,,,
15.44.01.504,-4.5,1.1,0,,,71942.4,13.9,-0.62,-0.2,0.28,47.6,-12.9,14.3,35.38,,,,,,,,,,
15.44.01.513,58.8,14.7,0,,,71942.4,13.9,-1.13,0.28,-0.49,11.6,22.4,-16.9,35.5,,,,,,,,,,
15.44.01.521,74.9,18.7,0,,,71942.4,13.9,-1.24,0.13,-0.02,-19.9,13.8,16.5,35.54,,,,,,,,,,
15.44.01.532,56.7,14.2,0,,,71942.4,13.9,-1.1,-0.28,-0.34,-12.8,-4.1,-10.5,35.49,,,,,,,,,,
15.44.01.544,54.9,13.7,0,,,71942.4,13.9,-1.05,-0.81,-0.32,-5.8,0.9,14.1,35.89,,,,,,,,,,
15.44.01.554,77.8,19.4,0,,,71942.4,13.9,-1.3,-0.07,0.05,-7.6,11.5,-5.3,35.69,,,,,,,,,,
15.44.01.564,62.7,15.7,0,,,71942.4,13.9,-0.98,-0.27,-0.5,-2.9,-21.5,10.9,35.62,,,,,,,,,,
15.44.01.573,44.0,11.0,0,,,71942.4,13.9,-1.08,0.02,-0.69,-10.2,4.9,3.3,35.93,,,,,,,,,,
15.44.01.581,70.8,17.7,0,,,71942.4,13.9,-0.99,-0.47,0.18,-15.1,6.2,-5.7,35.48,,,,,,,,,,
15.44.01.590,39.5,9.9,0,,,71942.4,13.9,-1.01,0.26,-0.31,-17.9,2.5,-4.5,35.65,,,,,,,,,,
15.44.01.600,45.6,11.4,0,,,71942.4,13.9,-1.08,-0.24,-0.02,27.8,-7.4,-21.1,35.52,,,,,,,,,,
15.44.01.609,7.9,2.0,0,,,71942.4,13.9,-0.83,-0.23,-0.21,24.5,23.6,-25.1,35.74,,,,,,,,,,
15.44.01.616,-26.9,6.7,0,,,71942.4,13.9,-1.08,0.13,-0.27,-12.0,18.8,-1.1,35.44,,,,,,,,,,
15.44.01.626,0.9,0.2,0,,,71942.4,13.9,-0.88,0.06,-0.62,33.1,11.3,-13.4,35.46,,,,,,,,,,
15.44.01.635,1.4,0.4,0,,,71942.4,13.9,-1.29,0.3,-0.52,-9.6,-19.5,-0.5,35.33,,,,,,,,,,
15.44.01.646,-41.1,10.3,0,,,71942.4,13.9,-1.41,-0.19,-0.11,24.1,-10.7,-4.8,35.46,,,,,,,,,,
15.44.01.657,-36.8,9.2,0,,,71942.4,13.9,-0.84,-0.19,-0.35,-2.4,12.6,-3.2,35.06,,,,,,,,,,
15.44.01.668,-1.5,0.4,0,,,71942.4,13.9,-1.21,-0.2,-0.38,24.5,29.2,5.6,35.59,,,,,,,,,,
15.44.01.677,-53.4,13.4,0,,,71942.4,13.9,-0.98,0.3,-0.66,-29.1,2.8,15.2,35.68,,,,,,,,,,
15.44.01.688,-35.6,8.9,0,,,71942.4,13.9,-0.89,0.33,-0.72,20.6,-28.3,-7.5,35.49,,,,,,,,,,
15.44.01.697,-31.2,7.8,0,,,71942.4,13.9,-1.04,-0.5,-0.42,-30.3,-1.8,0.2,35.42,,,,,,,,,,
15.44.01.708,-63.1,15.8,0,,,71942.4,13.9,-0.67,0.39,-0.4,-35.5,4.6,1.0,35.37,,,,,,,,,,
15.44.01.718,-33.1,8.3,1,3.0,118.3,71942.4,13.9,-1.11,0.59,-0.16,6.3,16.7,-12.4,35.11,,,,,,,,,,
15.44.01.726,-68.3,17.1,0,,,71942.4,13.9,-1.06,-0.34,-0.04,-11.5,-25.0,0.9,35.61,,,,,,,,,,
15.44.01.736,-98.9,24.7,0,,,71942.4,13.9,-0.96,-0.82,-0.28,-21.3,19.5,0.7,35.53,,,,,,,,,,
15.44.01.746,-83.0,20.8,0,,,71942.4,13.9,-0.85,-0.29,0.04,27.9,34.8,-21.2,35.89,,,,,,,,,,
15.44.01.754,-65.9,16.5,0,,,71942.4,13.9,-0.99,-0.32,0.43,10.4,4.0,-15.4,35.25,,,,,,,,,,
15.44.01.762,-88.8,22.2,0,,,71942.4,13.9,-0.86,0.32,0.12,-23.8,6.1,-3.9,35.25,,,,,,,,,,
15.44.01.771,-80.2,20.0,0,,,71942.4,13.9,-0.81,0.51,-0.51,12.5,12.5,-11.2,35.67,,,,,,,,,,
15.44.01.780,-131.8,33.0,0,,,71942.4,13.9,-0.94,0.03,-0.1,-3.1,-4.0,5.0,35.74,,,,,,,,,,
15.44.01.791,-117.2,29.3,0,,,71942.4,13.9,-0.73,0.3,-0.28,18.9,9.5,-0.6,35.44,,,,,,,,,,
15.44.01.803,-72.5,18.1,0,,,71942.4,13.9,-0.25,-0.01,-0.98,8.7,0.6,-8.4,35.69,,,,,,,,,,
15.44.01.814,-142.3,35.6,0,,,71942.4,13.9,-0.79,-0.19,-0.45,-18.5,1.7,-9.3,35.76,,,,,,,,,,
15.44.01.824,-140.6,35.2,0,,,71942.4,13.9,-0.59,0.15,-0.18,-24.5,8.8,3.3,35.74,,,,,,,,,,
15.44.01.833,-107.4,26.8,0,,,71942.4,13.9,-0.93,-0.16,0.0,-26.6,-24.6,-10.8,35.69,,,,,,,,,,
15.44.01.843,-157.4,39.4,0,,,71942.4,13.9,-1.09,-0.71,-0.33,1.4,-14.5,2.2,35.51,,,,,,,,,,
15.44.01.854,-122.7,30.7,0,,,71942.4,13.9,-0.6,-0.41,0.52,-6.2,3.2,-3.4,35.43,,,,,,,,,,
15.44.01.863,-143.3,35.8,0,,,71942.4,13.9,-0.65,0.0,-0.26,-21.6,-13.7,7.1,35.44,,,,,,,,,,
15.44.01.870,-161.0,40.2,0,,,71942.4,13.9,-0.92,-0.23,-0.09,-52.0,13.6,-17.5,35.68,,,,,,,,,,
15.44.01.882,-156.3,39.1,0,,,71942.4,13.9,-0.89,-0.08,0.55,31.4,2.3,9.2,35.53,,,,,,,,,,
15.44.01.891,-26.4,6.6,0,,,71942.4,13.9,-0.8,0.18,-0.11,-0.0,6.5,18.7,35.32,,,,,,,,,,
15.44.01.902,39.2,9.8,0,,,71942.4,13.9,-0.67,0.22,0.23,26.2,-8.1,-8.7,35.77,,,,,,,,,,
15.44.01.910,100.6,25.2,0,,,71942.4,13.9,-0.95,-0.15,-0.09,-33.7,-1.2,-11.0,35.81,,,,,,,,,,
15.44.01.918,158.1,39.5,0,,,71942.4,13.9,-0.59,-0.27,0.17,-13.1,-12.0,-3.2,35.35,,,,,,,,,,
15.44.01.930,230.1,57.5,0,,,71942.4,13.9,-0.84,0.17,-0.15,-24.8,44.2,-1.9,35.45,,,,,,,,,,
15.44.01.941,286.1,71.5,0,,,71942.4,13.9,-0.66,0.06,0.71,11.2,18.2,-16.5,35.44,,,,,,,,,,
15.44.01.951,312.7,78.2,0,,,71942.4,13.9,-0.95,-0.52,0.29,-22.5,14.2,-21.6,35.67,,,,,,,,,,
15.44.01.960,352.0,88.0,0,,,71942.4,13.9,-0.76,-0.48,0.02,13.3,26.5,-2.5,35.48,,,,,,,,,,
15.44.01.969,393.4,98.4,0,,,71942.4,13.9,-1.04,0.03,-0.2,12.9,-4.8,15.6,35.38,,,,,,,,,,
15.44.01.976,412.2,103.0,0,,,71942.4,13.9,-0.67,-0.41,-0.39,-20.2,-6.6,-17.2,35.42,,,,,,,,,,
15.44.01.985,408.2,102.0,0,,,71942.4,13.9,-0.61,-0.41,0.16,-10.2,-12.8,3.8,35.54,,,,,,,,,,
15.44.01.998,388.6,97.2,0,,,71942.4,13.9,-0.75,-0.28,0.23,3.2,11.7,4.5,35.26,,,,,,,,,,
15.44.02.006,398.6,99.6,0,,,71942.4,13.9,-0.87,0.01,-0.04,19.5,-25.6,8.8,35.53,,,,,,,,,,
15.44.02.014,406.5,101.6,0,,,71942.4,13.9,-0.85,-0.05,-0.6,-33.2,-18.6,10.7,35.52,,,,,,,,,,
15.44.02.023,383.8,96.0,0,,,71942.4,13.9,-1.27,0.25,-0.54,12.9,39.4,6.1,35.32,,,,,,,,,,
15.44.02.031,361.1,90.3,0,,,71942.4,13.9,-0.68,0.22,-0.53,-9.9,2.3,-13.2,35.41,,,,,,,,,,
15.44.02.041,377.6,94.4,0,,,71942.4,13.9,-0.82,-0.23,-0.42,17.9,11.1,7.5,35.19,,,,,,,,,,
15.44.02.049,307.1,76.8,0,,,71942.4,13.9,-0.91,-0.25,-0.44,53.5,2.3,-6.2,35.1,,,,,,,,,,
15.44.02.059,246.1,61.5,0,,,71942.4,13.9,-0.81,-0.13,-0.45,-4.8,-2.2,-11.8,35.41,,,,,,,,,,
15.44.02.068,269.9,67.5,0,,,71942.4,13.9,-0.56,-1.12,-0.81,-14.7,6.5,-25.3,35.45,,,,,,,,,,
15.44.02.076,150.1,37.5,0,,,71942.4,13.9,-1.16,-0.29,-0.49,-13.2,-4.9,-11.3,35.74,,,,,,,,,,
15.44.02.086,119.4,29.8,0,,,71942.4,13.9,-0.87,-0.62,-0.63,-7.2,-2.6,0.5,35.52,,,,,,,,,,
15.44.02.095,62.6,15.6,0,,,71942.4,13.9,-0.73,-0.38,-0.22,-26.4,12.5,-20.3,35.39,,,,,,,,,,
15.44.02.105,23.8,6.0,0,,,71942.4,13.9,-0.72,-0.66,-0.28,20.4,22.0,1.1,35.46,,,,,,,,,,
15.44.02.113,23.8,6.0,0,,,71942.4,13.9,-0.57,-0.38,-0.37,-23.0,1.1,-0.9,35.79,,,,,,,,,,
15.44.02.122,-1.1,0.3,0,,,71942.4,13.9,-0.75,-0.02,-0.15,24.9,1.8,10.9,35.57,,,,,,,,,,
15.44.02.129,37.2,9.3,0,,,71942.4,13.9,-1.1,-0.08,-0.21,2.6,13.8,-1.0,35.3,,,,,,,,,,
15.44.02.140,86.7,21.7,0,,,71942.4,13.9,-0.74,-0.11,0.35,14.0,5.5,-5.0,35.38,,,,,,,,,,
15.44.02.152,74.9,18.7,0,,,71942.4,13.9,-1.05,-0.57,-0.43,1.8,-5.2,-0.9,35.26,,,,,,,,,,
15.44.02.162,69.8,17.4,0,,,71942.4,13.9,-0.75,-0.17,-0.01,26.0,36.1,6.4,35.3,,,,,,,,,,
15.44.02.171,105.1,26.3,0,,,71942.4,13.9,-1.1,-0.39,0.16,14.4,9.5,-3.9,35.54,,,,,,,,,,
15.44.02.179,59.8,15.0,0,,,71942.4,13.9,-0.92,-0.43,-0.36,-10.4,-4.0,-7.9,35.63,,,,,,,,,,
15.44.02.189,86.0,21.5,0,,,71942.4,13.9,-1.32,-0.28,-0.41,-11.0,12.3,12.4,35.51,,,,,,,,,,
15.44.02.199,86.6,21.6,0,,,71942.4,13.9,-0.47,-0.17,-0.25,-5.2,9.9,-14.0,35.63,,,,,,,,,,
15.44.02.208,66.1,16.5,0,,,71942.4,13.9,-0.89,0.05,-0.27,-7.7,42.4,-12.1,35.19,,,,,,,,,,
15.44.02.219,44.6,11.2,0,,,71942.4,13.9,-0.97,0.1,-0.27,0.1,2.4,6.4,35.75,,,,,,,,,,
15.44.02.230,10.7,2.7,0,,,71942.4,13.9,-0.72,-0.12,0.01,13.0,-11.0,-18.0,35.29,,,,,,,,,,
15.44.02.239,17.2,4.3,0,,,71942.4,13.9,-1.18,-0.13,0.05,-2.0,4.4,16.9,35.42,,,,,,,,,,
15.44.02.249,-29.8,7.4,0,,,71942.4,13.9,-1.15,-0.12,0.08,16.1,4.0,-12.8,35.42,,,,,,,,,,
15.44.02.256,23.3,5.8,0,,,71942.4,13.9,-0.71,-0.54,0.05,-2.4,0.9,-0.6,35.59,,,,,,,,,,
15.44.02.266,9.8,2.4,0,,,71942.4,13.9,-0.98,-0.71,-0.11,15.6,-28.0,0.1,35.22,,,,,,,,,,
15.44.02.275,-38.0,9.5,0,,,71942.4,13.9,-0.98,-0.06,0.14,-12.0,4.1,5.3,35.61,,,,,,,,,,
15.44.02.284,-39.6,9.9,1,4.0,106.0,71942.4,13.9,-1.57,-0.26,-0.09,26.3,18.3,35.3,35.38,,,,,,,,,,
15.44.02.294,-16.1,4.0,0,,,71942.4,13.9,-0.87,-0.29,-0.32,1.6,4.2,-6.5,35.55,,,,,,,,,,
15.44.02.303,-29.2,7.3,0,,,71942.4,13.9,-1.18,-0.17,0.06,18.0,-5.6,5.8,35.44,,,,,,,,,,
15.44.02.314,-51.6,12.9,0,,,71942.4,13.9,-1.45,-0.43,0.4,16.2,-26.9,11.4,35.28,,,,,,,,,,
15.44.02.323,-62.9,15.7,0,,,71942.4,13.9,-1.08,0.26,0.18,-37.7,17.4,-8.0,35.76,,,,,,,,,,
15.44.02.332,-67.4,16.8,0,,,71942.4,13.9,-1.01,-0.82,0.17,27.6,6.5,13.4,35.5,,,,,,,,,,
15.44.02.343,-46.5,11.6,0,,,71942.4,13.9,-1.0,-0.14,0.2,-20.7,-6.0,-6.4,35.09,,,,,,,,,,
15.44.02.353,-51.8,13.0,0,,,71942.4,13.9,-0.86,-0.39,-0.48,-2.4,12.6,-6.5,35.72,,,,,,,,,,
15.44.02.363,-44.8,11.2,0,,,71942.4,13.9,-0.7,-0.51,0.12,-5.3,12.5,-3.7,35.76,,,,,,,,,,
15.44.02.371,-68.4,17.1,0,,,71942.4,13.9,-1.04,-0.59,0.08,18.1,5.4,6.6,35.78,,,,,,,,,,
15.44.02.382,-82.2,20.6,0,,,71942.4,13.9,-0.92,-0.86,-0.01,-0.2,16.7,-0.1,35.4,,,,,,,,,,
15.44.02.393,-110.9,27.7,0,,,71942.4,13.9,-0.76,-0.25,0.15,1.6,15.9,6.1,35.41,,,,,,,,,,
15.44.02.402,-77.6,19.4,0,,,71942.4,13.9,-1.24,0.24,0.06,5.3,-24.1,-15.1,35.62,,,,,,,,,,
15.44.02.412,-73.1,18.3,0,,,71942.4,13.9,-0.8,-0.38,0.06,-8.1,13.2,-34.1,35.45,,,,,,,,,,
15.44.02.419,-100.7,25.2,0,,,71942.4,13.9,-1.3,-0.09,-0.34,0.4,-4.1,20.9,35.63,,,,,,,,,,
15.44.02.431,-90.0,22.5,0,,,71942.4,13.9,-1.05,0.1,-0.24,-3.7,-2.8,-2.1,35.64,,,,,,,,,,
15.44.02.440,-132.2,33.0,0,,,71890.7,13.91,-1.07,-0.89,-0.35,-10.3,1.2,-25.7,35.53,,,,,,,,,,
15.44.02.448,-162.2,40.6,0,,,71890.7,13.91,-0.92,0.07,-0.12,-1.5,43.9,1.1,35.42,,,,,,,,,,
15.44.02.459,-114.0,28.5,0,,,71890.7,13.91,-0.87,0.2,-0.41,30.8,7.8,-25.9,35.43,,,,,,,,,,
15.44.02.468,-112.8,28.2,0,,,71890.7,13.91,-0.89,-0.03,-0.16,-23.8,-4.5,16.8,35.43,,,,,,,,,,
15.44.02.479,-133.4,33.4,0,,,71890.7,13.91,-1.16,-0.22,-0.56,-10.9,1.7,16.6,35.71,,,,,,,,,,
15.44.02.489,-126.4,31.6,0,,,71890.7,13.91,-0.97,-0.3,-0.51,5.8,-14.8,-3.0,35.68,,,,,,,,,,
15.44.02.501,-151.5,37.9,0,,,71890.7,13.91,-0.97,0.01,-0.41,-20.8,15.8,-1.7,35.27,,,,,,,,,,
15.44.02.508,-153.6,38.4,0,,,71890.7,13.91,-1.13,-0.46,-0.64,-6.1,21.9,-11.1,35.39,,,,,,,,,,
15.44.02.518,-166.2,41.6,0,,,71890.7,13.91,-0.98,-0.21,-0.2,-13.1,6.8,-6.3,35.46,,,,,,,,,,
15.44.02.527,,,0,,,,,,,,,,,,,,,,,,,,,
15.44.02.536,90.9,22.7,0,,,71890.7,13.91,-1.04,-0.31,-0.15,-7.4,0.4,2.8,35.29,,,,,,,,,,
15.44.02.544,119.8,30.0,0,,,71890.7,13.91,-1.07,0.18,-0.58,-24.3,16.1,-15.7,35.44,,,,,,,,,,
15.44.02.553,169.3,42.3,0,,,71890.7,13.91,-1.25,-0.28,-0.52,33.5,1.6,-21.8,35.5,,,,,,,,,,
15.44.02.562,184.6,46.2,0,,,71890.7,13.91,-0.94,-0.72,-0.22,-16.1,8.7,1.6,35.44,,,,,,,,,,
15.44.02.572,277.3,69.3,0,,,71890.7,13.91,-0.9,-0.31,-0.32,-28.4,24.1,-6.2,35.74,,,,,,,,,,
15.44.02.582,336.3,84.1,0,,,71890.7,13.91,-0.87,-0.26,-0.44,-2.2,15.9,-14.5,35.4,,,,,,,,,,
15.44.02.593,333.6,83.4,0,,,71890.7,13.91,-1.08,0.05,-0.46,-14.4,0.4,-0.3,35.23,,,,,,,,,,
15.44.02.604,366.2,91.6,0,,,71890.7,13.91,-0.63,0.18,0.07,22.8,-8.5,-12.0,35.62,,,,,,,,,,
15.44.02.614,413.6,103.4,0,,,71890.7,13.91,-0.77,-0.16,-0.38,-22.1,-4.2,2.6,35.73,,,,,,,,,,
15.44.02.623,391.8,98.0,0,,,71890.7,13.91,-0.49,-0.34,-0.25,-47.2,-13.1,0.4,35.42,,,,,,,,,,
15.44.02.631,380.4,95.1,0,,,71890.7,13.91,-0.87,-0.21,-0.26,-14.5,9.0,8.2,35.56,,,,,,,,,,
15.44.02.641,433.9,108.5,0,,,71890.7,13.91,-1.12,0.3,-0.36,-4.5,1.1,8.1,35.34,,,,,,,,,,
15.44.02.650,414.3,103.6,0,,,71890.7,13.91,-0.83,-0.5,-0.55,8.4,-4.7,11.4,35.21,,,,,,,,,,
15.44.02.660,405.8,101.4,0,,,71890.7,13.91,-1.03,-0.05,0.18,32.2,-33.1,7.4,35.59,,,,,,,,,,
15.44.02.672,308.8,77.2,0,,,71890.7,13.91,-0.85,0.04,-0.24,33.1,-1.1,4.0,35.62,,,,,,,,,,
15.44.02.682,273.0,68.2,0,,,71890.7,13.91,-0.72,0.03,-0.18,11.9,2.1,-26.8,35.27,,,,,,,,,,
15.44.02.690,256.6,64.2,0,,,71890.7,13.91,-1.24,0.02,-0.1,-2.0,19.4,-18.8,35.71,,,,,,,,,,
15.44.02.701,220.7,55.2,0,,,71890.7,13.91,-0.73,0.15,-0.4,-11.1,25.2,-2.8,35.38,,,,,,,,,,
15.44.02.710,149.3,37.3,0,,,71890.7,13.91,-0.69,0.2,0.31,-1.6,-21.8,-7.3,35.62,,,,,,,,,,
15.44.02.720,104.2,26.0,0,,,71890.7,13.91,-0.68,0.26,0.02,-28.2,-5.8,-15.6,35.3,,,,,,,,,,
15.44.02.730,65.2,16.3,0,,,71890.7,13.91,-0.76,0.03,0.05,0.6,9.5,-18.2,35.06,,,,,,,,,,
15.44.02.740,37.6,9.4,0,,,71890.7,13.91,-0.37,0.23,0.28,-13.9,-5.3,1.6,35.68,,,,,,,,,,
15.44.02.750,0.4,0.1,0,,,71890.7,13.91,-0.68,-0.45,-0.04,-16.4,-5.0,-3.6,35.39,,,,,,,,,,
15.44.02.760,6.5,1.6,0,,,71890.7,13.91,-0.83,0.12,0.07,-13.0,2.3,20.1,35.71,,,,,,,,,,
15.44.02.771,34.6,8.6,0,,,71890.7,13.91,-0.99,-0.13,-0.26,28.8,27.4,11.4,35.69,,,,,,,,,,
15.44.02.783,44.3,11.1,0,,,71890.7,13.91,-0.94,-0.27,-0.01,-2.9,4.8,9.3,35.51,,,,,,,,,,
15.44.02.793,52.1,13.0,0,,,71890.7,13.91,-0.92,0.01,0.19,-26.2,-0.3,-17.1,35.33,,,,,,,,,,
15.44.02.799,87.2,21.8,0,,,71890.7,13.91,-0.6,0.14,0.43,20.8,-8.7,-0.4,35.61,,,,,,,,,,
15.44.02.808,56.2,14.0,0,,,71890.7,13.91,-0.71,0.19,-0.61,-4.9,-11.0,12.1,35.43,,,,,,,,,,
15.44.02.818,71.4,17.8,0,,,71890.7,13.91,-0.95,0.15,0.14,-20.9,24.6,12.9,35.7,,,,,,,,,,
15.44.02.828,64.6,16.2,0,,,71890.7,13.91,-1.08,-0.05,-0.33,-24.8,2.7,8.3,35.5,,,,,,,,,,
15.44.02.836,25.6,6.4,0,,,71890.7,13.91,-0.88,0.23,-0.19,-12.1,16.1,-2.0,35.85,,,,,,,,,,
15.44.02.846,66.6,16.6,0,,,71890.7,13.91,-0.97,-0.04,-0.31,28.6,37.1,17.6,35.3,,,,,,,,,,
15.44.02.855,8.8,2.2,0,,,71890.7,13.91,-1.16,-0.47,-0.08,-0.6,-7.8,15.8,35.58,,,,,,,,,,
15.44.02.864,4.5,1.1,0,,,71890.7,13.91,-0.89,0.07,0.43,20.7,-0.9,-18.1,35.57,,,,,,,,,,
15.44.02.871,4.3,1.1,1,5.0,102.2,71890.7,13.91,-0.97,0.1,-0.1,8.9,7.2,14.0,35.5,,,,,,,,,,
15.44.02.880,-21.1,5.3,0,,,71890.7,13.91,-0.97,-0.39,0.28,1.5,15.9,-5.2,35.76,,,,,,,,,,
15.44.02.890,10.3,2.6,0,,,71890.7,13.91,-1.07,-0.64,-0.76,7.8,-1.1,4.8,35.51,,,,,,,,,,
15.44.02.899,-40.7,10.2,0,,,71890.7,13.91,-0.39,-0.34,-0.25,12.1,-5.2,14.5,35.86,,,,,,,,,,
15.44.02.909,-32.0,8.0,0,,,71890.7,13.91,-0.47,-0.27,0.17,24.3,6.2,-19.4,35.54,,,,,,,,,,
15.44.02.918,-25.5,6.4,0,,,71890.7,13.91,-0.57,-0.14,-0.41,8.7,10.8,-5.4,35.05,,,,,,,,,,
15.44.02.929,-24.5,6.1,0,,,71890.7,13.91,-0.67,0.47,-0.09,6.8,14.6,13.3,35.16,,,,,,,,,,
15.44.02.939,-24.9,6.2,0,,,71890.7,13.91,-0.9,0.2,-0.18,-5.7,-9.0,-7.9,35.27,,,,,,,,,,
15.44.02.947,-69.7,17.4,0,,,71890.7,13.91,-0.72,-0.32,-0.64,-10.6,13.4,5.9,35.33,,,,,,,,,,
15.44.02.956,-62.2,15.6,0,,,71890.7,13.91,-0.7,-0.37,-0.78,17.1,4.8,-24.0,35.43,,,,,,,,,,
15.44.02.966,-63.5,15.9,0,,,71890.7,13.91,-0.86,-0.16,-0.26,-20.7,14.3,-1.8,35.64,,,,,,,,,,
15.44.02.977,-37.5,9.4,0,,,71890.7,13.91,-0.83,-0.65,-0.54,15.4,27.0,22.3,35.77,,,,,,,,,,
15.44.02.987,-55.7,13.9,0,,,71890.7,13.91,-0.59,-0.15,-0.32,-8.5,18.8,0.4,35.63,,,,,,,,,,
15.44.02.996,-116.6,29.2,0,,,71890.7,13.91,-0.98,-0.39,-0.42,-12.8,11.8,-19.3,35.65,,,,,,,,,,
15.44.03.006,-112.9,28.2,0,,,71890.7,13.91,-0.98,-0.57,-0.22,2.2,22.2,-14.6,35.66,,,,,,,,,,
15.44.03.017,-114.0,28.5,0,,,71890.7,13.91,-0.9,-0.63,-0.42,-14.3,-12.4,-14.7,35.39,,,,,,,,,,
15.44.03.026,-120.7,30.2,0,,,71890.7,13.91,-0.78,-0.24,-0.14,18.6,-12.2,9.9,35.5,,,,,,,,,,
15.44.03.039,-93.2,23.3,0,,,71890.7,13.91,-0.89,-0.8,0.19,-18.2,29.7,-18.3,35.49,,,,,,,,,,
15.44.03.050,-86.0,21.5,0,,,71890.7,13.91,-0.76,0.09,-0.65,12.5,19.3,-15.3,35.56,,,,,,,,,,
15.44.03.061,-112.0,28.0,0,,,71890.7,13.91,-0.85,-0.32,-0.07,24.0,-22.6,22.3,35.45,,,,,,,,,,
15.44.03.071,-116.3,29.1,0,,,71890.7,13.91,-0.74,-0.49,-0.16,-15.8,16.1,8.7,35.27,,,,,,,,,,
15.44.03.081,-116.5,29.1,0,,,71890.7,13.91,-1.52,-0.69,-0.59,-0.2,6.2,-13.9,35.26,,,,,,,,,,
15.44.03.092,-141.3,35.3,0,,,71890.7,13.91,-0.89,0.14,-0.24,-13.4,19.4,19.2,35.82,,,,,,,,,,
15.44.03.104,-121.8,30.4,0,,,71890.7,13.91,-0.8,-0.05,-0.27,4.5,-12.1,-1.1,35.55,,,,,,,,,,
15.44.03.114,-183.5,45.9,0,,,71890.7,13.91,-1.26,0.05,-0.52,6.6,17.5,15.7,35.47,,,,,,,,,,
15.44.03.125,-153.2,38.3,0,,,71890.7,13.91,-1.09,-0.03,-0.29,14.3,15.4,-11.8,35.71,,,,,,,,,,
15.44.03.134,-189.3,47.3,0,,,71890.7,13.91,-1.21,-0.42,-0.91,-6.8,2.3,-13.8,35.46,,,,,,,,,,
15.44.03.144,-192.7,48.2,0,,,71890.7,13.91,-0.6,-0.34,0.05,6.2,-4.4,0.4,35.44,,,,,,,,,,
15.44.03.153,13.1,3.3,0,,,71890.7,13.91,-0.94,-0.09,0.01,-3.1,9.8,13.4,35.75,,,,,,,,,,
15.44.03.165,124.5,31.1,0,,,71890.7,13.91,-0.99,-0.34,0.36,-31.4,-1.0,6.2,35.31,,,,,,,,,,
15.44.03.177,173.0,43.2,0,,,71890.7,13.91,-0.97,-0.44,0.09,-12.8,8.7,-9.5,35.6,,,,,,,,,,
15.44.03.185,221.5,55.4,0,,,71890.7,13.91,-1.11,-0.11,-0.12,7.1,-22.7,-8.2,35.61,,,,,,,,,,
15.44.03.194,287.6,71.9,0,,,71839.1,13.92,-1.06,-0.6,0.26,-21.8,16.6,-11.4,35.57,,,,,,,,,,
15.44.03.205,325.8,81.4,0,,,71839.1,13.92,-0.95,-0.54,0.07,7.6,27.4,13.1,35.53,,,,,,,,,,
15.44.03.216,363.3,90.8,0,,,71839.1,13.92,-0.94,-0.67,-0.15,2.3,32.0,-2.0,35.5,,,,,,,,,,
15.44.03.226,337.7,84.4,0,,,71839.1,13.92,-0.84,-0.51,-0.21,-26.1,15.5,-15.8,36.04,,,,,,,,,,
15.44.03.235,398.2,99.6,0,,,71839.1,13.92,-1.25,-0.89,-0.27,8.7,9.0,-21.2,35.48,,,,,,,,,,
15.44.03.246,418.5,104.6,0,,,71839.1,13.92,-1.0,-0.4,-0.28,20.2,20.9,-2.0,35.36,,,,,,,,,,
15.44.03.256,449.9,112.5,0,,,71839.1,13.92,-0.74,-0.6,0.62,-8.8,31.1,-10.0,35.83,,,,,,,,,,
15.44.03.266,401.2,100.3,0,,,71839.1,13.92,-1.07,0.07,-0.21,10.1,-5.2,-10.0,35.86,,,,,,,,,,
15.44.03.276,342.5,85.6,0,,,71839.1,13.92,-1.25,0.33,0.09,2.8,16.8,-1.5,35.37,,,,,,,,,,
15.44.03.285,370.2,92.6,0,,,71839.1,13.92,-1.27,0.11,-0.13,-2.9,2.7,7.5,35.34,,,,,,,,,,
15.44.03.295,324.5,81.1,0,,,71839.1,13.92,-1.28,-0.23,-0.42,-17.1,30.0,4.1,35.39,,,,,,,,,,
15.44.03.306,329.3,82.3,0,,,71839.1,13.92,-1.05,0.11,0.5,1.0,13.1,14.7,35.32,,,,,,,,,,
15.44.03.317,257.2,64.3,0,,,71839.1,13.92,-1.17,-0.21,0.01,25.2,-8.8,-6.7,35.55,,,,,,,,,,
15.44.03.327,238.8,59.7,0,,,71839.1,13.92,-1.28,0.18,-0.26,46.2,22.4,-6.8,35.23,,,,,,,,,,
15.44.03.336,163.5,40.9,0,,,71839.1,13.92,-0.91,0.09,-0.48,-8.4,-13.6,25.3,35.65,,,,,,,,,,
15.44.03.346,96.7,24.2,0,,,71839.1,13.92,-0.65,-0.45,-0.6,14.3,14.8,-27.9,35.34,,,,,,,,,,
15.44.03.354,30.4,7.6,0,,,71839.1,13.92,-1.06,0.05,-0.45,13.1,-1.2,-10.8,35.43,,,,,,,,,,
15.44.03.364,5.1,1.3,0,,,71839.1,13.92,-1.05,0.24,-0.52,-3.1,4.5,0.2,35.12,,,,,,,,,,
15.44.03.373,-0.6,0.2,0,,,71839.1,13.92,-1.07,-0.15,-0.32,-13.0,16.0,-8.0,35.35,,,,,,,,,,
15.44.03.382,1.0,0.2,0,,,71839.1,13.92,-1.29,0.55,0.02,-6.4,20.2,-0.1,35.66,,,,,,,,,,
15.44.03.391,49.7,12.4,0,,,71839.1,13.92,-1.05,-0.54,-0.21,-18.3,-1.0,-29.6,35.36,,,,,,,,,,
15.44.03.399,33.8,8.4,0,,,71839.1,13.92,-1.01,-0.15,-0.03,-6.3,18.7,-16.8,35.63,,,,,,,,,,
15.44.03.406,73.8,18.4,0,,,71839.1,13.92,-0.79,0.29,-0.49,9.3,-6.6,9.9,35.6,,,,,,,,,,
15.44.03.413,83.7,20.9,0,,,71839.1,13.92,-1.15,-0.12,-0.05,19.8,-2.5,2.0,35.12,,,,,,,,,,
15.44.03.423,59.9,15.0,1,6.0,108.7,71839.1,13.92,-1.05,0.14,-0.44,50.1,4.5,24.2,35.64,,,,,,,,,,
15.44.03.433,98.0,24.5,0,,,71839.1,13.92,-1.13,-0.0,0.04,4.8,9.7,0.0,35.46,,,,,,,,,,
15.44.03.442,59.1,14.8,0,,,71839.1,13.92,-0.89,0.09,-0.05,19.3,-12.1,13.6,35.6,,,,,,,,,,
15.44.03.452,64.4,16.1,0,,,71839.1,13.92,-0.89,0.42,-0.35,-25.9,0.4,-10.8,35.44,,,,,,,,,,
15.44.03.460,66.6,16.6,0,,,71839.1,13.92,-1.48,0.1,-0.59,41.0,17.5,-8.4,35.37,,,,,,,,,,
15.44.03.469,46.7,11.7,0,,,71839.1,13.92,-1.08,0.12,-0.43,17.6,8.2,9.6,35.73,,,,,,,,,,
15.44.03.478,15.8,4.0,0,,,71839.1,13.92,-1.05,0.53,-0.12,-25.8,-19.6,-12.0,35.45,,,,,,,,,,
15.44.03.486,6.1,1.5,0,,,71839.1,13.92,-0.68,-0.15,-0.69,24.2,-6.2,6.8,35.68,,,,,,,,,,
15.44.03.498,-20.6,5.2,0,,,71839.1,13.92,-0.8,0.18,-0.01,-28.3,13.9,-17.3,35.43,,,,,,,,,,
15.44.03.506,-16.7,4.2,0,,,71839.1,13.92,-1.12,-0.22,-0.18,-0.6,7.2,-10.2,35.76,,,,,,,,,,
15.44.03.515,11.1,2.8,0,,,71839.1,13.92,-1.11,-0.14,-0.22,-14.0,36.8,-0.1,35.64,,,,,,,,,,
15.44.03.525,-9.3,2.3,0,,,71839.1,13.92,-0.71,-0.01,-0.34,10.7,1.6,-16.5,35.51,,,,,,,,,,
15.44.03.535,-29.4,7.4,0,,,71839.1,13.92,-0.84,0.01,-0.28,-38.2,-8.5,5.4,35.57,,,,,,,,,,
15.44.03.544,-20.9,5.2,0,,,71839.1,13.92,-1.11,0.63,-0.08,-7.5,18.9,-2.7,35.55,,,,,,,,,,
15.44.03.553,-56.0,14.0,0,,,71839.1,13.92,-0.57,-0.55,-0.13,-5.5,24.8,3.3,35.39,,,,,,,,,,
15.44.03.563,-43.8,11.0,0,,,71839.1,13.92,-0.46,0.07,0.11,20.7,5.2,3.2,35.35,,,,,,,,,,
15.44.03.571,-35.1,8.8,0,,,71839.1,13.92,-0.91,0.14,0.52,11.2,9.5,17.2,35.53,,,,,,,,,,
15.44.03.582,-37.9,9.5,0,,,71839.1,13.92,-0.73,-0.1,-0.21,11.0,20.8,-15.4,35.86,,,,,,,,,,
15.44.03.590,-66.8,16.7,0,,,71839.1,13.92,-0.74,0.07,-0.09,-24.7,23.1,-16.5,35.58,,,,,,,,,,
15.44.03.598,-66.9,16.7,0,,,71839.1,13.92,-0.82,0.07,0.17,3.4,11.2,-4.5,35.81,,,,,,,,,,
15.44.03.610,-44.8,11.2,0,,,71839.1,13.92,-0.88,0.43,-0.18,4.1,-7.6,11.8,35.54,,,,,,,,,,
15.44.03.621,-90.5,22.6,0,,,71839.1,13.92,-0.42,0.44,0.05,26.3,-4.4,14.7,35.28,,,,,,,,,,
15.44.03.631,-78.3,19.6,0,,,71839.1,13.92,-0.59,0.01,-0.08,-2.0,-8.7,8.3,35.6,,,,,,,,,,
15.44.03.643,-95.1,23.8,0,,,71839.1,13.92,-1.16,-0.56,0.15,-21.6,11.4,1.3,35.7,,,,,,,,,,
15.44.03.653,-91.0,22.8,0,,,71839.1,13.92,-0.72,0.11,0.14,3.4,24.3,8.2,35.55,,,,,,,,,,
15.44.03.663,-98.3,24.6,0,,,71839.1,13.92,-0.94,0.22,-0.19,5.5,-3.6,6.1,35.51,,,,,,,,,,
15.44.03.673,-78.8,19.7,0,,,71839.1,13.92,-0.89,-0.2,-0.57,4.2,-0.4,20.2,35.51,,,,,,,,,,
15.44.03.685,-118.3,29.6,0,,,71839.1,13.92,-0.78,-0.3,0.09,44.6,10.8,10.8,35.53,,,,,,,,,,
15.44.03.697,-136.0,34.0,0,,,71839.1,13.92,-0.73,0.12,0.1,20.4,22.2,-7.8,35.82,,,,,,,,,,
15.44.03.708,-135.5,33.9,0,,,71839.1,13.92,-0.81,-0.12,-0.14,30.0,11.1,-12.9,35.78,,,,,,,,,,
15.44.03.720,-136.9,34.2,0,,,71839.1,13.92,-0.55,-0.28,0.31,15.4,1.0,-11.5,35.52,,,,,,,,,,
15.44.03.727,-102.9,25.7,0,,,71839.1,13.92,-0.75,-0.5,-0.1,9.3,-18.0,2.9,35.46,,,,,,,,,,
15.44.03.738,-136.7,34.2,0,,,71839.1,13.92,-0.79,-0.17,-0.32,-15.3,19.3,-15.4,35.37,,,,,,,,,,
15.44.03.749,-181.0,45.2,0,,,71839.1,13.92,-0.76,0.22,-0.28,-47.0,3.8,-29.8,35.37,,,,,,,,,,
15.44.03.760,-147.8,37.0,0,,,71839.1,13.92,-0.97,-0.21,0.05,20.6,-7.1,11.4,35.44,,,,,,,,,,
15.44.03.770,-124.8,31.2,0,,,71839.1,13.92,-0.96,0.05,-0.55,-24.3,22.0,3.3,35.64,,,,,,,,,,
15.44.03.779,16.4,4.1,0,,,71839.1,13.92,-0.53,-0.23,-0.11,-9.5,-2.1,-4.7,35.8,,,,,,,,,,
15.44.03.790,96.0,24.0,0,,,71839.1,13.92,-0.79,0.15,-0.31,-4.4,19.6,-3.9,35.33,,,,,,,,,,
15.44.03.798,157.8,39.4,0,,,71839.1,13.92,-0.63,-0.5,-0.12,-5.9,11.9,-12.8,35.29,,,,,,,,,,
15.44.03.810,186.6,46.6,0,,,71839.1,13.92,-0.68,-0.01,-0.32,-7.3,-3.0,21.3,35.49,,,,,,,,,,
15.44.03.822,229.9,57.5,0,,,71839.1,13.92,-0.65,-0.39,0.15,-13.2,21.2,-21.8,35.54,,,,,,,,,,
15.44.03.831,323.6,80.9,0,,,71839.1,13.92,-1.03,-0.06,-0.15,3.4,-1.7,-16.0,35.31,,,,,,,,,,
15.44.03.841,360.0,90.0,0,,,71839.1,13.92,-0.66,-0.66,-0.09,13.8,6.9,-3.3,35.38,,,,,,,,,,
15.44.03.853,393.2,98.3,0,,,71787.5,13.93,-0.7,-0.21,-0.35,-2.6,13.8,13.4,35.32,,,,,,,,,,
15.44.03.863,389.2,97.3,0,,,71787.5,13.93,-1.05,-0.44,0.07,-6.6,10.6,-9.0,35.63,,,,,,,,,,
15.44.03.874,408.4,102.1,0,,,71787.5,13.93,-1.0,0.23,0.1,-9.0,-14.8,5.3,35.56,,,,,,,,,,
15.44.03.884,389.5,97.4,0,,,71787.5,13.93,-0.9,0.11,-0.54,-0.7,10.7,5.9,35.37,,,,,,,,,,
15.44.03.893,400.5,100.1,0,,,71787.5,13.93,-0.77,-0.66,-0.77,8.3,17.2,14.4,35.29,,,,,,,,,,
15.44.03.902,349.3,87.3,0,,,71787.5,13.93,-0.89,-0.26,-0.43,-24.9,-0.4,-8.0,35.45,,,,,,,,,,
15.44.03.911,391.1,97.8,0,,,71787.5,13.93,-0.74,-0.56,-0.45,-2.5,-0.9,7.4,35.42,,,,,,,,,,
15.44.03.920,406.1,101.5,0,,,71787.5,13.93,-1.11,-0.51,-0.78,21.9,7.6,-2.1,35.77,,,,,,,,,,
15.44.03.928,273.8,68.4,0,,,71787.5,13.93,-0.75,0.26,-0.82,14.4,-6.1,6.6,35.41,,,,,,,,,,
15.44.03.937,347.5,86.9,0,,,71787.5,13.93,-1.02,-0.33,-0.16,-10.8,-7.7,21.8,35.57,,,,,,,,,,
15.44.03.946,286.3,71.6,0,,,71787.5,13.93,-0.74,-0.15,0.13,-30.2,12.6,-11.9,35.41,,,,,,,,,,
15.44.03.956,198.4,49.6,0,,,71787.5,13.93,-1.0,0.06,-0.23,-6.8,10.7,-6.3,35.5,,,,,,,,,,
15.44.03.966,202.0,50.5,0,,,71787.5,13.93,-0.46,-0.77,0.01,7.8,1.3,5.4,35.7,,,,,,,,,,
15.44.03.975,86.7,21.7,0,,,71787.5,13.93,-0.77,-0.43,-0.1,-5.6,11.2,11.4,35.33,,,,,,,,,,
15.44.03.986,27.5,6.9,1,7.0,106.6,71787.5,13.93,-0.93,-0.08,-0.5,-36.2,8.1,-19.0,35.65,,,,,,,,,,
15.44.03.996,22.4,5.6,0,,,71787.5,13.93,-0.71,-0.56,-0.12,27.3,0.7,12.3,35.32,,,,,,,,,,
15.44.04.006,10.9,2.7,0,,,71787.5,13.93,-0.82,-0.42,-0.22,-0.4,25.6,3.2,35.56,,,,,,,,,,
15.44.04.017,22.4,5.6,0,,,71787.5,13.93,-0.88,-0.5,-0.67,3.0,-0.1,-26.6,35.78,,,,,,,,,,
15.44.04.027,68.5,17.1,0,,,71787.5,13.93,-0.64,-0.3,-0.02,9.7,-6.1,-16.7,35.74,,,,,,,,,,
15.44.04.035,67.4,16.8,0,,,71787.5,13.93,-1.05,-0.73,-0.31,6.4,-3.2,8.5,35.27,,,,,,,,,,
15.44.04.044,90.6,22.6,0,,,71787.5,13.93,-1.04,-0.12,-0.47,-2.5,-7.0,5.3,35.63,,,,,,,,,,
15.44.04.055,49.3,12.3,0,,,71787.5,13.93,-0.96,-0.41,0.49,-27.0,2.3,2.0,35.67,,,,,,,,,,
15.44.04.064,91.9,23.0,0,,,71787.5,13.93,-0.9,-0.06,0.02,9.7,8.2,0.7,35.3,,,,,,,,,,
15.44.04.075,57.4,14.4,0,,,71787.5,13.93,-1.26,-0.48,-0.45,-15.1,-0.1,16.5,35.63,,,,,,,,,,
15.44.04.085,38.1,9.5,0,,,71787.5,13.93,-0.97,-0.71,0.16,36.1,26.3,10.6,35.43,,,,,,,,,,
15.44.04.095,45.0,11.2,0,,,71787.5,13.93,-0.79,-0.12,0.34,19.4,12.4,6.4,35.19,,,,,,,,,,
15.44.04.105,42.5,10.6,0,,,71787.5,13.93,-0.82,-0.07,-0.43,-2.9,10.6,5.1,35.47,,,,,,,,,,
15.44.04.114,-9.3,2.3,0,,,71787.5,13.93,-1.09,-0.22,0.27,-24.9,15.1,-18.0,35.64,,,,,,,,,,
15.44.04.126,4.6,1.2,0,,,71787.5,13.93,-1.01,0.09,-0.3,-14.5,1.1,8.7,35.55,,,,,,,,,,
15.44.04.137,-34.5,8.6,0,,,71787.5,13.93,-1.1,0.12,0.34,22.1,-6.9,-10.2,35.5,,,,,,,,,,
15.44.04.148,-29.9,7.5,0,,,71787.5,13.93,-0.97,-0.37,-0.49,22.6,-12.1,20.5,35.62,,,,,,,,,,
15.44.04.157,-39.0,9.8,0,,,71787.5,13.93,-0.95,-0.64,-0.02,9.0,12.4,13.5,35.26,,,,,,,,,,
15.44.04.167,5.0,1.2,0,,,71787.5,13.93,-0.72,-0.37,-0.5,-1.5,41.8,-2.4,35.51,,,,,,,,,,
15.44.04.178,-73.4,18.4,0,,,71787.5,13.93,-1.27,-0.03,0.27,-13.1,20.9,-4.4,35.42,,,,,,,,,,
15.44.04.186,-59.0,14.8,0,,,71787.5,13.93,-1.05,-0.21,0.04,-4.5,-14.6,2.9,35.79,,,,,,,,,,
15.44.04.196,-3.2,0.8,0,,,71787.5,13.93,-1.26,0.05,0.22,28.6,3.8,-5.5,35.27,,,,,,,,,,
15.44.04.206,-33.3,8.3,0,,,71787.5,13.93,-1.31,-0.4,-0.48,-12.1,1.2,0.3,35.11,,,,,,,,,,
15.44.04.218,-33.7,8.4,0,,,71787.5,13.93,-0.96,-0.33,0.1,35.3,4.3,-14.9,35.45,,,,,,,,,,
15.44.04.227,-67.1,16.8,0,,,71787.5,13.93,-1.07,0.3,-0.18,-13.7,7.2,37.4,35.53,,,,,,,,,,
15.44.04.236,-106.7,26.7,0,,,71787.5,13.93,-0.83,-0.15,-0.06,-37.0,2.0,-20.2,35.37,,,,,,,,,,
15.44.04.243,-78.4,19.6,0,,,71787.5,13.93,-0.68,-0.21,-0.25,-0.7,-4.1,9.7,35.23,,,,,,,,,,
15.44.04.253,-63.1,15.8,0,,,71787.5,13.93,-1.01,-0.24,-0.2,2.3,21.7,-12.4,35.27,,,,,,,,,,
15.44.04.264,-91.4,22.8,0,,,71787.5,13.93,-0.67,-0.05,0.04,-6.6,2.4,-2.4,35.29,,,,,,,,,,
15.44.04.273,-91.4,22.8,0,,,71787.5,13.93,-1.04,-0.04,0.09,-11.7,-3.2,0.8,35.47,,,,,,,,,,
15.44.04.282,-96.0,24.0,0,,,71787.5,13.93,-0.82,0.21,0.17,7.2,-6.7,-19.1,35.55,,,,,,,,,,
15.44.04.292,-76.6,19.2,0,,,71787.5,13.93,-0.87,-0.01,-0.42,2.1,18.4,-13.8,35.47,,,,,,,,,,
15.44.04.301,-115.1,28.8,0,,,71787.5,13.93,-1.47,0.46,-0.56,26.6,3.2,-5.7,35.94,,,,,,,,,,
15.44.04.313,-134.9,33.7,0,,,71787.5,13.93,-0.83,-0.02,0.05,10.6,4.8,-7.6,35.42,,,,,,,,,,
15.44.04.323,-143.0,35.8,0,,,71787.5,13.93,-0.74,-0.13,-0.33,6.0,37.0,-29.2,35.13,,,,,,,,,,
15.44.04.335,-164.1,41.0,0,,,71787.5,13.93,-1.26,0.06,-0.67,-25.7,6.4,10.1,35.64,,,,,,,,,,
15.44.04.343,-152.6,38.2,0,,,71787.5,13.93,-0.91,0.11,-0.13,21.1,13.6,-2.1,35.61,,,,,,,,,,
15.44.04.353,-144.1,36.0,0,,,71787.5,13.93,-0.91,0.34,-0.53,-16.9,-6.5,4.0,35.64,,,,,,,,,,
15.44.04.364,-143.9,36.0,0,,,71787.5,13.93,-0.81,0.22,-0.02,35.6,-25.7,7.9,35.48,,,,,,,,,,
15.44.04.374,-133.3,33.3,0,,,71787.5,13.93,-1.1,-0.08,0.17,-10.6,29.9,-3.1,35.75,,,,,,,,,,
15.44.04.384,-131.2,32.8,0,,,71787.5,13.93,-0.8,0.52,0.02,-20.5,0.6,22.1,35.47,,,,,,,,,,
15.44.04.394,-160.3,40.1,0,,,71787.5,13.93,-0.57,0.03,-0.2,18.3,3.3,-10.9,35.32,,,,,,,,,,
15.44.04.406,40.6,10.2,0,,,71787.5,13.93,-0.91,0.08,-0.37,9.3,-7.7,-6.1,35.66,,,,,,,,,,
15.44.04.416,106.3,26.6,0,,,71787.5,13.93,-0.77,0.12,-0.25,1.2,11.7,0.5,35.43,,,,,,,,,,
15.44.04.426,168.6,42.2,0,,,71787.5,13.93,-0.82,0.32,0.1,-16.0,1.7,18.5,35.2,,,,,,,,,,
15.44.04.435,201.6,50.4,0,,,71787.5,13.93,-1.15,0.12,0.27,32.4,22.3,-5.9,35.44,,,,,,,,,,
15.44.04.445,265.2,66.3,0,,,71787.5,13.93,-0.81,-0.05,0.18,-18.4,-4.6,3.3,35.46,,,,,,,,,,
15.44.04.453,291.5,72.9,0,,,71787.5,13.93,-0.86,-0.23,-0.28,-2.6,22.9,15.4,35.57,,,,,,,,,,
15.44.04.463,332.8,83.2,0,,,71787.5,13.93,-0.62,-0.18,-0.2,-9.2,-17.1,-1.0,35.55,,,,,,,,,,
15.44.04.474,402.7,100.7,0,,,71787.5,13.93,-0.68,0.51,-0.1,-48.0,20.5,-3.3,35.46,,,,,,,,,,
15.44.04.483,403.6,100.9,0,,,71787.5,13.93,-0.81,-0.12,-0.33,4.5,-9.5,15.8,35.17,,,,,,,,,,
15.44.04.494,341.7,85.4,0,,,71787.5,13.93,-1.09,0.24,0.09,0.3,13.9,-29.3,35.5,,,,,,,,,,
15.44.04.502,415.7,103.9,0,,,71787.5,13.93,-0.65,-0.03,0.04,26.8,5.8,2.8,35.28,,,,,,,,,,
15.44.04.511,388.3,97.1,0,,,71787.5,13.93,-0.9,0.08,-0.1,-6.2,5.1,22.7,35.33,,,,,,,,,,
15.44.04.521,385.8,96.4,0,,,71787.5,13.93,-0.75,-0.23,-0.01,-5.3,-14.6,-6.0,35.29,,,,,,,,,,
15.44.04.532,408.7,102.2,0,,,71787.5,13.93,-0.8,-0.48,-0.13,-20.8,-9.4,27.0,35.55,,,,,,,,,,
15.44.04.540,340.6,85.2,0,,,71787.5,13.93,-0.7,0.23,0.01,8.8,9.9,-16.0,35.24,,,,,,,,,,
15.44.04.550,321.2,80.3,1,8.0,106.4,71787.5,13.93,-0.9,-0.67,0.19,-21.6,-26.1,-15.4,35.26,,,,,,,,,,
15.44.04.561,275.5,68.9,0,,,71787.5,13.93,-0.68,-0.08,0.46,-20.1,28.9,10.6,35.16,,,,,,,,,,
15.44.04.567,228.0,57.0,0,,,71787.5,13.93,-0.95,-0.4,0.25,6.5,9.1,-6.1,35.61,,,,,,,,,,
15.44.04.577,238.3,59.6,0,,,71787.5,13.93,-0.89,-0.41,-0.03,-5.2,-11.3,-11.3,35.33,,,,,,,,,,
15.44.04.587,157.2,39.3,0,,,71787.5,13.93,-0.64,-0.19,0.08,-14.8,24.5,-3.3,35.57,,,,,,,,,,
15.44.04.599,119.8,30.0,0,,,71787.5,13.93,-0.68,0.11,-0.51,2.6,3.2,-5.5,35.91,,,,,,,,,,
15.44.04.610,28.2,7.0,0,,,71787.5,13.93,-0.66,-0.59,0.2,4.0,16.6,24.2,35.42,,,,,,,,,,
15.44.04.622,11.8,3.0,0,,,71787.5,13.93,-0.88,-0.01,-0.04,13.7,-11.2,-1.3,35.33,,,,,,,,,,
15.44.04.631,31.9,8.0,0,,,71787.5,13.93,-0.8,0.19,0.29,-18.2,-0.7,1.6,35.34,,,,,,,,,,
15.44.04.641,57.5,14.4,0,,,71787.5,13.93,-0.8,-0.31,-0.45,16.7,29.5,-4.4,35.49,,,,,,,,,,
15.44.04.650,33.5,8.4,0,,,71787.5,13.93,-0.52,-0.04,-0.12,-3.1,40.8,-4.7,35.18,,,,,,,,,,
15.44.04.658,63.7,15.9,0,,,71787.5,13.93,-0.54,-0.15,-0.11,9.5,13.4,-5.6,35.53,,,,,,,,,,
15.44.04.668,61.0,15.2,0,,,71787.5,13.93,-0.77,0.13,-0.1,-29.7,1.5,-2.2,35.27,,,,,,,,,,
15.44.04.678,78.3,19.6,0,,,71787.5,13.93,-0.69,-0.27,-0.24,-20.9,0.6,-26.9,35.64,,,,,,,,,,
15.44.04.688,44.6,11.2,0,,,71787.5,13.93,-0.79,-0.07,-0.0,-14.7,11.8,-3.7,35.53,,,,,,,,,,
15.44.04.699,55.6,13.9,0,,,71787.5,13.93,-0.56,-0.58,-0.01,25.1,-14.9,-7.4,35.25,,,,,,,,,,
15.44.04.709,59.7,14.9,0,,,71787.5,13.93,-1.11,-0.17,-0.01,66.3,14.7,8.8,35.68,,,,,,,,,,
15.44.04.718,45.0,11.2,0,,,71787.5,13.93,-0.94,-0.16,0.21,17.4,19.6,-18.2,35.33,,,,,,,,,,
15.44.04.726,17.8,4.4,0,,,71787.5,13.93,-0.68,-0.24,-0.23,-4.2,32.3,-6.6,35.43,,,,,,,,,,
15.44.04.735,9.5,2.4,0,,,71787.5,13.93,-0.51,0.02,-0.41,34.6,-4.5,6.3,35.65,,,,,,,,,,
15.44.04.746,35.8,9.0,0,,,71787.5,13.93,-0.73,0.23,-0.36,24.1,6.5,-21.4,35.15,,,,,,,,,,
15.44.04.753,-3.1,0.8,0,,,71787.5,13.93,-1.01,-0.67,0.22,-3.6,0.6,7.0,35.56,,,,,,,,,,
15.44.04.764,-0.8,0.2,0,,,71787.5,13.93,-0.92,-0.1,-0.16,-1.0,41.1,-22.7,35.51,,,,,,,,,,
15.44.04.775,-13.7,3.4,0,,,71787.5,13.93,-0.71,-0.6,-0.38,-27.9,-9.9,-2.7,35.54,,,,,,,,,,
15.44.04.784,-52.2,13.0,0,,,71787.5,13.93,-0.79,-0.39,-0.0,30.4,-7.6,-14.1,35.47,,,,,,,,,,
15.44.04.796,-31.5,7.9,0,,,71787.5,13.93,-0.97,-0.2,-0.66,-25.1,19.1,-16.5,35.45,,,,,,,,,,
15.44.04.807,-13.5,3.4,0,,,71787.5,13.93,-0.72,-0.37,0.04,3.0,4.1,-17.4,35.28,,,,,,,,,,
15.44.04.818,-60.1,15.0,0,,,71787.5,13.93,-0.61,-0.32,-0.67,5.5,17.4,-2.4,35.56,,,,,,,,,,
15.44.04.828,-57.5,14.4,0,,,71787.5,13.93,-0.66,-0.8,-0.51,3.0,-10.6,1.2,35.61,,,,,,,,,,
15.44.04.839,-23.5,5.9,0,,,71787.5,13.93,-0.87,0.08,-0.66,-25.5,13.9,22.5,35.27,,,,,,,,,,
15.44.04.848,-39.4,9.8,0,,,71787.5,13.93,-0.94,-0.66,-0.26,3.4,14.6,19.0,35.73,,,,,,,,,,
15.44.04.857,-61.7,15.4,0,,,71787.5,13.93,-0.82,-0.61,-0.56,-2.2,3.7,9.0,35.47,,,,,,,,,,
15.44.04.865,-61.7,15.4,0,,,71787.5,13.93,-0.68,-0.45,-0.74,-3.1,20.9,16.4,35.59,,,,,,,,,,
15.44.04.875,-73.4,18.4,0,,,71787.5,13.93,-0.4,-0.11,-0.04,-8.1,19.7,-0.3,35.52,,,,,,,,,,
15.44.04.886,-56.2,14.0,0,,,71787.5,13.93,-0.63,-0.29,-0.06,6.4,11.0,15.2,35.35,,,,,,,,,,
15.44.04.895,-91.8,23.0,0,,,71787.5,13.93,-0.72,0.25,-0.4,-17.9,12.3,-15.0,35.53,,,,,,,,,,
15.44.04.904,-102.0,25.5,0,,,71787.5,13.93,-1.05,0.08,0.61,17.7,42.0,-11.1,35.66,,,,,,,,,,
15.44.04.913,-102.2,25.6,0,,,71787.5,13.93,-1.07,-0.5,0.05,2.4,5.7,-7.8,35.6,,,,,,,,,,
15.44.04.923,-93.0,23.2,0,,,71787.5,13.93,-1.05,-0.66,-0.03,-38.8,20.1,8.6,35.55,,,,,,,,,,
15.44.04.931,-97.9,24.5,0,,,71787.5,13.93,-0.64,-0.3,0.03,-0.3,18.9,-9.4,35.4,,,,,,,,,,
15.44.04.938,-122.7,30.7,0,,,71787.5,13.93,-0.6,-0.58,0.23,-29.7,5.5,-2.3,35.58,,,,,,,,,,
15.44.04.949,-102.4,25.6,0,,,71787.5,13.93,-1.27,-0.57,-0.07,14.1,11.7,22.7,35.6,,,,,,,,,,
15.44.04.957,-128.6,32.2,0,,,71787.5,13.93,-0.87,-0.16,-0.12,-2.2,29.5,2.8,35.74,,,,,,,,,,
15.44.04.965,-132.7,33.2,0,,,71787.5,13.93,-1.26,-0.43,0.39,-39.8,6.0,7.3,35.57,,,,,,,,,,
15.44.04.974,-119.3,29.8,0,,,71787.5,13.93,-0.91,-0.01,0.35,-4.7,-23.3,18.9,35.29,,,,,,,,,,
15.44.04.983,-140.7,35.2,0,,,71787.5,13.93,-0.65,-0.04,0.04,13.9,9.0,-19.4,35.67,,,,,,,,,,
15.44.04.995,-173.5,43.4,0,,,71787.5,13.93,-1.35,-0.21,0.06,4.9,10.6,-16.0,35.46,,,,,,,,,,
15.44.05.005,-173.7,43.4,0,,,71787.5,13.93,-0.56,-0.1,0.13,-2.6,2.4,3.0,35.61,97.1,,,,,,,,,
15.44.05.015,-148.1,37.0,0,,,71787.5,13.93,-1.15,-0.52,-0.32,22.4,7.8,-3.4,35.65,,,,,,,,,,
15.44.05.026,32.0,8.0,0,,,71787.5,13.93,-0.78,-0.57,0.36,-0.7,-4.8,4.5,35.54,,,,,,,,,,
15.44.05.034,52.5,13.1,0,,,71787.5,13.93,-0.96,-0.07,0.4,-3.5,16.4,7.4,35.33,,,,,,,,,,
15.44.05.044,140.1,35.0,0,,,71787.5,13.93,-1.25,-0.24,-0.16,-14.5,33.1,-2.8,35.5,,,,,,,,,,
15.44.05.053,162.6,40.6,0,,,71787.5,13.93,-1.13,-0.39,0.11,0.9,32.9,4.6,35.62,,,,,,,,,,
15.44.05.063,227.0,56.8,0,,,71787.5,13.93,-1.08,0.01,0.33,-7.2,5.0,-7.1,35.4,,,,,,,,,,
15.44.05.074,242.9,60.7,0,,,71787.5,13.93,-1.39,-0.38,0.09,3.8,-16.6,-18.5,35.46,,,,,,,,,,
15.44.05.083,307.1,76.8,0,,,71787.5,13.93,-1.19,-0.22,-0.5,2.4,3.9,-10.8,35.54,,,,,,,,,,
15.44.05.094,309.6,77.4,0,,,71787.5,13.93,-0.99,-0.02,0.44,43.4,42.4,0.9,35.66,,,,,,,,,,
15.44.05.105,396.4,99.1,0,,,71787.5,13.93,-1.03,0.11,-0.31,-7.0,-10.6,15.2,35.35,,,,,,,,,,
15.44.05.116,378.8,94.7,0,,,71787.5,13.93,-1.28,0.05,0.21,-10.0,22.2,7.7,35.42,,,,,,,,,,
15.44.05.126,371.9,93.0,0,,,71787.5,13.93,-1.07,-0.03,0.16,16.0,-19.8,-1.6,35.56,,,,,,,,,,
15.44.05.137,406.9,101.7,0,,,71787.5,13.93,-1.04,0.11,-0.34,14.5,3.3,-14.7,35.37,,,,,,,,,,
15.44.05.147,407.3,101.8,0,,,71787.5,13.93,-1.16,-0.22,-0.38,-1.9,7.2,-17.3,35.34,,,,,,,,,,
15.44.05.157,350.3,87.6,0,,,71787.5,13.93,-1.51,-0.27,-0.26,36.6,2.4,-1.1,35.66,,,,,,,,,,
15.44.05.167,329.9,82.5,0,,,71787.5,13.93,-0.88,-0.12,-0.02,-3.3,20.6,-5.5,35.55,,,,,,,,,,
15.44.05.178,323.3,80.8,1,9.0,95.5,71787.5,13.93,-1.04,0.14,-0.67,-36.7,10.0,-7.6,35.44,,,,,,,,,,
15.44.05.187,281.7,70.4,0,,,71787.5,13.93,-0.7,-0.22,-0.47,-1.1,-2.7,12.3,35.44,,,,,,,,,,
15.44.05.197,224.7,56.2,0,,,71787.5,13.93,-0.94,-0.41,-0.34,2.1,-11.0,17.0,35.71,,,,,,,,,,
15.44.05.206,188.8,47.2,0,,,71787.5,13.93,-1.15,-0.24,0.43,1.5,-6.9,-4.0,35.21,,,,,,,,,,
15.44.05.218,163.1,40.8,0,,,71787.5,13.93,-0.92,-0.01,-0.32,2.0,-24.8,2.7,35.39,,,,,,,,,,
15.44.05.228,70.3,17.6,0,,,71787.5,13.93,-0.83,0.13,0.01,-31.3,4.4,2.8,35.48,,,,,,,,,,
15.44.05.237,31.8,8.0,0,,,71787.5,13.93,-0.95,0.09,-0.73,5.9,-7.3,-0.5,35.39,,,,,,,,,,
15.44.05.245,-3.5,0.9,0,,,71787.5,13.93,-1.19,0.3,-0.43,-36.1,-1.3,-1.4,35.29,,,,,,,,,,
15.44.05.256,31.6,7.9,0,,,71787.5,13.93,-0.73,0.09,0.26,-31.4,-0.7,-10.3,35.39,,,,,,,,,,
15.44.05.265,39.8,10.0,0,,,71787.5,13.93,-1.4,0.26,-0.36,26.9,25.2,-1.4,35.41,,,,,,,,,,
15.44.05.274,44.2,11.0,0,,,71787.5,13.93,-1.15,0.0,-0.43,2.0,-18.2,9.8,35.76,,,,,,,,,,
15.44.05.282,20.1,5.0,0,,,71787.5,13.93,-1.05,0.3,0.32,-12.6,-2.7,-0.8,35.43,,,,,,,,,,
15.44.05.292,57.4,14.4,0,,,71787.5,13.93,-0.72,0.6,-0.39,36.8,-12.5,-13.9,35.61,,,,,,,,,,
15.44.05.300,74.9,18.7,0,,,71787.5,13.93,-0.69,0.42,-0.55,21.3,21.0,1.7,35.53,,,,,,,,,,
15.44.05.310,53.5,13.4,0,,,71787.5,13.93,-0.89,0.03,-0.36,3.9,-10.6,0.8,35.39,,,,,,,,,,
15.44.05.319,71.9,18.0,0,,,71787.5,13.93,-0.89,0.2,-0.16,-20.7,14.9,17.1,35.57,,,,,,,,,,
15.44.05.331,55.4,13.8,0,,,71787.5,13.93,-0.68,0.16,0.14,-0.3,7.9,-13.9,35.39,,,,,,,,,,
15.44.05.340,83.6,20.9,0,,,71787.5,13.93,-1.12,-0.19,0.33,-12.4,-12.8,21.3,35.34,,,,,,,,,,
15.44.05.348,44.3,11.1,0,,,71787.5,13.93,-0.77,0.08,-0.2,-15.1,13.5,3.5,35.46,,,,,,,,,,
15.44.05.358,8.1,2.0,0,,,71787.5,13.93,-0.98,0.41,-0.41,3.8,12.7,10.0,35.53,,,,,,,,,,
15.44.05.366,20.8,5.2,0,,,71787.5,13.93,-0.74,-0.41,0.19,-17.5,-0.4,-5.7,35.5,,,,,,,,,,
15.44.05.377,-4.5,1.1,0,,,71787.5,13.93,-0.76,0.21,0.46,12.2,12.5,11.9,35.56,,,,,,,,,,
15.44.05.386,-39.5,9.9,0,,,71787.5,13.93,-1.02,0.42,0.15,26.1,35.0,-15.1,35.27,,,,,,,,,,
15.44.05.395,-17.7,4.4,0,,,71787.5,13.93,-0.86,-0.03,0.0,22.8,-12.1,-10.8,35.69,,,,,,,,,,
15.44.05.405,-44.2,11.0,0,,,71787.5,13.93,-0.76,-0.52,0.31,-10.8,26.0,4.6,35.38,,,,,,,,,,
15.44.05.412,-31.3,7.8,0,,,71787.5,13.93,-0.97,0.02,0.29,1.5,-19.7,15.2,35.59,,,,,,,,,,
15.44.05.424,-48.0,12.0,0,,,71787.5,13.93,-0.74,-0.53,-0.13,48.2,1.9,-2.4,35.85,,,,,,,,,,
15.44.05.432,-73.1,18.3,0,,,71787.5,13.93,-0.62,0.19,0.26,44.8,7.9,-14.0,35.78,,,,,,,,,,
15.44.05.441,-44.7,11.2,0,,,71787.5,13.93,-0.77,0.1,-0.07,7.7,25.5,-5.5,35.49,,,,,,,,,,
15.44.05.452,-46.6,11.6,0,,,71787.5,13.93,-1.04,-0.14,-0.49,23.5,18.2,18.8,35.28,,,,,,,,,,
15.44.05.460,-99.4,24.8,0,,,71787.5,13.93,-0.89,-0.23,-0.28,32.3,15.6,-1.9,35.59,,,,,,,,,,
15.44.05.470,-75.0,18.8,0,,,71787.5,13.93,-1.1,-0.37,-0.44,-54.1,-6.5,-10.1,35.79,,,,,,,,,,
15.44.05.478,-91.7,22.9,0,,,71787.5,13.93,-0.29,-0.21,-0.24,-12.1,19.3,-7.4,35.34,,,,,,,,,,
15.44.05.488,-80.3,20.1,0,,,71787.5,13.93,-0.79,0.04,-0.31,-15.8,12.5,-2.4,35.53,,,,,,,,,,
15.44.05.497,-87.4,21.8,0,,,71787.5,13.93,-0.46,-0.26,-0.27,25.7,17.2,-16.0,35.63,,,,,,,,,,
15.44.05.506,-80.7,20.2,0,,,71787.5,13.93,-0.81,-0.64,-0.65,-9.9,1.2,-11.6,35.91,,,,,,,,,,
15.44.05.516,-85.6,21.4,0,,,71787.5,13.93,-0.93,-0.51,-0.12,17.3,10.2,-18.8,35.57,,,,,,,,,,
15.44.05.523,-103.1,25.8,0,,,71787.5,13.93,-0.75,-0.26,-0.0,22.5,-18.9,15.0,35.08,,,,,,,,,,
15.44.05.532,-99.6,24.9,0,,,71787.5,13.93,-0.33,-0.39,-0.08,-5.2,22.2,-3.6,35.6,,,,,,,,,,
15.44.05.542,-123.0,30.8,0,,,71787.5,13.93,-0.6,-0.25,-0.23,6.5,8.9,-8.9,35.53,,,,,,,,,,
15.44.05.550,-97.8,24.4,0,,,71787.5,13.93,-0.89,0.04,0.07,26.9,-22.1,-13.7,35.69,,,,,,,,,,
15.44.05.563,-130.3,32.6,0,,,71787.5,13.93,-0.93,-0.18,-0.39,19.5,6.1,22.1,35.36,,,,,,,,,,
15.44.05.569,-158.8,39.7,0,,,71787.5,13.93,-0.79,-0.15,-0.37,-12.8,19.0,-10.2,35.76,,,,,,,,,,
15.44.05.580,-116.9,29.2,0,,,71787.5,13.93,-1.03,-0.41,-0.14,-5.1,30.0,18.3,35.58,,,,,,,,,,
15.44.05.588,-121.3,30.3,0,,,71787.5,13.93,-0.67,-0.23,-0.65,-15.9,-6.5,-6.9,35.73,,,,,,,,,,
15.44.05.596,-145.1,36.3,0,,,71787.5,13.93,-1.01,-0.25,-0.32,2.5,43.4,-4.5,35.44,,,,,,,,,,
15.44.05.606,-150.2,37.6,0,,,71787.5,13.93,-1.12,-0.02,-0.46,55.8,5.0,-1.9,35.64,,,,,,,,,,
15.44.05.617,-146.2,36.6,0,,,71787.5,13.93,-0.68,-0.45,-0.5,30.1,-6.7,10.3,35.69,,,,,,,,,,
15.44.05.625,-194.4,48.6,0,,,71787.5,13.93,-1.05,-0.7,-0.01,-33.3,-5.5,14.1,35.76,,,,,,,,,,
15.44.05.633,-172.7,43.2,0,,,71787.5,13.93,-1.21,-0.29,-0.06,18.9,16.5,-11.3,35.8,,,,,,,,,,
15.44.05.642,-161.7,40.4,0,,,71787.5,13.93,-0.75,-0.05,-0.46,-43.5,-12.2,-9.4,35.55,,,,,,,,,,
15.44.05.650,12.3,3.1,0,,,71787.5,13.93,-0.84,0.0,-0.22,-1.6,-25.6,-2.2,35.61,,,,,,,,,,
15.44.05.660,74.2,18.6,0,,,71787.5,13.93,-0.54,-0.36,-0.29,14.5,33.2,-5.6,35.7,,,,,,,,,,
15.44.05.670,145.6,36.4,0,,,71787.5,13.93,-0.89,-0.24,-0.48,-3.4,4.1,-3.6,35.37,,,,,,,,,,
15.44.05.679,178.7,44.7,0,,,71787.5,13.93,-0.75,-0.51,-0.54,27.6,11.0,8.9,35.5,,,,,,,,,,
15.44.05.691,261.2,65.3,0,,,71787.5,13.93,-1.16,-0.29,-0.2,-0.9,28.4,-4.6,35.49,,,,,,,,,,
15.44.05.701,264.4,66.1,0,,,71787.5,13.93,-0.94,-0.43,0.11,-6.7,-7.7,-7.5,35.37,,,,,,,,,,
15.44.05.710,347.0,86.8,0,,,71787.5,13.93,-0.92,0.0,0.11,12.7,20.3,13.7,35.57,,,,,,,,,,
15.44.05.718,332.7,83.2,0,,,71787.5,13.93,-0.95,-0.21,-0.04,15.0,0.6,6.3,35.19,,,,,,,,,,
15.44.05.725,381.2,95.3,0,,,71787.5,13.93,-0.98,-0.41,-0.62,-5.2,3.9,-12.5,35.35,,,,,,,,,,
15.44.05.736,407.1,101.8,0,,,71787.5,13.93,-0.84,-0.38,0.08,0.9,-20.8,26.0,35.66,,,,,,,,,,
15.44.05.747,373.4,93.4,0,,,71787.5,13.93,-0.86,-0.69,0.31,-4.4,-5.8,14.0,35.79,,,,,,,,,,
15.44.05.758,453.1,113.3,0,,,71787.5,13.93,-0.9,-0.61,-0.05,5.9,-15.8,10.7,35.5,,,,,,,,,,
15.44.05.766,434.8,108.7,0,,,71787.5,13.93,-0.88,-0.02,-0.29,-9.0,-7.8,9.2,35.63,,,,,,,,,,
15.44.05.775,412.9,103.2,0,,,71787.5,13.93,-0.75,0.06,0.15,2.0,12.8,9.8,35.56,,,,,,,,,,
15.44.05.787,381.6,95.4,0,,,71787.5,13.93,-1.25,-0.97,-0.22,-10.2,7.2,3.6,35.58,,,,,,,,,,
15.44.05.795,294.7,73.7,0,,,71787.5,13.93,-0.66,-0.39,-0.11,24.7,12.5,-20.4,35.73,,,,,,,,,,
15.44.05.806,297.0,74.2,0,,,71787.5,13.93,-0.88,-0.53,-0.02,16.5,-15.1,12.5,35.84,,,,,,,,,,
15.44.05.815,266.5,66.6,0,,,71787.5,13.93,-1.01,-0.06,0.26,8.1,4.8,1.7,35.48,,,,,,,,,,
15.44.05.824,211.2,52.8,1,10.0,92.9,71787.5,13.93,-0.79,0.34,0.28,29.6,-5.1,19.4,35.31,,,,,,,,,,
15.44.05.833,190.7,47.7,0,,,71787.5,13.93,-1.31,-0.36,0.12,-28.3,17.2,1.6,35.5,,,,,,,,,,
15.44.05.843,169.0,42.2,0,,,71787.5,13.93,-0.67,-0.22,0.19,14.0,13.7,10.8,35.25,,,,,,,,,,
15.44.05.852,83.2,20.8,0,,,71787.5,13.93,-0.6,0.23,-0.18,10.7,-21.0,1.0,35.34,,,,,,,,,,
15.44.05.863,14.4,3.6,0,,,71787.5,13.93,-0.88,-0.21,-0.15,-11.9,8.2,0.1,35.39,,,,,,,,,,
15.44.05.872,14.6,3.6,0,,,71787.5,13.93,-1.11,-0.13,0.19,-17.5,16.7,-1.2,35.43,,,,,,,,,,
15.44.05.882,-1.9,0.5,0,,,71787.5,13.93,-1.21,-0.15,0.11,4.7,6.8,-7.5,35.45,,,,,,,,,,
15.44.05.892,7.7,1.9,0,,,71787.5,13.93,-1.21,0.09,0.22,3.3,15.3,12.8,35.79,,,,,,,,,,
15.44.05.902,53.6,13.4,0,,,71787.5,13.93,-1.14,-0.16,-0.25,-1.9,14.2,17.5,35.66,,,,,,,,,,
15.44.05.911,69.9,17.5,0,,,71787.5,13.93,-0.86,0.1,-0.37,-12.6,17.3,-0.6,35.28,,,,,,,,,,
15.44.05.922,84.0,21.0,0,,,71787.5,13.93,-1.09,-0.29,-0.05,21.6,-3.9,0.2,35.47,,,,,,,,,,
15.44.05.930,65.4,16.4,0,,,71787.5,13.93,-1.0,-0.16,-0.31,-0.5,2.6,15.6,35.65,,,,,,,,,,
15.44.05.939,60.8,15.2,0,,,71787.5,13.93,-0.88,-0.16,0.05,2.5,2.0,-4.7,35.05,,,,,,,,,,
15.44.05.949,79.3,19.8,0,,,71787.5,13.93,-1.09,-0.55,-0.34,-6.1,1.7,3.5,35.18,,,,,,,,,,
15.44.05.958,5.2,1.3,0,,,71787.5,13.93,-0.84,0.11,-0.19,2.1,-3.4,6.4,35.22,,,,,,,,,,
15.44.05.967,54.5,13.6,0,,,71787.5,13.93,-1.24,0.2,-0.26,-13.0,-3.9,-7.8,35.84,,,,,,,,,,
15.44.05.976,-1.7,0.4,0,,,71787.5,13.93,-0.88,-0.44,-0.29,-30.1,-4.0,6.3,35.33,,,,,,,,,,
15.44.05.984,22.6,5.6,0,,,71787.5,13.93,-1.21,-0.4,-0.38,10.7,-11.1,-29.6,35.56,,,,,,,,,,
15.44.05.993,7.4,1.8,0,,,71787.5,13.93,-0.85,0.03,-0.12,-15.8,-3.1,-1.4,35.31,,,,,,,,,,
15.44.06.002,5.4,1.4,0,,,71787.5,13.93,-0.91,-0.2,-0.57,-0.5,32.6,-7.0,35.61,,,,,,,,,,
15.44.06.011,-3.1,0.8,0,,,71787.5,13.93,-1.07,0.04,-0.27,3.1,-17.2,10.5,35.45,,,,,,,,,,
15.44.06.021,-41.5,10.4,0,,,71787.5,13.93,-0.91,-0.26,-0.65,21.8,-22.4,5.5,35.49,,,,,,,,,,
15.44.06.028,-6.1,1.5,0,,,71787.5,13.93,-1.12,0.49,-0.23,3.1,27.7,5.8,35.32,,,,,,,,,,
15.44.06.036,-20.2,5.0,0,,,71787.5,13.93,-1.17,-0.1,0.15,17.8,20.7,-14.6,35.62,,,,,,,,,,
15.44.06.046,-20.4,5.1,0,,,71787.5,13.93,-1.25,-0.17,-0.59,14.1,-11.3,-24.4,35.51,,,,,,,,,,
15.44.06.055,-65.3,16.3,0,,,71787.5,13.93,-1.22,-0.1,-0.17,10.1,4.0,3.9,35.73,,,,,,,,,,
15.44.06.067,-22.8,5.7,0,,,71787.5,13.93,-1.17,0.1,-0.67,-10.4,7.8,-0.4,35.59,,,,,,,,,,
15.44.06.076,-33.4,8.4,0,,,71787.5,13.93,-1.01,0.1,0.07,-38.0,-3.4,15.4,35.78,,,,,,,,,,
15.44.06.085,-67.4,16.8,0,,,71787.5,13.93,-0.98,0.12,-0.29,-1.0,20.1,-12.8,35.6,,,,,,,,,,
15.44.06.096,-51.5,12.9,0,,,71787.5,13.93,-0.92,-0.27,-0.27,-3.9,12.9,29.8,35.53,,,,,,,,,,
15.44.06.106,-76.2,19.0,0,,,71787.5,13.93,-0.91,0.47,-0.77,-5.8,13.6,1.1,35.46,,,,,,,,,,
15.44.06.115,-63.3,15.8,0,,,71787.5,13.93,-0.98,-0.23,-0.23,-14.5,8.9,-2.2,35.46,,,,,,,,,,
15.44.06.124,-98.6,24.6,0,,,71787.5,13.93,-0.85,0.48,-0.09,21.4,-6.8,-31.7,35.48,,,,,,,,,,
15.44.06.133,-114.9,28.7,0,,,71787.5,13.93,-0.84,0.1,-0.13,12.6,-3.7,5.0,35.69,,,,,,,,,,
15.44.06.143,-88.0,22.0,0,,,71787.5,13.93,-0.57,0.51,-0.51,2.2,-2.6,9.7,35.54,,,,,,,,,,
15.44.06.152,-89.2,22.3,0,,,71787.5,13.93,-1.33,0.48,-0.36,-25.8,8.4,19.6,35.25,,,,,,,,,,
15.44.06.163,-75.7,18.9,0,,,71787.5,13.93,-0.56,0.18,-0.28,34.1,8.1,2.1,35.61,,,,,,,,,,
15.44.06.172,-101.7,25.4,0,,,71787.5,13.93,-0.96,0.06,-0.03,-30.4,2.5,22.4,35.35,,,,,,,,,,
15.44.06.183,-119.0,29.8,0,,,71787.5,13.93,-0.67,-0.29,0.04,19.9,6.2,10.5,35.53,,,,,,,,,,
15.44.06.193,-124.3,31.1,0,,,71787.5,13.93,-0.84,0.05,-0.09,36.3,31.2,14.6,35.68,,,,,,,,,,
15.44.06.201,-133.4,33.4,0,,,71787.5,13.93,-1.14,-0.03,-0.13,36.2,1.3,18.3,35.5,,,,,,,,,,
15.44.06.213,-128.7,32.2,0,,,71736.0,13.94,-1.17,-0.77,-0.25,4.9,10.2,11.5,35.33,,,,,,,,,,
15.44.06.223,-200.3,50.1,0,,,71736.0,13.94,-0.59,-0.31,0.34,-6.4,4.4,1.2,35.51,,,,,,,,,,
15.44.06.232,-164.9,41.2,0,,,71736.0,13.94,-0.87,0.04,-0.26,-2.5,2.6,4.9,35.68,,,,,,,,,,
15.44.06.242,-168.2,42.0,0,,,71736.0,13.94,-0.96,-0.28,-0.13,-7.1,-1.9,-13.7,35.81,,,,,,,,,,
15.44.06.250,-143.9,36.0,0,,,71736.0,13.94,-1.19,-0.23,0.44,43.8,-7.4,-0.6,35.37,,,,,,,,,,
15.44.06.260,-161.1,40.3,0,,,71736.0,13.94,-0.97,-0.15,0.32,6.2,2.5,-8.2,35.45,,,,,,,,,,
15.44.06.271,5.1,1.3,0,,,71736.0,13.94,-0.94,0.14,-0.21,-9.9,-26.6,-0.1,35.48,,,,,,,,,,
15.44.06.281,67.4,16.8,0,,,71736.0,13.94,-0.51,-0.07,0.0,-10.9,5.0,-17.2,35.6,,,,,,,,,,
15.44.06.291,102.2,25.6,0,,,71736.0,13.94,-0.68,-0.02,0.08,11.9,0.2,9.7,35.64,,,,,,,,,,
15.44.06.301,159.8,40.0,0,,,71736.0,13.94,-0.93,0.32,-0.3,-3.5,5.0,-23.9,35.6,,,,,,,,,,
15.44.06.312,243.2,60.8,0,,,71736.0,13.94,-0.68,-0.44,0.4,10.7,11.8,7.5,35.64,,,,,,,,,,
15.44.06.323,278.8,69.7,0,,,71736.0,13.94,-0.67,0.15,-0.19,-5.2,2.7,-11.2,35.33,,,,,,,,,,
15.44.06.332,354.1,88.5,0,,,71736.0,13.94,-0.34,0.12,0.03,-7.8,-10.1,1.4,35.32,,,,,,,,,,
15.44.06.343,354.0,88.5,0,,,71736.0,13.94,-0.91,-0.1,-0.21,-21.9,-7.4,13.1,35.43,,,,,,,,,,
15.44.06.353,386.8,96.7,0,,,71736.0,13.94,-0.82,-0.29,0.15,14.9,2.2,6.6,35.64,,,,,,,,,,
15.44.06.362,426.5,106.6,0,,,71736.0,13.94,-1.07,-0.23,-0.1,-6.4,-18.7,-5.5,35.63,,,,,,,,,,
15.44.06.371,437.6,109.4,0,,,71736.0,13.94,-0.75,-0.17,-0.1,15.7,-8.5,-27.4,35.34,,,,,,,,,,
15.44.06.381,405.5,101.4,0,,,71736.0,13.94,-0.58,0.28,-0.07,6.9,-21.1,10.7,35.44,,,,,,,,,,
15.44.06.391,386.3,96.6,1,11.0,105.8,71736.0,13.94,-0.51,-0.64,-0.37,16.7,-16.1,-23.3,35.2,,,,,,,,,,
15.44.06.400,413.1,103.3,0,,,71736.0,13.94,-0.94,-0.34,-0.13,10.9,-6.7,-2.1,35.57,,,,,,,,,,
15.44.06.410,381.9,95.5,0,,,71736.0,13.94,-0.61,0.16,0.11,30.7,9.2,-10.7,35.56,,,,,,,,,,
15.44.06.420,331.4,82.8,0,,,71736.0,13.94,-0.68,-0.23,-0.23,22.0,6.2,-2.3,35.28,,,,,,,,,,
15.44.06.429,263.3,65.8,0,,,71736.0,13.94,-0.81,0.57,-0.31,8.6,-4.9,13.0,35.44,,,,,,,,,,
15.44.06.440,283.8,71.0,0,,,71736.0,13.94,-0.95,-0.99,-0.53,-27.1,35.1,-5.4,35.81,,,,,,,,,,
15.44.06.450,211.6,52.9,0,,,71736.0,13.94,-0.91,-0.16,-0.49,13.0,-18.2,-2.9,35.45,,,,,,,,,,
15.44.06.461,174.6,43.6,0,,,71736.0,13.94,-0.71,-0.14,-0.33,-21.1,9.5,10.2,35.49,,,,,,,,,,
15.44.06.472,73.4,18.4,0,,,71736.0,13.94,-0.98,-0.19,-0.39,-44.1,-14.6,-34.7,35.58,,,,,,,,,,
15.44.06.482,35.2,8.8,0,,,71736.0,13.94,-0.58,-0.62,-0.58,-15.8,13.6,18.7,35.73,,,,,,,,,,
15.44.06.491,12.4,3.1,0,,,71736.0,13.94,-0.34,-0.37,-0.23,6.3,-16.3,-3.8,35.57,,,,,,,,,,
15.44.06.500,25.7,6.4,0,,,71736.0,13.94,-0.96,-0.48,-0.19,-0.4,3.9,-8.7,35.45,,,,,,,,,,
15.44.06.510,40.5,10.1,0,,,71736.0,13.94,-0.54,-0.72,-0.4,-12.8,12.3,0.0,35.37,,,,,,,,,,
15.44.06.519,31.0,7.8,0,,,71736.0,13.94,-0.34,-0.65,-0.61,15.8,19.6,-14.9,35.8,,,,,,,,,,
15.44.06.530,63.9,16.0,0,,,71736.0,13.94,-0.9,-0.43,-0.09,43.7,5.3,-11.5,35.7,,,,,,,,,,
15.44.06.538,52.5,13.1,0,,,71736.0,13.94,-0.57,-0.17,-0.15,15.9,1.5,-1.8,35.18,,,,,,,,,,
15.44.06.546,109.4,27.4,0,,,71736.0,13.94,-0.87,-0.5,-0.46,6.4,0.7,-10.9,35.39,,,,,,,,,,
15.44.06.557,68.7,17.2,0,,,71736.0,13.94,-0.83,-0.15,-0.7,-7.3,13.3,-17.1,35.85,,,,,,,,,,
15.44.06.566,72.4,18.1,0,,,71736.0,13.94,-0.72,-0.17,0.05,21.6,5.0,4.5,35.21,,,,,,,,,,
15.44.06.579,87.1,21.8,0,,,71736.0,13.94,-0.76,0.02,-0.35,-6.4,-1.9,-16.6,35.74,,,,,,,,,,
15.44.06.590,47.9,12.0,0,,,71736.0,13.94,-0.64,-0.75,-0.22,4.2,29.5,-1.5,35.39,,,,,,,,,,
15.44.06.599,31.2,7.8,0,,,71736.0,13.94,-1.08,-0.86,-0.52,12.1,32.4,-14.8,35.44,,,,,,,,,,
15.44.06.608,6.6,1.6,0,,,71736.0,13.94,-0.92,-1.16,-0.03,-8.7,13.8,-8.3,35.72,,,,,,,,,,
15.44.06.620,7.5,1.9,0,,,71736.0,13.94,-0.57,-0.25,-0.26,-28.6,16.0,-5.1,35.59,,,,,,,,,,
15.44.06.629,-0.8,0.2,0,,,71736.0,13.94,-0.86,-0.33,-0.16,-8.3,-8.9,7.3,35.5,,,,,,,,,,
15.44.06.641,-23.4,5.8,0,,,71736.0,13.94,-0.66,-0.32,-0.27,-21.1,11.8,8.3,35.4,,,,,,,,,,
15.44.06.653,-45.5,11.4,0,,,71736.0,13.94,-0.86,-0.26,0.25,-6.5,1.9,12.8,35.55,,,,,,,,,,
15.44.06.664,-19.7,4.9,0,,,71736.0,13.94,-1.25,-0.07,-0.23,29.1,-2.0,-29.3,35.4,,,,,,,,,,
15.44.06.672,-59.2,14.8,0,,,71736.0,13.94,-1.22,-0.39,0.29,26.0,13.9,-3.8,35.39,,,,,,,,,,
15.44.06.681,-45.1,11.3,0,,,71736.0,13.94,-0.98,0.04,-0.68,-9.6,3.9,8.6,35.76,,,,,,,,,,
15.44.06.689,-38.4,9.6,0,,,71736.0,13.94,-0.64,-0.23,-0.67,4.8,-11.3,0.7,35.44,,,,,,,,,,
15.44.06.699,-55.5,13.9,0,,,71736.0,13.94,-1.07,-0.9,-0.03,-14.5,24.6,-12.8,35.61,,,,,,,,,,
15.44.06.710,-60.6,15.2,0,,,71736.0,13.94,-1.02,-0.47,-0.09,-1.5,18.3,-1.5,35.58,,,,,,,,,,
15.44.06.718,-55.2,13.8,0,,,71736.0,13.94,-0.85,0.09,-0.48,1.2,7.6,-8.9,35.85,,,,,,,,,,
15.44.06.728,-56.4,14.1,0,,,71736.0,13.94,-0.65,-0.31,-0.03,-18.1,0.9,-13.3,35.84,,,,,,,,,,
15.44.06.738,-120.2,30.0,0,,,71736.0,13.94,-0.91,-0.54,0.11,-32.3,13.0,15.5,35.46,,,,,,,,,,
15.44.06.748,-62.0,15.5,0,,,71736.0,13.94,-1.23,-0.74,-0.04,-5.5,24.0,-30.5,35.58,,,,,,,,,,
15.44.06.755,-94.6,23.6,0,,,71736.0,13.94,-0.6,0.22,-0.14,21.4,18.9,24.3,35.31,,,,,,,,,,
15.44.06.763,-67.1,16.8,0,,,71736.0,13.94,-1.07,-0.03,0.32,-18.1,-2.2,11.9,35.42,,,,,,,,,,
15.44.06.773,-86.0,21.5,0,,,71684.6,13.95,-0.78,-0.1,0.1,-21.5,-1.7,10.4,35.41,,,,,,,,,,
15.44.06.781,-88.6,22.2,0,,,71684.6,13.95,-1.29,0.47,-0.08,2.0,8.0,19.0,35.61,,,,,,,,,,
15.44.06.792,-98.7,24.7,0,,,71684.6,13.95,-0.69,-0.06,0.11,5.3,-26.8,5.1,35.47,,,,,,,,,,
15.44.06.801,-67.1,16.8,0,,,71684.6,13.95,-1.1,-0.26,-0.04,0.3,-20.5,-0.2,35.49,,,,,,,,,,
15.44.06.812,-127.3,31.8,0,,,71684.6,13.95,-1.13,-0.17,0.15,-0.7,-7.8,2.2,35.39,,,,,,,,,,
15.44.06.821,-109.6,27.4,0,,,71684.6,13.95,-1.05,-0.25,-0.2,16.4,-2.5,-4.5,35.7,,,,,,,,,,
15.44.06.829,-151.7,37.9,0,,,71684.6,13.95,-0.98,-0.2,-0.14,-16.8,17.4,5.9,35.35,,,,,,,,,,
15.44.06.839,-163.1,40.8,0,,,71684.6,13.95,-1.25,-0.03,-0.15,-8.2,-6.2,-11.3,35.27,,,,,,,,,,
15.44.06.850,-129.2,32.3,0,,,71684.6,13.95,-1.21,-0.16,-0.3,4.8,12.5,-2.6,35.24,,,,,,,,,,
15.44.06.858,-169.7,42.4,0,,,71684.6,13.95,-0.81,-0.69,0.01,-27.8,37.3,14.4,35.85,,,,,,,,,,
15.44.06.868,-154.9,38.7,0,,,71684.6,13.95,-1.17,-0.09,-0.23,33.6,1.0,0.6,35.53,,,,,,,,,,
15.44.06.878,-159.5,39.9,0,,,71684.6,13.95,-1.03,-0.55,-0.26,-26.5,-18.0,-7.5,35.45,,,,,,,,,,
15.44.06.885,-178.9,44.7,0,,,71684.6,13.95,-0.81,-0.53,-0.2,5.2,21.8,15.1,35.53,,,,,,,,,,
15.44.06.894,-31.7,7.9,0,,,71684.6,13.95,-0.92,-0.53,-0.21,36.8,-21.9,0.1,35.6,,,,,,,,,,
15.44.06.904,46.8,11.7,0,,,71684.6,13.95,-1.1,-0.07,-0.41,6.5,-10.4,5.5,35.59,,,,,,,,,,
15.44.06.913,84.5,21.1,0,,,71684.6,13.95,-1.16,0.24,-0.78,-29.0,-5.4,18.6,35.8,,,,,,,,,,
15.44.06.921,211.5,52.9,0,,,71684.6,13.95,-0.79,-0.28,0.09,-16.0,-17.6,-19.6,35.43,,,,,,,,,,
15.44.06.930,189.8,47.4,0,,,71684.6,13.95,-0.91,-0.19,-0.53,15.3,-3.1,-14.6,35.57,,,,,,,,,,
15.44.06.938,269.9,67.5,0,,,71684.6,13.95,-1.39,0.05,-0.61,20.8,4.9,8.8,35.23,,,,,,,,,,
15.44.06.947,301.0,75.2,0,,,71684.6,13.95,-1.0,0.02,-0.6,-23.6,-14.0,5.4,35.26,,,,,,,,,,
15.44.06.958,351.1,87.8,0,,,71684.6,13.95,-0.88,-0.15,-0.49,9.8,-20.3,24.4,35.54,,,,,,,,,,
15.44.06.967,374.1,93.5,0,,,71684.6,13.95,-0.86,-0.15,-0.5,-24.6,-6.8,-1.1,35.73,,,,,,,,,,
15.44.06.975,420.9,105.2,1,12.0,102.7,71684.6,13.95,-1.2,0.0,-0.28,-9.0,-0.7,3.3,35.62,,,,,,,,,,
15.44.06.983,420.4,105.1,0,,,71684.6,13.95,-0.69,-0.01,-0.37,-30.9,14.0,-4.8,35.63,,,,,,,,,,
15.44.06.994,374.6,93.6,0,,,71684.6,13.95,-1.23,0.03,-0.31,-12.2,15.2,-6.3,35.69,,,,,,,,,,
15.44.07.004,433.3,108.3,0,,,71684.6,13.95,-1.26,-0.06,-0.44,-11.3,-1.2,25.0,35.38,,,,,,,,,,
15.44.07.016,451.3,112.8,0,,,71684.6,13.95,-1.03,0.26,-0.24,-19.2,-12.9,8.8,35.28,,,,,,,,,,
15.44.07.027,372.0,93.0,0,,,71684.6,13.95,-0.96,-0.34,-0.36,-5.3,11.5,-14.9,35.48,,,,,,,,,,
15.44.07.037,329.7,82.4,0,,,71684.6,13.95,-1.12,0.46,-0.02,25.6,-5.7,-2.8,35.34,,,,,,,,,,
15.44.07.047,313.3,78.3,0,,,71684.6,13.95,-0.75,0.08,-0.41,-7.8,14.1,-26.9,35.46,,,,,,,,,,
15.44.07.055,313.7,78.4,0,,,71684.6,13.95,-1.1,-0.07,0.1,28.3,-1.2,1.5,35.78,,,,,,,,,,
15.44.07.064,288.8,72.2,0,,,71684.6,13.95,-0.93,0.04,-0.17,32.9,2.5,2.5,35.46,,,,,,,,,,
15.44.07.073,214.9,53.7,0,,,71684.6,13.95,-0.77,-0.28,-0.07,-3.5,26.6,11.3,35.88,,,,,,,,,,
15.44.07.084,167.6,41.9,0,,,71684.6,13.95,-0.84,-0.15,0.33,-2.3,15.7,27.6,35.48,,,,,,,,,,
15.44.07.094,87.6,21.9,0,,,71684.6,13.95,-0.78,0.14,-0.03,-9.1,25.1,9.3,35.73,,,,,,,,,,
15.44.07.104,52.9,13.2,0,,,71684.6,13.95,-0.86,0.06,-0.5,-4.5,0.1,0.8,35.78,,,,,,,,,,
15.44.07.114,-5.7,1.4,0,,,71684.6,13.95,-1.07,0.29,-0.34,-5.6,1.9,-4.4,35.64,,,,,,,,,,
15.44.07.124,40.6,10.2,0,,,71684.6,13.95,-0.68,0.22,-0.42,0.4,11.6,0.7,35.36,,,,,,,,,,
15.44.07.134,64.6,16.2,0,,,71684.6,13.95,-0.99,-0.19,0.13,21.3,0.4,-14.3,35.25,,,,,,,,,,
15.44.07.143,59.6,14.9,0,,,71684.6,13.95,-0.47,0.38,0.61,6.8,-5.2,-21.9,35.66,,,,,,,,,,
15.44.07.154,76.8,19.2,0,,,71684.6,13.95,-0.96,-0.22,-0.19,-5.1,29.4,-13.4,35.56,,,,,,,,,,
15.44.07.164,60.5,15.1,0,,,71684.6,13.95,-0.9,-0.01,0.16,-17.9,-3.4,18.2,35.49,,,,,,,,,,
15.44.07.173,85.4,21.4,0,,,71684.6,13.95,-0.92,0.32,-0.03,5.5,8.0,-8.9,35.45,,,,,,,,,,
15.44.07.182,73.6,18.4,0,,,71684.6,13.95,-1.01,0.25,-0.08,2.5,-0.4,10.5,35.09,,,,,,,,,,
15.44.07.192,52.7,13.2,0,,,71684.6,13.95,-0.66,-0.07,-0.35,24.6,8.7,13.0,35.31,,,,,,,,,,
15.44.07.204,47.5,11.9,0,,,71684.6,13.95,-1.02,-0.14,-0.39,-12.9,6.8,6.6,35.23,,,,,,,,,,
15.44.07.216,43.4,10.8,0,,,71684.6,13.95,-0.38,0.4,0.24,-19.1,-6.3,4.5,35.62,,,,,,,,,,
15.44.07.225,47.1,11.8,0,,,71684.6,13.95,-0.7,-0.1,-0.08,18.0,-8.7,-12.0,35.49,,,,,,,,,,
15.44.07.234,-20.6,5.2,0,,,71684.6,13.95,-1.28,-0.22,-0.16,-9.5,18.9,0.3,35.48,,,,,,,,,,
15.44.07.245,4.7,1.2,0,,,71684.6,13.95,-1.11,-0.32,-0.02,19.1,11.6,-3.1,35.55,,,,,,,,,,
15.44.07.254,-2.2,0.6,0,,,71684.6,13.95,-0.96,-0.66,0.0,-30.0,4.5,7.7,35.43,,,,,,,,,,
15.44.07.264,-12.0,3.0,0,,,71684.6,13.95,-0.44,-0.04,-0.44,8.2,-8.7,-1.4,35.57,,,,,,,,,,
15.44.07.274,-16.7,4.2,0,,,71684.6,13.95,-0.95,0.18,0.15,7.4,21.8,-4.4,35.86,,,,,,,,,,
15.44.07.285,,,0,,,,,,,,,,,,,,,,,,,,,
15.44.07.296,-19.1,4.8,0,,,71684.6,13.95,-1.02,0.17,-0.53,12.1,-12.1,-22.3,35.46,,,,,,,,,,
15.44.07.306,-19.6,4.9,0,,,71684.6,13.95,-0.91,-0.27,-0.35,-3.3,-6.3,-6.9,35.39,,,,,,,,,,
15.44.07.315,-50.6,12.6,0,,,71684.6,13.95,-0.76,-0.31,-0.37,-16.6,11.3,6.1,35.45,,,,,,,,,,
15.44.07.325,-21.1,5.3,0,,,71684.6,13.95,-0.7,0.24,-0.25,-20.1,-8.8,8.4,35.72,,,,,,,,,,
15.44.07.335,-31.5,7.9,0,,,71684.6,13.95,-0.8,-0.4,-0.49,6.6,-8.0,-9.1,35.64,,,,,,,,,,
15.44.07.344,-64.4,16.1,0,,,71684.6,13.95,-0.97,-0.47,-0.02,-8.8,7.4,-0.4,35.45,,,,,,,,,,
15.44.07.352,-65.1,16.3,0,,,71684.6,13.95,-0.61,-0.43,-0.82,15.8,-18.8,-0.7,35.4,,,,,,,,,,
15.44.07.361,-71.7,17.9,0,,,71684.6,13.95,-0.73,0.0,-0.22,1.2,10.1,-10.9,35.44,,,,,,,,,,
15.44.07.369,-94.0,23.5,0,,,71684.6,13.95,-1.02,0.03,-0.73,22.6,32.4,-3.3,35.42,,,,,,,,,,
15.44.07.379,-75.2,18.8,0,,,71684.6,13.95,-0.81,-0.12,-0.37,16.5,9.1,14.2,35.44,,,,,,,,,,
15.44.07.388,-76.7,19.2,0,,,71684.6,13.95,-0.6,-0.09,-0.24,-13.3,13.3,17.0,35.57,,,,,,,,,,
15.44.07.399,-108.1,27.0,0,,,71684.6,13.95,-0.58,-0.41,-0.67,26.3,-2.8,5.9,35.51,,,,,,,,,,
15.44.07.408,-81.1,20.3,0,,,71684.6,13.95,-0.48,-0.49,-0.34,-31.1,-14.1,0.4,35.54,,,,,,,,,,
15.44.07.419,-148.1,37.0,0,,,71684.6,13.95,-1.06,-0.13,0.16,-16.2,5.3,-0.1,35.8,,,,,,,,,,
15.44.07.431,-114.9,28.7,0,,,71684.6,13.95,-0.78,-0.41,-0.26,35.8,17.3,-2.8,35.38,,,,,,,,,,
15.44.07.439,-142.7,35.7,0,,,71684.6,13.95,-0.82,-0.71,-0.23,18.8,-20.7,17.5,35.54,,,,,,,,,,
15.44.07.448,-118.7,29.7,0,,,71684.6,13.95,-0.71,-0.24,-0.25,-3.3,17.7,13.5,35.87,,,,,,,,,,
15.44.07.456,-89.8,22.4,0,,,71684.6,13.95,-0.32,0.09,0.23,-17.9,-6.9,-18.7,35.65,,,,,,,,,,
15.44.07.465,-148.8,37.2,0,,,71684.6,13.95,-0.64,-0.08,-0.04,-10.9,16.6,8.4,35.74,,,,,,,,,,
15.44.07.474,-154.2,38.6,0,,,71684.6,13.95,-1.11,-0.02,0.08,25.9,2.7,-30.9,35.4,,,,,,,,,,
15.44.07.483,-150.5,37.6,0,,,71684.6,13.95,-1.25,-0.58,0.21,10.0,-15.1,-0.9,35.41,,,,,,,,,,
15.44.07.492,-185.4,46.4,0,,,71684.6,13.95,-0.75,-0.05,0.02,17.4,18.8,15.6,35.5,,,,,,,,,,
15.44.07.501,-162.5,40.6,1,13.0,114.1,71684.6,13.95,-0.74,-0.06,-0.31,-3.5,14.5,0.7,35.47,,,,,,,,,,
15.44.07.512,-174.8,43.7,0,,,71684.6,13.95,-1.05,-0.61,-0.12,7.7,16.2,-5.1,35.28,,,,,,,,,,
15.44.07.522,41.1,10.3,0,,,71684.6,13.95,-0.9,-0.73,-0.55,-3.1,36.4,-6.2,35.57,,,,,,,,,,
15.44.07.531,112.9,28.2,0,,,71684.6,13.95,-1.19,-0.5,0.17,22.0,0.6,-1.4,35.28,,,,,,,,,,
15.44.07.543,160.1,40.0,0,,,71684.6,13.95,-0.89,-1.04,0.29,-6.8,0.6,-3.9,35.49,,,,,,,,,,
15.44.07.553,236.5,59.1,0,,,71684.6,13.95,-1.22,-0.66,0.08,24.0,17.3,-15.8,35.71,,,,,,,,,,
15.44.07.563,224.0,56.0,0,,,71684.6,13.95,-0.96,-0.33,-0.23,18.5,5.1,-1.8,35.54,,,,,,,,,,
15.44.07.572,352.3,88.1,0,,,71684.6,13.95,-1.01,0.02,-0.03,-6.0,-1.7,2.6,35.48,,,,,,,,,,
15.44.07.581,338.9,84.7,0,,,71684.6,13.95,-0.85,-0.47,0.2,33.8,13.8,8.7,35.58,,,,,,,,,,
15.44.07.591,361.6,90.4,0,,,71684.6,13.95,-0.99,-0.18,-0.33,-40.4,19.5,22.4,35.54,,,,,,,,,,
15.44.07.599,346.5,86.6,0,,,71684.6,13.95,-1.13,-0.56,0.05,13.6,22.3,-18.4,35.38,,,,,,,,,,
15.44.07.608,428.4,107.1,0,,,71684.6,13.95,-1.05,-0.45,0.3,-31.3,-8.1,5.0,35.81,,,,,,,,,,
15.44.07.618,378.5,94.6,0,,,71684.6,13.95,-1.04,-0.56,0.29,10.9,21.6,-18.6,35.7,,,,,,,,,,
15.44.07.627,415.4,103.8,0,,,71684.6,13.95,-1.23,-0.15,-0.01,1.5,-4.2,-9.9,35.23,,,,,,,,,,
15.44.07.638,366.9,91.7,0,,,71684.6,13.95,-0.88,-0.09,-0.4,-30.0,17.3,-12.8,35.52,,,,,,,,,,
15.44.07.650,347.6,86.9,0,,,71684.6,13.95,-0.78,0.29,0.06,-3.2,1.4,12.9,35.56,,,,,,,,,,
15.44.07.659,307.2,76.8,0,,,71684.6,13.95,-1.1,0.04,0.19,3.6,-2.1,2.6,35.31,,,,,,,,,,
15.44.07.666,365.1,91.3,0,,,71684.6,13.95,-0.59,-0.41,-0.44,-22.3,25.3,0.7,35.55,,,,,,,,,,
15.44.07.676,324.0,81.0,0,,,71684.6,13.95,-0.73,-0.15,0.56,-1.3,24.9,27.5,35.63,,,,,,,,,,
15.44.07.687,242.8,60.7,0,,,71684.6,13.95,-1.06,-0.18,0.16,21.6,2.1,9.2,35.41,,,,,,,,,,
15.44.07.696,215.0,53.8,0,,,71684.6,13.95,-1.4,-0.69,-0.29,21.6,14.6,-12.3,35.72,,,,,,,,,,
15.44.07.705,156.0,39.0,0,,,71684.6,13.95,-0.87,0.43,-0.29,-17.9,4.0,-26.4,35.6,,,,,,,,,,
15.44.07.714,141.0,35.2,0,,,71684.6,13.95,-0.95,-0.13,-0.39,22.2,16.8,-2.5,35.54,,,,,,,,,,
15.44.07.724,22.7,5.7,0,,,71684.6,13.95,-1.27,0.07,-0.12,12.9,6.6,7.9,35.4,,,,,,,,,,
15.44.07.734,-13.7,3.4,0,,,71684.6,13.95,-1.21,-0.17,-0.25,-24.8,-5.1,4.7,35.4,,,,,,,,,,
15.44.07.747,45.2,11.3,0,,,71684.6,13.95,-1.13,0.64,0.19,-10.0,-8.2,-5.4,35.37,,,,,,,,,,
15.44.07.757,46.3,11.6,0,,,71684.6,13.95,-0.95,-0.38,-0.16,2.1,-16.9,-22.4,35.2,,,,,,,,,,
15.44.07.765,76.2,19.0,0,,,71684.6,13.95,-1.05,0.09,-0.17,14.8,-13.7,-9.3,35.5,,,,,,,,,,
15.44.07.773,51.7,12.9,0,,,71684.6,13.95,-1.04,0.16,-0.31,2.8,-0.6,1.5,35.5,,,,,,,,,,
15.44.07.782,77.4,19.4,0,,,71684.6,13.95,-1.09,0.39,0.2,-17.7,-3.4,10.7,35.79,,,,,,,,,,
15.44.07.791,50.1,12.5,0,,,71684.6,13.95,-1.1,0.0,0.06,38.3,0.3,-2.4,35.44,,,,,,,,,,
15.44.07.801,93.1,23.3,0,,,71684.6,13.95,-1.01,0.09,-0.09,33.9,-5.8,-30.3,35.64,,,,,,,,,,
15.44.07.811,57.8,14.4,0,,,71633.2,13.96,-0.87,0.03,-0.51,12.6,11.2,-4.4,35.55,,,,,,,,,,
15.44.07.821,24.8,6.2,0,,,71633.2,13.96,-1.35,-0.29,0.29,15.4,-14.5,-4.9,35.42,,,,,,,,,,
15.44.07.832,56.1,14.0,0,,,71633.2,13.96,-0.88,-0.57,-0.29,4.0,6.3,25.1,35.26,,,,,,,,,,
15.44.07.841,35.8,9.0,0,,,71633.2,13.96,-1.28,-0.48,0.01,4.9,2.2,13.6,35.68,,,,,,,,,,
15.44.07.849,17.4,4.4,0,,,71633.2,13.96,-0.58,0.46,-0.25,-22.4,-6.5,2.1,35.57,,,,,,,,,,
15.44.07.857,21.3,5.3,0,,,71633.2,13.96,-1.03,0.2,-0.25,-10.1,13.2,-22.3,35.27,,,,,,,,,,
15.44.07.868,14.3,3.6,0,,,71633.2,13.96,-0.92,-0.11,-0.0,-20.3,2.8,18.6,35.45,,,,,,,,,,
15.44.07.878,-8.5,2.1,0,,,71633.2,13.96,-1.24,0.16,-0.38,9.4,-15.2,8.5,35.64,,,,,,,,,,
15.44.07.887,-21.5,5.4,0,,,71633.2,13.96,-0.67,-0.43,-0.55,16.3,7.6,9.7,35.63,,,,,,,,,,
15.44.07.897,-21.7,5.4,0,,,71633.2,13.96,-0.86,0.13,0.18,-20.7,18.4,-20.0,35.74,,,,,,,,,,
15.44.07.904,-19.6,4.9,0,,,71633.2,13.96,-0.95,-0.21,-0.18,-20.2,9.3,6.4,35.69,,,,,,,,,,
15.44.07.915,-18.1,4.5,0,,,71633.2,13.96,-0.85,-0.07,0.13,-24.6,-12.1,22.8,35.41,,,,,,,,,,
15.44.07.926,-55.9,14.0,0,,,71633.2,13.96,-1.06,0.03,-0.19,4.2,10.4,-2.4,35.52,,,,,,,,,,
15.44.07.934,-27.6,6.9,0,,,71633.2,13.96,-1.13,0.15,-0.2,19.8,10.6,8.6,35.37,,,,,,,,,,
15.44.07.942,-31.7,7.9,0,,,71633.2,13.96,-0.92,-0.05,-0.18,-34.6,19.7,9.5,35.54,,,,,,,,,,
15.44.07.949,-19.3,4.8,0,,,71633.2,13.96,-0.77,0.11,0.59,-1.4,-11.3,-11.8,35.5,,,,,,,,,,
15.44.07.960,-45.7,11.4,0,,,71633.2,13.96,-0.89,-0.32,0.19,-13.6,-22.8,14.3,35.47,,,,,,,,,,
15.44.07.971,-62.1,15.5,0,,,71633.2,13.96,-0.93,-0.46,0.03,2.2,0.2,-5.6,35.56,,,,,,,,,,
15.44.07.980,-76.8,19.2,0,,,71633.2,13.96,-0.73,0.2,-0.03,14.6,2.9,30.9,35.2,,,,,,,,,,
15.44.07.991,-99.9,25.0,0,,,71633.2,13.96,-0.94,-0.66,-0.36,-24.8,16.6,7.1,35.66,,,,,,,,,,
15.44.07.999,-82.1,20.5,0,,,71633.2,13.96,-0.87,-1.1,-0.47,15.2,22.2,-4.1,35.36,,,,,,,,,,
15.44.08.009,-112.3,28.1,0,,,71633.2,13.96,-1.23,0.33,-0.3,8.4,21.2,20.7,35.48,,,,,,,,,,
15.44.08.019,-99.9,25.0,0,,,71633.2,13.96,-0.79,0.18,-0.3,3.9,14.9,-11.8,35.75,,,,,,,,,,
15.44.08.029,-133.3,33.3,0,,,71633.2,13.96,-1.0,-0.19,-0.16,28.1,-13.0,18.6,35.65,,,,,,,,,,
15.44.08.040,-127.0,31.8,0,,,71633.2,13.96,-0.7,0.35,-0.2,8.2,20.2,19.2,35.53,,,,,,,,,,
15.44.08.049,-116.5,29.1,0,,,71633.2,13.96,-0.92,-0.07,0.38,3.3,-11.0,-3.2,35.33,,,,,,,,,,
15.44.08.057,-153.5,38.4,0,,,71633.2,13.96,-0.86,-0.48,0.24,-32.6,-1.4,-10.0,35.63,,,,,,,,,,
15.44.08.066,-106.5,26.6,0,,,71633.2,13.96,-0.66,0.13,0.21,-5.8,18.4,7.8,35.7,,,,,,,,,,
15.44.08.076,-149.3,37.3,0,,,71633.2,13.96,-0.94,0.4,-0.19,0.9,3.4,-12.3,35.29,,,,,,,,,,
15.44.08.083,-151.2,37.8,0,,,71633.2,13.96,-0.82,0.1,-0.41,-19.2,-12.6,-2.1,35.44,,,,,,,,,,
15.44.08.093,-139.3,34.8,1,14.0,101.4,71633.2,13.96,-0.85,-0.43,-0.55,12.7,12.5,-4.9,35.46,,,,,,,,,,
15.44.08.102,-144.5,36.1,0,,,71633.2,13.96,-0.56,-0.08,0.16,4.2,10.6,-1.0,35.34,,,,,,,,,,
15.44.08.111,-163.6,40.9,0,,,71633.2,13.96,-1.11,-0.02,-0.35,9.4,-20.9,-12.1,35.94,,,,,,,,,,
15.44.08.121,-143.5,35.9,0,,,71633.2,13.96,-0.74,-0.32,-0.21,7.3,-0.9,-6.1,35.66,,,,,,,,,,
15.44.08.132,-159.4,39.8,0,,,71633.2,13.96,-0.81,-0.17,-0.15,1.3,17.0,-22.7,35.58,,,,,,,,,,
15.44.08.138,-4.1,1.0,0,,,71633.2,13.96,-0.52,-0.59,0.15,-2.3,2.6,-0.2,35.46,,,,,,,,,,
15.44.08.148,96.4,24.1,0,,,71633.2,13.96,-0.78,-0.64,-0.41,25.7,19.1,-0.2,35.83,,,,,,,,,,
15.44.08.158,128.7,32.2,0,,,71633.2,13.96,-0.95,-0.47,-0.52,20.7,0.9,-2.5,35.21,,,,,,,,,,
15.44.08.168,161.9,40.5,0,,,71633.2,13.96,-0.88,-0.4,-0.96,-12.5,19.6,-6.2,35.35,,,,,,,,,,
15.44.08.178,218.8,54.7,0,,,71633.2,13.96,-0.88,-0.24,-0.39,6.1,16.4,-5.7,35.78,,,,,,,,,,
15.44.08.188,303.7,75.9,0,,,71633.2,13.96,-1.08,-0.21,0.13,-16.0,7.8,-13.8,35.26,,,,,,,,,,
15.44.08.197,286.6,71.6,0,,,71633.2,13.96,-0.69,-0.15,0.08,39.6,-3.7,-7.5,35.92,,,,,,,,,,
15.44.08.207,329.2,82.3,0,,,71633.2,13.96,-0.64,-0.78,-0.43,20.4,38.5,-18.1,35.26,,,,,,,,,,
15.44.08.217,419.0,104.8,0,,,71633.2,13.96,-1.29,-0.53,-0.2,-3.6,7.2,15.5,35.63,,,,,,,,,,
15.44.08.224,422.2,105.6,0,,,71633.2,13.96,-0.96,-0.28,0.04,-28.1,-4.4,3.5,35.45,,,,,,,,,,
15.44.08.235,407.9,102.0,0,,,71633.2,13.96,-0.88,0.2,-0.44,23.0,8.7,-14.2,35.71,,,,,,,,,,
15.44.08.247,398.8,99.7,0,,,71633.2,13.96,-0.69,0.27,-0.09,-10.9,19.5,-19.6,35.49,,,,,,,,,,
15.44.08.257,465.5,116.4,0,,,71633.2,13.96,-0.88,-0.01,-0.18,24.9,11.6,5.1,35.38,,,,,,,,,,
15.44.08.267,397.7,99.4,0,,,71633.2,13.96,-0.98,0.09,-0.15,-15.6,10.5,-1.4,35.33,,,,,,,,,,
15.44.08.276,353.8,88.4,0,,,71633.2,13.96,-0.94,0.18,-0.41,19.0,17.2,-9.9,35.49,,,,,,,,,,
15.44.08.287,310.7,77.7,0,,,71633.2,13.96,-0.8,-0.71,-0.19,-2.5,1.5,3.2,35.93,,,,,,,,,,
15.44.08.295,333.4,83.4,0,,,71582.0,13.97,-0.83,-0.45,-0.49,-13.2,-3.7,20.4,35.79,,,,,,,,,,
15.44.08.303,264.0,66.0,0,,,71582.0,13.97,-1.14,-0.09,-0.33,-6.9,-3.6,1.7,34.97,,,,,,,,,,
15.44.08.312,222.4,55.6,0,,,71582.0,13.97,-1.02,-0.58,-0.49,18.3,-20.5,-3.8,35.66,,,,,,,,,,
15.44.08.322,190.4,47.6,0,,,71582.0,13.97,-1.07,-0.32,-0.1,25.0,25.4,-6.5,35.46,,,,,,,,,,
15.44.08.332,119.8,30.0,0,,,71582.0,13.97,-1.2,-0.3,-0.21,-12.6,3.6,-7.9,35.4,,,,,,,,,,
15.44.08.342,46.5,11.6,0,,,71582.0,13.97,-0.59,-0.57,0.19,-24.9,-22.5,25.6,35.61,,,,,,,,,,
15.44.08.352,-17.6,4.4,0,,,71582.0,13.97,-1.02,0.0,-0.26,-6.4,16.1,5.5,35.37,,,,,,,,,,
15.44.08.361,24.1,6.0,0,,,71582.0,13.97,-0.8,-0.51,0.16,34.6,-25.1,-9.4,35.17,,,,,,,,,,
15.44.08.370,54.1,13.5,0,,,71582.0,13.97,-0.53,0.02,-0.48,-28.2,23.6,5.0,35.55,,,,,,,,,,
15.44.08.380,66.4,16.6,0,,,71582.0,13.97,-1.07,-0.59,0.26,6.0,7.6,-3.3,35.13,,,,,,,,,,
15.44.08.390,27.2,6.8,0,,,71582.0,13.97,-1.09,-0.89,0.26,10.1,18.9,-8.4,35.42,,,,,,,,,,
15.44.08.398,61.9,15.5,0,,,71582.0,13.97,-0.9,-0.43,0.28,27.3,8.5,6.1,35.32,,,,,,,,,,
15.44.08.407,78.3,19.6,0,,,71582.0,13.97,-0.6,-0.06,0.17,16.5,2.2,2.6,35.32,,,,,,,,,,
15.44.08.419,88.9,22.2,0,,,71582.0,13.97,-0.67,-0.36,-0.68,2.0,-5.4,3.0,35.56,,,,,,,,,,
15.44.08.428,25.4,6.4,0,,,71582.0,13.97,-1.13,-0.34,-0.22,28.5,-15.4,-17.3,35.3,,,,,,,,,,
15.44.08.438,68.6,17.2,0,,,71582.0,13.97,-0.79,0.1,-0.33,-8.2,-9.5,-0.4,35.34,,,,,,,,,,
15.44.08.450,28.4,7.1,0,,,71582.0,13.97,-1.08,-0.22,0.34,-24.0,-10.5,-17.5,35.68,,,,,,,,,,
15.44.08.461,8.6,2.2,0,,,71582.0,13.97,-0.91,-0.33,0.16,-12.1,-7.9,-6.7,35.32,,,,,,,,,,
15.44.08.471,31.0,7.8,0,,,71582.0,13.97,-1.59,0.27,0.24,18.9,12.8,12.2,35.17,,,,,,,,,,
15.44.08.480,-39.2,9.8,0,,,71582.0,13.97,-1.0,-0.24,-0.44,21.9,-4.5,-21.7,35.47,,,,,,,,,,
15.44.08.489,-26.7,6.7,0,,,71582.0,13.97,-0.62,-0.0,-0.02,-22.7,8.5,3.7,35.69,,,,,,,,,,
15.44.08.498,4.7,1.2,0,,,71582.0,13.97,-1.19,-0.54,-0.37,20.1,7.9,-22.8,35.71,,,,,,,,,,
15.44.08.507,1.0,0.2,0,,,71582.0,13.97,-0.9,-0.17,-0.13,17.3,7.8,-7.5,35.3,,,,,,,,,,
15.44.08.517,-42.1,10.5,0,,,71582.0,13.97,-1.55,-0.34,-0.25,11.8,-13.9,-23.6,35.22,,,,,,,,,,
15.44.08.527,-25.6,6.4,0,,,71582.0,13.97,-0.74,0.11,0.07,-5.1,41.6,-25.0,35.61,,,,,,,,,,
15.44.08.536,-38.5,9.6,0,,,71582.0,13.97,-0.76,-0.67,-0.18,19.7,10.2,-3.8,35.79,,,,,,,,,,
15.44.08.545,-66.1,16.5,0,,,71582.0,13.97,-0.97,-0.14,-0.47,41.6,-10.6,12.5,35.46,,,,,,,,,,
15.44.08.555,-24.2,6.0,0,,,71582.0,13.97,-1.08,-0.4,-0.1,20.8,-3.3,-22.7,35.49,,,,,,,,,,
15.44.08.566,-82.5,20.6,0,,,71582.0,13.97,-1.18,-0.05,-0.26,37.1,11.7,-4.0,35.49,,,,,,,,,,
15.44.08.576,-65.2,16.3,0,,,71582.0,13.97,-0.88,-0.1,-0.15,-14.5,12.4,-3.9,35.51,,,,,,,,,,
15.44.08.586,-42.2,10.6,0,,,71582.0,13.97,-0.89,-0.38,-0.17,8.0,1.9,-6.0,35.63,,,,,,,,,,
15.44.08.596,-77.1,19.3,0,,,71582.0,13.97,-0.97,-0.01,0.14,-12.1,22.1,-13.3,35.41,,,,,,,,,,
15.44.08.607,-103.8,26.0,0,,,71582.0,13.97,-1.22,-0.16,-0.49,16.5,11.4,4.3,34.99,,,,,,,,,,
15.44.08.616,-118.7,29.7,0,,,71582.0,13.97,-1.02,-0.25,0.15,-14.7,10.8,-7.8,35.34,,,,,,,,,,
15.44.08.628,-103.3,25.8,0,,,71530.8,13.98,-0.87,-0.04,-0.5,-21.0,-17.0,-11.4,35.6,,,,,,,,,,
15.44.08.637,-67.0,16.8,0,,,71530.8,13.98,-1.12,0.23,-0.38,-15.9,-5.4,9.2,35.54,,,,,,,,,,
15.44.08.646,-96.8,24.2,0,,,71530.8,13.98,-0.83,-0.07,-0.42,3.1,12.6,-9.7,35.35,,,,,,,,,,
15.44.08.653,-103.5,25.9,0,,,71530.8,13.98,-1.11,0.32,-0.59,27.6,-17.2,-9.2,35.24,,,,,,,,,,
15.44.08.662,-137.9,34.5,0,,,71530.8,13.98,-1.17,0.2,0.12,-19.9,0.4,19.1,35.47,,,,,,,,,,
15.44.08.672,-128.6,32.2,1,15.0,103.6,71530.8,13.98,-0.83,-0.51,-0.16,5.0,-7.7,3.5,35.54,,,,,,,,,,
15.44.08.682,-108.3,27.1,0,,,71530.8,13.98,-1.0,-0.24,-0.36,29.0,9.7,-10.9,35.44,,,,,,,,,,
15.44.08.691,-158.6,39.6,0,,,71530.8,13.98,-0.9,0.14,-0.13,-10.9,16.5,9.4,35.51,,,,,,,,,,
15.44.08.700,-132.7,33.2,0,,,71530.8,13.98,-1.13,0.32,0.13,-6.5,1.8,-8.2,35.28,,,,,,,,,,
15.44.08.712,-161.9,40.5,0,,,71530.8,13.98,-0.93,0.13,-0.39,11.4,-14.9,-2.6,35.62,,,,,,,,,,
15.44.08.722,-138.5,34.6,0,,,71530.8,13.98,-0.74,-0.34,0.19,-12.3,8.1,7.0,35.34,,,,,,,,,,
15.44.08.731,-137.0,34.2,0,,,71530.8,13.98,-0.97,-0.26,-0.51,23.3,19.9,-1.6,35.04,,,,,,,,,,
15.44.08.740,-149.3,37.3,0,,,71530.8,13.98,-0.95,-0.23,-0.14,-7.6,-15.9,-2.3,35.6,,,,,,,,,,
15.44.08.750,-148.2,37.0,0,,,71530.8,13.98,-0.82,0.24,-0.53,-2.1,12.5,-25.7,35.65,,,,,,,,,,
15.44.08.759,9.5,2.4,0,,,71530.8,13.98,-0.61,0.28,-0.26,-35.7,18.7,0.6,35.67,,,,,,,,,,
15.44.08.769,117.6,29.4,0,,,71530.8,13.98,-0.84,0.39,0.1,4.9,12.9,5.9,35.48,,,,,,,,,,
15.44.08.778,110.5,27.6,0,,,71530.8,13.98,-0.71,-0.23,-0.13,20.4,-6.5,-21.7,35.4,,,,,,,,,,
15.44.08.787,212.0,53.0,0,,,71530.8,13.98,-1.16,0.08,-0.11,10.8,22.0,-36.1,35.51,,,,,,,,,,
15.44.08.796,256.1,64.0,0,,,71530.8,13.98,-1.13,-0.08,-0.1,-5.3,-5.9,-7.0,35.36,,,,,,,,,,
15.44.08.806,286.8,71.7,0,,,71530.8,13.98,-0.89,0.22,-0.23,11.2,5.5,-15.3,35.49,,,,,,,,,,
15.44.08.815,358.9,89.7,0,,,71530.8,13.98,-0.83,0.49,-0.31,-7.0,-27.3,-18.8,35.53,,,,,,,,,,
15.44.08.825,367.0,91.8,0,,,71530.8,13.98,-1.09,-0.35,-0.24,23.0,12.3,-0.9,35.64,,,,,,,,,,
15.44.08.836,399.4,99.8,0,,,71530.8,13.98,-0.89,0.08,-0.48,9.1,23.0,14.5,35.78,,,,,,,,,,
15.44.08.845,421.9,105.5,0,,,71530.8,13.98,-1.16,-0.07,0.36,42.7,-2.2,-10.4,35.57,,,,,,,,,,
15.44.08.856,393.7,98.4,0,,,71530.8,13.98,-1.08,-0.06,0.02,17.3,-9.0,7.8,35.68,,,,,,,,,,
15.44.08.869,413.3,103.3,0,,,71530.8,13.98,-0.7,0.46,-0.01,20.9,6.8,9.9,35.63,,,,,,,,,,
15.44.08.879,364.5,91.1,0,,,71530.8,13.98,-0.86,0.07,0.21,31.2,-5.5,-13.1,35.14,,,,,,,,,,
15.44.08.887,330.2,82.6,0,,,71530.8,13.98,-1.23,-0.24,0.3,-36.5,20.0,10.8,35.56,,,,,,,,,,
15.44.08.896,343.4,85.8,0,,,71530.8,13.98,-0.77,-0.03,-0.17,-33.3,38.9,-5.9,35.44,,,,,,,,,,
15.44.08.904,351.3,87.8,0,,,71530.8,13.98,-0.54,-0.52,0.31,36.8,-8.5,-11.9,35.33,,35.5,,,,,,,,
15.44.08.913,292.2,73.0,0,,,71530.8,13.98,-0.87,0.04,-0.1,2.1,2.8,-30.4,35.67,,,,,,,,,,
15.44.08.923,224.0,56.0,0,,,71530.8,13.98,-0.8,-0.47,-0.02,3.1,9.4,10.6,35.47,,,,,,,,,,
15.44.08.933,162.7,40.7,0,,,71530.8,13.98,-0.62,-0.04,0.14,6.2,12.4,-28.5,35.46,,,,,,,,,,
15.44.08.941,167.8,42.0,0,,,71530.8,13.98,-0.9,0.06,0.1,0.7,-1.7,4.2,35.32,,,,,,,,,,
15.44.08.950,96.8,24.2,0,,,71530.8,13.98,-0.91,0.27,-0.08,17.5,14.3,-6.5,35.25,,,,,,,,,,
15.44.08.957,97.6,24.4,0,,,71530.8,13.98,-1.09,-0.13,-0.17,8.2,4.0,-25.4,35.36,,,,,,,,,,
15.44.08.968,2.9,0.7,0,,,71479.6,13.99,-0.61,-0.23,-0.31,9.8,-5.7,-3.3,35.67,,,,,,,,,,
15.44.08.976,4.0,1.0,0,,,71479.6,13.99,-0.8,0.13,0.11,14.1,24.2,19.2,35.58,,,,,,,,,,
15.44.08.985,27.5,6.9,0,,,71479.6,13.99,-1.15,-0.15,-0.06,-22.4,-4.4,6.1,35.68,,,,,,,,,,
15.44.08.995,47.7,11.9,0,,,71479.6,13.99,-1.15,-0.6,-0.89,-10.0,-24.8,-8.1,35.35,,,,,,,,,,
15.44.09.003,18.1,4.5,0,,,71479.6,13.99,-0.77,-0.7,0.08,-9.8,22.7,16.1,35.49,,,,,,,,,,
15.44.09.014,52.0,13.0,0,,,71479.6,13.99,-0.82,0.37,-0.14,17.5,-12.8,-5.7,35.44,,,,,,,,,,
15.44.09.026,68.3,17.1,0,,,71479.6,13.99,-0.85,-0.02,-0.32,16.4,-20.9,1.3,35.32,,,,,,,,,,
15.44.09.035,85.4,21.4,0,,,71479.6,13.99,-0.64,-0.16,0.01,11.6,23.9,-2.9,35.1,,,,,,,,,,
15.44.09.046,96.1,24.0,0,,,71479.6,13.99,-0.25,-0.38,-0.25,-1.1,-7.3,4.8,35.64,,,,,,,,,,
15.44.09.054,96.1,24.0,0,,,71479.6,13.99,-0.86,-0.12,-0.43,35.8,12.6,11.2,35.42,,,,,,,,,,
15.44.09.066,34.7,8.7,0,,,71479.6,13.99,-1.0,-0.06,-0.64,12.6,-28.4,0.2,35.53,,,,,,,,,,
15.44.09.077,42.3,10.6,0,,,71479.6,13.99,-0.47,-0.13,-0.85,-21.1,-8.9,-31.2,35.46,,,,,,,,,,
15.44.09.087,-20.7,5.2,0,,,71479.6,13.99,-0.57,-0.51,-0.5,-35.8,-29.1,18.2,35.79,,,,,,,,,,
15.44.09.095,-3.5,0.9,0,,,71479.6,13.99,-1.21,-0.71,0.01,8.9,26.5,5.2,35.48,,,,,,,,,,
15.44.09.104,-19.2,4.8,0,,,71479.6,13.99,-0.62,-0.26,-0.53,-16.2,-7.2,-6.4,35.46,,,,,,,,,,
15.44.09.111,-20.3,5.1,0,,,71479.6,13.99,-0.81,0.42,-0.2,-0.6,-6.3,6.6,35.46,,,,,,,,,,
15.44.09.120,-27.9,7.0,0,,,71479.6,13.99,-0.66,-0.42,-0.22,33.3,4.9,14.5,35.54,,,,,,,,,,
15.44.09.130,-32.9,8.2,0,,,71530.8,13.98,-0.67,-0.1,-0.08,6.2,-9.2,13.1,35.45,,,,,,,,,,
15.44.09.138,-23.8,6.0,0,,,71530.8,13.98,-0.78,-0.11,-0.23,-5.0,-0.8,13.7,35.48,,,,,,,,,,
15.44.09.148,-10.0,2.5,0,,,71530.8,13.98,-0.92,-0.78,-0.16,6.0,12.6,-25.5,35.51,,,,,,,,,,
15.44.09.155,-46.4,11.6,0,,,71530.8,13.98,-0.78,-0.81,-0.3,-0.5,15.5,12.2,36.01,,,,,,,,,,
15.44.09.167,-75.9,19.0,0,,,71530.8,13.98,-1.11,-0.38,-0.51,-11.9,-4.9,31.6,35.17,,,,,,,,,,
15.44.09.176,-51.8,13.0,0,,,71530.8,13.98,-1.08,0.02,-0.43,-0.6,2.5,-8.4,35.35,,,,,,,,,,
15.44.09.188,-23.2,5.8,0,,,71530.8,13.98,-1.05,-0.02,-0.1,-11.4,14.7,6.5,35.37,,,,,,,,,,
15.44.09.196,-85.8,21.4,1,16.0,114.5,71530.8,13.98,-0.66,-0.1,-0.28,25.3,12.3,-0.7,35.49,,,,,,,,,,
15.44.09.207,-87.6,21.9,0,,,71530.8,13.98,-1.33,-0.46,0.3,31.3,4.6,-0.7,35.46,,,,,,,,,,
15.44.09.215,-91.4,22.8,0,,,71530.8,13.98,-0.98,-0.69,-0.38,-3.1,0.6,2.6,35.48,,,,,,,,,,
15.44.09.225,-80.4,20.1,0,,,71530.8,13.98,-0.96,-0.12,0.24,-6.9,-1.0,-6.0,35.31,,,,,,,,,,
15.44.09.235,-51.7,12.9,0,,,71530.8,13.98,-0.6,-0.59,-0.38,-22.6,-2.5,8.2,35.43,,,,,,,,,,
15.44.09.244,-90.5,22.6,0,,,71530.8,13.98,-0.91,-0.51,-0.04,25.6,4.2,1.7,35.42,,,,,,,,,,
15.44.09.253,-113.9,28.5,0,,,71530.8,13.98,-0.9,-0.16,0.15,-34.6,-4.0,6.4,35.6,,,,,,,,,,
15.44.09.264,-80.6,20.2,0,,,71530.8,13.98,-0.81,-0.29,-0.29,-12.0,6.2,-20.6,35.43,,,,,,,,,,
15.44.09.272,-105.9,26.5,0,,,71530.8,13.98,-0.84,-0.3,0.23,12.0,13.1,-30.9,35.82,,,,,,,,,,
15.44.09.281,-130.8,32.7,0,,,71530.8,13.98,-1.02,-0.44,-0.04,-38.4,8.9,-1.5,35.65,,,,,,,,,,
15.44.09.289,-120.7,30.2,0,,,71530.8,13.98,-1.35,-0.66,-0.16,25.3,10.3,-11.8,35.55,,,,,,,,,,
15.44.09.298,-126.1,31.5,0,,,71530.8,13.98,-0.84,-0.14,-0.05,1.3,-1.4,-0.4,35.21,,,,,,,,,,
15.44.09.310,-161.6,40.4,0,,,71530.8,13.98,-1.19,0.07,0.29,-19.1,-6.2,-16.1,35.45,,,,,,,,,,
15.44.09.321,-115.7,28.9,0,,,71530.8,13.98,-0.92,-0.35,-0.32,11.9,-14.6,16.8,35.54,,,,,,,,,,
15.44.09.331,-132.8,33.2,0,,,71530.8,13.98,-0.99,-0.3,0.16,16.2,-13.2,-20.9,35.53,,,,,,,,,,
15.44.09.341,-152.5,38.1,0,,,71530.8,13.98,-1.05,-0.58,0.21,33.4,17.8,-0.4,35.54,,,,,,,,,,
15.44.09.351,-179.1,44.8,0,,,71530.8,13.98,-1.57,-0.56,-0.6,-27.4,12.5,-14.6,35.53,,,,,,,,,,
15.44.09.363,-137.2,34.3,0,,,71530.8,13.98,-1.36,-0.04,0.08,-11.7,18.5,-33.7,35.57,,,,,,,,,,
15.44.09.373,-128.2,32.0,0,,,71530.8,13.98,-0.84,-0.37,0.5,-14.3,28.5,20.3,35.31,,,,,,,,,,
15.44.09.385,93.3,23.3,0,,,71530.8,13.98,-1.16,-0.29,0.25,30.2,14.1,-10.2,35.59,,,,,,,,,,
15.44.09.396,153.7,38.4,0,,,71530.8,13.98,-0.66,0.1,-0.32,28.2,9.5,11.5,35.64,,,,,,,,,,
15.44.09.405,163.5,40.9,0,,,71530.8,13.98,-1.1,0.37,0.4,-23.0,21.1,12.9,35.46,,,,,,,,,,
15.44.09.412,241.4,60.4,0,,,71530.8,13.98,-1.01,0.29,0.13,-10.9,-5.9,-13.4,35.22,,,,,,,,,,
15.44.09.422,265.1,66.3,0,,,71530.8,13.98,-0.88,0.22,-0.08,-35.8,-7.8,9.5,35.39,,,,,,,,,,
15.44.09.433,310.8,77.7,0,,,71530.8,13.98,-0.82,0.03,0.05,19.0,7.4,-14.9,35.56,,,,,,,,,,
15.44.09.445,361.9,90.5,0,,,71530.8,13.98,-0.85,-0.17,-0.39,12.7,-3.4,-27.3,35.41,,,,,,,,,,
15.44.09.455,397.5,99.4,0,,,71530.8,13.98,-1.16,-0.04,0.18,-14.4,19.6,8.4,35.17,,,,,,,,,,
15.44.09.465,379.8,95.0,0,,,71530.8,13.98,-0.93,-0.25,-0.52,33.4,3.6,-0.9,35.8,,,,,,,,,,
15.44.09.476,395.7,98.9,0,,,71530.8,13.98,-1.07,-0.23,0.24,16.7,2.5,20.7,35.63,,,,,,,,,,
15.44.09.486,427.4,106.8,0,,,71530.8,13.98,-1.13,-0.15,0.2,21.4,-2.9,-9.5,35.58,,,,,,,,,,
15.44.09.496,413.2,103.3,0,,,71530.8,13.98,-0.73,-0.11,0.17,27.1,-12.4,-5.4,35.43,,,,,,,,,,
15.44.09.505,317.7,79.4,0,,,71530.8,13.98,-1.02,-0.01,-0.06,1.6,12.5,6.5,35.46,,,,,,,,,,
15.44.09.516,349.1,87.3,0,,,71530.8,13.98,-0.97,-0.31,-0.32,3.6,-8.8,4.3,35.53,,,,,,,,,,
15.44.09.523,345.6,86.4,0,,,71530.8,13.98,-0.79,-0.51,-0.8,8.6,16.4,-20.1,35.2,,,,,,,,,,
15.44.09.535,287.0,71.8,0,,,71530.8,13.98,-0.81,-0.02,-0.89,22.2,13.8,12.7,35.58,,,,,,,,,,
15.44.09.544,231.4,57.8,0,,,71530.8,13.98,-1.17,0.14,-0.33,37.4,14.9,-12.2,35.93,,,,,,,,,,
15.44.09.554,185.3,46.3,0,,,71530.8,13.98,-0.55,-0.17,-0.07,9.0,-31.2,-3.9,35.48,,,,,,,,,,
15.44.09.565,144.1,36.0,0,,,71530.8,13.98,-0.97,0.37,-0.18,-8.5,24.4,-3.3,35.88,,,,,,,,,,
15.44.09.576,72.4,18.1,0,,,71530.8,13.98,-0.85,-0.16,-0.15,23.8,-2.5,7.6,35.77,,,,,,,,,,
15.44.09.587,37.3,9.3,0,,,71530.8,13.98,-0.99,-0.08,-0.04,-22.5,1.2,6.7,35.55,,,,,,,,,,
15.44.09.595,26.8,6.7,0,,,71530.8,13.98,-0.83,0.07,-0.31,-51.9,-7.1,-12.8,35.61,,,,,,,,,,
15.44.09.606,31.2,7.8,0,,,71530.8,13.98,-1.06,0.16,-0.4,17.1,-4.5,-11.3,35.46,,,,,,,,,,
15.44.09.614,65.2,16.3,0,,,71530.8,13.98,-0.76,-0.47,0.15,-5.6,-8.4,11.4,35.25,,,,,,,,,,
15.44.09.623,65.8,16.4,0,,,71530.8,13.98,-0.78,0.14,-0.14,-2.2,7.9,-15.7,35.73,,,,,,,,,,
15.44.09.632,50.8,12.7,0,,,71530.8,13.98,-0.69,0.41,-0.22,10.2,-11.9,-5.2,35.54,,,,,,,,,,
15.44.09.644,73.4,18.4,0,,,71530.8,13.98,-0.73,0.28,-0.39,11.3,-18.9,8.9,35.29,,,,,,,,,,
15.44.09.652,74.1,18.5,0,,,71530.8,13.98,-1.02,-0.05,0.03,43.2,1.7,-16.4,35.32,,,,,,,,,,
15.44.09.662,38.6,9.6,0,,,71530.8,13.98,-0.94,0.73,0.16,-0.8,2.8,8.1,35.48,,,,,,,,,,
15.44.09.672,61.1,15.3,0,,,71530.8,13.98,-1.1,-0.1,-0.26,14.5,-11.4,-37.5,35.51,,,,,,,,,,
15.44.09.681,56.1,14.0,0,,,71530.8,13.98,-0.87,0.06,-0.42,24.1,5.5,-1.5,35.49,,,,,,,,,,
15.44.09.690,43.3,10.8,0,,,71530.8,13.98,-1.25,0.39,0.08,43.6,12.4,18.8,35.66,,,,,,,,,,
15.44.09.699,53.8,13.4,0,,,71530.8,13.98,-0.85,-0.0,-0.33,2.7,15.2,-20.1,35.53,,,,,,,,,,
15.44.09.710,-3.8,1.0,0,,,71530.8,13.98,-1.18,0.59,-0.03,-22.5,-4.4,11.3,35.6,,,,,,,,,,
15.44.09.718,-1.7,0.4,0,,,71530.8,13.98,-0.82,-0.22,-0.05,24.2,-6.8,11.3,35.17,,,,,,,,,,
15.44.09.727,9.3,2.3,0,,,71530.8,13.98,-0.83,-0.05,0.02,7.8,-13.3,2.6,35.66,,,,,,,,,,
15.44.09.734,9.1,2.3,0,,,71530.8,13.98,-0.41,0.35,-0.17,-20.4,-2.1,7.4,35.64,,,,,,,,,,
15.44.09.744,-34.0,8.5,0,,,71530.8,13.98,-0.78,0.55,-0.18,-21.2,3.2,-11.9,35.71,,,,,,,,,,
15.44.09.755,-42.8,10.7,0,,,71530.8,13.98,-1.06,0.14,-0.76,-3.5,22.4,-12.8,35.31,,,,,,,,,,
15.44.09.766,7.9,2.0,0,,,71530.8,13.98,-0.61,0.24,0.54,7.3,6.1,-10.2,35.55,,,,,,,,,,
15.44.09.776,-41.4,10.4,0,,,71530.8,13.98,-0.82,-0.03,-0.07,-33.1,26.9,-0.7,35.51,,,,,,,,,,
15.44.09.788,-59.5,14.9,1,17.0,101.4,71530.8,13.98,-0.76,0.3,-0.09,-20.8,15.1,-2.4,35.15,,,,,,,,,,
15.44.09.799,-39.7,9.9,0,,,71530.8,13.98,-0.79,0.13,-0.02,-9.5,-4.6,7.0,35.5,,,,,,,,,,
15.44.09.809,-59.5,14.9,0,,,71530.8,13.98,-0.63,-0.56,0.0,-55.5,9.2,-14.6,35.79,,,,,,,,,,
15.44.09.819,-71.0,17.8,0,,,71530.8,13.98,-0.88,0.1,-0.43,24.5,17.2,0.5,35.44,,,,,,,,,,
15.44.09.827,-79.8,20.0,0,,,71530.8,13.98,-0.55,0.21,0.12,-16.7,-5.9,3.9,35.29,,,,,,,,,,
15.44.09.837,-71.7,17.9,0,,,71530.8,13.98,-0.8,-0.03,0.04,-2.0,15.4,-10.2,35.67,,,,,,,,,,
15.44.09.849,-63.6,15.9,0,,,71530.8,13.98,-0.78,-0.24,-0.1,-13.7,13.5,5.3,35.76,,,,,,,,,,
15.44.09.859,-59.4,14.8,0,,,71530.8,13.98,-0.58,-0.29,-0.27,3.7,-22.2,-13.1,35.74,,,,,,,,,,
15.44.09.868,-94.4,23.6,0,,,71530.8,13.98,-0.69,0.12,-0.3,-19.6,13.1,-10.2,35.64,,,,,,,,,,
15.44.09.878,-129.7,32.4,0,,,71530.8,13.98,-0.66,-0.39,-0.3,-4.3,2.0,13.3,35.4,,,,,,,,,,
15.44.09.887,-92.8,23.2,0,,,71530.8,13.98,-0.61,-0.23,-0.28,5.5,-26.7,-8.3,35.69,,,,,,,,,,
15.44.09.897,-128.8,32.2,0,,,71530.8,13.98,-0.78,-0.56,-0.12,16.1,17.5,-21.7,35.35,,,,,,,,,,
15.44.09.905,-115.8,29.0,0,,,71530.8,13.98,-0.71,-0.35,0.32,30.8,18.8,21.4,35.48,,,,,,,,,,
15.44.09.915,-110.4,27.6,0,,,71530.8,13.98,-0.56,-0.14,0.06,-26.1,26.0,-18.6,35.85,,,,,,,,,,
15.44.09.926,-135.7,33.9,0,,,71530.8,13.98,-0.7,-0.67,-0.71,12.0,17.7,-6.0,35.4,,,,,,,,,,
15.44.09.935,-136.9,34.2,0,,,71530.8,13.98,-0.14,-0.12,0.14,16.8,8.6,-15.6,35.55,,,,,,,,,,
15.44.09.944,-137.4,34.4,0,,,71530.8,13.98,-0.28,-0.89,-0.43,-21.3,6.0,-4.3,35.69,,,,,,,,,,
15.44.09.955,-125.3,31.3,0,,,71530.8,13.98,-0.59,-0.29,-0.26,-0.6,7.9,-6.5,35.73,,,,,,,,,,
15.44.09.964,-173.2,43.3,0,,,71530.8,13.98,-0.63,0.13,-0.46,-4.6,-4.7,-19.2,35.3,,,,,,,,,,
15.44.09.974,-134.1,33.5,0,,,71530.8,13.98,-0.86,-0.25,-0.73,-22.3,14.7,8.0,35.45,,,,,,,,,,
15.44.09.982,-164.0,41.0,0,,,71530.8,13.98,-0.61,-0.68,-0.42,-21.1,18.6,6.7,35.62,,,,,,,,,,
15.44.09.991,-179.5,44.9,0,,,71530.8,13.98,-0.65,-0.18,0.31,-1.0,11.5,-4.8,35.63,,,,,,,,,,
15.44.10.000,43.6,10.9,0,,,71530.8,13.98,-0.94,0.59,-0.51,2.2,-5.5,-12.6,35.35,,,,,,,,,,
15.44.10.009,98.2,24.6,0,,,71530.8,13.98,-0.8,0.0,-0.61,6.5,-4.6,5.0,35.87,96.9,,,,,,,,,
15.44.10.018,162.0,40.5,0,,,71530.8,13.98,-0.88,-0.32,-0.43,-31.4,4.4,13.2,35.66,,,,,,,,,,
15.44.10.030,204.7,51.2,0,,,71530.8,13.98,-1.53,-0.57,-0.25,-15.7,9.6,0.3,35.79,,,,,,,,,,
15.44.10.038,281.0,70.2,0,,,71530.8,13.98,-0.77,-0.18,-0.23,-14.7,6.5,-6.3,35.11,,,,,,,,,,
15.44.10.049,292.6,73.2,0,,,71530.8,13.98,-0.65,-0.46,-0.66,-9.4,-14.8,-5.6,35.71,,,,,,,,,,
15.44.10.059,368.1,92.0,0,,,71530.8,13.98,-0.85,0.04,-0.1,5.4,14.8,-12.2,36.11,,,,,,,,,,
15.44.10.069,392.9,98.2,0,,,71530.8,13.98,-1.31,-0.24,-0.68,-7.3,21.4,-2.3,35.63,,,,,,,,,,
15.44.10.079,363.7,90.9,0,,,71530.8,13.98,-1.19,0.14,-0.2,12.7,-4.4,-14.1,35.71,,,,,,,,,,
15.44.10.089,,,0,,,,,,,,,,,,,,,,,,,,,
15.44.10.102,412.3,103.1,0,,,71530.8,13.98,-0.5,-0.42,-0.64,-23.2,4.4,9.4,35.77,,,,,,,,,,
15.44.10.112,404.4,101.1,0,,,71530.8,13.98,-0.8,-0.21,0.01,7.7,0.1,-19.5,35.13,,,,,,,,,,
15.44.10.121,336.9,84.2,0,,,71530.8,13.98,-0.85,0.02,-0.07,-9.4,15.1,9.9,35.35,,,,,,,,,,
15.44.10.129,376.7,94.2,0,,,71530.8,13.98,-0.98,-0.41,0.13,-16.8,-4.9,17.0,35.65,,,,,,,,,,
15.44.10.137,371.3,92.8,0,,,71530.8,13.98,-0.77,-0.43,-0.12,-4.6,12.8,22.3,35.45,,,,,,,,,,
15.44.10.145,295.2,73.8,0,,,71530.8,13.98,-0.47,-0.38,-0.43,-8.8,-8.4,9.0,35.36,,,,,,,,,,
15.44.10.154,308.1,77.0,0,,,71530.8,13.98,-0.9,-0.03,-0.1,-1.0,3.7,-1.3,35.57,,,,,,,,,,
15.44.10.162,275.4,68.8,0,,,71530.8,13.98,-0.92,-0.88,-0.11,3.5,25.8,23.7,35.49,,,,,,,,,,
15.44.10.171,212.3,53.1,0,,,71530.8,13.98,-0.55,-0.39,-0.33,23.3,8.0,-26.8,35.34,,,,,,,,,,
15.44.10.180,140.1,35.0,0,,,71530.8,13.98,-1.0,-0.31,0.16,-12.6,-21.2,2.9,35.65,,,,,,,,,,
15.44.10.190,105.1,26.3,0,,,71530.8,13.98,-1.0,-0.52,0.27,12.1,-2.7,-5.5,35.03,,,,,,,,,,
15.44.10.198,52.5,13.1,0,,,71530.8,13.98,-1.01,-0.19,0.16,24.5,-8.4,2.0,35.78,,,,,,,,,,
15.44.10.208,19.5,4.9,0,,,71530.8,13.98,-1.21,-0.24,0.09,0.6,18.3,-3.7,35.34,,,,,,,,,,
15.44.10.220,12.3,3.1,0,,,71530.8,13.98,-1.23,-0.62,-0.14,14.9,27.4,-20.5,35.52,,,,,,,,,,
15.44.10.230,43.0,10.8,0,,,71530.8,13.98,-1.06,-0.46,-0.05,-15.3,10.5,1.5,35.38,,,,,,,,,,
15.44.10.239,54.8,13.7,0,,,71530.8,13.98,-1.12,-0.52,0.52,-18.1,-9.5,-24.8,35.55,,,,,,,,,,
15.44.10.251,24.8,6.2,0,,,71530.8,13.98,-1.04,-0.12,0.03,9.0,-37.8,18.8,35.36,,,,,,,,,,
15.44.10.260,85.7,21.4,0,,,71530.8,13.98,-0.77,-0.34,0.77,4.8,0.4,-15.7,35.63,,,,,,,,,,
15.44.10.271,67.5,16.9,0,,,71530.8,13.98,-1.04,-0.42,0.09,11.9,13.7,-0.5,35.38,,,,,,,,,,
15.44.10.279,55.1,13.8,0,,,71530.8,13.98,-1.11,-0.16,0.04,21.3,20.4,20.8,35.18,,,,,,,,,,
15.44.10.289,79.4,19.8,0,,,71530.8,13.98,-1.02,-0.61,0.14,17.6,-20.3,-2.5,35.69,,,,,,,,,,
15.44.10.299,50.6,12.6,0,,,71530.8,13.98,-0.88,-0.89,-0.54,-19.5,10.5,12.8,35.66,,,,,,,,,,
15.44.10.306,72.5,18.1,0,,,71530.8,13.98,-0.92,0.11,-0.03,6.6,11.0,-21.9,35.64,,,,,,,,,,
15.44.10.317,19.0,4.8,0,,,71530.8,13.98,-0.82,-0.01,0.22,7.2,8.3,0.2,35.47,,,,,,,,,,
15.44.10.324,18.7,4.7,0,,,71530.8,13.98,-1.37,-0.4,0.3,-25.8,25.4,22.5,35.34,,,,,,,,,,
15.44.10.334,-6.1,1.5,0,,,71530.8,13.98,-0.88,0.23,-0.19,1.5,-17.7,-2.3,35.48,,,,,,,,,,
15.44.10.340,-16.8,4.2,0,,,71530.8,13.98,-1.0,0.12,-0.39,2.2,-26.4,-3.4,35.77,,,,,,,,,,
15.44.10.349,-27.3,6.8,0,,,71530.8,13.98,-1.24,0.09,-0.32,16.9,20.3,-17.6,35.8,,,,,,,,,,
15.44.10.360,-9.7,2.4,0,,,71530.8,13.98,-1.1,0.1,-0.45,-10.5,11.8,12.7,35.77,,,,,,,,,,
15.44.10.369,-23.2,5.8,1,18.0,103.3,71530.8,13.98,-1.19,0.1,-0.18,-28.7,2.1,-8.9,35.42,,,,,,,,,,
15.44.10.377,-48.7,12.2,0,,,71530.8,13.98,-1.28,0.3,-0.45,21.2,-14.5,8.5,35.24,,,,,,,,,,
15.44.10.386,-28.7,7.2,0,,,71530.8,13.98,-0.95,-0.41,-0.56,-4.2,8.8,6.3,35.45,,,,,,,,,,
15.44.10.398,-42.0,10.5,0,,,71530.8,13.98,-0.8,0.22,-0.5,-16.2,20.9,6.5,35.66,,,,,,,,,,
15.44.10.406,-45.0,11.2,0,,,71530.8,13.98,-0.97,-0.14,0.07,-20.8,13.4,-0.8,35.46,,,,,,,,,,
15.44.10.420,-25.6,6.4,0,,,71530.8,13.98,-0.92,-0.41,-0.4,-5.5,1.7,-11.7,35.7,,,,,,,,,,
15.44.10.429,-73.1,18.3,0,,,71530.8,13.98,-1.1,0.03,-0.08,13.2,18.9,9.8,35.35,,,,,,,,,,
15.44.10.438,-57.5,14.4,0,,,71530.8,13.98,-0.53,0.37,-0.19,4.2,-1.7,-1.3,35.62,,,,,,,,,,
15.44.10.446,-101.0,25.2,0,,,71530.8,13.98,-0.75,0.6,-0.39,-12.5,14.7,-11.5,35.35,,,,,,,,,,
15.44.10.456,-87.1,21.8,0,,,71530.8,13.98,-1.33,0.41,-0.17,0.8,-13.7,5.4,35.45,,,,,,,,,,
15.44.10.465,-73.8,18.4,0,,,71530.8,13.98,-0.8,-0.04,-0.26,2.9,20.5,8.3,35.34,,,,,,,,,,
15.44.10.474,-94.5,23.6,0,,,71530.8,13.98,-0.65,0.08,-0.56,3.3,-2.9,-14.4,35.13,,,,,,,,,,
15.44.10.484,-64.6,16.2,0,,,71530.8,13.98,-0.53,-0.01,0.12,9.7,-22.4,4.1,35.7,,,,,,,,,,
15.44.10.495,-89.0,22.2,0,,,71530.8,13.98,-1.03,-0.05,-0.17,25.5,-2.0,7.2,35.7,,,,,,,,,,
15.44.10.504,-69.2,17.3,0,,,71530.8,13.98,-0.82,-0.19,0.11,-21.2,10.8,2.3,35.84,,,,,,,,,,
15.44.10.515,-100.0,25.0,0,,,71530.8,13.98,-1.0,0.18,0.12,17.2,-4.2,0.2,35.57,,,,,,,,,,
15.44.10.525,-95.6,23.9,0,,,71530.8,13.98,-0.86,0.21,-1.19,5.9,35.9,-1.4,35.62,,,,,,,,,,
15.44.10.533,,,0,,,,,,,,,,,,,,,,,,,,,
15.44.10.544,-123.8,31.0,0,,,71530.8,13.98,-1.07,0.53,-0.29,-17.2,-20.7,4.6,35.63,,,,,,,,,,
15.44.10.554,-146.5,36.6,0,,,71530.8,13.98,-0.65,-0.09,-0.26,-4.0,0.1,20.3,35.58,,,,,,,,,,
15.44.10.564,-142.6,35.6,0,,,71530.8,13.98,-0.86,-0.13,-0.41,34.6,20.1,-1.7,35.31,,,,,,,,,,
15.44.10.574,-142.8,35.7,0,,,71530.8,13.98,-0.8,0.39,-0.19,-22.5,-0.3,-15.0,35.49,,,,,,,,,,
15.44.10.583,-143.7,35.9,0,,,71530.8,13.98,-0.62,0.12,-1.05,10.9,-14.5,-8.8,35.44,,,,,,,,,,
15.44.10.592,-165.5,41.4,0,,,71530.8,13.98,-0.72,-0.08,0.06,-8.6,-3.7,16.1,35.44,,,,,,,,,,
15.44.10.602,-172.6,43.2,0,,,71530.8,13.98,-0.69,-0.24,-0.27,4.1,4.1,-21.2,35.34,,,,,,,,,,
15.44.10.613,-5.5,1.4,0,,,71530.8,13.98,-0.91,-0.08,-0.2,43.5,30.0,24.3,35.63,,,,,,,,,,
15.44.10.623,102.0,25.5,0,,,71530.8,13.98,-1.12,-0.31,-0.52,0.6,9.5,-1.9,35.41,,,,,,,,,,
15.44.10.633,146.2,36.6,0,,,71530.8,13.98,-0.7,-0.17,-0.06,-15.2,0.9,-4.9,35.39,,,,,,,,,,
15.44.10.643,177.9,44.5,0,,,71530.8,13.98,-1.0,0.66,0.18,2.1,28.7,12.2,35.38,,,,,,,,,,
15.44.10.654,223.4,55.8,0,,,71530.8,13.98,-0.62,-0.13,0.18,-2.5,17.1,-29.8,35.46,,,,,,,,,,
15.44.10.662,237.2,59.3,0,,,71530.8,13.98,-0.83,-0.18,0.42,4.4,6.5,-3.2,35.05,,,,,,,,,,
15.44.10.668,351.1,87.8,0,,,71530.8,13.98,-0.45,-0.04,-0.16,-19.1,-17.6,0.3,35.05,,,,,,,,,,
15.44.10.676,369.4,92.4,0,,,71530.8,13.98,-0.72,-0.06,0.0,-2.7,3.0,8.6,35.58,,,,,,,,,,
15.44.10.686,375.0,93.8,0,,,71530.8,13.98,-0.71,-0.15,-0.32,14.6,19.4,3.7,35.47,,,,,,,,,,
15.44.10.696,415.4,103.8,0,,,71530.8,13.98,-0.6,-0.04,-0.18,-6.4,17.0,-18.1,35.27,,,,,,,,,,
15.44.10.706,405.4,101.4,0,,,71530.8,13.98,-0.5,0.18,-0.21,22.9,5.2,-14.2,35.81,,,,,,,,,,
15.44.10.715,341.7,85.4,0,,,71530.8,13.98,-0.81,0.06,0.01,-18.8,13.2,-7.0,35.47,,,,,,,,,,
15.44.10.725,398.1,99.5,0,,,71530.8,13.98,-0.93,-0.6,-0.22,16.2,14.9,11.0,35.71,,,,,,,,,,
15.44.10.736,338.4,84.6,0,,,71530.8,13.98,-0.7,-0.15,0.06,4.4,-2.4,-24.7,35.57,,,,,,,,,,
15.44.10.744,422.6,105.6,0,,,71530.8,13.98,-1.05,-0.27,-0.68,-25.4,-16.2,6.5,35.63,,,,,,,,,,
15.44.10.753,324.7,81.2,0,,,71530.8,13.98,-0.8,0.23,-0.34,-14.2,-9.7,7.4,35.54,,,,,,,,,,
15.44.10.762,277.4,69.4,0,,,71530.8,13.98,-0.58,-0.23,-0.44,22.0,41.9,3.1,35.87,,,,,,,,,,
15.44.10.770,307.0,76.8,0,,,71530.8,13.98,-0.73,-0.08,-0.36,13.7,-0.3,-20.6,35.46,,,,,,,,,,
15.44.10.781,251.8,63.0,0,,,71530.8,13.98,-0.42,-0.53,-0.13,4.7,9.8,-13.7,35.36,,,,,,,,,,
15.44.10.790,177.4,44.4,0,,,71479.6,13.99,-0.76,-0.16,0.3,-20.5,-7.6,5.8,35.72,,,,,,,,,,
15.44.10.797,127.0,31.8,0,,,71479.6,13.99,-0.74,-0.36,-0.55,-12.4,-3.0,16.9,35.54,,,,,,,,,,
15.44.10.806,114.8,28.7,0,,,71479.6,13.99,-1.1,-0.42,-0.52,-2.1,14.0,5.3,35.51,,,,,,,,,,
15.44.10.814,52.2,13.0,0,,,71479.6,13.99,-0.51,-0.46,-0.7,-21.0,7.5,-8.2,35.64,,,,,,,,,,
15.44.10.824,-26.2,6.6,0,,,71479.6,13.99,-1.06,0.41,-0.04,-10.4,7.2,-0.1,35.33,,,,,,,,,,
15.44.10.834,2.3,0.6,0,,,71479.6,13.99,-0.29,-0.13,-0.0,15.1,21.9,-7.6,35.47,,,,,,,,,,
15.44.10.844,49.5,12.4,0,,,71479.6,13.99,-0.64,-0.37,-0.28,-8.7,20.5,-1.6,35.55,,,,,,,,,,
15.44.10.855,41.8,10.4,0,,,71479.6,13.99,-1.06,-0.08,-0.05,-8.8,18.1,5.2,35.35,,,,,,,,,,
15.44.10.865,66.8,16.7,0,,,71479.6,13.99,-0.49,-0.04,-0.6,53.4,10.5,-17.2,35.27,,,,,,,,,,
15.44.10.875,51.2,12.8,0,,,71479.6,13.99,-0.86,-0.5,0.25,16.2,13.0,21.2,35.36,,,,,,,,,,
15.44.10.883,76.2,19.0,0,,,71479.6,13.99,-0.82,0.09,-0.46,13.7,-11.5,2.3,35.42,,,,,,,,,,
15.44.10.892,47.8,12.0,0,,,71479.6,13.99,-0.47,-0.28,-0.12,-29.4,19.1,3.7,35.58,,,,,,,,,,
15.44.10.901,59.5,14.9,0,,,71479.6,13.99,-0.79,-0.22,-0.35,-27.6,-19.6,-12.3,35.34,,,,,,,,,,
15.44.10.914,25.1,6.3,0,,,71479.6,13.99,-0.45,-0.39,-0.61,4.8,-4.6,-9.6,35.2,,,,,,,,,,
15.44.10.923,62.9,15.7,1,19.0,108.3,71479.6,13.99,-0.77,-0.45,0.2,-16.9,1.6,-0.1,35.8,,,,,,,,,,
15.44.10.933,23.2,5.8,0,,,71479.6,13.99,-0.8,-0.45,-0.51,-13.8,8.4,8.0,35.55,,,,,,,,,,
15.44.10.943,-5.4,1.4,0,,,71479.6,13.99,-0.71,-0.41,-0.23,-12.2,-2.2,0.7,35.52,,,,,,,,,,
15.44.10.950,-3.5,0.9,0,,,71479.6,13.99,-1.01,-0.32,-0.91,15.3,-7.9,-6.1,35.42,,,,,,,,,,
15.44.10.961,-22.3,5.6,0,,,71479.6,13.99,-0.78,-0.18,-0.34,8.2,10.5,3.2,35.52,,,,,,,,,,
15.44.10.971,-23.6,5.9,0,,,71479.6,13.99,-1.04,-0.18,-0.06,-8.6,-2.3,13.3,35.33,,,,,,,,,,
15.44.10.981,-31.0,7.8,0,,,71479.6,13.99,-1.06,-0.56,0.12,29.8,-4.1,9.8,35.41,,,,,,,,,,
15.44.10.992,-15.3,3.8,0,,,71479.6,13.99,-0.79,-0.48,-0.31,-9.2,1.1,-3.8,35.53,,,,,,,,,,
15.44.11.002,-33.1,8.3,0,,,71479.6,13.99,-0.98,-0.11,-0.22,13.0,-0.4,-20.7,35.37,,,,,,,,,,
15.44.11.008,-48.0,12.0,0,,,71479.6,13.99,-0.53,-0.39,0.3,6.8,4.4,-24.5,35.45,,,,,,,,,,
15.44.11.020,-34.1,8.5,0,,,71479.6,13.99,-0.99,-0.48,0.16,-20.9,5.0,2.9,35.25,,,,,,,,,,
15.44.11.031,-35.8,9.0,0,,,71479.6,13.99,-1.09,-0.17,-0.13,-13.1,0.0,-18.9,35.37,,,,,,,,,,
15.44.11.042,-70.7,17.7,0,,,71479.6,13.99,-1.04,-0.26,0.09,11.2,13.0,-2.5,35.43,,,,,,,,,,
15.44.11.052,-45.4,11.4,0,,,71479.6,13.99,-0.53,-0.68,0.02,5.2,1.6,3.2,35.42,,,,,,,,,,
15.44.11.060,-68.8,17.2,0,,,71479.6,13.99,-0.88,-0.54,-0.16,8.6,-9.1,-24.7,35.5,,,,,,,,,,
15.44.11.071,-89.3,22.3,0,,,71479.6,13.99,-0.83,-0.62,0.03,11.3,-0.4,-44.4,35.52,,,,,,,,,,
15.44.11.083,-81.6,20.4,0,,,71479.6,13.99,-1.36,0.02,-0.25,-9.0,10.9,1.2,35.66,,,,,,,,,,
15.44.11.095,-77.6,19.4,0,,,71479.6,13.99,-1.38,-0.26,-0.27,3.4,9.7,4.0,35.48,,,,,,,,,,
15.44.11.105,-92.2,23.0,0,,,71479.6,13.99,-0.9,-0.24,-0.33,-18.8,2.4,5.1,35.75,,,,,,,,,,
15.44.11.114,-90.2,22.6,0,,,71479.6,13.99,-1.15,-1.13,-0.21,-17.6,-0.3,-6.2,35.39,,,,,,,,,,
15.44.11.124,-99.1,24.8,0,,,71479.6,13.99,-0.73,-0.48,-0.22,5.9,0.8,-15.7,35.68,,,,,,,,,,
15.44.11.133,-93.2,23.3,0,,,71479.6,13.99,-0.96,-0.43,0.21,18.6,7.3,-12.1,35.89,,,,,,,,,,
15.44.11.143,-143.0,35.8,0,,,71479.6,13.99,-1.07,-0.21,0.15,9.8,-3.0,0.5,35.41,,,,,,,,,,
15.44.11.151,-121.5,30.4,0,,,71479.6,13.99,-0.97,-0.17,0.05,37.8,17.8,-12.6,35.56,,,,,,,,,,
15.44.11.162,-145.8,36.4,0,,,71479.6,13.99,-0.86,-0.05,-0.6,9.6,-11.6,-9.4,35.47,,,,,,,,,,
15.44.11.169,-114.1,28.5,0,,,71479.6,13.99,-1.03,-0.54,-0.17,-14.4,-0.2,-21.6,35.57,,,,,,,,,,
15.44.11.180,-155.7,38.9,0,,,71479.6,13.99,-0.82,-0.08,-0.05,20.6,-6.5,-1.8,35.34,,,,,,,,,,
15.44.11.191,-143.6,35.9,0,,,71479.6,13.99,-0.85,-0.11,0.15,10.6,1.5,-8.1,35.56,,,,,,,,,,
15.44.11.200,-156.8,39.2,0,,,71479.6,13.99,-0.99,-0.26,0.05,11.6,16.0,-14.4,35.36,,,,,,,,,,
15.44.11.211,-174.4,43.6,0,,,71479.6,13.99,-1.08,-0.56,-0.44,23.2,13.7,-10.4,35.72,,,,,,,,,,
15.44.11.221,-147.3,36.8,0,,,71479.6,13.99,-1.03,0.11,0.17,10.5,-3.2,-28.3,35.6,,,,,,,,,,
15.44.11.231,3.6,0.9,0,,,71479.6,13.99,-1.14,0.59,-0.3,14.9,56.2,-4.6,35.69,,,,,,,,,,
15.44.11.244,111.6,27.9,0,,,71479.6,13.99,-1.19,0.53,0.01,-5.9,3.2,-17.2,35.36,,,,,,,,,,
15.44.11.252,156.1,39.0,0,,,71479.6,13.99,-0.82,-0.21,-0.04,-23.6,17.7,7.4,35.46,,,,,,,,,,
15.44.11.262,217.3,54.3,0,,,71479.6,13.99,-1.34,0.33,-0.05,-10.5,16.3,-10.0,35.71,,,,,,,,,,
15.44.11.275,310.6,77.6,0,,,71479.6,13.99,-0.62,0.08,-0.42,-4.2,-5.1,18.1,35.62,,,,,,,,,,
15.44.11.286,313.3,78.3,0,,,71479.6,13.99,-1.08,-0.4,-0.01,-18.9,11.2,-8.1,35.76,,,,,,,,,,
15.44.11.293,328.5,82.1,0,,,71479.6,13.99,-0.76,-0.15,-0.61,-21.7,16.6,24.7,35.66,,,,,,,,,,
15.44.11.302,377.8,94.4,0,,,71479.6,13.99,-1.41,0.15,-0.42,2.8,9.2,4.1,35.52,,,,,,,,,,
15.44.11.312,414.3,103.6,0,,,71479.6,13.99,-1.4,-0.08,-0.18,28.5,7.8,20.6,35.21,,,,,,,,,,
15.44.11.321,422.0,105.5,0,,,71479.6,13.99,-1.02,-0.23,-0.41,9.1,6.3,-18.2,35.45,,,,,,,,,,
15.44.11.331,414.4,103.6,0,,,71479.6,13.99,-1.12,0.06,-0.17,20.0,-14.0,-7.0,35.67,,,,,,,,,,
15.44.11.339,414.9,103.7,0,,,71479.6,13.99,-0.84,0.12,-0.59,9.8,-15.3,2.3,35.48,,,,,,,,,,
15.44.11.346,405.2,101.3,0,,,71479.6,13.99,-1.29,-0.25,0.35,-7.9,-6.5,27.4,35.54,,,,,,,,,,
15.44.11.358,347.3,86.8,0,,,71479.6,13.99,-0.94,-0.12,0.29,-16.5,-1.5,11.8,35.35,,,,,,,,,,
15.44.11.368,404.5,101.1,0,,,71479.6,13.99,-0.75,-0.29,0.21,-2.1,-0.5,7.3,35.71,,,,,,,,,,
15.44.11.378,303.5,75.9,0,,,71479.6,13.99,-0.85,-0.25,-0.59,17.8,1.4,6.1,35.41,,,,,,,,,,
15.44.11.387,290.8,72.7,0,,,71479.6,13.99,-0.62,0.42,-0.29,-7.5,12.2,25.4,35.57,,,,,,,,,,
15.44.11.398,254.9,63.7,0,,,71479.6,13.99,-1.12,0.08,-0.15,-22.6,-8.4,2.4,35.48,,,,,,,,,,
15.44.11.409,185.2,46.3,0,,,71479.6,13.99,-0.81,0.28,-0.41,-40.3,17.4,-10.3,35.6,,,,,,,,,,
15.44.11.419,130.0,32.5,0,,,71479.6,13.99,-0.69,0.3,0.18,-24.0,7.9,-17.8,35.43,,,,,,,,,,
15.44.11.428,107.7,26.9,0,,,71479.6,13.99,-0.64,0.67,-0.52,8.2,20.9,2.7,35.38,,,,,,,,,,
15.44.11.438,-2.0,0.5,0,,,71479.6,13.99,-0.72,0.57,-0.58,-22.8,9.8,-2.4,35.6,,,,,,,,,,
15.44.11.447,10.3,2.6,0,,,71479.6,13.99,-0.99,-0.18,-0.19,15.1,-0.6,2.3,35.16,,,,,,,,,,
15.44.11.457,30.0,7.5,0,,,71479.6,13.99,-1.05,0.47,-0.3,8.1,-29.2,-20.6,35.19,,,,,,,,,,
15.44.11.465,33.1,8.3,0,,,71479.6,13.99,-1.16,-0.08,-0.03,-13.6,7.2,6.0,35.3,,,,,,,,,,
15.44.11.471,68.9,17.2,0,,,71479.6,13.99,-0.91,0.45,-0.33,-5.9,4.1,10.1,35.72,,,,,,,,,,
15.44.11.480,58.3,14.6,0,,,71479.6,13.99,-0.73,-0.38,-0.03,11.7,-6.8,7.2,35.48,,,,,,,,,,
15.44.11.491,91.5,22.9,0,,,71479.6,13.99,-0.92,-0.8,-0.42,7.8,22.2,-11.3,35.37,,,,,,,,,,
15.44.11.502,67.0,16.8,0,,,71479.6,13.99,-1.28,0.26,-0.55,-4.6,26.6,-6.6,35.55,,,,,,,,,,
15.44.11.510,68.9,17.2,1,20.0,102.2,71479.6,13.99,-0.52,0.03,0.39,-23.4,20.0,8.5,35.34,,,,,,,,,,
15.44.11.521,70.2,17.6,0,,,71479.6,13.99,-0.67,-0.06,-0.09,-25.9,24.9,11.5,35.49,,,,,,,,,,
15.44.11.529,80.8,20.2,0,,,71479.6,13.99,-1.06,0.1,0.09,-8.4,33.0,7.7,35.75,,,,,,,,,,
15.44.11.540,34.1,8.5,0,,,71479.6,13.99,-1.1,-0.05,0.23,-11.9,-8.9,0.1,35.36,,,,,,,,,,
15.44.11.551,61.5,15.4,0,,,71479.6,13.99,-1.12,-0.54,0.36,-0.1,15.0,6.0,35.68,,,,,,,,,,
15.44.11.560,-26.0,6.5,0,,,71479.6,13.99,-0.71,-0.1,0.04,-20.9,8.8,-7.0,35.22,,,,,,,,,,
15.44.11.569,10.9,2.7,0,,,71479.6,13.99,-0.6,0.13,-0.08,-4.6,29.4,-18.1,35.8,,,,,,,,,,
15.44.11.577,-39.0,9.8,0,,,71479.6,13.99,-0.63,0.05,0.14,40.8,13.6,42.0,35.54,,,,,,,,,,
15.44.11.586,-9.0,2.2,0,,,71479.6,13.99,-0.55,-0.05,0.64,8.5,-7.6,-5.7,35.74,,,,,,,,,,
15.44.11.596,-26.7,6.7,0,,,71479.6,13.99,-0.89,-0.45,-0.52,-18.4,-5.8,15.6,35.8,,,,,,,,,,
15.44.11.603,-4.8,1.2,0,,,71479.6,13.99,-0.83,0.18,-0.2,-9.5,5.7,26.9,35.37,,,,,,,,,,
15.44.11.610,-0.8,0.2,0,,,71479.6,13.99,-0.52,-0.27,-0.2,-3.5,3.9,8.3,35.64,,,,,,,,,,
15.44.11.620,-46.3,11.6,0,,,71479.6,13.99,-0.64,-0.26,-0.22,-4.7,8.3,-4.4,35.35,,,,,,,,,,
15.44.11.632,-51.5,12.9,0,,,71479.6,13.99,-0.66,0.16,0.47,3.2,13.1,-6.6,35.61,,,,,,,,,,
15.44.11.641,-39.5,9.9,0,,,71479.6,13.99,-0.56,-0.2,-0.69,25.3,23.2,3.3,35.25,,,,,,,,,,
15.44.11.650,-39.3,9.8,0,,,71479.6,13.99,-0.92,-0.19,-0.2,12.7,-13.2,3.0,35.42,,,,,,,,,,
15.44.11.660,-78.2,19.6,0,,,71479.6,13.99,-0.81,-0.23,-0.1,28.7,-1.4,-23.7,35.54,,,,,,,,,,
15.44.11.669,-64.3,16.1,0,,,71479.6,13.99,-0.63,-0.08,-0.55,29.2,18.2,-9.9,35.56,,,,,,,,,,
15.44.11.680,-76.4,19.1,0,,,71479.6,13.99,-0.55,-0.64,0.17,40.2,14.7,4.4,35.62,,,,,,,,,,
15.44.11.690,-51.6,12.9,0,,,71479.6,13.99,-0.52,-0.37,-0.16,9.2,8.1,-17.6,35.53,,,,,,,,,,
15.44.11.700,-133.3,33.3,0,,,71479.6,13.99,-0.6,0.13,-0.55,-3.3,1.5,-21.1,35.35,,,,,,,,,,
15.44.11.709,-100.6,25.2,0,,,71479.6,13.99,-0.77,-0.26,-0.19,-4.9,14.5,-4.6,35.86,,,,,,,,,,
15.44.11.718,-87.6,21.9,0,,,71479.6,13.99,-0.96,0.01,0.06,37.4,-10.8,-1.3,35.39,,,,,,,,,,
15.44.11.727,-123.7,30.9,0,,,71479.6,13.99,-0.67,0.35,-0.57,11.2,-2.6,-22.8,35.4,,,,,,,,,,
15.44.11.735,-70.2,17.6,0,,,71479.6,13.99,-1.05,-0.83,-0.19,37.8,9.4,0.6,35.45,,,,,,,,,,
15.44.11.743,-79.3,19.8,0,,,71479.6,13.99,-0.85,-0.52,-0.15,-11.5,3.8,-0.1,35.33,,,,,,,,,,
15.44.11.751,-115.2,28.8,0,,,71479.6,13.99,-1.03,-0.71,-0.53,20.2,-13.4,-27.6,35.65,,,,,,,,,,
15.44.11.763,-106.2,26.6,0,,,71479.6,13.99,-0.71,-0.52,-0.5,-14.1,-21.7,1.7,35.42,,,,,,,,,,
15.44.11.773,-119.8,30.0,0,,,71479.6,13.99,-0.5,-0.56,-0.03,-8.2,-10.6,-19.5,35.92,,,,,,,,,,
15.44.11.782,-126.2,31.6,0,,,71479.6,13.99,-0.85,-0.12,-0.42,21.1,7.6,-1.6,35.7,,,,,,,,,,
15.44.11.791,-118.4,29.6,0,,,71479.6,13.99,-0.6,-0.51,-0.11,8.8,31.8,2.2,35.42,,,,,,,,,,
15.44.11.800,-176.2,44.0,0,,,71479.6,13.99,-0.94,-0.08,-0.19,13.5,21.3,-1.4,35.32,,,,,,,,,,
15.44.11.808,-173.1,43.3,0,,,71479.6,13.99,-1.26,-0.19,-0.52,-35.7,-9.6,-0.3,35.75,,,,,,,,,,
15.44.11.817,-149.9,37.5,0,,,71479.6,13.99,-0.4,-0.56,-0.31,-3.2,2.6,-6.1,35.69,,,,,,,,,,
15.44.11.826,-149.6,37.4,0,,,71479.6,13.99,-1.17,-0.39,-0.14,-27.6,21.4,9.7,35.35,,,,,,,,,,
15.44.11.837,-141.6,35.4,0,,,71479.6,13.99,-0.71,-0.25,-0.1,37.4,4.2,8.0,35.54,,,,,,,,,,
15.44.11.849,44.8,11.2,0,,,71479.6,13.99,-0.64,-0.3,-0.05,8.0,-19.4,-6.8,35.53,,,,,,,,,,
15.44.11.860,100.7,25.2,0,,,71479.6,13.99,-0.92,-0.58,-0.26,28.5,2.8,-5.6,35.3,,,,,,,,,,
15.44.11.870,157.1,39.3,0,,,71479.6,13.99,-1.12,-0.4,-0.18,0.0,45.7,-12.9,35.55,,,,,,,,,,
15.44.11.880,216.1,54.0,0,,,71479.6,13.99,-0.94,-0.63,-0.44,-24.5,11.6,-0.5,35.53,,,,,,,,,,
15.44.11.891,276.2,69.0,0,,,71479.6,13.99,-1.15,-0.29,-0.12,-6.5,37.1,-27.2,36.02,,,,,,,,,,
15.44.11.900,285.4,71.4,0,,,71479.6,13.99,-0.97,-0.35,-0.28,-0.7,25.3,-7.3,35.65,,,,,,,,,,
15.44.11.909,320.9,80.2,0,,,71479.6,13.99,-0.64,-0.38,-0.22,1.0,-4.7,-27.4,35.41,,,,,,,,,,
15.44.11.921,376.8,94.2,0,,,71479.6,13.99,-0.75,-0.48,-0.39,-28.1,21.5,-11.6,35.85,,,,,,,,,,
15.44.11.930,412.0,103.0,0,,,71479.6,13.99,-0.81,-0.73,-0.05,-4.0,-14.2,-2.7,35.41,,,,,,,,,,
15.44.11.940,419.5,104.9,0,,,71479.6,13.99,-0.65,-0.77,0.3,-18.4,27.1,17.9,35.27,,,,,,,,,,
15.44.11.950,410.4,102.6,0,,,71479.6,13.99,-0.74,-0.35,-0.56,34.2,14.8,4.0,35.69,,,,,,,,,,
15.44.11.960,408.2,102.0,0,,,71479.6,13.99,-0.85,-0.62,-0.03,9.0,-4.5,16.3,35.51,,,,,,,,,,
15.44.11.970,387.7,96.9,0,,,71479.6,13.99,-1.16,-0.22,-0.03,21.4,-15.1,2.8,35.78,,,,,,,,,,
15.44.11.983,359.0,89.8,0,,,71479.6,13.99,-0.97,-0.45,0.23,8.2,5.5,20.5,35.46,,,,,,,,,,
15.44.11.992,334.5,83.6,0,,,71479.6,13.99,-0.94,-0.34,-0.42,-18.5,6.7,-4.6,35.72,,,,,,,,,,
15.44.12.002,309.5,77.4,0,,,71479.6,13.99,-0.81,-0.67,0.18,-8.6,-4.3,-25.0,35.62,,,,,,,,,,
15.44.12.012,266.3,66.6,0,,,71479.6,13.99,-1.17,-0.23,-0.15,4.1,11.2,22.4,35.16,,,,,,,,,,
15.44.12.023,169.5,42.4,0,,,71479.6,13.99,-1.13,-0.13,0.11,17.0,8.8,-31.5,35.27,,,,,,,,,,
15.44.12.035,110.7,27.7,0,,,71479.6,13.99,-1.07,-0.25,0.65,2.9,10.2,-6.6,35.7,,,,,,,,,,
15.44.12.046,66.6,16.6,0,,,71479.6,13.99,-1.06,0.22,0.05,1.6,43.3,-1.5,35.11,,,,,,,,,,
15.44.12.055,13.8,3.4,0,,,71479.6,13.99,-0.85,-0.76,0.21,30.8,15.9,4.1,35.71,,,,,,,,,,
15.44.12.065,27.5,6.9,0,,,71479.6,13.99,-1.2,0.31,-0.05,-6.1,-4.1,0.6,35.5,,,,,,,,,,
15.44.12.074,23.2,5.8,0,,,71479.6,13.99,-0.96,-0.23,0.35,28.8,-24.0,8.6,35.39,,,,,,,,,,
15.44.12.084,49.2,12.3,0,,,71479.6,13.99,-1.07,-0.26,0.07,31.5,-3.5,-14.1,35.56,,,,,,,,,,
15.44.12.093,62.9,15.7,0,,,71479.6,13.99,-1.1,-0.41,-0.25,-10.7,-2.9,0.7,35.67,,,,,,,,,,
15.44.12.104,54.7,13.7,0,,,71479.6,13.99,-1.38,-0.05,-0.23,0.6,-11.7,4.3,35.49,,,,,,,,,,
15.44.12.113,69.8,17.4,0,,,71479.6,13.99,-0.83,-0.16,-0.7,-10.8,24.8,-16.4,35.87,,,,,,,,,,
15.44.12.123,90.1,22.5,0,,,71479.6,13.99,-1.08,-0.27,-0.16,20.6,9.6,11.3,35.43,,,,,,,,,,
15.44.12.135,76.9,19.2,1,21.0,96.0,71479.6,13.99,-1.01,-0.13,-0.5,-2.0,16.8,2.8,35.35,,,,,,,,,,
15.44.12.145,72.9,18.2,0,,,71479.6,13.99,-1.03,-0.39,-0.21,0.7,-7.2,-16.7,35.59,,,,,,,,,,
15.44.12.154,8.8,2.2,0,,,71479.6,13.99,-0.71,0.06,0.09,22.2,12.7,-26.6,35.59,,,,,,,,,,
15.44.12.164,9.8,2.4,0,,,71479.6,13.99,-0.8,-0.16,-0.46,10.3,11.8,-27.8,35.81,,,,,,,,,,
15.44.12.174,13.9,3.5,0,,,71479.6,13.99,-1.07,0.13,-0.15,-2.2,-3.1,1.1,35.49,,,,,,,,,,
15.44.12.185,8.8,2.2,0,,,71479.6,13.99,-0.66,-0.35,-0.96,22.3,9.0,-4.3,35.57,,,,,,,,,,
15.44.12.195,-21.3,5.3,0,,,71479.6,13.99,-1.21,-0.22,-0.5,17.0,3.1,-20.0,35.74,,,,,,,,,,
15.44.12.202,-10.3,2.6,0,,,71479.6,13.99,-0.77,-0.43,-0.25,-27.1,4.3,10.6,35.05,,,,,,,,,,
15.44.12.210,8.4,2.1,0,,,71479.6,13.99,-0.98,0.01,-0.49,-2.0,4.2,19.3,35.61,,,,,,,,,,
15.44.12.221,-27.2,6.8,0,,,71479.6,13.99,-1.01,0.45,-0.31,14.9,2.1,-2.9,35.32,,,,,,,,,,
15.44.12.231,-45.1,11.3,0,,,71479.6,13.99,-0.5,0.3,-0.07,-4.6,4.2,-9.2,35.32,,,,,,,,,,
15.44.12.242,-50.3,12.6,0,,,71479.6,13.99,-1.14,0.26,-0.37,-22.6,8.2,-10.9,36.19,,,,,,,,,,
15.44.12.251,-47.2,11.8,0,,,71479.6,13.99,-0.5,-0.15,-0.31,-14.5,-5.0,0.4,35.87,,,,,,,,,,
15.44.12.259,-53.9,13.5,0,,,71479.6,13.99,-1.03,-0.27,-0.02,-1.8,2.3,-15.9,35.68,,,,,,,,,,
15.44.12.267,-65.7,16.4,0,,,71479.6,13.99,-0.85,-0.02,-0.45,19.8,-3.9,-6.6,35.73,,,,,,,,,,
15.44.12.274,-41.0,10.2,0,,,71479.6,13.99,-0.69,0.14,-0.81,42.8,-20.8,-22.4,35.82,,,,,,,,,,
15.44.12.285,-64.3,16.1,0,,,71479.6,13.99,-0.63,-0.22,0.2,-2.2,-0.4,-11.9,35.05,,,,,,,,,,
15.44.12.294,-63.0,15.8,0,,,71479.6,13.99,-0.97,-0.03,0.0,-11.1,23.0,-3.6,35.48,,,,,,,,,,
15.44.12.304,-77.2,19.3,0,,,71479.6,13.99,-0.85,0.06,0.6,7.7,10.9,2.1,35.51,,,,,,,,,,
15.44.12.313,-88.4,22.1,0,,,71479.6,13.99,-0.53,-0.35,-0.13,-20.9,21.1,-5.5,35.68,,,,,,,,,,
15.44.12.323,-70.8,17.7,0,,,71479.6,13.99,-0.97,0.06,-0.47,-19.2,38.5,12.7,35.47,,,,,,,,,,
15.44.12.331,-98.5,24.6,0,,,71479.6,13.99,-0.76,0.42,-0.05,-23.1,-18.1,10.2,35.61,,,,,,,,,,
15.44.12.342,-92.6,23.2,0,,,71479.6,13.99,-0.76,0.24,0.37,10.4,14.5,18.9,35.35,,,,,,,,,,
15.44.12.350,-104.2,26.0,0,,,71479.6,13.99,-0.48,0.06,0.03,-7.3,9.6,7.5,35.73,,,,,,,,,,
15.44.12.357,-99.5,24.9,0,,,71479.6,13.99,-0.96,0.32,-0.12,-14.1,-3.0,-5.9,35.42,,,,,,,,,,
15.44.12.364,-131.1,32.8,0,,,71479.6,13.99,-0.64,0.05,-0.35,-8.5,9.5,-6.7,35.61,,,,,,,,,,
15.44.12.374,-109.7,27.4,0,,,71479.6,13.99,-0.5,-0.22,-0.23,-20.4,12.7,21.8,35.81,,,,,,,,,,
15.44.12.383,-73.2,18.3,0,,,71479.6,13.99,-0.87,0.46,0.11,11.4,5.0,-16.7,35.73,,,,,,,,,,
15.44.12.391,-113.3,28.3,0,,,71479.6,13.99,-0.86,-0.04,0.24,26.9,3.4,6.9,35.86,,,,,,,,,,
15.44.12.404,-137.7,34.4,0,,,71479.6,13.99,-0.59,-0.44,-0.09,-7.9,34.7,14.4,35.69,,,,,,,,,,
15.44.12.413,-147.9,37.0,0,,,71479.6,13.99,-0.9,-0.49,-0.05,-40.2,28.5,38.7,35.41,,,,,,,,,,
15.44.12.424,-150.0,37.5,0,,,71479.6,13.99,-0.75,0.21,0.15,-21.1,18.1,-5.5,35.75,,,,,,,,,,
15.44.12.435,-141.7,35.4,0,,,71479.6,13.99,-1.05,-0.1,0.69,-22.8,-7.4,-6.3,35.49,,,,,,,,,,
15.44.12.444,-155.1,38.8,0,,,71479.6,13.99,-0.63,0.2,0.34,11.8,-7.0,-6.7,35.62,,,,,,,,,,
15.44.12.450,-158.1,39.5,0,,,71479.6,13.99,-0.87,-0.05,-0.36,21.6,5.1,-27.1,35.16,,,,,,,,,,
15.44.12.459,25.1,6.3,0,,,71479.6,13.99,-0.71,0.28,0.32,-18.2,-6.3,10.9,35.42,,,,,,,,,,
15.44.12.469,100.7,25.2,0,,,71479.6,13.99,-0.72,-0.62,-0.55,-15.2,-7.9,-12.7,35.56,,,,,,,,,,
15.44.12.474,77.6,19.4,0,,,71479.6,13.99,-0.4,0.2,0.24,-10.1,1.9,-37.8,35.74,,,,,,,,,,
15.44.12.484,166.7,41.7,0,,,71479.6,13.99,-0.84,-0.02,0.36,-16.5,0.4,31.2,35.48,,,,,,,,,,
15.44.12.492,199.9,50.0,0,,,71479.6,13.99,-0.91,-0.24,0.18,-6.4,-4.0,10.3,35.42,,,,,,,,,,
15.44.12.500,254.0,63.5,0,,,71479.6,13.99,-1.02,-0.16,-0.58,-3.2,-1.1,0.8,35.46,,,,,,,,,,
15.44.12.509,283.0,70.8,0,,,71479.6,13.99,-0.73,-0.16,-0.46,1.9,3.0,-14.7,35.3,,,,,,,,,,
15.44.12.519,342.5,85.6,0,,,71479.6,13.99,-0.41,-0.04,-0.11,26.0,8.2,6.5,35.57,,,,,,,,,,
15.44.12.524,337.6,84.4,0,,,71479.6,13.99,-0.83,-0.32,0.08,-17.8,10.5,4.3,35.6,,,,,,,,,,
15.44.12.533,377.3,94.3,0,,,71479.6,13.99,-0.94,-0.15,-0.65,50.9,23.4,-10.1,35.68,,,,,,,,,,
15.44.12.545,389.4,97.4,0,,,71479.6,13.99,-0.44,0.0,-0.13,-0.1,-14.1,18.3,35.89,,,,,,,,,,
15.44.12.554,400.2,100.0,0,,,71479.6,13.99,-1.12,-0.24,-0.23,14.3,18.3,6.1,35.59,,,,,,,,,,
15.44.12.564,448.9,112.2,0,,,71479.6,13.99,-0.65,-0.4,-1.08,21.9,19.4,-10.9,35.36,,,,,,,,,,
15.44.12.573,418.6,104.6,0,,,71479.6,13.99,-0.69,-0.33,-0.5,6.3,-18.1,14.9,35.44,,,,,,,,,,
15.44.12.584,400.5,100.1,0,,,71479.6,13.99,-0.58,0.06,-0.58,20.2,8.1,-1.0,35.5,,,,,,,,,,
15.44.12.594,345.8,86.4,0,,,71479.6,13.99,-1.1,0.12,-0.29,-4.6,-19.6,6.7,35.3,,,,,,,,,,
15.44.12.601,358.2,89.6,0,,,71479.6,13.99,-1.17,-0.53,-0.56,-6.9,32.2,-15.5,35.5,,,,,,,,,,
15.44.12.609,278.9,69.7,0,,,71479.6,13.99,-0.46,-0.65,-0.14,15.1,4.2,-17.6,35.6,,,,,,,,,,
15.44.12.619,249.2,62.3,0,,,71479.6,13.99,-0.64,0.01,-0.35,-6.5,-0.0,-8.2,35.39,,,,,,,,,,
15.44.12.629,217.4,54.4,0,,,71479.6,13.99,-0.94,-0.14,-0.1,13.7,0.8,12.4,35.71,,,,,,,,,,
15.44.12.639,189.9,47.5,0,,,71479.6,13.99,-1.09,-0.1,-0.88,29.1,37.1,-35.9,35.29,,,,,,,,,,
15.44.12.651,141.8,35.4,0,,,71479.6,13.99,-1.12,-0.01,-0.49,10.2,10.7,-9.5,35.36,,,,,,,,,,
15.44.12.662,37.6,9.4,0,,,71479.6,13.99,-0.7,-0.69,-0.3,4.8,13.7,-7.6,35.64,,,,,,,,,,
15.44.12.675,-20.8,5.2,0,,,71479.6,13.99,-0.73,-0.35,-0.47,-15.4,5.9,8.8,35.27,,,,,,,,,,
15.44.12.682,14.6,3.6,0,,,71479.6,13.99,-1.26,-0.17,-0.37,-35.5,9.2,14.4,35.87,,,,,,,,,,
15.44.12.694,47.2,11.8,0,,,71479.6,13.99,-1.12,0.32,-0.25,27.2,9.8,-8.6,35.82,,,,,,,,,,
15.44.12.704,51.7,12.9,0,,,71479.6,13.99,-1.05,-0.4,-0.34,-11.8,35.0,-9.0,35.5,,,,,,,,,,
15.44.12.712,81.0,20.2,0,,,71479.6,13.99,-0.79,-0.17,-0.13,-26.3,-6.6,14.8,35.26,,,,,,,,,,
15.44.12.722,74.0,18.5,0,,,71479.6,13.99,-1.12,-0.35,0.44,41.3,7.9,7.6,35.51,,,,,,,,,,
15.44.12.729,55.3,13.8,0,,,71479.6,13.99,-0.58,-0.99,-0.1,9.9,-8.9,-2.9,35.69,,,,,,,,,,
15.44.12.737,62.5,15.6,1,22.0,99.7,71479.6,13.99,-0.93,-0.11,-0.68,3.9,-43.4,6.2,35.63,,,,,,,,,,
15.44.12.746,75.2,18.8,0,,,71479.6,13.99,-1.08,-0.67,-0.34,23.4,25.9,-8.0,35.45,,,,,,,,,,
15.44.12.754,87.6,21.9,0,,,71479.6,13.99,-0.85,-0.19,0.17,-5.6,5.7,-10.4,35.5,,,,,,,,,,
15.44.12.766,77.1,19.3,0,,,71479.6,13.99,-1.12,0.09,0.3,24.5,-0.4,-1.3,35.67,,,,,,,,,,
15.44.12.776,30.0,7.5,0,,,71479.6,13.99,-0.9,-0.75,0.29,5.0,0.4,0.5,35.63,,,,,,,,,,
15.44.12.785,18.7,4.7,0,,,71479.6,13.99,-0.85,-0.79,-0.06,20.6,-9.9,-18.1,35.32,,,,,,,,,,
15.44.12.795,3.5,0.9,0,,,71479.6,13.99,-0.9,-0.21,0.08,18.8,30.1,-2.0,35.43,,,,,,,,,,
15.44.12.805,-59.7,14.9,0,,,71479.6,13.99,-0.86,-0.26,0.06,-0.2,18.6,17.4,35.39,,,,,,,,,,
15.44.12.815,-5.0,1.2,0,,,71479.6,13.99,-1.08,-0.4,0.07,-39.6,15.4,-1.7,35.73,,,,,,,,,,
15.44.12.823,-15.5,3.9,0,,,71479.6,13.99,-0.91,-0.81,0.06,8.4,-12.9,-12.8,35.02,,,,,,,,,,
15.44.12.832,-0.4,0.1,0,,,71479.6,13.99,-1.1,0.01,-0.29,-13.4,9.9,8.8,35.66,,,,,,,,,,
15.44.12.842,-22.8,5.7,0,,,71479.6,13.99,-0.8,-0.03,0.15,-9.9,23.6,1.8,35.73,,,,,,,,,,
15.44.12.854,-10.9,2.7,0,,,71479.6,13.99,-0.69,-0.05,-0.07,-23.0,20.4,-25.1,35.55,,,,,,,,,,
15.44.12.865,-29.5,7.4,0,,,71479.6,13.99,-1.56,-0.49,0.06,5.7,-4.6,17.7,35.62,,,,,,,,,,
15.44.12.876,-66.6,16.6,0,,,71479.6,13.99,-1.07,-0.35,0.56,25.3,11.9,-4.2,35.5,,,,,,,,,,
15.44.12.884,-51.6,12.9,0,,,71479.6,13.99,-1.1,-0.42,0.02,19.1,27.4,8.0,35.06,,,,,,,,,,
15.44.12.894,-39.0,9.8,0,,,71479.6,13.99,-0.93,-0.11,-0.01,-25.6,18.0,-3.5,35.42,,,,,,,,,,
15.44.12.905,-39.7,9.9,0,,,71479.6,13.99,-1.23,-0.24,0.21,4.0,20.4,6.9,35.57,,,,,,,,,,
15.44.12.917,-90.2,22.6,0,,,71479.6,13.99,-0.99,-0.24,-0.04,-12.7,7.6,-0.2,35.61,,,,,,,,,,
15.44.12.925,-77.0,19.2,0,,,71479.6,13.99,-0.85,-0.02,-0.31,9.3,0.6,13.2,35.57,,,,,,,,,,
