timestamp,ppg,threshold,beat,beat_count,inst_bpm,gsr_resistance_ohm,gsr_conductance_us,accel_x,accel_y,accel_z,gyro_x,gyro_y,gyro_z,temp_c,window_bpm,window_temp_c,status_message,SpO2,bmi,age,height,weight,env_temp_c,env_humidity_pct
13.09.00.000,0.0,0.0,0,,,19700.6,50.76,-1.08,0.41,0.63,-23.6,4.3,3.2,35.7,110.9,,,,20.2,21.0,165.1,55.0,31.44,45.0
13.09.00.011,144.3,36.1,0,,,19700.6,50.76,-0.42,0.84,0.74,3.3,-4.4,-17.9,35.69,,,,,,,,,,
13.09.00.021,171.5,42.9,0,,,19700.6,50.76,-0.3,0.5,1.04,-0.1,-6.4,-5.4,35.59,,,,,,,,,,
13.09.00.033,263.9,66.0,0,,,19700.6,50.76,-0.4,0.61,0.72,13.9,-6.6,-4.9,35.5,,,,,,,,,,
13.09.00.042,326.3,81.6,0,,,19700.6,50.76,-0.65,0.53,0.68,21.8,-5.3,-4.1,35.38,,,,,,,,,,
13.09.00.053,330.1,82.5,0,,,19700.6,50.76,-0.35,1.15,1.04,-11.6,-4.2,-22.1,35.36,,,,,,,,,,
13.09.00.062,454.5,113.6,0,,,19700.6,50.76,-0.1,0.18,-0.33,5.7,12.2,4.3,35.32,,,,,,,,,,
13.09.00.071,422.9,105.7,0,,,19700.6,50.76,0.0,0.33,0.92,13.7,-2.5,-2.5,35.15,,,,,,,,,,
13.09.00.080,520.6,130.2,0,,,19704.4,50.75,-0.21,0.67,0.35,13.9,-5.1,5.7,35.52,,,,,,,,,,
13.09.00.088,475.9,119.0,0,,,19704.4,50.75,-0.03,0.37,0.84,14.1,-4.4,-9.6,35.53,,,,,,,,,,
13.09.00.099,497.0,124.2,0,,,19704.4,50.75,-0.21,0.25,0.88,21.0,2.2,-8.1,35.65,,,,,,,,,,
13.09.00.108,545.5,136.4,0,,,19704.4,50.75,-0.08,0.33,0.49,0.0,11.5,-0.1,35.5,,,,,,,,,,
13.09.00.117,426.0,106.5,0,,,19704.4,50.75,-0.08,0.38,0.73,-9.3,3.8,-11.5,35.51,,,,,,,,,,
13.09.00.126,434.3,108.6,0,,,19704.4,50.75,-0.22,0.46,0.85,-22.6,3.6,15.3,35.62,,,,,,,,,,
13.09.00.135,472.5,118.1,0,,,19704.4,50.75,-0.5,0.11,1.57,6.2,1.4,-3.5,35.24,,,,,,,,,,
13.09.00.144,333.5,83.4,0,,,19704.4,50.75,-0.36,-0.2,0.84,-1.0,12.7,-6.5,35.53,,,,,,,,,,
13.09.00.154,265.8,66.4,0,,,19704.4,50.75,-0.39,-0.36,0.5,-29.0,16.8,-5.5,35.46,,,,,,,,,,
13.09.00.163,211.5,52.9,0,,,19708.3,50.74,0.16,0.22,0.75,23.1,-1.5,-16.6,35.43,,,,,,,,,,
13.09.00.172,124.2,31.0,0,,,19708.3,50.74,-0.82,-0.63,0.56,-10.1,-4.3,-14.3,35.53,,,,,,,,,,
13.09.00.179,58.7,14.7,0,,,19708.3,50.74,-0.7,-0.27,0.15,-17.3,16.5,-8.7,35.65,,,,,,,,,,
13.09.00.190,6.1,1.5,0,,,19708.3,50.74,-0.48,-0.4,-0.42,2.1,-2.0,-14.1,35.61,,,,,,,,,,
13.09.00.200,6.3,1.6,0,,,19708.3,50.74,-0.46,0.11,0.08,-9.0,19.7,7.8,35.6,,,,,,,,,,
13.09.00.208,45.7,11.4,0,,,19708.3,50.74,-0.85,-0.23,-0.11,20.6,8.1,-3.1,35.35,,,,,,,,,,
13.09.00.218,106.4,26.6,0,,,19708.3,50.74,-1.13,-0.18,0.32,19.6,17.6,-1.9,35.45,,,,,,,,,,
13.09.00.227,47.6,11.9,0,,,19708.3,50.74,-0.97,0.26,-0.94,20.6,-13.2,-11.8,35.37,,,,,,,,,,
13.09.00.236,73.4,18.4,0,,,19708.3,50.74,-0.71,0.45,-0.39,19.5,24.4,0.0,35.7,,,,,,,,,,
13.09.00.246,53.1,13.3,0,,,19708.3,50.74,-0.48,0.18,-0.34,-21.3,17.3,2.7,35.68,,,,,,,,,,
13.09.00.255,80.2,20.0,0,,,19712.2,50.73,-0.85,0.64,-1.03,-30.4,16.1,9.5,35.11,,,,,,,,,,
13.09.00.265,40.5,10.1,0,,,19712.2,50.73,-0.72,0.11,0.69,-2.3,-3.4,5.9,35.37,,,,,,,,,,
13.09.00.277,31.9,8.0,0,,,19712.2,50.73,-1.06,0.52,-0.76,12.5,9.2,15.3,35.07,,,,,,,,,,
13.09.00.288,22.8,5.7,0,,,19712.2,50.73,-0.53,0.63,-0.12,11.4,2.0,-2.3,35.12,,,,,,,,,,
13.09.00.297,-73.4,18.4,0,,,19712.2,50.73,-0.86,0.29,0.53,6.0,0.3,-8.0,35.57,,,,,,,,,,
13.09.00.306,-55.7,13.9,0,,,19712.2,50.73,-1.1,0.57,0.32,-14.7,1.4,-2.8,35.58,,,,,,,,,,
13.09.00.315,16.5,4.1,0,,,19712.2,50.73,-0.4,0.22,0.52,19.8,36.6,0.3,35.47,,,,,,,,,,
13.09.00.324,8.2,2.0,0,,,19712.2,50.73,-0.5,1.15,0.49,-24.9,-11.2,-8.4,35.47,,,,,,,,,,
13.09.00.333,11.7,2.9,0,,,19716.1,50.72,-0.82,1.28,0.57,-37.4,-7.9,13.3,35.59,,,,,,,,,,
13.09.00.341,-29.3,7.3,0,,,19716.1,50.72,-0.42,0.29,0.46,19.2,-10.0,-0.4,35.59,,,,,,,,,,
13.09.00.351,,,0,,,,,,,,,,,,,,,,,,,,,
13.09.00.360,-41.7,10.4,0,,,19716.1,50.72,-0.63,0.91,0.71,-19.1,3.4,-0.4,35.45,,,,,,,,,,
13.09.00.369,-36.3,9.1,0,,,19716.1,50.72,-0.57,0.4,0.73,5.3,25.2,4.8,35.21,,,,,,,,,,
13.09.00.379,-31.9,8.0,0,,,19716.1,50.72,-0.22,0.84,0.95,-14.9,-4.4,10.3,35.37,,,,,,,,,,
13.09.00.390,-5.6,1.4,0,,,19716.1,50.72,-0.4,0.28,0.68,-15.9,14.3,-6.7,35.5,,,,,,,,,,
13.09.00.400,-115.4,28.8,0,,,19716.1,50.72,-0.43,-0.1,0.19,7.5,-15.0,-5.1,35.41,,,,,,,,,,
13.09.00.412,-139.3,34.8,0,,,19716.1,50.72,-0.51,0.09,1.61,5.4,-11.4,-30.3,35.74,,,,,,,,,,
13.09.00.421,-103.0,25.8,0,,,19720.0,50.71,-0.97,0.36,1.1,-0.1,-1.9,12.7,35.18,,,,,,,,,,
13.09.00.432,-114.6,28.6,0,,,19720.0,50.71,-0.79,0.15,0.85,16.5,12.6,-22.3,35.48,,,,,,,,,,
13.09.00.442,-104.4,26.1,0,,,19720.0,50.71,-0.4,0.04,1.8,5.4,6.5,0.6,35.11,,,,,,,,,,
13.09.00.452,-101.5,25.4,0,,,19720.0,50.71,-0.38,0.47,-0.28,4.1,-1.8,-10.7,35.46,,,,,,,,,,
13.09.00.462,-83.8,21.0,0,,,19720.0,50.71,-0.56,0.11,0.91,72.0,9.2,1.1,35.33,,,,,,,,,,
13.09.00.472,-128.0,32.0,0,,,19720.0,50.71,-0.43,-0.12,1.24,-13.5,9.7,-2.5,35.15,,,,,,,,,,
13.09.00.481,-94.1,23.5,0,,,19720.0,50.71,-0.27,-0.22,1.25,-32.5,0.8,20.5,35.35,,,,,,,,,,
13.09.00.491,-160.0,40.0,0,,,19720.0,50.71,-0.81,-0.05,-0.22,22.6,-18.8,-7.0,35.63,,,,,,,,,,
13.09.00.501,-170.7,42.7,0,,,19720.0,50.71,-0.58,-0.18,0.18,12.5,3.1,-1.8,35.6,,,,,,,,,,
13.09.00.511,-206.6,51.6,0,,,19723.9,50.7,-0.44,0.36,0.35,7.2,19.6,-26.9,35.31,,,,,,,,,,
13.09.00.521,-139.7,34.9,0,,,19723.9,50.7,-0.85,-0.37,0.53,27.7,13.0,-11.6,35.77,,,,,,,,,,
13.09.00.529,-159.3,39.8,0,,,19723.9,50.7,-0.32,-0.03,0.38,12.7,-3.4,-15.2,35.56,,,,,,,,,,
13.09.00.539,-178.7,44.7,0,,,19723.9,50.7,-0.79,-0.53,-0.0,12.1,1.8,-6.7,35.61,,,,,,,,,,
13.09.00.548,-13.9,3.5,1,1.0,,19723.9,50.7,-0.39,-0.23,0.56,-1.5,6.0,14.4,35.22,,,,,,,,,,
13.09.00.556,90.3,22.6,0,,,19723.9,50.7,-0.95,0.37,-0.33,-7.6,14.9,-5.5,35.4,,,,,,,,,,
13.09.00.565,66.2,16.6,0,,,19723.9,50.7,-0.56,-0.06,-0.49,26.6,4.2,-2.0,35.09,,,,,,,,,,
13.09.00.576,275.6,68.9,0,,,19723.9,50.7,-1.15,-0.01,-0.91,-8.2,18.9,3.1,35.52,,,,,,,,,,
13.09.00.585,291.4,72.8,0,,,19723.9,50.7,-0.66,0.87,-0.48,17.7,13.1,0.5,35.55,,,,,,,,,,
13.09.00.594,323.2,80.8,0,,,19727.8,50.69,-1.09,0.82,0.35,-1.3,-9.7,-11.8,35.59,,,,,,,,,,
13.09.00.605,495.1,123.8,0,,,19727.8,50.69,-0.74,0.32,-0.0,-22.2,-4.3,8.8,35.23,,,,,,,,,,
13.09.00.616,472.6,118.2,0,,,19727.8,50.69,-1.22,0.62,-0.01,-6.6,16.1,13.6,35.34,,,,,,,,,,
13.09.00.628,464.4,116.1,0,,,19727.8,50.69,-0.45,0.63,-0.32,-12.7,16.1,7.7,35.67,,,,,,,,,,
13.09.00.636,485.5,121.4,0,,,19727.8,50.69,-0.81,0.76,0.64,-0.6,16.6,2.2,35.47,,,,,,,,,,
13.09.00.647,479.0,119.8,0,,,19727.8,50.69,-0.74,0.68,0.01,3.8,-0.4,-7.2,35.14,,,,,,,,,,
13.09.00.657,507.0,126.8,0,,,19727.8,50.69,-0.76,0.67,0.23,8.5,-9.3,19.5,35.76,,,,,,,,,,
13.09.00.666,456.4,114.1,0,,,19727.8,50.69,-0.38,0.68,-0.08,11.9,30.3,-10.8,35.67,,,,,,,,,,
13.09.00.674,378.8,94.7,0,,,19727.8,50.69,-0.45,0.28,0.46,-12.0,10.6,-2.9,35.46,,,,,,,,,,
13.09.00.683,292.3,73.1,0,,,19731.6,50.68,-0.34,0.6,0.41,6.2,-5.1,-4.9,35.36,,,,,,,,,,
13.09.00.692,379.3,94.8,0,,,19731.6,50.68,-0.81,0.58,1.1,7.1,10.9,-5.2,35.29,,,,,,,,,,
13.09.00.702,193.7,48.4,0,,,19731.6,50.68,-0.35,0.41,0.55,25.1,6.1,-4.4,35.48,,,,,,,,,,
13.09.00.711,255.1,63.8,0,,,19731.6,50.68,-0.68,0.92,1.01,5.4,21.5,-7.4,35.54,,,,,,,,,,
13.09.00.722,122.0,30.5,0,,,19731.6,50.68,-0.73,0.9,1.35,16.8,8.6,-8.5,35.33,,,,,,,,,,
13.09.00.731,5.6,1.4,0,,,19731.6,50.68,-0.76,0.64,1.29,12.3,-5.2,-9.0,35.49,,,,,,,,,,
13.09.00.742,36.5,9.1,0,,,19731.6,50.68,-0.11,0.4,0.12,48.1,12.9,-1.2,35.54,,,,,,,,,,
13.09.00.753,108.1,27.0,0,,,19731.6,50.68,-0.47,0.08,0.59,-6.6,10.9,4.3,35.5,,,,,,,,,,
13.09.00.763,60.5,15.1,0,,,19731.6,50.68,-0.58,0.43,1.27,-7.7,22.7,-4.2,35.52,,,,,,,,,,
13.09.00.775,18.0,4.5,0,,,19735.5,50.67,-0.15,0.16,0.86,-21.1,12.0,-17.8,35.51,,,,,,,,,,
13.09.00.782,74.1,18.5,0,,,19735.5,50.67,-0.59,0.38,0.03,-1.0,23.4,-0.8,35.34,,,,,,,,,,
13.09.00.791,117.9,29.5,0,,,19735.5,50.67,-0.06,-0.17,1.53,18.2,3.3,2.8,35.42,,,,,,,,,,
13.09.00.801,80.0,20.0,0,,,19735.5,50.67,-0.49,0.61,0.83,-4.8,-10.7,-10.9,35.57,,,,,,,,,,
13.09.00.811,102.5,25.6,0,,,19735.5,50.67,-0.31,0.03,-0.23,-9.4,12.1,0.6,35.47,,,,,,,,,,
13.09.00.820,121.2,30.3,0,,,19735.5,50.67,0.05,-0.06,0.79,-8.0,6.9,8.3,35.45,,,,,,,,,,
13.09.00.830,54.4,13.6,0,,,19735.5,50.67,-0.53,-0.25,0.97,-1.5,-6.6,-16.5,35.43,,,,,,,,,,
13.09.00.839,63.9,16.0,0,,,19735.5,50.67,-0.8,0.54,0.43,-26.6,13.9,-11.5,35.65,,,,,,,,,,
13.09.00.847,-65.2,16.3,0,,,19735.5,50.67,-0.57,0.82,-0.14,-4.9,-11.3,-6.0,35.63,,,,,,,,,,
13.09.00.856,23.3,5.8,0,,,19739.4,50.66,-0.62,0.59,0.82,23.6,-15.3,-12.3,35.18,,,,,,,,,,
13.09.00.866,15.9,4.0,0,,,19739.4,50.66,-0.91,-0.24,0.08,-6.2,15.9,-15.1,35.5,,,,,,,,,,
13.09.00.875,-20.0,5.0,0,,,19739.4,50.66,-0.51,-0.29,0.34,-26.4,12.0,2.0,35.5,,,,,,,,,,
13.09.00.884,-82.4,20.6,0,,,19739.4,50.66,-0.62,-0.21,0.32,21.1,14.3,27.7,35.46,,,,,,,,,,
13.09.00.894,-79.2,19.8,0,,,19739.4,50.66,-0.27,0.1,0.15,13.8,12.3,5.4,35.44,,,,,,,,,,
13.09.00.904,-66.5,16.6,0,,,19739.4,50.66,-0.34,-0.15,0.57,20.6,4.7,-10.9,35.37,,,,,,,,,,
13.09.00.914,-118.0,29.5,0,,,19739.4,50.66,-0.96,0.14,-0.21,-36.0,-11.6,9.8,35.54,,,,,,,,,,
13.09.00.923,-78.5,19.6,0,,,19739.4,50.66,-1.17,-0.18,0.32,15.9,5.6,-16.1,35.45,,,,,,,,,,
13.09.00.933,-2.1,0.5,0,,,19739.4,50.66,-0.44,-0.5,0.4,-18.8,20.4,-15.3,35.65,,,,,,,,,,
13.09.00.944,-69.2,17.3,0,,,19743.3,50.65,-0.81,0.48,0.0,-0.2,5.2,-10.8,35.54,,,,,,,,,,
13.09.00.953,-63.7,15.9,0,,,19743.3,50.65,-0.85,0.42,0.48,-10.4,8.6,9.0,35.73,,,,,,,,,,
13.09.00.962,-125.8,31.4,0,,,19743.3,50.65,-0.73,0.72,-0.57,18.6,-2.3,-16.5,35.83,,,,,,,,,,
13.09.00.971,-50.0,12.5,0,,,19743.3,50.65,-0.73,0.06,0.48,11.2,11.1,5.2,35.46,,,,,,,,,,
13.09.00.981,-100.1,25.0,1,2.0,138.6,19743.3,50.65,-0.64,0.83,0.37,42.4,1.4,10.5,35.46,,,,,,,,,,
13.09.00.992,-115.8,29.0,0,,,19743.3,50.65,-1.02,0.23,-0.02,-1.1,6.4,-14.5,35.64,,,,,,,,,,
13.09.01.001,-113.9,28.5,0,,,19743.3,50.65,-0.69,0.35,0.1,26.6,3.4,-4.4,35.29,,,,,,,,,,
13.09.01.011,-88.7,22.2,0,,,19743.3,50.65,-1.02,0.44,0.72,-8.0,31.8,14.5,35.74,,,,,,,,,,
13.09.01.021,-178.7,44.7,0,,,19743.3,50.65,-0.68,0.68,0.04,-3.9,41.1,8.2,35.29,,,,,,,,,,
13.09.01.032,-147.2,36.8,0,,,19743.3,50.65,-0.72,1.01,0.69,12.6,10.7,-11.0,35.62,,,,,,,,,,
13.09.01.045,-139.3,34.8,0,,,19747.2,50.64,-0.88,0.92,-0.27,5.8,0.5,-0.3,35.18,,,,,,,,,,
13.09.01.055,-168.2,42.0,0,,,19747.2,50.64,-0.41,0.97,1.3,22.3,-6.3,7.2,35.54,,,,,,,,,,
13.09.01.063,-182.5,45.6,0,,,19747.2,50.64,-0.01,-0.3,0.38,-1.4,7.4,-7.3,35.52,,,,,,,,,,
13.09.01.072,-143.3,35.8,0,,,19747.2,50.64,-0.37,0.86,0.63,-25.3,-1.9,-18.1,35.8,,,,,,,,,,
13.09.01.079,-229.5,57.4,0,,,19747.2,50.64,-0.34,0.83,0.95,6.7,-2.3,9.4,35.34,,,,,,,,,,
13.09.01.090,-9.6,2.4,0,,,19747.2,50.64,-0.34,0.38,0.77,11.8,31.7,11.3,35.58,,,,,,,,,,
13.09.01.100,112.3,28.1,0,,,19747.2,50.64,-0.73,0.12,1.71,-27.7,-1.6,17.2,35.3,,,,,,,,,,
13.09.01.108,179.8,45.0,0,,,19747.2,50.64,-0.24,-0.48,1.37,13.6,16.2,-12.2,35.14,,,,,,,,,,
13.09.01.118,183.8,46.0,0,,,19747.2,50.64,-0.37,0.23,0.34,44.3,8.1,9.0,35.33,,,,,,,,,,
13.09.01.129,264.1,66.0,0,,,19747.2,50.64,-0.84,0.91,-0.34,-11.0,11.6,-12.0,35.68,,,,,,,,,,
13.09.01.139,414.7,103.7,0,,,19747.2,50.64,-0.41,0.55,-0.37,-13.7,38.8,23.2,35.39,,,,,,,,,,
13.09.01.148,364.7,91.2,0,,,19747.2,50.64,-0.56,-0.07,1.45,-1.4,27.6,-12.2,35.44,,,,,,,,,,
13.09.01.158,493.2,123.3,0,,,19747.2,50.64,-0.71,0.46,0.47,9.9,9.0,-9.5,35.41,,,,,,,,,,
13.09.01.168,475.7,118.9,0,,,19747.2,50.64,-0.35,0.15,-0.14,-0.5,-6.8,15.8,35.62,,,,,,,,,,
13.09.01.178,515.6,128.9,0,,,19747.2,50.64,-0.3,0.15,1.03,5.4,8.4,5.3,35.51,,,,,,,,,,
13.09.01.189,458.2,114.6,0,,,19751.1,50.63,-0.49,-0.24,0.68,20.9,10.4,1.5,35.4,,,,,,,,,,
13.09.01.200,458.4,114.6,0,,,19751.1,50.63,-0.15,-0.05,-0.03,-18.0,11.3,-18.3,35.5,,,,,,,,,,
13.09.01.209,463.7,115.9,0,,,19751.1,50.63,-0.66,0.02,-0.09,-23.7,16.1,32.4,35.51,,,,,,,,,,
13.09.01.217,414.0,103.5,0,,,19751.1,50.63,-0.46,0.37,0.37,16.2,-4.3,2.1,35.48,,,,,,,,,,
13.09.01.228,339.5,84.9,0,,,19751.1,50.63,-0.75,0.24,-0.08,-13.2,18.0,-19.8,35.47,,,,,,,,,,
13.09.01.238,379.8,95.0,0,,,19751.1,50.63,-0.98,0.1,0.1,21.9,18.9,-2.3,35.44,,,,,,,,,,
13.09.01.248,281.1,70.3,0,,,19751.1,50.63,-0.71,0.03,-0.39,16.0,27.1,16.1,35.43,,,,,,,,,,
13.09.01.258,223.5,55.9,0,,,19751.1,50.63,-0.53,0.03,-0.89,-7.8,6.4,-11.7,35.64,,,,,,,,,,
13.09.01.266,168.8,42.2,0,,,19751.1,50.63,-0.79,0.24,-0.13,12.1,-19.8,-14.9,35.27,,,,,,,,,,
13.09.01.275,6.1,1.5,0,,,19751.1,50.63,-0.94,0.35,0.05,-17.5,29.7,-0.2,35.6,,,,,,,,,,
13.09.01.284,37.5,9.4,0,,,19751.1,50.63,-0.94,0.2,-0.34,24.6,11.9,11.8,35.48,,,,,,,,,,
13.09.01.293,13.4,3.4,0,,,19751.1,50.63,-0.51,0.1,0.5,-12.6,2.1,-4.9,35.81,,,,,,,,,,
13.09.01.302,66.9,16.7,0,,,19751.1,50.63,-0.72,0.09,-0.36,4.5,10.6,14.0,35.6,,,,,,,,,,
13.09.01.312,97.7,24.4,0,,,19751.1,50.63,-0.44,0.37,0.45,1.7,17.1,1.2,35.51,,,,,,,,,,
13.09.01.321,44.2,11.0,0,,,19751.1,50.63,-0.67,0.83,-0.51,-3.7,1.6,-10.4,35.2,,,,,,,,,,
13.09.01.331,66.0,16.5,0,,,19755.0,50.62,-1.03,-0.0,-0.15,-16.2,-5.9,-2.6,35.41,,,,,,,,,,
13.09.01.343,92.6,23.2,0,,,19755.0,50.62,-0.79,0.24,-0.66,-7.6,-16.2,-0.8,35.17,,,,,,,,,,
13.09.01.352,141.1,35.3,0,,,19755.0,50.62,-0.47,1.28,-0.03,-1.9,4.7,12.7,35.38,,,,,,,,,,
13.09.01.364,90.1,22.5,0,,,19755.0,50.62,-0.2,0.6,0.8,-8.7,-15.3,8.1,35.76,,,,,,,,,,
13.09.01.374,63.9,16.0,0,,,19755.0,50.62,-0.64,0.45,0.79,-12.9,8.0,11.1,35.4,,,,,,,,,,
13.09.01.383,40.7,10.2,0,,,19755.0,50.62,-0.31,0.55,0.9,-3.8,3.1,-6.1,35.6,,,,,,,,,,
13.09.01.392,0.7,0.2,0,,,19755.0,50.62,-0.55,1.08,-0.39,24.5,-15.9,15.6,35.5,,,,,,,,,,
13.09.01.401,3.7,0.9,0,,,19755.0,50.62,-0.55,0.99,0.16,-29.1,-3.8,2.2,35.57,,,,,,,,,,
13.09.01.409,20.0,5.0,0,,,19755.0,50.62,-0.42,0.55,0.97,8.3,4.6,-7.4,35.5,,,,,,,,,,
13.09.01.420,-2.1,0.5,0,,,19755.0,50.62,-0.21,0.67,0.33,13.2,16.8,-11.0,35.47,,,,,,,,,,
13.09.01.429,-83.4,20.8,0,,,19755.0,50.62,-0.5,-0.14,1.24,-26.8,-3.5,8.3,35.48,,,,,,,,,,
13.09.01.440,-49.5,12.4,0,,,19755.0,50.62,-0.15,0.1,1.09,-26.1,25.2,-19.9,35.56,,,,,,,,,,
13.09.01.452,-43.2,10.8,1,3.0,127.4,19755.0,50.62,-0.19,0.01,0.38,16.7,8.0,-0.8,35.33,,,,,,,,,,
13.09.01.462,-86.0,21.5,0,,,19755.0,50.62,-0.48,0.02,0.28,5.8,19.3,6.8,35.61,,,,,,,,,,
13.09.01.473,-67.8,17.0,0,,,19758.9,50.61,-0.4,-0.01,0.02,39.8,13.8,4.8,35.29,,,,,,,,,,
13.09.01.482,-86.4,21.6,0,,,19758.9,50.61,-0.32,0.87,0.68,16.9,17.8,-2.3,35.25,,,,,,,,,,
13.09.01.492,-135.3,33.8,0,,,19758.9,50.61,-0.62,-0.16,1.33,10.8,20.9,6.6,35.88,,,,,,,,,,
13.09.01.501,-89.7,22.4,0,,,19758.9,50.61,-0.37,-0.14,1.23,-15.5,-4.6,-20.9,35.24,,,,,,,,,,
13.09.01.508,-58.3,14.6,0,,,19758.9,50.61,-0.51,0.09,0.58,-4.1,-18.5,-17.9,35.54,,,,,,,,,,
13.09.01.515,-146.6,36.6,0,,,19758.9,50.61,-0.12,0.69,0.18,56.9,-3.3,-5.2,35.6,,,,,,,,,,
13.09.01.525,-79.0,19.8,0,,,19758.9,50.61,-0.46,-0.38,-0.17,-2.1,4.0,-11.2,35.51,,,,,,,,,,
13.09.01.535,-103.7,25.9,0,,,19758.9,50.61,-0.4,0.26,1.08,13.2,4.3,-17.3,35.5,,,,,,,,,,
13.09.01.544,-106.3,26.6,0,,,19758.9,50.61,-0.69,-0.33,-0.88,39.2,-0.4,-9.1,35.43,,,,,,,,,,
13.09.01.552,-143.5,35.9,0,,,19758.9,50.61,-0.98,0.22,-0.36,-2.6,6.9,-7.4,35.78,,,,,,,,,,
13.09.01.559,-116.6,29.2,0,,,19758.9,50.61,-0.41,0.42,-0.29,6.1,15.1,-8.8,35.7,,,,,,,,,,
13.09.01.570,-118.5,29.6,0,,,19758.9,50.61,-0.4,-0.25,-0.18,-15.9,13.3,10.0,35.34,,,,,,,,,,
13.09.01.578,-168.5,42.1,0,,,19758.9,50.61,-0.54,-0.36,0.74,37.3,36.4,-8.2,35.69,,,,,,,,,,
13.09.01.587,-130.3,32.6,0,,,19758.9,50.61,-0.45,-0.06,0.34,10.5,9.5,-3.1,35.54,,,,,,,,,,
13.09.01.599,-171.1,42.8,0,,,19758.9,50.61,-0.65,0.58,0.28,12.6,8.8,4.1,35.33,,,,,,,,,,
13.09.01.608,-174.4,43.6,0,,,19762.8,50.6,-0.99,0.39,-0.47,-5.7,-0.2,8.7,35.33,,,,,,,,,,
13.09.01.617,-184.0,46.0,0,,,19762.8,50.6,-0.8,0.13,0.03,-41.6,-3.3,-9.5,35.73,,,,,,,,,,
13.09.01.627,-233.1,58.3,0,,,19762.8,50.6,-0.6,-0.04,0.79,-1.6,-5.0,9.1,35.43,,,,,,,,,,
13.09.01.636,35.3,8.8,0,,,19762.8,50.6,-1.05,-0.28,-0.14,9.5,20.2,-7.7,35.7,,,,,,,,,,
13.09.01.646,133.4,33.4,0,,,19762.8,50.6,-0.77,0.28,-0.57,2.0,1.1,13.3,35.83,,,,,,,,,,
13.09.01.656,196.8,49.2,0,,,19762.8,50.6,-0.61,0.66,-0.3,8.9,14.8,1.1,35.49,,,,,,,,,,
13.09.01.665,220.3,55.1,0,,,19762.8,50.6,-0.89,0.8,0.48,-9.3,18.5,-19.0,35.12,,,,,,,,,,
13.09.01.675,362.0,90.5,0,,,19762.8,50.6,-0.57,0.86,0.24,-19.3,6.1,16.3,35.53,,,,,,,,,,
13.09.01.683,282.2,70.6,0,,,19762.8,50.6,-0.82,0.24,-0.5,4.2,-5.6,2.5,35.23,,,,,,,,,,
13.09.01.693,409.0,102.2,0,,,19762.8,50.6,-0.36,0.34,-0.93,0.0,23.1,-5.2,35.73,,,,,,,,,,
13.09.01.704,400.7,100.2,0,,,19762.8,50.6,-0.39,0.65,0.58,-18.6,-29.4,2.7,35.36,,,,,,,,,,
13.09.01.713,513.9,128.5,0,,,19762.8,50.6,-0.19,1.73,0.62,19.6,13.7,-7.9,35.31,,,,,,,,,,
13.09.01.723,536.4,134.1,0,,,19762.8,50.6,-0.55,0.87,0.17,-6.8,11.8,16.4,35.41,,,,,,,,,,
13.09.01.731,496.7,124.2,0,,,19762.8,50.6,-0.5,0.64,0.45,20.8,7.6,7.4,35.8,,,,,,,,,,
13.09.01.739,460.5,115.1,0,,,19762.8,50.6,-0.62,0.37,0.77,-19.3,4.4,6.3,35.61,,,,,,,,,,
13.09.01.748,434.8,108.7,0,,,19766.8,50.59,-0.33,0.3,1.57,-0.2,6.6,-2.0,35.14,,,,,,,,,,
13.09.01.755,414.4,103.6,0,,,19766.8,50.59,-0.56,0.34,-0.06,12.8,4.2,-7.8,35.67,,,,,,,,,,
13.09.01.765,369.4,92.4,0,,,19766.8,50.59,-0.52,0.39,0.93,25.3,18.2,-12.7,35.65,,,,,,,,,,
13.09.01.775,365.1,91.3,0,,,19766.8,50.59,-0.33,1.03,1.06,39.3,26.2,22.7,35.68,,,,,,,,,,
13.09.01.783,305.6,76.4,0,,,19766.8,50.59,0.12,0.91,0.36,-6.5,33.1,0.3,35.6,,,,,,,,,,
13.09.01.794,215.3,53.8,0,,,19766.8,50.59,-0.38,-0.1,0.71,-24.7,-3.2,3.4,35.53,,,,,,,,,,
13.09.01.804,186.9,46.7,0,,,19766.8,50.59,0.09,0.77,1.04,-5.0,0.2,-2.9,35.4,,,,,,,,,,
13.09.01.812,65.4,16.4,0,,,19766.8,50.59,-0.41,0.21,1.43,9.1,20.0,-6.6,35.5,,,,,,,,,,
13.09.01.823,36.8,9.2,1,4.0,161.7,19766.8,50.59,-0.19,0.77,-0.03,42.0,-7.9,-1.6,35.51,,,,,,,,,,
13.09.01.832,60.8,15.2,0,,,19766.8,50.59,-0.52,-0.09,0.85,-9.8,9.2,9.7,35.75,,,,,,,,,,
13.09.01.840,28.0,7.0,0,,,19766.8,50.59,-0.53,-0.02,0.27,33.6,-1.8,-9.6,35.24,,,,,,,,,,
13.09.01.849,118.4,29.6,0,,,19766.8,50.59,-0.45,-0.49,1.18,-14.2,-0.1,9.8,35.48,,,,,,,,,,
13.09.01.860,105.3,26.3,0,,,19766.8,50.59,-0.51,-0.03,0.46,2.7,-12.6,-12.9,35.58,,,,,,,,,,
13.09.01.872,105.3,26.3,0,,,19766.8,50.59,-0.33,-0.3,-0.22,-9.5,12.5,5.2,35.5,,,,,,,,,,
13.09.01.884,93.5,23.4,0,,,19766.8,50.59,-0.72,0.32,0.59,8.8,10.4,8.5,35.8,,,,,,,,,,
13.09.01.894,73.8,18.4,0,,,19770.7,50.58,-0.74,-0.23,-0.37,23.5,-14.9,3.9,35.4,,,,,,,,,,
13.09.01.904,42.3,10.6,0,,,19770.7,50.58,-0.74,0.4,0.09,3.5,-17.8,10.4,35.66,,,,,,,,,,
13.09.01.913,5.5,1.4,0,,,19770.7,50.58,-0.73,0.75,0.39,17.1,30.7,-3.7,35.87,,,,,,,,,,
13.09.01.925,55.7,13.9,0,,,19770.7,50.58,-0.48,0.5,0.05,22.8,14.8,-5.0,35.23,,,,,,,,,,
13.09.01.934,-13.4,3.4,0,,,19770.7,50.58,-0.78,0.11,0.75,-6.8,7.8,9.2,35.21,,,,,,,,,,
13.09.01.945,-14.9,3.7,0,,,19770.7,50.58,-0.54,0.36,0.67,-0.3,15.1,3.7,35.27,,,,,,,,,,
13.09.01.954,-30.8,7.7,0,,,19770.7,50.58,-0.6,0.7,0.67,-19.6,15.7,2.0,35.61,,,,,,,,,,
13.09.01.963,-23.1,5.8,0,,,19770.7,50.58,-0.94,-0.03,0.3,15.1,-6.5,-12.5,35.35,,,,,,,,,,
13.09.01.974,-49.3,12.3,0,,,19770.7,50.58,-0.82,0.67,-0.24,-4.4,18.3,1.4,35.87,,,,,,,,,,
13.09.01.984,-4.0,1.0,0,,,19770.7,50.58,-0.54,0.65,0.37,9.2,3.3,-10.7,35.61,,,,,,,,,,
13.09.01.994,-57.9,14.5,0,,,19770.7,50.58,-0.79,-0.04,0.15,-16.5,13.9,5.4,35.75,,,,,,,,,,
13.09.02.004,-91.0,22.8,0,,,19770.7,50.58,-0.53,0.22,-0.07,5.6,2.2,10.6,35.27,,,,,,,,,,
13.09.02.015,-108.8,27.2,0,,,19774.6,50.57,-1.11,0.88,0.34,-4.8,9.2,9.9,35.45,,,,,,,,,,
13.09.02.023,-128.7,32.2,0,,,19774.6,50.57,-0.72,0.47,0.01,-15.2,12.4,-8.8,35.62,,,,,,,,,,
13.09.02.033,-8.3,2.1,0,,,19774.6,50.57,-0.72,0.31,-0.77,-2.5,-11.8,2.2,35.48,,,,,,,,,,
13.09.02.043,-69.9,17.5,0,,,19774.6,50.57,-0.8,0.51,-0.07,8.5,-10.1,-6.8,35.65,,,,,,,,,,
13.09.02.051,-83.4,20.8,0,,,19774.6,50.57,-0.73,0.91,0.08,5.0,27.2,-16.8,35.7,,,,,,,,,,
13.09.02.061,-101.5,25.4,0,,,19774.6,50.57,-0.25,0.89,-0.53,21.4,-3.8,0.9,35.62,,,,,,,,,,
13.09.02.070,-97.3,24.3,0,,,19778.5,50.56,-0.75,0.89,0.98,3.1,17.6,0.7,35.37,,,,,,,,,,
13.09.02.080,-171.2,42.8,0,,,19778.5,50.56,-0.6,0.63,0.69,-6.2,-6.2,-12.4,35.44,,,,,,,,,,
13.09.02.090,-198.2,49.6,0,,,19778.5,50.56,-0.51,0.71,0.36,29.0,26.9,6.2,35.6,,,,,,,,,,
13.09.02.100,-168.6,42.2,0,,,19778.5,50.56,-0.27,0.54,0.05,-1.5,16.5,14.2,35.58,,,,,,,,,,
13.09.02.109,-174.8,43.7,0,,,19778.5,50.56,-0.78,1.01,1.13,3.4,36.0,-5.5,35.61,,,,,,,,,,
13.09.02.117,-171.1,42.8,0,,,19782.4,50.55,0.15,0.88,1.49,30.8,-0.6,1.8,35.46,,,,,,,,,,
13.09.02.125,-161.5,40.4,0,,,19782.4,50.55,-0.7,0.08,0.74,17.5,21.8,-8.0,35.64,,,,,,,,,,
13.09.02.135,-203.1,50.8,0,,,19782.4,50.55,-0.16,0.43,0.86,5.4,31.8,-8.5,35.81,,,,,,,,,,
13.09.02.144,-144.8,36.2,0,,,19782.4,50.55,-0.27,0.48,1.12,8.1,-3.5,-5.4,35.31,,,,,,,,,,
13.09.02.153,-169.1,42.3,0,,,19782.4,50.55,-0.17,0.23,1.01,-9.3,-7.3,5.7,35.47,,,,,,,,,,
13.09.02.163,-229.7,57.4,0,,,19782.4,50.55,-0.55,0.43,1.34,8.6,3.9,-13.0,35.78,,,,,,,,,,
13.09.02.172,-156.5,39.1,0,,,19786.3,50.54,-0.26,0.35,0.91,7.6,11.9,-11.6,35.37,,,,,,,,,,
13.09.02.182,57.1,14.3,0,,,19786.3,50.54,-0.24,-0.22,0.68,-13.5,-13.8,-1.3,35.21,,,,,,,,,,
13.09.02.193,185.3,46.3,0,,,19786.3,50.54,-0.83,0.04,0.77,-15.1,5.4,-4.5,35.51,,,,,,,,,,
13.09.02.203,210.5,52.6,0,,,19786.3,50.54,-0.74,0.17,0.58,26.5,15.0,23.9,35.67,,,,,,,,,,
13.09.02.216,292.5,73.1,0,,,19786.3,50.54,-0.47,0.27,-0.2,-21.9,7.9,-9.9,35.64,,,,,,,,,,
13.09.02.225,366.5,91.6,1,5.0,149.3,19790.2,50.53,-0.81,0.15,0.64,-4.5,-8.5,7.8,35.49,,,,,,,,,,
13.09.02.237,379.4,94.8,0,,,19790.2,50.53,-0.26,-0.4,0.94,-4.8,9.5,-2.4,35.12,,,,,,,,,,
13.09.02.245,428.1,107.0,0,,,19790.2,50.53,-0.81,0.13,0.37,10.1,-23.8,-10.2,35.4,,,,,,,,,,
13.09.02.256,424.1,106.0,0,,,19790.2,50.53,-0.72,0.54,-0.47,3.3,-22.9,15.1,35.11,,,,,,,,,,
13.09.02.265,518.4,129.6,0,,,19790.2,50.53,-0.98,0.18,-0.14,-10.7,14.0,2.7,35.14,,,,,,,,,,
13.09.02.275,420.3,105.1,0,,,19794.1,50.52,-0.46,0.65,-0.51,11.3,15.1,7.0,35.56,,,,,,,,,,
13.09.02.284,438.4,109.6,0,,,19794.1,50.52,-0.92,-0.1,-0.62,20.8,-29.6,33.1,35.67,,,,,,,,,,
13.09.02.295,508.6,127.2,0,,,19794.1,50.52,-0.8,-0.23,0.19,-40.1,-0.8,1.7,35.48,,,,,,,,,,
13.09.02.305,437.2,109.3,0,,,19794.1,50.52,-0.64,-0.25,0.2,3.7,-8.4,-1.7,35.32,,,,,,,,,,
13.09.02.314,371.7,92.9,0,,,19794.1,50.52,-0.85,0.61,1.01,3.2,5.5,-22.2,35.28,,,,,,,,,,
13.09.02.325,318.0,79.5,0,,,19798.1,50.51,-0.91,0.49,0.62,-28.2,27.5,-11.3,35.51,,,,,,,,,,
13.09.02.334,239.8,60.0,0,,,19798.1,50.51,-0.72,0.8,-1.19,14.9,5.7,-14.7,35.28,,,,,,,,,,
13.09.02.346,133.1,33.3,0,,,19798.1,50.51,-0.87,0.11,-1.08,3.3,29.4,19.3,35.53,,,,,,,,,,
13.09.02.356,22.7,5.7,0,,,19798.1,50.51,-0.72,0.21,-0.15,10.8,-15.5,-19.6,35.56,,,,,,,,,,
13.09.02.368,-7.5,1.9,0,,,19798.1,50.51,-0.56,0.49,-0.04,23.2,-9.5,-3.8,35.76,,,,,,,,,,
13.09.02.379,73.5,18.4,0,,,19802.0,50.5,-0.71,0.66,0.47,-3.0,16.0,-4.6,35.56,,,,,,,,,,
13.09.02.389,87.3,21.8,0,,,19802.0,50.5,-0.7,0.34,0.05,-6.5,1.3,-7.3,35.61,,,,,,,,,,
13.09.02.401,72.3,18.1,0,,,19802.0,50.5,-0.96,0.59,0.11,0.5,10.6,8.0,35.36,,,,,,,,,,
13.09.02.411,53.5,13.4,0,,,19802.0,50.5,-0.57,1.05,0.47,2.0,16.3,-5.6,35.61,,,,,,,,,,
13.09.02.419,89.9,22.5,0,,,19802.0,50.5,-0.44,0.61,-0.23,-4.7,-2.4,-8.7,35.85,,,,,,,,,,
13.09.02.428,99.8,25.0,0,,,19805.9,50.49,-0.61,0.15,1.06,38.3,5.6,4.6,35.72,,,,,,,,,,
13.09.02.437,97.4,24.4,0,,,19805.9,50.49,-0.56,-0.02,0.5,9.5,5.8,16.0,35.5,,,,,,,,,,
13.09.02.446,67.7,16.9,0,,,19805.9,50.49,-0.46,0.95,0.41,4.7,25.3,-6.9,35.58,,,,,,,,,,
13.09.02.455,37.1,9.3,0,,,19805.9,50.49,-0.49,0.78,1.78,13.8,3.1,-2.5,35.81,,,,,,,,,,
13.09.02.463,32.3,8.1,0,,,19805.9,50.49,-0.51,0.66,0.37,-6.5,18.1,-0.1,35.76,,,,,,,,,,
13.09.02.472,-26.3,6.6,0,,,19805.9,50.49,-0.49,0.6,0.17,-7.1,-13.3,12.0,35.5,,,,,,,,,,
13.09.02.480,20.1,5.0,0,,,19809.8,50.48,-0.32,0.05,-0.37,-2.4,4.6,12.4,35.5,,,,,,,,,,
13.09.02.488,25.0,6.2,0,,,19809.8,50.48,-0.51,0.31,1.1,19.0,3.1,-19.5,35.8,,,,,,,,,,
13.09.02.499,-60.8,15.2,0,,,19809.8,50.48,-0.6,1.04,0.24,-15.4,21.2,6.8,35.51,,,,,,,,,,
13.09.02.512,-25.0,6.2,0,,,19809.8,50.48,0.04,0.08,0.86,-23.9,9.9,-4.4,35.73,,,,,,,,,,
13.09.02.521,-13.2,3.3,0,,,19809.8,50.48,-0.14,0.25,1.3,1.1,11.6,3.5,35.18,,,,,,,,,,
13.09.02.531,-39.0,9.8,0,,,19813.8,50.47,-0.47,0.08,0.12,32.0,13.8,-1.1,35.44,,,,,,,,,,
13.09.02.540,-80.6,20.2,0,,,19813.8,50.47,-0.13,0.3,0.54,15.3,-8.6,-0.8,35.7,,,,,,,,,,
13.09.02.550,-94.0,23.5,0,,,19813.8,50.47,-0.31,-0.31,0.67,17.2,-5.9,-14.6,35.6,,,,,,,,,,
13.09.02.560,-81.5,20.4,0,,,19813.8,50.47,-0.58,0.2,0.42,30.8,-1.7,4.3,35.37,,,,,,,,,,
13.09.02.568,-79.8,20.0,0,,,19813.8,50.47,-0.18,-0.45,0.26,-14.5,-1.9,-15.0,35.66,,,,,,,,,,
13.09.02.577,-96.0,24.0,0,,,19813.8,50.47,-0.85,0.72,0.3,-7.2,1.5,-6.0,35.27,,,,,,,,,,
13.09.02.587,-87.0,21.8,0,,,19817.7,50.46,-0.23,0.14,0.14,11.7,-7.2,1.9,35.69,,,,,,,,,,
13.09.02.597,-62.3,15.6,0,,,19817.7,50.46,-0.32,0.25,-0.36,-33.1,33.3,-8.9,35.43,,,,,,,,,,
13.09.02.607,-60.2,15.0,0,,,19817.7,50.46,-1.37,-0.12,0.59,-16.3,1.8,1.0,35.58,,,,,,,,,,
13.09.02.616,-114.5,28.6,0,,,19817.7,50.46,-0.86,0.47,0.61,-34.9,11.1,-2.9,35.3,,,,,,,,,,
13.09.02.626,-101.9,25.5,0,,,19817.7,50.46,-0.96,-0.13,-0.72,37.4,7.6,2.7,35.46,,,,,,,,,,
13.09.02.636,-155.0,38.8,0,,,19821.6,50.45,-0.64,0.42,-0.11,8.6,-1.3,10.0,35.47,,,,,,,,,,
13.09.02.644,-160.2,40.0,0,,,19821.6,50.45,-1.05,0.35,0.29,2.4,30.9,-0.3,35.92,,,,,,,,,,
13.09.02.656,-101.8,25.4,0,,,19821.6,50.45,-1.1,-0.14,0.46,47.8,22.5,3.8,35.64,,,,,,,,,,
13.09.02.665,-87.1,21.8,0,,,19821.6,50.45,-0.93,0.41,0.41,-17.7,-5.4,-17.4,35.54,,,,,,,,,,
13.09.02.675,-201.7,50.4,0,,,19821.6,50.45,-1.03,0.17,-0.21,-1.2,-26.9,-3.0,35.72,,,,,,,,,,
13.09.02.683,-151.4,37.8,1,6.0,131.0,19825.5,50.44,-0.72,0.92,-0.06,-22.1,16.8,4.0,35.4,,,,,,,,,,
13.09.02.693,-232.1,58.0,0,,,19825.5,50.44,-0.78,0.61,-0.15,18.5,22.1,4.8,35.53,,,,,,,,,,
13.09.02.703,-204.6,51.2,0,,,19825.5,50.44,-0.43,0.26,0.11,20.6,9.2,-13.4,35.09,,,,,,,,,,
13.09.02.712,-184.1,46.0,0,,,19825.5,50.44,-0.65,0.79,0.52,2.8,14.2,2.7,35.52,,,,,,,,,,
13.09.02.722,37.5,9.4,0,,,19825.5,50.44,-0.81,0.24,-0.09,2.7,15.1,23.0,35.18,,,,,,,,,,
13.09.02.733,117.4,29.4,0,,,19829.5,50.43,-1.07,0.49,-0.37,-8.9,18.1,18.6,35.69,,,,,,,,,,
13.09.02.743,203.3,50.8,0,,,19829.5,50.43,-0.77,0.57,-0.13,-6.4,-2.0,-19.7,35.37,,,,,,,,,,
13.09.02.755,304.3,76.1,0,,,19829.5,50.43,-0.39,0.41,0.64,6.6,14.3,17.1,35.5,,,,,,,,,,
13.09.02.763,327.3,81.8,0,,,19829.5,50.43,-0.61,0.88,0.07,15.8,15.9,-1.1,35.53,,,,,,,,,,
13.09.02.773,376.8,94.2,0,,,19829.5,50.43,-0.43,0.97,0.01,29.6,-7.2,-11.4,35.34,,,,,,,,,,
13.09.02.782,467.4,116.8,0,,,19829.5,50.43,-0.44,0.0,0.19,11.0,-26.4,2.0,35.55,,,,,,,,,,
13.09.02.793,491.5,122.9,0,,,19833.4,50.42,-0.16,0.42,-0.22,12.0,-9.3,-8.7,35.17,,,,,,,,,,
13.09.02.804,438.6,109.6,0,,,19833.4,50.42,-0.26,0.93,0.96,3.6,29.2,-9.8,35.5,,,,,,,,,,
13.09.02.813,489.0,122.2,0,,,19833.4,50.42,-0.54,-0.0,0.21,-0.1,-21.7,-8.5,35.16,,,,,,,,,,
13.09.02.820,483.8,121.0,0,,,19833.4,50.42,-0.16,0.49,0.18,15.7,-3.3,-3.8,35.58,,,,,,,,,,
13.09.02.831,416.2,104.0,0,,,19833.4,50.42,-0.72,0.36,0.97,30.0,16.4,-4.0,35.36,,,,,,,,,,
13.09.02.842,405.7,101.4,0,,,19837.3,50.41,-0.25,0.35,0.33,1.7,29.8,-5.0,35.36,,,,,,,,,,
13.09.02.852,306.4,76.6,0,,,19837.3,50.41,0.11,0.82,0.83,13.8,-6.0,-12.3,35.54,,,,,,,,,,
13.09.02.863,316.9,79.2,0,,,19837.3,50.41,-0.2,0.33,0.84,1.6,-15.5,-13.3,35.41,,,,,,,,,,
13.09.02.873,238.9,59.7,0,,,19837.3,50.41,-0.25,0.55,0.4,-3.3,8.1,-9.8,35.45,,,,,,,,,,
13.09.02.884,217.6,54.4,0,,,19837.3,50.41,-0.27,0.45,-0.01,5.4,13.3,-4.8,35.38,,,,,,,,,,
13.09.02.894,85.5,21.4,0,,,19841.3,50.4,-0.47,-0.39,1.03,-6.7,-4.5,1.1,35.3,,,,,,,,,,
13.09.02.904,31.7,7.9,0,,,19841.3,50.4,-0.67,0.17,0.15,18.2,3.9,-15.3,35.55,,,,,,,,,,
13.09.02.911,-8.6,2.2,0,,,19841.3,50.4,-0.32,0.55,0.2,-2.4,27.2,9.1,35.69,,,,,,,,,,
13.09.02.921,40.9,10.2,0,,,19841.3,50.4,-0.59,-0.54,0.59,1.8,3.8,-6.7,35.48,,,,,,,,,,
13.09.02.929,41.9,10.5,0,,,19841.3,50.4,-1.03,0.2,0.94,-9.7,-12.2,4.2,35.54,,,,,,,,,,
13.09.02.938,49.8,12.4,0,,,19841.3,50.4,-0.6,-0.09,0.76,4.8,-6.4,5.3,35.37,,,,,,,,,,
13.09.02.952,75.4,18.8,0,,,19845.2,50.39,-0.46,0.24,0.16,-14.5,13.8,20.6,35.25,,,,,,,,,,
13.09.02.964,92.0,23.0,0,,,19845.2,50.39,-0.5,-0.34,1.01,-34.9,15.8,-6.1,35.45,,,,,,,,,,
13.09.02.973,54.8,13.7,0,,,19845.2,50.39,-0.6,-0.04,0.05,16.3,17.9,-7.7,35.55,,,,,,,,,,
13.09.02.982,30.4,7.6,0,,,19845.2,50.39,-1.16,0.35,-0.23,-5.7,13.6,-6.3,35.52,,,,,,,,,,
13.09.02.994,30.0,7.5,0,,,19849.1,50.38,-0.73,0.45,-0.92,4.0,19.7,0.0,35.49,,,,,,,,,,
13.09.03.005,17.0,4.2,0,,,19849.1,50.38,-1.0,-0.21,-0.19,-11.6,-0.9,5.3,35.53,,,,,,,,,,
13.09.03.014,-6.2,1.6,0,,,19849.1,50.38,-0.76,0.38,0.47,3.6,7.6,-5.8,35.35,,,,,,,,,,
13.09.03.023,7.4,1.8,0,,,19849.1,50.38,-0.02,0.39,-0.1,-42.6,7.1,-6.5,35.3,,,,,,,,,,
13.09.03.033,-61.5,15.4,0,,,19849.1,50.38,-0.77,0.25,-0.13,-25.6,-13.3,-7.7,35.71,,,,,,,,,,
13.09.03.041,-1.4,0.4,0,,,19849.1,50.38,-0.35,0.6,0.12,19.9,7.7,-29.3,35.51,,,,,,,,,,
13.09.03.051,8.9,2.2,0,,,19849.1,50.38,-1.2,0.5,-0.12,-13.8,-12.4,-5.8,35.77,,,,,,,,,,
13.09.03.060,-94.3,23.6,0,,,19849.1,50.38,-0.3,-0.01,-0.4,-15.7,30.0,7.2,35.44,,,,,,,,,,
13.09.03.071,-74.5,18.6,0,,,19849.1,50.38,-0.73,0.56,-0.13,22.6,9.1,-0.9,35.57,,,,,,,,,,
13.09.03.081,-56.2,14.0,0,,,19849.1,50.38,-0.67,-0.11,0.51,5.7,10.0,13.3,35.78,,,,,,,,,,
13.09.03.091,-59.9,15.0,1,7.0,147.1,19849.1,50.38,-0.84,0.51,-0.12,30.6,-3.6,6.1,35.47,,,,,,,,,,
13.09.03.103,-152.1,38.0,0,,,19849.1,50.38,-0.15,0.83,-0.27,-11.9,9.7,-5.7,35.5,,,,,,,,,,
13.09.03.112,-42.6,10.6,0,,,19853.1,50.37,-0.44,0.54,-0.29,0.5,2.4,-9.9,35.81,,,,,,,,,,
13.09.03.122,-60.8,15.2,0,,,19853.1,50.37,-0.3,1.34,0.53,12.8,8.0,-8.5,35.31,,,,,,,,,,
13.09.03.132,-30.0,7.5,0,,,19853.1,50.37,-0.41,0.76,0.61,-2.6,-5.9,-14.0,35.38,,,,,,,,,,
13.09.03.141,-97.7,24.4,0,,,19853.1,50.37,-0.6,0.82,-0.08,1.6,22.1,-11.3,35.74,,,,,,,,,,
13.09.03.149,-161.0,40.2,0,,,19853.1,50.37,-0.65,0.91,1.92,1.0,45.0,11.6,35.82,,,,,,,,,,
13.09.03.159,-148.3,37.1,0,,,19853.1,50.37,-0.36,0.49,0.53,-0.1,2.1,-5.3,35.91,,,,,,,,,,
13.09.03.168,-163.6,40.9,0,,,19853.1,50.37,-0.28,1.22,1.0,-29.4,22.3,8.9,35.36,,,,,,,,,,
13.09.03.178,-154.5,38.6,0,,,19853.1,50.37,-0.36,0.56,0.87,-1.0,7.0,-16.9,35.84,,,,,,,,,,
13.09.03.186,-129.7,32.4,0,,,19853.1,50.37,-0.39,0.58,0.95,-14.5,3.7,-26.9,35.29,,,,,,,,,,
13.09.03.194,-159.1,39.8,0,,,19853.1,50.37,0.03,0.17,0.36,1.5,19.0,-15.9,35.36,,,,,,,,,,
13.09.03.205,-158.2,39.6,0,,,19853.1,50.37,-0.45,0.68,0.99,-19.0,3.1,-3.8,35.55,,,,,,,,,,
13.09.03.212,-167.1,41.8,0,,,19853.1,50.37,-0.16,0.5,1.19,-6.3,39.8,9.0,35.39,,,,,,,,,,
13.09.03.224,-165.0,41.2,0,,,19853.1,50.37,-0.24,-0.14,0.19,26.9,4.9,3.9,35.3,,,,,,,,,,
13.09.03.233,-169.0,42.2,0,,,19853.1,50.37,0.02,0.55,1.26,-18.5,5.0,4.6,35.32,,,,,,,,,,
13.09.03.241,-159.0,39.8,0,,,19857.0,50.36,-0.54,0.28,-0.03,7.5,-9.1,-9.0,35.21,,,,,,,,,,
13.09.03.251,-221.2,55.3,0,,,19857.0,50.36,-0.55,-0.23,0.55,-10.0,9.7,18.4,35.58,,,,,,,,,,
13.09.03.261,80.6,20.2,0,,,19857.0,50.36,-0.58,0.08,0.43,25.9,-20.3,0.2,35.22,,,,,,,,,,
13.09.03.270,89.8,22.4,0,,,19857.0,50.36,-0.44,-0.23,0.85,-9.5,-0.3,1.8,35.33,,,,,,,,,,
13.09.03.279,190.4,47.6,0,,,19857.0,50.36,-0.8,0.05,-0.28,12.5,5.8,22.1,35.67,,,,,,,,,,
13.09.03.289,321.4,80.4,0,,,19857.0,50.36,-0.79,0.21,0.68,30.2,0.1,29.9,35.52,,,,,,,,,,
13.09.03.297,223.8,56.0,0,,,19857.0,50.36,-0.73,0.13,-0.34,-8.7,8.3,-7.1,35.34,,,,,,,,,,
13.09.03.305,385.9,96.5,0,,,19857.0,50.36,-0.99,-0.89,0.4,12.7,15.7,-8.1,35.52,,,,,,,,,,
13.09.03.314,365.0,91.2,0,,,19857.0,50.36,-0.77,0.47,0.54,-4.4,5.5,-0.7,35.55,,,,,,,,,,
13.09.03.323,463.6,115.9,0,,,19857.0,50.36,-0.99,0.43,0.28,-40.4,-1.8,-1.5,35.52,,,,,,,,,,
13.09.03.335,496.7,124.2,0,,,19857.0,50.36,-1.0,-0.31,-0.31,21.1,20.7,17.1,35.58,,,,,,,,,,
13.09.03.344,430.0,107.5,0,,,19857.0,50.36,-0.77,0.48,0.61,-25.2,28.8,-3.9,35.71,,,,,,,,,,
13.09.03.354,529.9,132.5,0,,,19857.0,50.36,-0.76,0.33,0.12,29.1,14.9,-9.1,35.72,,,,,,,,,,
13.09.03.364,531.4,132.8,0,,,19857.0,50.36,-0.65,0.71,-1.02,-1.4,-4.1,-24.2,35.52,,,,,,,,,,
13.09.03.371,430.6,107.6,0,,,19861.0,50.35,-0.31,0.63,-0.92,-13.9,0.7,-2.0,35.48,,,,,,,,,,
13.09.03.381,480.3,120.1,0,,,19861.0,50.35,-0.9,0.25,0.75,21.1,16.8,1.7,35.5,,,,,,,,,,
13.09.03.392,328.1,82.0,0,,,19861.0,50.35,-0.47,0.39,-0.19,-6.9,12.2,4.9,35.46,,,,,,,,,,
13.09.03.401,339.0,84.8,0,,,19861.0,50.35,-0.97,0.73,-0.9,28.1,10.4,5.0,35.37,,,,,,,,,,
13.09.03.411,322.6,80.6,0,,,19861.0,50.35,-0.37,0.85,0.12,-9.0,12.0,-18.4,35.23,,,,,,,,,,
13.09.03.423,159.0,39.8,0,,,19861.0,50.35,-0.47,0.75,-0.95,-8.3,14.9,1.2,35.68,,,,,,,,,,
13.09.03.432,113.4,28.4,0,,,19861.0,50.35,-0.78,0.46,-0.76,12.6,17.6,38.4,35.54,,,,,,,,,,
13.09.03.440,30.3,7.6,0,,,19861.0,50.35,-0.69,0.63,-0.04,6.5,12.0,7.1,35.7,,,,,,,,,,
13.09.03.451,-20.7,5.2,0,,,19861.0,50.35,-0.43,0.34,-1.16,8.8,-6.5,-1.4,35.44,,,,,,,,,,
13.09.03.462,4.3,1.1,0,,,19861.0,50.35,-0.67,0.72,0.78,38.5,9.6,22.9,35.79,,,,,,,,,,
13.09.03.472,110.4,27.6,0,,,19861.0,50.35,-0.52,0.34,1.05,-12.4,-22.5,-7.4,35.75,,,,,,,,,,
13.09.03.479,67.8,17.0,0,,,19861.0,50.35,-0.26,0.72,0.65,-4.3,-16.5,-8.3,35.6,,,,,,,,,,
13.09.03.488,67.8,17.0,0,,,19861.0,50.35,-0.4,0.53,0.42,5.9,17.8,8.3,35.73,,,,,,,,,,
13.09.03.498,93.3,23.3,0,,,19861.0,50.35,-0.65,0.35,0.82,-6.2,11.7,-7.7,35.34,,,,,,,,,,
13.09.03.511,83.9,21.0,0,,,19864.9,50.34,-0.22,0.96,1.01,12.0,6.9,-18.7,35.61,,,,,,,,,,
13.09.03.520,86.8,21.7,0,,,19864.9,50.34,-0.65,0.31,0.47,-24.4,-9.1,-11.5,35.55,,,,,,,,,,
13.09.03.527,70.8,17.7,0,,,19864.9,50.34,-0.14,0.61,0.48,-8.4,10.2,-3.2,35.29,,,,,,,,,,
13.09.03.537,30.9,7.7,1,8.0,134.5,19864.9,50.34,-0.19,0.14,0.42,-20.1,17.8,4.5,35.53,,,,,,,,,,
13.09.03.545,74.8,18.7,0,,,19864.9,50.34,-0.17,0.13,0.93,-4.5,6.8,-1.3,35.47,,,,,,,,,,
13.09.03.556,-24.9,6.2,0,,,19864.9,50.34,-0.36,0.6,-0.25,5.1,13.6,-1.6,35.39,,,,,,,,,,
13.09.03.566,-19.6,4.9,0,,,19864.9,50.34,-0.7,-0.13,1.2,-13.5,2.3,-4.5,35.6,,,,,,,,,,
13.09.03.575,-26.6,6.6,0,,,19864.9,50.34,-0.3,0.75,0.77,-11.6,15.7,4.3,35.53,,,,,,,,,,
13.09.03.584,-2.1,0.5,0,,,19864.9,50.34,-0.41,0.49,0.8,-14.3,-4.1,-19.4,35.52,,,,,,,,,,
13.09.03.592,-6.3,1.6,0,,,19864.9,50.34,-0.3,-0.52,0.85,-23.0,20.1,-0.2,35.58,,,,,,,,,,
13.09.03.602,-7.9,2.0,0,,,19864.9,50.34,-0.69,0.04,0.47,16.2,5.9,-1.6,35.37,,,,,,,,,,
13.09.03.612,-16.9,4.2,0,,,19864.9,50.34,-0.89,-0.33,0.52,-10.9,2.7,-4.2,35.62,,,,,,,,,,
13.09.03.621,-28.5,7.1,0,,,19864.9,50.34,-0.52,0.01,0.62,16.0,13.4,10.5,35.56,,,,,,,,,,
13.09.03.630,-52.1,13.0,0,,,19864.9,50.34,-0.64,0.0,0.07,17.2,1.0,-11.7,35.63,,,,,,,,,,
13.09.03.637,-42.0,10.5,0,,,19868.9,50.33,-0.87,-0.03,0.74,11.6,-10.7,3.8,35.77,,,,,,,,,,
13.09.03.648,-103.4,25.8,0,,,19868.9,50.33,-0.65,0.31,0.42,12.4,26.1,1.6,35.3,,,,,,,,,,
13.09.03.656,-171.2,42.8,0,,,19868.9,50.33,-0.84,-0.56,0.01,-2.3,-4.0,-6.7,35.32,,,,,,,,,,
13.09.03.666,-118.4,29.6,0,,,19868.9,50.33,-0.84,0.07,0.14,3.9,-8.9,-2.4,35.43,,,,,,,,,,
13.09.03.676,-144.9,36.2,0,,,19868.9,50.33,-0.81,0.2,-0.26,-11.0,4.5,5.1,35.28,,,,,,,,,,
13.09.03.685,-89.3,22.3,0,,,19868.9,50.33,-1.26,0.38,1.1,-20.6,2.6,7.9,35.41,,,,,,,,,,
13.09.03.695,-103.1,25.8,0,,,19868.9,50.33,-0.72,0.27,-0.22,-16.7,-15.0,-2.2,35.53,,,,,,,,,,
13.09.03.704,-105.7,26.4,0,,,19868.9,50.33,-0.76,0.42,0.23,-18.4,2.4,6.7,35.85,,,,,,,,,,
13.09.03.713,-104.4,26.1,0,,,19868.9,50.33,-0.8,0.22,-0.21,-26.8,7.1,13.9,35.71,,,,,,,,,,
13.09.03.723,-148.2,37.0,0,,,19868.9,50.33,-1.09,0.17,0.21,-20.3,17.9,-22.6,35.57,,,,,,,,,,
13.09.03.732,-167.0,41.8,0,,,19868.9,50.33,-0.31,0.61,-0.57,-7.0,-3.1,5.9,35.71,,,,,,,,,,
13.09.03.741,-117.8,29.4,0,,,19868.9,50.33,-0.75,0.45,0.45,16.0,17.6,11.0,35.65,,,,,,,,,,
13.09.03.751,-126.2,31.6,0,,,19868.9,50.33,-0.79,0.56,-0.08,-2.3,19.9,-4.7,35.86,,,,,,,,,,
13.09.03.761,-93.5,23.4,0,,,19868.9,50.33,-0.76,0.66,-0.01,-7.8,18.6,-10.8,35.23,,,,,,,,,,
13.09.03.771,-187.9,47.0,0,,,19872.8,50.32,-0.68,0.21,0.53,4.5,17.5,-8.1,35.46,,,,,,,,,,
13.09.03.780,-113.9,28.5,0,,,19872.8,50.32,-0.51,0.32,-0.45,-2.4,10.7,0.3,35.44,,,,,,,,,,
13.09.03.791,-176.8,44.2,0,,,19872.8,50.32,-0.54,0.82,0.37,-8.4,19.7,-6.0,35.78,,,,,,,,,,
13.09.03.801,-23.3,5.8,0,,,19872.8,50.32,-0.83,0.39,0.61,37.7,9.2,-15.6,35.74,,,,,,,,,,
13.09.03.810,40.5,10.1,0,,,19872.8,50.32,-0.53,-0.33,0.33,-14.2,20.9,3.0,35.57,,,,,,,,,,
13.09.03.819,184.0,46.0,0,,,19872.8,50.32,-0.41,0.29,0.73,18.6,-4.5,24.1,35.59,,,,,,,,,,
13.09.03.828,238.5,59.6,0,,,19872.8,50.32,-0.25,1.0,0.05,30.9,10.3,1.8,35.56,,,,,,,,,,
13.09.03.837,234.4,58.6,0,,,19872.8,50.32,-0.11,0.35,0.15,-0.5,35.0,-3.9,35.81,,,,,,,,,,
13.09.03.847,334.9,83.7,0,,,19872.8,50.32,-0.49,0.33,1.59,0.5,-19.7,-14.0,35.51,,,,,,,,,,
13.09.03.856,438.6,109.6,0,,,19872.8,50.32,-0.61,0.78,0.75,-0.8,-0.7,0.0,35.15,,,,,,,,,,
13.09.03.865,396.5,99.1,0,,,19872.8,50.32,-0.53,0.32,1.01,2.5,-5.7,9.1,35.56,,,,,,,,,,
13.09.03.875,483.0,120.8,0,,,19872.8,50.32,-0.66,0.88,0.75,-21.1,24.1,16.0,35.14,,,,,,,,,,
13.09.03.886,459.5,114.9,0,,,19872.8,50.32,-0.39,0.54,0.79,-6.8,9.6,-5.7,35.82,,,,,,,,,,
13.09.03.895,460.7,115.2,0,,,19872.8,50.32,-0.81,0.23,0.11,17.3,14.2,2.6,35.64,,,,,,,,,,
13.09.03.905,519.8,130.0,0,,,19876.8,50.31,-0.35,0.34,1.31,-10.5,6.4,-8.9,35.39,,,,,,,,,,
13.09.03.917,406.0,101.5,0,,,19876.8,50.31,-0.09,-0.5,1.75,23.8,19.6,-2.1,35.39,,,,,,,,,,
13.09.03.926,447.4,111.8,0,,,19876.8,50.31,-0.27,0.47,0.4,-16.6,13.0,-2.8,35.5,,,,,,,,,,
13.09.03.935,370.4,92.6,0,,,19876.8,50.31,-0.18,-0.28,-0.38,-13.7,14.7,-3.1,35.5,,,,,,,,,,
13.09.03.945,277.3,69.3,0,,,19876.8,50.31,-0.79,0.08,1.59,-3.9,22.9,3.0,35.74,,,,,,,,,,
13.09.03.953,240.3,60.1,1,9.0,144.2,19876.8,50.31,-0.57,-0.41,0.64,6.7,1.8,-20.7,35.65,,,,,,,,,,
13.09.03.962,209.6,52.4,0,,,19876.8,50.31,-0.13,0.34,0.53,1.2,27.2,24.3,35.25,,,,,,,,,,
13.09.03.973,165.0,41.2,0,,,19876.8,50.31,-0.58,0.56,0.04,-1.2,-18.6,-6.3,35.81,,,,,,,,,,
13.09.03.982,35.4,8.8,0,,,19876.8,50.31,-0.87,0.58,0.8,-24.1,12.6,27.8,35.22,,,,,,,,,,
13.09.03.990,-5.9,1.5,0,,,19876.8,50.31,-0.91,0.23,-0.52,-17.9,14.4,-7.9,35.75,,,,,,,,,,
13.09.04.001,70.0,17.5,0,,,19876.8,50.31,-1.23,0.07,-0.8,-8.0,-13.6,0.0,35.15,,,,,,,,,,
13.09.04.010,33.1,8.3,0,,,19876.8,50.31,-0.99,0.24,0.05,-23.0,-0.3,14.6,35.71,,,,,,,,,,
13.09.04.021,53.7,13.4,0,,,19880.7,50.3,-0.87,0.04,-0.01,5.7,-2.0,0.6,34.95,,,,,,,,,,
13.09.04.030,70.1,17.5,0,,,19880.7,50.3,-0.93,0.16,0.28,9.8,22.5,8.3,35.56,,,,,,,,,,
13.09.04.039,49.2,12.3,0,,,19880.7,50.3,-0.9,0.4,-0.3,4.2,19.1,-9.4,35.34,,,,,,,,,,
13.09.04.048,107.1,26.8,0,,,19880.7,50.3,-0.89,0.75,-0.08,11.4,36.6,-20.6,35.82,,,,,,,,,,
13.09.04.059,109.8,27.4,0,,,19880.7,50.3,-0.46,0.59,-1.1,19.5,19.3,-13.1,35.59,,,,,,,,,,
13.09.04.069,39.3,9.8,0,,,19880.7,50.3,-1.01,0.61,-0.54,0.8,13.0,-2.5,35.4,,,,,,,,,,
13.09.04.079,116.9,29.2,0,,,19880.7,50.3,-0.89,0.17,0.03,-6.3,-4.3,6.5,35.5,,,,,,,,,,
13.09.04.088,-11.3,2.8,0,,,19884.7,50.29,-0.6,0.64,-0.22,-22.9,1.1,2.3,35.22,,,,,,,,,,
13.09.04.099,54.5,13.6,0,,,19884.7,50.29,-0.9,0.94,0.47,4.8,-4.2,8.4,35.44,,,,,,,,,,
13.09.04.108,-23.3,5.8,0,,,19884.7,50.29,-0.69,1.32,0.16,-1.7,1.9,13.2,35.52,,,,,,,,,,
13.09.04.115,-31.0,7.8,0,,,19884.7,50.29,-0.6,0.38,0.32,-46.0,11.1,5.7,35.4,,,,,,,,,,
13.09.04.124,-20.9,5.2,0,,,19884.7,50.29,-0.48,0.19,0.78,14.8,22.2,-14.3,35.18,,,,,,,,,,
13.09.04.131,-32.3,8.1,0,,,19884.7,50.29,-0.63,0.67,0.42,-16.1,-17.5,4.6,35.23,,,,,,,,,,
13.09.04.138,-14.8,3.7,0,,,19884.7,50.29,-0.22,0.25,0.23,27.8,21.1,-17.9,35.41,,,,,,,,,,
13.09.04.148,-44.7,11.2,0,,,19884.7,50.29,-0.74,0.19,1.2,22.5,-10.7,-7.5,35.46,,,,,,,,,,
13.09.04.157,-89.5,22.4,0,,,19888.6,50.28,-0.3,0.58,0.79,4.2,22.5,-13.5,35.3,,,,,,,,,,
13.09.04.167,-27.4,6.8,0,,,19888.6,50.28,-0.41,0.69,1.73,14.1,22.6,14.6,35.33,,,,,,,,,,
13.09.04.176,-50.8,12.7,0,,,19888.6,50.28,-0.46,1.24,0.43,-1.4,17.0,-0.5,35.46,,,,,,,,,,
13.09.04.187,-95.8,24.0,0,,,19888.6,50.28,-0.2,0.56,0.24,-21.6,27.4,9.0,35.26,,,,,,,,,,
13.09.04.196,-123.9,31.0,0,,,19888.6,50.28,-0.19,0.65,1.09,2.9,5.2,-7.5,35.68,,,,,,,,,,
13.09.04.204,-168.7,42.2,0,,,19888.6,50.28,-0.6,0.67,0.75,7.7,17.6,-17.0,35.45,,,,,,,,,,
13.09.04.213,-98.2,24.6,0,,,19888.6,50.28,-0.19,0.31,1.06,19.4,4.5,3.0,35.35,,,,,,,,,,
13.09.04.225,-105.4,26.4,0,,,19892.6,50.27,-0.27,-0.02,0.74,8.0,6.2,1.1,35.48,,,,,,,,,,
13.09.04.234,-131.3,32.8,0,,,19892.6,50.27,-0.24,0.03,0.62,-5.7,15.9,10.5,35.45,,,,,,,,,,
13.09.04.245,-108.6,27.2,0,,,19892.6,50.27,-0.31,-0.07,0.64,15.6,20.2,-10.8,35.16,,,,,,,,,,
13.09.04.254,-132.9,33.2,0,,,19892.6,50.27,-0.53,0.08,0.83,-10.9,8.6,-8.1,35.63,,,,,,,,,,
13.09.04.265,-103.3,25.8,0,,,19892.6,50.27,-0.34,0.55,1.11,19.2,25.0,-31.0,35.83,,,,,,,,,,
13.09.04.275,-104.9,26.2,0,,,19892.6,50.27,-0.8,-0.34,0.81,14.6,18.4,-12.6,35.48,,,,,,,,,,
13.09.04.283,-160.8,40.2,0,,,19896.5,50.26,-0.61,0.15,0.64,4.9,-5.8,3.5,35.67,,,,,,,,,,
13.09.04.292,-151.7,37.9,0,,,19896.5,50.26,-0.19,-0.03,0.82,4.0,-1.4,0.2,35.49,,,,,,,,,,
13.09.04.302,-225.8,56.4,0,,,19896.5,50.26,-0.7,0.17,0.43,12.3,6.2,7.4,35.69,,,,,,,,,,
13.09.04.314,-146.0,36.5,0,,,19896.5,50.26,-0.5,-0.41,0.99,6.4,-2.0,-9.8,35.23,,,,,,,,,,
13.09.04.324,-120.2,30.0,0,,,19896.5,50.26,-0.59,0.26,1.19,-7.5,-14.3,-0.1,35.31,,,,,,,,,,
13.09.04.332,-179.0,44.8,1,10.0,158.3,19896.5,50.26,-1.05,0.01,-0.11,19.1,-12.4,-15.0,35.53,,,,,,,,,,
13.09.04.340,41.6,10.4,0,,,19896.5,50.26,-0.96,-0.0,-0.08,-12.4,5.2,-8.3,35.5,,,,,,,,,,
13.09.04.348,37.5,9.4,0,,,19896.5,50.26,-1.35,-0.03,-0.23,-17.4,-13.2,15.7,35.26,,,,,,,,,,
13.09.04.358,110.1,27.5,0,,,19900.5,50.25,-0.76,0.54,0.08,-6.4,8.1,-8.7,35.77,,,,,,,,,,
13.09.04.366,239.6,59.9,0,,,19900.5,50.25,-0.76,0.69,-1.2,-20.3,-0.8,-3.1,35.9,,,,,,,,,,
13.09.04.376,249.0,62.2,0,,,19900.5,50.25,-0.68,0.34,-0.45,19.6,-1.9,5.2,35.24,,,,,,,,,,
13.09.04.385,367.7,91.9,0,,,19900.5,50.25,-0.6,0.33,-0.76,9.4,0.3,-3.1,35.31,,,,,,,,,,
13.09.04.394,338.8,84.7,0,,,19900.5,50.25,-0.84,0.0,-0.25,6.0,11.1,10.6,35.34,,,,,,,,,,
13.09.04.404,421.1,105.3,0,,,19900.5,50.25,-0.88,0.53,-0.13,14.8,8.4,3.9,35.55,,,,,,,,,,
13.09.04.414,410.2,102.6,0,,,19900.5,50.25,-0.39,0.76,0.67,31.8,-2.3,2.3,35.36,,,,,,,,,,
13.09.04.424,494.0,123.5,0,,,19904.5,50.24,-0.59,1.01,0.22,-1.5,-6.3,2.9,35.61,,,,,,,,,,
13.09.04.433,516.5,129.1,0,,,19904.5,50.24,-0.38,0.64,0.11,-8.7,21.8,-12.8,35.31,,,,,,,,,,
13.09.04.442,484.9,121.2,0,,,19904.5,50.24,-0.78,0.92,-0.08,-3.9,25.7,-0.5,35.51,,,,,,,,,,
13.09.04.450,458.6,114.6,0,,,19904.5,50.24,-0.57,0.57,0.23,-26.4,12.4,-7.7,35.45,,,,,,,,,,
13.09.04.460,417.6,104.4,0,,,19904.5,50.24,-0.58,1.32,0.51,9.1,-12.1,-10.5,35.63,,,,,,,,,,
13.09.04.470,329.4,82.4,0,,,19904.5,50.24,-0.64,0.33,0.82,26.8,23.9,-25.5,35.43,,,,,,,,,,
13.09.04.479,339.3,84.8,0,,,19904.5,50.24,-0.13,-0.27,0.09,-6.9,-0.7,5.9,35.56,,,,,,,,,,
13.09.04.488,274.6,68.6,0,,,19908.4,50.23,-0.41,-0.21,0.88,11.7,38.6,-11.5,35.68,,,,,,,,,,
13.09.04.499,213.5,53.4,0,,,19908.4,50.23,-0.78,0.55,0.53,15.1,-2.2,-16.4,35.69,,,,,,,,,,
13.09.04.509,135.1,33.8,0,,,19908.4,50.23,-0.71,-0.17,1.0,8.1,5.3,-1.9,35.56,,,,,,,,,,
13.09.04.518,104.1,26.0,0,,,19908.4,50.23,-0.1,0.54,0.63,-24.2,13.1,4.2,35.51,,,,,,,,,,
13.09.04.530,-12.7,3.2,0,,,19908.4,50.23,0.22,0.73,0.73,-6.6,-19.3,7.9,35.16,,,,,,,,,,
13.09.04.540,27.7,6.9,0,,,19908.4,50.23,-0.01,0.04,-0.12,-1.4,-1.0,3.0,35.24,,,,,,,,,,
13.09.04.550,97.3,24.3,0,,,19912.4,50.22,-0.22,-0.5,1.09,-34.0,13.0,-6.1,35.15,,,,,,,,,,
13.09.04.559,101.5,25.4,0,,,19912.4,50.22,-0.12,0.07,0.44,12.1,14.6,0.5,35.54,,,,,,,,,,
13.09.04.569,91.7,22.9,0,,,19912.4,50.22,-0.42,0.63,0.63,-15.0,37.2,7.0,35.69,,,,,,,,,,
13.09.04.579,81.9,20.5,0,,,19912.4,50.22,-0.25,0.05,0.46,-39.0,14.2,-4.1,35.51,,,,,,,,,,
13.09.04.587,77.1,19.3,0,,,19912.4,50.22,-0.55,-0.1,0.4,9.7,1.7,18.4,35.12,,,,,,,,,,
13.09.04.596,65.1,16.3,0,,,19912.4,50.22,-0.18,0.13,1.81,5.5,9.0,1.2,35.37,,,,,,,,,,
13.09.04.608,69.4,17.4,0,,,19912.4,50.22,-0.64,-0.11,1.37,-39.5,3.0,0.0,35.52,,,,,,,,,,
13.09.04.618,62.6,15.6,0,,,19916.4,50.21,-0.56,0.7,0.66,-2.9,18.6,-15.6,35.44,,,,,,,,,,
13.09.04.627,32.7,8.2,0,,,19916.4,50.21,-0.46,0.41,-0.33,25.5,-8.3,-0.2,35.53,,,,,,,,,,
13.09.04.635,3.3,0.8,0,,,19916.4,50.21,-0.62,-0.69,-0.45,-18.2,1.4,3.1,35.84,,,,,,,,,,
13.09.04.646,-18.0,4.5,0,,,19916.4,50.21,-0.4,-0.4,-0.37,30.2,11.8,-12.7,35.47,,,,,,,,,,
13.09.04.654,-40.7,10.2,0,,,19916.4,50.21,-0.47,-0.32,-0.13,-8.7,-2.7,-14.1,35.35,,,,,,,,,,
13.09.04.665,-34.3,8.6,0,,,19916.4,50.21,-0.62,0.27,-0.14,-3.1,7.0,-4.2,35.47,,,,,,,,,,
13.09.04.675,-39.4,9.8,0,,,19916.4,50.21,-0.9,-0.92,-1.0,-10.0,8.4,3.3,35.73,,,,,,,,,,
13.09.04.684,-31.0,7.8,0,,,19920.3,50.2,-0.45,-0.17,-1.11,-15.0,13.0,21.0,35.63,,,,,,,,,,
13.09.04.695,-62.6,15.6,0,,,19920.3,50.2,-0.57,-0.29,0.02,14.4,2.0,31.3,35.41,,,,,,,,,,
13.09.04.705,-72.4,18.1,0,,,19920.3,50.2,-0.97,-0.2,-0.16,-27.3,-6.5,-15.7,35.56,,,,,,,,,,
13.09.04.715,-97.6,24.4,0,,,19920.3,50.2,-0.83,0.49,-0.81,1.0,-6.5,0.5,35.44,,,,,,,,,,
13.09.04.723,-102.7,25.7,0,,,19920.3,50.2,-0.55,0.24,-1.54,14.5,-0.4,-2.8,35.55,,,,,,,,,,
13.09.04.733,-39.0,9.8,1,11.0,149.6,19920.3,50.2,-0.88,-0.36,-0.88,0.5,7.8,-8.9,35.28,,,,,,,,,,
13.09.04.743,-52.8,13.2,0,,,19920.3,50.2,-0.94,0.74,-0.06,-0.5,15.5,-5.2,35.38,,,,,,,,,,
13.09.04.752,-78.1,19.5,0,,,19924.3,50.19,-0.97,0.07,-0.17,-25.9,-1.4,-1.9,35.3,,,,,,,,,,
13.09.04.762,-80.6,20.2,0,,,19924.3,50.19,-0.95,0.48,0.0,-5.0,13.6,11.1,35.38,,,,,,,,,,
13.09.04.771,-167.0,41.8,0,,,19924.3,50.19,-0.74,0.15,-0.03,2.6,7.8,0.6,35.59,,,,,,,,,,
13.09.04.779,-142.6,35.6,0,,,19924.3,50.19,-0.74,0.67,0.18,26.8,-11.6,-3.5,35.73,,,,,,,,,,
13.09.04.788,-117.1,29.3,0,,,19924.3,50.19,-0.94,0.78,0.78,-6.5,-11.7,8.7,35.55,,,,,,,,,,
13.09.04.798,-111.9,28.0,0,,,19924.3,50.19,-0.9,0.39,0.25,-2.6,0.1,-12.6,35.5,,,,,,,,,,
13.09.04.807,-171.5,42.9,0,,,19924.3,50.19,-0.33,0.89,0.67,-36.4,4.7,8.5,35.82,,,,,,,,,,
13.09.04.818,-142.9,35.7,0,,,19928.3,50.18,-0.33,0.82,0.06,-12.5,16.3,-2.8,35.76,,,,,,,,,,
13.09.04.827,-153.2,38.3,0,,,19928.3,50.18,-0.56,0.21,0.25,0.9,-9.9,0.4,35.57,,,,,,,,,,
13.09.04.836,-142.0,35.5,0,,,19928.3,50.18,-0.37,0.82,0.5,7.5,-7.1,14.8,35.55,,,,,,,,,,
13.09.04.845,-173.8,43.4,0,,,19928.3,50.18,-0.34,1.03,0.65,-25.3,17.0,8.2,35.49,,,,,,,,,,
13.09.04.852,-102.8,25.7,0,,,19928.3,50.18,-0.14,0.59,0.97,-10.2,5.7,2.4,35.52,,,,,,,,,,
13.09.04.860,-214.2,53.6,0,,,19928.3,50.18,-0.15,0.56,0.53,3.4,13.0,11.3,35.52,,,,,,,,,,
13.09.04.871,-149.2,37.3,0,,,19928.3,50.18,-0.16,0.67,0.23,-20.9,14.9,-12.0,35.44,,,,,,,,,,
13.09.04.883,67.9,17.0,0,,,19932.2,50.17,-0.18,-0.02,0.88,-4.1,20.5,-8.0,35.5,,,,,,,,,,
13.09.04.891,77.0,19.2,0,,,19932.2,50.17,-0.26,-0.0,0.42,10.1,-21.4,-7.0,35.37,,,,,,,,,,
13.09.04.899,178.3,44.6,0,,,19932.2,50.17,-0.42,0.45,0.44,-4.7,2.6,2.9,35.45,,,,,,,,,,
13.09.04.908,245.8,61.4,0,,,19932.2,50.17,-0.4,-0.38,1.88,16.7,-8.5,-11.4,35.65,,,,,,,,,,
13.09.04.916,285.0,71.2,0,,,19932.2,50.17,-0.31,-0.35,-0.0,17.4,13.4,-7.4,35.43,,,,,,,,,,
13.09.04.925,402.4,100.6,0,,,19932.2,50.17,0.08,0.01,0.51,11.2,-11.6,3.8,35.69,,,,,,,,,,
13.09.04.936,403.6,100.9,0,,,19932.2,50.17,-0.23,-0.06,0.6,-17.8,6.2,-2.4,35.17,,,,,,,,,,
13.09.04.946,375.7,93.9,0,,,19932.2,50.17,-0.21,-0.08,0.63,29.8,18.0,5.3,35.68,,,,,,,,,,
13.09.04.956,505.0,126.2,0,,,19936.2,50.16,-0.72,0.07,0.48,-24.9,4.6,-6.2,35.43,,,,,,,,,,
13.09.04.965,517.7,129.4,0,,,19936.2,50.16,-0.92,0.11,0.12,23.5,27.0,-19.4,35.4,,,,,,,,,,
13.09.04.974,490.5,122.6,0,,,19936.2,50.16,-0.32,-0.22,0.55,-11.6,21.3,-12.1,35.7,,,,,,,,,,
13.09.04.983,482.1,120.5,0,,,19936.2,50.16,-0.96,-0.33,1.13,49.3,10.1,6.3,35.73,,,,,,,,,,
13.09.04.994,447.1,111.8,0,,,19936.2,50.16,-0.97,-0.21,0.28,-0.8,-11.3,-10.6,35.7,,,,,,,,,,
13.09.05.004,380.8,95.2,0,,,19936.2,50.16,-0.93,0.51,-0.06,16.7,-1.9,-8.7,35.55,111.9,,,,,,,,,
13.09.05.013,324.7,81.2,0,,,19936.2,50.16,-0.59,0.24,0.33,-17.4,0.2,-3.6,35.4,,,,,,,,,,
13.09.05.021,296.1,74.0,0,,,19940.2,50.15,-1.01,-0.15,-0.33,7.0,3.3,-21.0,35.63,,,,,,,,,,
13.09.05.031,318.4,79.6,0,,,19940.2,50.15,-0.58,0.51,0.13,-12.9,7.7,-0.6,35.62,,,,,,,,,,
13.09.05.041,233.7,58.4,0,,,19940.2,50.15,-0.72,0.31,0.48,10.4,-9.9,13.1,35.27,,,,,,,,,,
13.09.05.050,178.0,44.5,0,,,19940.2,50.15,-1.22,-0.28,0.43,34.6,7.3,-25.4,35.58,,,,,,,,,,
13.09.05.061,29.2,7.3,0,,,19940.2,50.15,-1.09,0.58,0.3,11.8,-13.6,-11.0,35.45,,,,,,,,,,
13.09.05.071,25.9,6.5,0,,,19940.2,50.15,-0.71,-0.17,-0.14,28.6,-6.8,4.9,35.57,,,,,,,,,,
13.09.05.079,-15.3,3.8,0,,,19940.2,50.15,-0.85,0.55,0.09,4.8,26.2,17.5,35.34,,,,,,,,,,
13.09.05.087,60.2,15.0,0,,,19940.2,50.15,-0.84,0.57,0.16,0.1,3.3,3.1,35.64,,,,,,,,,,
13.09.05.098,23.2,5.8,0,,,19940.2,50.15,-0.94,0.93,0.6,38.8,14.4,5.1,35.33,,,,,,,,,,
13.09.05.106,85.1,21.3,0,,,19944.2,50.14,-0.86,1.2,-0.01,25.2,6.5,-20.5,35.55,,,,,,,,,,
13.09.05.117,122.0,30.5,1,12.0,156.3,19944.2,50.14,-0.39,1.07,0.76,-17.6,16.5,2.2,35.61,,,,,,,,,,
13.09.05.125,118.1,29.5,0,,,19944.2,50.14,-0.55,0.66,0.77,0.8,-2.7,-14.0,35.5,,,,,,,,,,
13.09.05.133,101.6,25.4,0,,,19944.2,50.14,-0.76,0.54,0.52,-9.1,-2.9,21.9,35.42,,,,,,,,,,
13.09.05.143,98.1,24.5,0,,,19944.2,50.14,-0.17,0.65,-0.16,1.6,14.7,-8.2,35.45,,,,,,,,,,
13.09.05.151,46.5,11.6,0,,,19944.2,50.14,-0.49,1.14,0.54,22.9,13.4,1.1,35.81,,,,,,,,,,
13.09.05.161,12.6,3.2,0,,,19944.2,50.14,-0.31,0.69,0.52,0.7,26.6,1.4,35.73,,,,,,,,,,
13.09.05.171,-5.8,1.4,0,,,19944.2,50.14,-0.76,0.48,0.86,17.6,0.1,5.5,35.52,,,,,,,,,,
13.09.05.179,18.5,4.6,0,,,19944.2,50.14,-0.27,0.67,-0.53,-3.0,10.1,-4.2,35.46,,,,,,,,,,
13.09.05.189,2.7,0.7,0,,,19948.1,50.13,-0.87,0.78,0.25,-0.3,1.8,-3.0,35.57,,,,,,,,,,
13.09.05.199,20.5,5.1,0,,,19948.1,50.13,-0.4,0.6,0.65,29.7,4.8,-10.3,35.8,,,,,,,,,,
13.09.05.209,-55.3,13.8,0,,,19948.1,50.13,-0.38,0.25,0.93,6.4,-4.7,-11.7,35.6,,,,,,,,,,
13.09.05.218,-67.2,16.8,0,,,19948.1,50.13,-0.29,0.66,0.97,-4.6,41.7,-13.8,35.72,,,,,,,,,,
13.09.05.226,,,0,,,,,,,,,,,,,,,,,,,,,
13.09.05.234,-12.1,3.0,0,,,19948.1,50.13,-0.42,-0.33,0.76,-37.9,-4.5,3.3,35.69,,,,,,,,,,
13.09.05.243,-115.7,28.9,0,,,19948.1,50.13,-0.53,0.14,0.91,1.1,-21.1,10.5,35.49,,,,,,,,,,
13.09.05.252,-29.7,7.4,0,,,19948.1,50.13,-0.3,0.37,1.61,27.6,7.2,-4.1,35.76,,,,,,,,,,
13.09.05.262,-99.0,24.8,0,,,19952.1,50.12,-0.31,0.15,1.45,20.0,-4.1,-2.7,35.51,,,,,,,,,,
13.09.05.273,-108.8,27.2,0,,,19952.1,50.12,-0.27,-0.22,0.37,14.8,-1.0,1.5,35.57,,,,,,,,,,
13.09.05.282,-102.3,25.6,0,,,19952.1,50.12,-0.73,-0.47,0.43,6.0,1.2,14.8,35.59,,,,,,,,,,
13.09.05.293,-59.3,14.8,0,,,19952.1,50.12,-0.14,-0.03,1.49,3.9,31.3,16.4,35.68,,,,,,,,,,
13.09.05.304,-105.1,26.3,0,,,19952.1,50.12,-0.44,0.59,-0.1,30.1,22.3,-6.7,35.46,,,,,,,,,,
13.09.05.313,-127.0,31.8,0,,,19952.1,50.12,-0.46,0.27,-0.64,0.1,26.7,-16.9,35.38,,,,,,,,,,
13.09.05.322,-129.2,32.3,0,,,19952.1,50.12,-0.72,0.02,0.09,-16.5,-5.3,11.9,35.58,,,,,,,,,,
13.09.05.333,-147.2,36.8,0,,,19952.1,50.12,-0.46,-0.4,0.12,19.5,-11.1,-10.2,35.21,,,,,,,,,,
13.09.05.343,-111.4,27.8,0,,,19956.1,50.11,-1.04,-0.44,0.83,9.5,-0.7,-21.2,35.39,,,,,,,,,,
13.09.05.351,-143.7,35.9,0,,,19956.1,50.11,-0.9,-0.2,-0.26,16.5,-13.8,5.2,35.25,,,,,,,,,,
13.09.05.361,-132.3,33.1,0,,,19956.1,50.11,-0.4,-0.27,-0.49,-3.0,19.1,11.5,35.58,,,,,,,,,,
13.09.05.373,-168.3,42.1,0,,,19956.1,50.11,-0.64,0.25,-0.39,-26.4,-0.7,-6.5,35.38,,,,,,,,,,
13.09.05.381,-188.3,47.1,0,,,19956.1,50.11,-0.95,0.15,-0.5,20.8,11.9,7.2,35.57,,,,,,,,,,
13.09.05.391,-197.4,49.4,0,,,19956.1,50.11,-1.01,-0.05,-0.13,-1.1,15.6,4.0,35.25,,,,,,,,,,
13.09.05.400,-172.6,43.2,0,,,19956.1,50.11,-0.9,-0.15,-0.06,-9.5,25.5,-0.9,35.36,,,,,,,,,,
13.09.05.409,-204.1,51.0,0,,,19956.1,50.11,-0.98,0.38,-0.17,-9.5,-6.0,2.2,35.66,,,,,,,,,,
13.09.05.422,48.7,12.2,0,,,19960.1,50.1,-0.78,0.64,-0.23,4.1,21.3,-20.7,35.74,,,,,,,,,,
13.09.05.432,141.3,35.3,0,,,19960.1,50.1,-0.58,0.22,0.32,-21.7,-5.0,2.5,35.69,,,,,,,,,,
13.09.05.443,178.8,44.7,0,,,19960.1,50.1,-0.65,0.63,0.57,-5.6,2.1,2.1,35.09,,,,,,,,,,
13.09.05.453,274.5,68.6,0,,,19960.1,50.1,-0.56,0.29,-0.47,-34.1,17.9,4.8,35.74,,,,,,,,,,
13.09.05.465,,,0,,,,,,,,,,,,,,,,,,,,,
13.09.05.478,375.9,94.0,1,13.0,166.2,19960.1,50.1,-0.59,0.12,-0.28,-5.7,13.8,-16.5,35.32,,,,,,,,,,
13.09.05.488,490.7,122.7,0,,,19960.1,50.1,-0.43,0.57,0.68,-15.1,-15.0,2.8,35.43,,,,,,,,,,
13.09.05.497,463.2,115.8,0,,,19960.1,50.1,-0.53,0.02,-0.47,15.7,29.7,-9.1,35.08,,,,,,,,,,
13.09.05.506,473.4,118.4,0,,,19964.1,50.09,-0.24,0.65,0.65,34.5,-10.1,-8.7,35.59,,,,,,,,,,
13.09.05.518,467.2,116.8,0,,,19964.1,50.09,0.18,1.02,1.22,8.5,16.0,-5.6,35.45,,,,,,,,,,
13.09.05.525,474.2,118.6,0,,,19964.1,50.09,-0.48,0.11,0.64,-4.8,18.6,-12.9,35.46,,,,,,,,,,
13.09.05.537,412.9,103.2,0,,,19964.1,50.09,-0.05,1.16,0.79,-12.1,9.2,-3.8,35.35,,,,,,,,,,
13.09.05.545,397.0,99.2,0,,,19964.1,50.09,-0.61,0.98,0.46,6.0,1.8,-20.8,35.62,,,,,,,,,,
13.09.05.554,365.2,91.3,0,,,19964.1,50.09,-0.35,0.31,0.63,10.0,9.5,1.2,35.46,,,,,,,,,,
13.09.05.564,338.9,84.7,0,,,19964.1,50.09,-0.21,0.37,1.14,-24.5,25.2,-14.1,35.36,,,,,,,,,,
13.09.05.573,286.6,71.6,0,,,19964.1,50.09,-0.48,-0.07,0.95,-5.4,8.8,-10.1,34.96,,,,,,,,,,
13.09.05.582,215.4,53.8,0,,,19968.1,50.08,-0.78,0.26,1.43,1.7,3.4,-6.7,35.53,,,,,,,,,,
13.09.05.591,157.6,39.4,0,,,19968.1,50.08,-0.39,0.05,1.04,18.6,6.9,-13.4,35.46,,,,,,,,,,
13.09.05.602,-28.9,7.2,0,,,19968.1,50.08,-0.42,-0.31,-0.2,-10.6,-3.6,17.3,35.58,,,,,,,,,,
13.09.05.610,-16.3,4.1,0,,,19968.1,50.08,-0.56,-0.3,0.91,-4.4,-0.4,8.1,35.79,,,,,,,,,,
13.09.05.621,71.0,17.8,0,,,19968.1,50.08,-0.4,0.27,-0.66,-3.8,-10.4,-2.8,35.44,,,,,,,,,,
13.09.05.630,34.3,8.6,0,,,19968.1,50.08,-0.19,-0.22,-0.14,18.6,24.8,-0.4,35.74,,,,,,,,,,
13.09.05.640,66.3,16.6,0,,,19968.1,50.08,-0.43,0.37,1.21,-3.0,-5.6,-7.4,35.53,,,,,,,,,,
13.09.05.649,40.4,10.1,0,,,19968.1,50.08,-0.39,0.16,0.78,13.9,-14.7,2.6,35.41,,,,,,,,,,
13.09.05.659,84.1,21.0,0,,,19968.1,50.08,-0.39,0.08,0.92,28.3,-3.8,2.5,35.5,,,,,,,,,,
13.09.05.670,45.6,11.4,0,,,19972.0,50.07,-0.78,-0.17,0.34,-19.4,-12.8,1.8,35.33,,,,,,,,,,
13.09.05.680,54.6,13.6,0,,,19972.0,50.07,-0.33,-0.03,-0.32,-8.6,8.8,0.2,35.27,,,,,,,,,,
13.09.05.687,84.8,21.2,0,,,19972.0,50.07,-0.85,0.07,0.27,5.5,1.3,12.9,35.55,,,,,,,,,,
13.09.05.695,61.1,15.3,0,,,19972.0,50.07,-0.42,0.09,0.36,-12.5,19.1,2.4,35.46,,,,,,,,,,
13.09.05.705,3.0,0.8,0,,,19972.0,50.07,-0.93,-0.12,0.62,-28.2,-0.9,-0.6,35.71,,,,,,,,,,
13.09.05.714,8.0,2.0,0,,,19972.0,50.07,-0.42,0.32,0.03,-3.0,-6.2,-8.2,35.26,,,,,,,,,,
13.09.05.722,-32.8,8.2,0,,,19972.0,50.07,-0.61,-0.57,-0.27,-36.9,2.2,-17.8,35.51,,,,,,,,,,
13.09.05.731,35.4,8.8,0,,,19972.0,50.07,-1.0,0.14,0.42,-5.3,18.5,-10.1,35.48,,,,,,,,,,
13.09.05.743,-71.0,17.8,0,,,19976.0,50.06,-0.47,0.43,0.93,38.9,27.9,3.2,35.49,,,,,,,,,,
13.09.05.754,-20.1,5.0,0,,,19976.0,50.06,-0.8,0.4,-0.17,2.7,4.9,-6.1,35.71,,,,,,,,,,
13.09.05.764,-72.7,18.2,0,,,19976.0,50.06,-0.9,0.85,-0.26,13.2,16.4,-15.6,35.53,,,,,,,,,,
13.09.05.773,-121.2,30.3,0,,,19976.0,50.06,-0.94,0.46,-0.13,3.1,-25.1,14.1,35.44,,,,,,,,,,
13.09.05.782,-108.6,27.2,0,,,19976.0,50.06,-1.11,1.15,0.36,-25.6,28.1,-15.9,35.43,,,,,,,,,,
13.09.05.791,-31.8,8.0,0,,,19976.0,50.06,-0.61,0.9,0.66,-20.0,-2.3,-10.7,35.64,,,,,,,,,,
13.09.05.801,-131.8,33.0,0,,,19976.0,50.06,-0.77,0.8,-0.05,-1.2,-16.2,-1.3,35.48,,,,,,,,,,
13.09.05.809,-82.2,20.6,0,,,19976.0,50.06,-0.73,0.98,0.63,-7.8,8.1,-2.6,35.47,,,,,,,,,,
13.09.05.818,-99.1,24.8,0,,,19976.0,50.06,-0.59,0.53,-0.49,5.0,35.1,18.5,35.33,,,,,,,,,,
13.09.05.829,-105.4,26.4,0,,,19980.0,50.05,-0.79,0.49,0.6,-17.0,-20.6,-4.9,35.44,,,,,,,,,,
13.09.05.838,-112.0,28.0,0,,,19980.0,50.05,-0.67,0.92,-0.28,-5.3,-14.4,-11.4,35.96,,,,,,,,,,
13.09.05.848,-160.9,40.2,0,,,19980.0,50.05,-0.25,0.59,0.54,-8.7,4.1,7.1,35.32,,,,,,,,,,
13.09.05.859,-103.0,25.8,0,,,19980.0,50.05,-0.49,0.84,0.76,12.3,-1.0,-2.9,35.33,,,,,,,,,,
13.09.05.870,-89.7,22.4,0,,,19980.0,50.05,-0.08,0.44,0.22,0.1,12.4,12.4,35.36,,,,,,,,,,
13.09.05.881,-118.6,29.6,0,,,19980.0,50.05,-0.31,-0.18,0.75,-3.6,5.5,-3.7,35.3,,,,,,,,,,
13.09.05.892,-157.5,39.4,0,,,19980.0,50.05,-0.47,0.05,1.06,-17.5,12.7,13.4,35.48,,,,,,,,,,
13.09.05.905,-167.9,42.0,0,,,19984.0,50.04,-0.28,0.91,0.97,4.5,-7.8,-8.9,35.66,,,,,,,,,,
13.09.05.915,-168.9,42.2,1,14.0,137.3,19984.0,50.04,-0.01,0.81,0.26,1.5,2.3,0.2,35.71,,,,,,,,,,
13.09.05.923,-127.1,31.8,0,,,19984.0,50.04,-0.44,0.13,0.68,-9.2,8.5,3.2,35.28,,,,,,,,,,
13.09.05.934,-154.6,38.6,0,,,19984.0,50.04,-0.48,0.42,0.45,7.1,-1.2,-1.0,35.59,,,,,,,,,,
13.09.05.944,-184.5,46.1,0,,,19984.0,50.04,-0.39,0.25,1.14,5.9,9.4,3.4,35.54,,,,,,,,,,
13.09.05.953,-1.6,0.4,0,,,19984.0,50.04,-0.59,0.31,0.89,-3.1,-12.8,1.7,35.35,,,,,,,,,,
13.09.05.962,44.5,11.1,0,,,19984.0,50.04,-0.74,-0.07,0.22,-10.8,17.6,-14.8,35.72,,,,,,,,,,
13.09.05.971,98.2,24.6,0,,,19984.0,50.04,-0.6,0.28,0.44,0.5,3.2,-6.3,35.71,,,,,,,,,,
13.09.05.982,201.9,50.5,0,,,19984.0,50.04,-0.3,-0.28,-0.28,18.2,5.7,10.1,35.63,,,,,,,,,,
13.09.05.995,284.0,71.0,0,,,19988.0,50.03,-0.74,-0.28,0.6,-12.5,10.5,2.1,35.58,,,,,,,,,,
13.09.06.003,341.4,85.4,0,,,19988.0,50.03,-0.66,-0.35,-0.15,14.0,18.6,-10.4,35.72,,,,,,,,,,
13.09.06.012,391.2,97.8,0,,,19988.0,50.03,-0.69,-0.25,-0.14,32.6,-11.5,0.2,35.41,,,,,,,,,,
13.09.06.021,531.6,132.9,0,,,19988.0,50.03,-0.65,-0.02,0.16,28.1,3.1,-8.7,35.61,,,,,,,,,,
13.09.06.032,517.4,129.4,0,,,19988.0,50.03,-0.88,0.09,-0.82,-0.4,16.8,18.1,35.04,,,,,,,,,,
13.09.06.042,530.7,132.7,0,,,19988.0,50.03,-0.55,-0.27,0.69,8.0,-11.6,-5.1,35.38,,,,,,,,,,
13.09.06.052,443.6,110.9,0,,,19988.0,50.03,-0.98,0.61,0.9,25.6,-14.7,10.0,35.83,,,,,,,,,,
13.09.06.060,455.2,113.8,0,,,19988.0,50.03,-0.57,0.58,0.15,3.7,0.9,9.1,35.61,,,,,,,,,,
13.09.06.070,451.9,113.0,0,,,19988.0,50.03,-1.21,-0.15,-0.77,11.9,-2.1,4.6,35.64,,,,,,,,,,
13.09.06.079,429.4,107.4,0,,,19988.0,50.03,-0.64,0.8,-0.58,8.0,-1.1,-5.4,35.4,,,,,,,,,,
13.09.06.091,331.0,82.8,0,,,19988.0,50.03,-0.94,0.42,0.35,3.6,-3.3,13.2,35.51,,,,,,,,,,
13.09.06.099,251.9,63.0,0,,,19988.0,50.03,-0.64,0.62,0.18,5.2,-0.2,-27.2,35.37,,,,,,,,,,
13.09.06.110,240.1,60.0,0,,,19988.0,50.03,-1.28,0.64,-0.51,-15.6,7.7,-27.2,36.1,,,,,,,,,,
13.09.06.119,169.2,42.3,0,,,19992.0,50.02,-0.52,0.9,0.68,-3.4,25.6,-5.8,35.68,,,,,,,,,,
13.09.06.129,75.5,18.9,0,,,19992.0,50.02,-0.6,0.06,0.29,17.7,19.6,3.9,35.38,,,,,,,,,,
13.09.06.140,11.6,2.9,0,,,19992.0,50.02,-0.69,0.59,-0.22,-8.7,-0.9,1.0,35.48,,,,,,,,,,
13.09.06.151,41.4,10.4,0,,,19992.0,50.02,-0.47,0.51,0.21,-24.4,0.1,11.3,35.87,,,,,,,,,,
13.09.06.161,53.3,13.3,0,,,19992.0,50.02,-0.61,0.71,0.7,-10.4,22.2,-9.0,35.88,,,,,,,,,,
13.09.06.172,112.5,28.1,0,,,19992.0,50.02,-0.83,0.57,0.73,-19.8,-14.8,21.1,35.39,,,,,,,,,,
13.09.06.182,84.9,21.2,0,,,19992.0,50.02,-0.67,0.85,-0.31,11.1,1.0,-1.8,35.3,,,,,,,,,,
13.09.06.193,63.2,15.8,0,,,19992.0,50.02,-0.57,0.77,0.11,-12.5,-32.2,-8.1,35.24,,,,,,,,,,
13.09.06.204,78.2,19.6,0,,,19992.0,50.02,-0.64,0.13,0.41,3.6,29.8,-1.8,35.43,,,,,,,,,,
13.09.06.214,154.2,38.6,0,,,19992.0,50.02,-0.5,0.4,0.59,29.5,-4.4,-8.9,35.31,,,,,,,,,,
13.09.06.224,34.3,8.6,0,,,19992.0,50.02,-0.3,0.53,0.81,-37.4,5.0,4.2,35.58,,,,,,,,,,
13.09.06.233,31.9,8.0,0,,,19992.0,50.02,-0.56,0.65,0.98,15.2,31.1,9.2,35.61,,,,,,,,,,
13.09.06.243,8.3,2.1,0,,,19992.0,50.02,-0.5,1.16,0.66,-10.2,6.9,0.7,35.53,,,,,,,,,,
13.09.06.251,18.0,4.5,0,,,19992.0,50.02,-0.47,0.52,-0.24,-24.0,19.5,-19.1,35.38,,,,,,,,,,
13.09.06.261,-33.8,8.4,0,,,19992.0,50.02,-0.27,-0.05,0.96,11.7,3.3,-8.9,35.94,,,,,,,,,,
13.09.06.272,-12.4,3.1,1,15.0,168.1,19996.0,50.01,-0.4,0.84,0.25,-17.2,-1.2,5.5,35.14,,,,,,,,,,
13.09.06.283,8.3,2.1,0,,,19996.0,50.01,-0.31,0.25,1.06,-28.5,13.6,-14.0,35.47,,,,,,,,,,
13.09.06.291,-28.8,7.2,0,,,19996.0,50.01,-0.12,-0.17,0.41,33.2,-13.8,12.9,35.81,,,,,,,,,,
13.09.06.301,-53.5,13.4,0,,,19996.0,50.01,0.11,0.6,0.81,-49.9,-2.2,13.7,35.8,,,,,,,,,,
13.09.06.310,-37.3,9.3,0,,,19996.0,50.01,-0.69,-0.04,1.0,15.8,1.7,9.8,35.3,,,,,,,,,,
13.09.06.321,-57.0,14.2,0,,,19996.0,50.01,-0.37,0.73,0.71,-9.0,-0.1,19.8,35.36,,,,,,,,,,
13.09.06.329,-103.4,25.8,0,,,19996.0,50.01,-0.52,-0.05,0.65,-7.8,11.7,-1.1,35.54,,,,,,,,,,
13.09.06.338,-77.2,19.3,0,,,19996.0,50.01,-0.34,0.46,1.24,9.6,7.4,1.2,35.59,,,,,,,,,,
13.09.06.348,-154.5,38.6,0,,,19996.0,50.01,-0.48,0.43,0.92,39.1,-4.1,12.0,35.62,,,,,,,,,,
13.09.06.357,-126.8,31.7,0,,,19996.0,50.01,-0.47,0.19,0.17,-43.2,-9.8,-15.3,35.34,,,,,,,,,,
13.09.06.366,-51.4,12.8,0,,,19996.0,50.01,-0.79,-0.47,-0.25,-30.3,6.0,-9.6,35.54,,,,,,,,,,
13.09.06.377,-93.8,23.4,0,,,19996.0,50.01,-0.21,-0.37,-0.5,-2.9,4.3,-9.6,35.52,,,,,,,,,,
13.09.06.387,-79.3,19.8,0,,,19996.0,50.01,-0.67,-0.43,0.62,12.7,-11.2,2.2,35.66,,,,,,,,,,
13.09.06.397,-140.9,35.2,0,,,19996.0,50.01,-1.03,-0.18,0.39,-22.5,0.5,-10.3,35.86,,,,,,,,,,
13.09.06.408,-104.2,26.0,0,,,19996.0,50.01,-1.05,0.24,0.08,18.4,24.7,-13.2,35.7,,,,,,,,,,
13.09.06.420,-90.0,22.5,0,,,20000.0,50.0,-0.63,0.07,0.94,-23.2,2.8,-2.8,35.65,,,,,,,,,,
13.09.06.429,-172.5,43.1,0,,,20000.0,50.0,-0.8,0.15,0.93,15.7,-11.3,-4.7,35.4,,,,,,,,,,
13.09.06.439,-146.7,36.7,0,,,20000.0,50.0,-0.9,0.21,-0.26,-5.9,-0.6,2.8,35.61,,,,,,,,,,
13.09.06.449,-185.1,46.3,0,,,20000.0,50.0,-0.76,0.5,-0.22,10.1,10.3,-13.1,35.34,,,,,,,,,,
13.09.06.459,-203.0,50.8,0,,,20000.0,50.0,-0.38,0.64,-0.09,-30.7,16.9,14.1,35.31,,,,,,,,,,
13.09.06.470,-189.2,47.3,0,,,20000.0,50.0,-0.51,0.26,0.07,20.6,-8.0,4.6,35.41,,,,,,,,,,
13.09.06.482,-172.9,43.2,0,,,20000.0,50.0,-0.93,0.51,-0.04,8.7,10.0,-14.3,35.6,,,,,,,,,,
13.09.06.490,-13.8,3.4,0,,,20000.0,50.0,-0.55,0.33,-0.08,6.1,10.2,7.1,35.79,,,,,,,,,,
13.09.06.499,14.3,3.6,0,,,20000.0,50.0,-0.8,0.51,0.18,-12.7,0.6,-2.3,35.31,,,,,,,,,,
13.09.06.510,138.7,34.7,0,,,20000.0,50.0,-0.48,0.72,0.13,24.4,10.3,-11.6,35.54,,,,,,,,,,
13.09.06.519,243.7,60.9,0,,,20000.0,50.0,-0.44,0.46,0.23,-11.2,16.5,-3.4,35.53,,,,,,,,,,
13.09.06.529,312.7,78.2,0,,,20000.0,50.0,-0.31,1.13,0.34,-10.3,11.5,-4.1,35.89,,,,,,,,,,
13.09.06.541,350.5,87.6,0,,,20000.0,50.0,-0.49,0.08,0.39,8.6,5.4,6.7,35.62,,,,,,,,,,
13.09.06.551,398.2,99.6,0,,,20000.0,50.0,-1.02,0.71,-0.17,-10.8,6.3,1.1,35.49,,,,,,,,,,
13.09.06.564,463.6,115.9,0,,,20004.0,49.99,-0.74,0.35,1.25,13.8,-2.5,-7.4,35.33,,,,,,,,,,
13.09.06.574,502.5,125.6,0,,,20004.0,49.99,-0.22,0.67,0.77,-10.9,3.4,6.8,35.6,,,,,,,,,,
13.09.06.585,547.7,136.9,0,,,20004.0,49.99,-0.2,0.35,0.91,13.4,8.1,12.2,35.39,,,,,,,,,,
13.09.06.595,515.9,129.0,0,,,20004.0,49.99,-0.53,1.05,0.54,12.0,16.0,15.3,35.4,,,,,,,,,,
13.09.06.606,482.1,120.5,0,,,20004.0,49.99,-0.48,0.77,0.68,25.9,14.8,14.4,35.36,,,,,,,,,,
13.09.06.615,454.0,113.5,0,,,20004.0,49.99,-0.12,0.08,1.03,1.7,-9.3,-4.7,35.65,,,,,,,,,,
13.09.06.624,307.3,76.8,0,,,20004.0,49.99,-0.43,1.06,0.37,8.2,18.8,-17.3,35.45,,,,,,,,,,
13.09.06.634,313.3,78.3,0,,,20004.0,49.99,-0.49,1.19,1.54,-3.5,14.5,-11.0,35.23,,,,,,,,,,
13.09.06.641,336.7,84.2,0,,,20004.0,49.99,-0.08,0.25,1.4,7.5,23.7,7.7,35.5,,,,,,,,,,
13.09.06.650,203.4,50.8,0,,,20004.0,49.99,-0.24,-0.62,1.73,39.4,-9.3,2.8,35.41,,,,,,,,,,
13.09.06.656,143.7,35.9,0,,,20004.0,49.99,0.13,0.43,0.86,35.4,2.5,2.9,35.5,,,,,,,,,,
13.09.06.667,89.2,22.3,0,,,20004.0,49.99,-0.57,0.14,1.29,4.5,-13.6,2.9,35.52,,,,,,,,,,
13.09.06.677,18.7,4.7,0,,,20004.0,49.99,-0.25,0.26,1.19,27.4,-1.0,8.3,35.43,,,,,,,,,,
13.09.06.687,67.8,17.0,0,,,20004.0,49.99,-0.78,0.05,1.31,4.9,3.9,13.8,35.62,,,,,,,,,,
13.09.06.697,60.6,15.2,0,,,20004.0,49.99,-0.55,0.15,-0.0,8.4,25.5,-6.1,35.93,,,,,,,,,,
13.09.06.707,99.8,25.0,0,,,20004.0,49.99,-0.44,0.31,0.77,-14.8,6.4,-21.2,35.96,,,,,,,,,,
13.09.06.717,69.4,17.4,0,,,20008.0,49.98,-0.52,0.44,0.09,-13.2,17.7,1.4,35.17,,,,,,,,,,
13.09.06.727,98.8,24.7,1,16.0,131.9,20008.0,49.98,-0.94,-0.1,0.16,-0.1,20.5,-4.2,35.37,,,,,,,,,,
13.09.06.737,26.3,6.6,0,,,20008.0,49.98,-0.32,-0.14,0.12,-3.4,-5.4,-0.4,35.6,,,,,,,,,,
13.09.06.747,103.3,25.8,0,,,20008.0,49.98,-0.69,-0.19,0.37,-10.3,-1.2,-2.5,35.64,,,,,,,,,,
13.09.06.757,76.5,19.1,0,,,20008.0,49.98,-0.5,-0.07,0.43,13.6,-21.3,-10.4,35.44,,,,,,,,,,
13.09.06.766,103.2,25.8,0,,,20008.0,49.98,-0.97,0.65,-0.09,41.0,-0.8,-4.3,35.85,,,,,,,,,,
13.09.06.775,16.2,4.0,0,,,20008.0,49.98,-1.26,-0.03,0.25,-29.0,-7.4,1.1,35.53,,,,,,,,,,
13.09.06.784,17.2,4.3,0,,,20008.0,49.98,-0.8,0.38,-0.01,1.7,-15.2,9.7,35.29,,,,,,,,,,
13.09.06.793,5.3,1.3,0,,,20008.0,49.98,-0.83,0.71,-0.03,12.1,4.7,-16.2,35.37,,,,,,,,,,
13.09.06.804,-23.2,5.8,0,,,20008.0,49.98,-1.02,0.23,-0.45,17.2,36.9,3.2,35.78,,,,,,,,,,
13.09.06.813,-3.3,0.8,0,,,20008.0,49.98,-0.99,0.3,0.79,-6.6,24.4,-16.7,35.62,,,,,,,,,,
13.09.06.824,-78.7,19.7,0,,,20008.0,49.98,-1.31,0.33,-0.09,4.7,0.3,0.4,35.5,,,,,,,,,,
13.09.06.835,-54.2,13.6,0,,,20008.0,49.98,-0.49,0.84,-0.38,14.9,9.9,-5.2,35.84,,,,,,,,,,
13.09.06.842,-14.3,3.6,0,,,20008.0,49.98,-0.84,0.77,-0.13,-2.9,15.1,11.0,35.72,,,,,,,,,,
13.09.06.853,-60.9,15.2,0,,,20008.0,49.98,-0.81,0.48,-0.17,-20.8,12.0,-2.8,35.34,,,,,,,,,,
13.09.06.865,-90.5,22.6,0,,,20012.0,49.97,-0.51,1.52,-0.52,11.3,3.5,12.3,35.88,,,,,,,,,,
13.09.06.875,-89.8,22.4,0,,,20012.0,49.97,-0.76,0.8,0.42,11.0,23.0,0.1,35.78,,,,,,,,,,
13.09.06.884,-167.2,41.8,0,,,20012.0,49.97,-0.77,0.52,0.5,15.1,2.6,-14.7,35.21,,,,,,,,,,
13.09.06.894,-124.9,31.2,0,,,20012.0,49.97,-0.93,0.83,0.51,-19.6,-2.0,5.1,35.69,,,,,,,,,,
13.09.06.904,-145.3,36.3,0,,,20012.0,49.97,-0.21,1.22,0.48,-11.3,33.4,2.1,35.66,,,,,,,,,,
13.09.06.913,-117.9,29.5,0,,,20012.0,49.97,-0.31,0.9,0.39,-20.8,25.6,-0.8,35.56,,,,,,,,,,
13.09.06.922,-115.8,29.0,0,,,20012.0,49.97,-0.76,0.51,0.36,-24.3,3.1,-17.6,35.44,,,,,,,,,,
13.09.06.932,-64.1,16.0,0,,,20012.0,49.97,-0.37,0.29,0.44,3.4,14.7,4.1,35.49,,,,,,,,,,
13.09.06.941,-153.3,38.3,0,,,20012.0,49.97,-0.26,0.71,1.18,-4.2,-6.9,-2.7,35.58,,,,,,,,,,
13.09.06.951,-146.1,36.5,0,,,20012.0,49.97,-0.49,0.78,1.84,20.1,30.4,13.4,35.78,,,,,,,,,,
13.09.06.960,-151.2,37.8,0,,,20012.0,49.97,0.03,0.49,1.11,-21.4,16.4,-13.8,35.66,,,,,,,,,,
13.09.06.968,-164.6,41.2,0,,,20012.0,49.97,-0.14,0.68,0.93,7.9,-6.9,-2.8,35.45,,,,,,,,,,
13.09.06.977,-165.8,41.4,0,,,20012.0,49.97,-0.39,1.05,0.99,-26.9,16.7,2.9,35.42,,,,,,,,,,
13.09.06.988,-117.2,29.3,0,,,20012.0,49.97,-0.48,0.78,0.87,-8.9,-2.1,-7.9,35.53,,,,,,,,,,
13.09.06.997,-169.2,42.3,0,,,20012.0,49.97,-0.39,0.35,0.77,23.2,4.9,8.0,35.36,,,,,,,,,,
13.09.07.006,-115.1,28.8,0,,,20016.0,49.96,-0.21,-0.39,0.37,-0.7,-0.9,14.0,35.58,,,,,,,,,,
13.09.07.016,-160.4,40.1,0,,,20016.0,49.96,-0.2,-0.07,0.54,-18.0,-0.3,3.3,35.4,,,,,,,,,,
13.09.07.026,8.8,2.2,0,,,20016.0,49.96,-0.24,0.27,-0.2,-13.3,0.3,-33.7,35.31,,,,,,,,,,
13.09.07.037,96.5,24.1,0,,,20016.0,49.96,-0.56,-0.26,0.49,-26.5,10.4,17.8,35.96,,,,,,,,,,
13.09.07.047,167.6,41.9,0,,,20016.0,49.96,-0.15,-0.06,0.58,-3.4,-11.9,-10.8,35.53,,,,,,,,,,
13.09.07.055,209.6,52.4,0,,,20016.0,49.96,-0.43,-0.09,0.81,7.7,2.1,-0.8,35.51,,,,,,,,,,
13.09.07.068,362.4,90.6,0,,,20016.0,49.96,-0.63,0.59,0.47,-16.1,-11.7,1.7,35.43,,,,,,,,,,
13.09.07.077,355.1,88.8,0,,,20016.0,49.96,-0.68,0.29,0.02,13.2,-3.0,-1.1,35.51,,,,,,,,,,
13.09.07.085,405.1,101.3,0,,,20016.0,49.96,-0.82,-0.04,-0.2,1.5,9.2,-10.3,35.39,,,,,,,,,,
13.09.07.095,431.5,107.9,0,,,20016.0,49.96,-0.81,0.27,-0.32,-13.1,8.7,-16.4,35.46,,,,,,,,,,
13.09.07.105,468.6,117.2,0,,,20020.0,49.95,-0.97,0.64,0.15,-23.1,-3.5,9.2,35.7,,,,,,,,,,
13.09.07.115,443.9,111.0,0,,,20020.0,49.95,-0.6,-0.01,-0.42,-3.1,21.1,1.7,35.46,,,,,,,,,,
13.09.07.125,458.1,114.5,0,,,20020.0,49.95,-1.15,0.13,0.49,-13.4,-6.7,3.4,35.29,,,,,,,,,,
13.09.07.135,474.4,118.6,0,,,20020.0,49.95,-0.77,0.38,0.64,-7.4,4.1,-1.2,35.76,,,,,,,,,,
13.09.07.145,446.2,111.6,0,,,20020.0,49.95,-0.45,0.15,-0.17,34.1,34.7,-4.5,35.63,,,,,,,,,,
13.09.07.156,402.6,100.6,0,,,20020.0,49.95,-1.2,0.04,-0.16,-13.3,7.5,4.6,35.43,,,,,,,,,,
13.09.07.168,336.9,84.2,0,,,20020.0,49.95,-0.72,0.02,-0.54,7.7,11.5,-5.8,35.64,,,,,,,,,,
13.09.07.177,264.6,66.2,0,,,20020.0,49.95,-0.61,0.6,-0.07,-0.2,-13.1,3.0,35.58,,,,,,,,,,
13.09.07.185,260.8,65.2,1,17.0,131.0,20020.0,49.95,-0.72,1.04,-0.16,31.8,18.7,-6.5,35.46,,,,,,,,,,
13.09.07.193,130.4,32.6,0,,,20020.0,49.95,-0.68,-0.25,0.62,11.6,9.8,18.9,35.34,,,,,,,,,,
13.09.07.203,136.4,34.1,0,,,20020.0,49.95,-0.77,0.55,-0.39,-10.2,4.5,6.8,35.37,,,,,,,,,,
13.09.07.213,18.5,4.6,0,,,20024.0,49.94,-0.8,0.08,-0.24,17.2,-2.4,-9.3,35.65,,,,,,,,,,
13.09.07.222,9.6,2.4,0,,,20024.0,49.94,-0.8,0.83,-0.06,1.9,11.4,6.6,35.56,,,,,,,,,,
13.09.07.228,80.5,20.1,0,,,20024.0,49.94,-0.48,0.17,-0.18,-3.4,-1.0,7.4,35.82,,,,,,,,,,
13.09.07.237,85.1,21.3,0,,,20024.0,49.94,-0.63,0.63,0.89,-8.9,-3.6,-20.7,35.4,,,,,,,,,,
13.09.07.247,70.4,17.6,0,,,20024.0,49.94,-0.77,0.32,0.29,-4.5,-5.7,-2.1,35.42,,,,,,,,,,
13.09.07.258,98.8,24.7,0,,,20024.0,49.94,-0.6,0.71,0.34,-27.1,-6.5,14.2,35.99,,,,,,,,,,
13.09.07.267,60.4,15.1,0,,,20024.0,49.94,-0.77,0.07,0.5,-5.6,23.0,-12.1,35.61,,,,,,,,,,
13.09.07.275,118.6,29.6,0,,,20024.0,49.94,-0.19,0.42,0.05,18.4,20.7,-14.2,35.32,,,,,,,,,,
13.09.07.284,71.5,17.9,0,,,20024.0,49.94,-0.2,0.62,0.86,23.3,-5.8,17.7,35.41,,,,,,,,,,
13.09.07.295,84.7,21.2,0,,,20024.0,49.94,-0.56,0.21,0.42,-2.1,17.6,3.6,35.74,,,,,,,,,,
13.09.07.306,34.6,8.6,0,,,20028.0,49.93,-0.96,0.47,0.82,30.3,4.2,11.0,35.58,,,,,,,,,,
13.09.07.317,36.7,9.2,0,,,20028.0,49.93,-0.44,0.37,1.04,14.1,-8.9,-4.4,35.31,,,,,,,,,,
13.09.07.324,1.0,0.2,0,,,20028.0,49.93,-0.32,0.17,1.63,13.4,18.1,3.1,35.49,,,,,,,,,,
13.09.07.333,-46.8,11.7,0,,,20028.0,49.93,-0.38,0.55,0.4,21.5,15.0,7.8,35.48,,,,,,,,,,
13.09.07.343,-46.7,11.7,0,,,20028.0,49.93,-0.37,0.05,0.74,-18.0,16.4,-6.5,35.45,,,,,,,,,,
13.09.07.355,4.3,1.1,0,,,20028.0,49.93,-0.13,0.03,0.96,-25.0,33.9,-12.6,35.47,,,,,,,,,,
13.09.07.365,-104.9,26.2,0,,,20028.0,49.93,-0.59,-0.55,0.39,17.8,-13.0,-22.8,35.61,,,,,,,,,,
13.09.07.375,-36.7,9.2,0,,,20028.0,49.93,-0.12,0.06,0.59,-8.0,-11.7,-7.1,35.62,,,,,,,,,,
13.09.07.383,-113.0,28.2,0,,,20028.0,49.93,-0.29,-0.01,-0.06,-1.1,-2.7,-1.7,35.55,,,,,,,,,,
13.09.07.393,-53.7,13.4,0,,,20028.0,49.93,-0.65,0.59,0.93,27.1,3.3,-25.2,35.35,,,,,,,,,,
13.09.07.402,-92.3,23.1,0,,,20032.1,49.92,-0.23,0.15,0.33,6.1,12.9,-10.8,35.55,,,,,,,,,,
13.09.07.411,-90.7,22.7,0,,,20032.1,49.92,-0.57,-0.16,0.47,-9.7,21.2,-10.0,35.36,,,,,,,,,,
13.09.07.420,-66.0,16.5,0,,,20032.1,49.92,-0.51,-0.55,1.08,5.5,10.6,-8.5,35.48,,,,,,,,,,
13.09.07.431,-83.9,21.0,0,,,20032.1,49.92,-0.72,-0.22,-0.16,-22.8,18.7,-0.2,35.9,,,,,,,,,,
13.09.07.438,-130.6,32.6,0,,,20032.1,49.92,-0.73,0.7,-0.23,17.1,-15.4,2.4,35.86,,,,,,,,,,
13.09.07.448,-129.5,32.4,0,,,20032.1,49.92,-0.7,-0.36,-0.54,29.4,-15.3,-8.9,35.58,,,,,,,,,,
13.09.07.456,-82.3,20.6,0,,,20032.1,49.92,-0.38,0.82,0.21,17.8,-7.9,-5.3,35.79,,,,,,,,,,
13.09.07.467,-136.2,34.0,0,,,20032.1,49.92,-0.8,0.98,-0.41,-8.6,2.0,1.9,35.34,,,,,,,,,,
13.09.07.478,-120.8,30.2,0,,,20032.1,49.92,-0.54,0.39,0.24,-7.1,-8.3,-0.5,35.47,,,,,,,,,,
13.09.07.487,-109.3,27.3,0,,,20032.1,49.92,-0.84,-0.08,0.26,0.2,9.3,-4.2,35.52,,,,,,,,,,
13.09.07.497,-125.2,31.3,0,,,20032.1,49.92,-1.08,0.46,-0.46,14.5,16.9,-3.6,35.47,,,,,,,,,,
13.09.07.509,-184.4,46.1,0,,,20036.1,49.91,-0.68,0.5,0.43,-10.5,-7.5,-0.9,35.47,,,,,,,,,,
13.09.07.519,-183.5,45.9,0,,,20036.1,49.91,-0.54,0.34,0.95,-4.8,7.3,-0.4,35.31,,,,,,,,,,
13.09.07.529,-144.5,36.1,0,,,20036.1,49.91,-0.75,1.13,-0.28,-28.7,11.2,3.7,35.86,,,,,,,,,,
13.09.07.539,-171.9,43.0,0,,,20036.1,49.91,-0.92,0.72,-0.39,1.1,5.9,10.1,35.58,,,,,,,,,,
13.09.07.549,-144.7,36.2,0,,,20036.1,49.91,-1.04,1.01,0.53,10.0,20.2,5.3,35.68,,,,,,,,,,
13.09.07.558,-219.3,54.8,0,,,20036.1,49.91,-0.63,0.41,0.5,-3.6,10.3,13.4,35.34,,,,,,,,,,
13.09.07.566,18.2,4.6,0,,,20036.1,49.91,-0.49,0.29,0.42,-10.5,13.1,-11.6,35.46,,,,,,,,,,
13.09.07.575,120.7,30.2,0,,,20036.1,49.91,-0.91,0.95,1.07,-6.2,0.4,-13.1,35.47,,,,,,,,,,
13.09.07.586,182.1,45.5,0,,,20036.1,49.91,-0.47,0.18,1.14,-11.7,3.3,16.7,35.52,,,,,,,,,,
13.09.07.596,318.7,79.7,0,,,20036.1,49.91,-0.29,0.44,0.57,6.5,5.9,7.4,35.74,,,,,,,,,,
13.09.07.606,358.0,89.5,0,,,20040.1,49.9,-0.25,0.8,0.34,25.3,18.4,-12.8,35.84,,,,,,,,,,
13.09.07.617,409.8,102.4,0,,,20040.1,49.9,-0.08,0.74,-0.36,10.4,9.9,-2.8,35.6,,,,,,,,,,
13.09.07.627,449.6,112.4,0,,,20040.1,49.9,-0.81,0.16,1.35,10.5,-3.8,-2.6,35.79,,,,,,,,,,
13.09.07.640,439.4,109.8,0,,,20040.1,49.9,-0.14,1.04,0.53,-6.9,12.6,-7.4,35.54,,,,,,,,,,
13.09.07.650,501.0,125.2,0,,,20040.1,49.9,-0.62,0.71,0.53,11.8,-3.2,-5.8,35.62,,,,,,,,,,
13.09.07.661,457.5,114.4,1,18.0,126.1,20040.1,49.9,-0.28,0.19,1.27,17.3,2.7,-2.5,35.38,,,,,,,,,,
13.09.07.670,390.3,97.6,0,,,20040.1,49.9,0.11,0.64,0.13,8.7,-12.0,14.0,35.34,,,,,,,,,,
13.09.07.681,407.8,102.0,0,,,20040.1,49.9,-0.03,0.81,1.47,27.8,2.0,11.6,35.59,,,,,,,,,,
13.09.07.691,439.7,109.9,0,,,20040.1,49.9,-0.26,0.12,0.67,24.1,13.8,-16.0,35.69,,,,,,,,,,
13.09.07.702,325.0,81.2,0,,,20044.1,49.89,-0.52,0.6,1.34,-27.5,15.3,-3.4,35.69,,,,,,,,,,
13.09.07.710,303.9,76.0,0,,,20044.1,49.89,-0.32,0.43,0.68,4.9,-4.1,-2.7,35.41,,,,,,,,,,
13.09.07.720,262.6,65.6,0,,,20044.1,49.89,-0.72,-0.05,0.29,6.8,21.2,23.0,35.68,,,,,,,,,,
13.09.07.728,157.1,39.3,0,,,20044.1,49.89,0.08,-0.35,1.14,-17.4,-14.5,14.2,35.45,,,,,,,,,,
13.09.07.738,114.6,28.6,0,,,20044.1,49.89,-0.6,0.38,0.67,-16.6,-12.9,6.0,35.66,,,,,,,,,,
13.09.07.747,36.0,9.0,0,,,20044.1,49.89,-0.19,-0.41,0.91,8.1,11.0,4.1,35.38,,,,,,,,,,
13.09.07.757,41.1,10.3,0,,,20044.1,49.89,-0.23,-0.22,1.19,-21.8,6.7,2.4,35.3,,,,,,,,,,
13.09.07.768,-1.8,0.4,0,,,20044.1,49.89,-0.3,0.45,1.09,-10.2,21.4,-17.4,35.57,,,,,,,,,,
13.09.07.779,75.4,18.8,0,,,20044.1,49.89,-0.83,0.04,0.78,1.4,-8.0,11.9,35.39,,,,,,,,,,
13.09.07.790,71.9,18.0,0,,,20044.1,49.89,-0.59,-0.53,0.25,16.0,9.9,-4.5,35.58,,,,,,,,,,
13.09.07.800,62.6,15.6,0,,,20048.1,49.88,-0.74,0.26,0.22,-12.5,-0.4,-0.8,35.66,,,,,,,,,,
13.09.07.812,122.3,30.6,0,,,20048.1,49.88,-0.74,-0.62,-0.1,3.6,19.1,-7.6,35.69,,,,,,,,,,
13.09.07.822,29.1,7.3,0,,,20048.1,49.88,-1.2,0.45,-0.78,14.0,11.2,4.7,35.73,,,,,,,,,,
13.09.07.833,48.1,12.0,0,,,20048.1,49.88,-0.93,-0.65,-0.05,19.1,6.4,-7.4,35.54,,,,,,,,,,
13.09.07.843,20.1,5.0,0,,,20048.1,49.88,-0.73,0.27,0.12,4.9,30.3,-9.9,35.54,,,,,,,,,,
13.09.07.854,21.7,5.4,0,,,20048.1,49.88,-0.72,1.13,-0.54,11.1,-12.5,-0.3,35.76,,,,,,,,,,
13.09.07.865,27.8,7.0,0,,,20048.1,49.88,-0.77,0.35,-0.47,-2.6,-1.1,-7.2,35.4,,,,,,,,,,
13.09.07.875,-34.0,8.5,0,,,20048.1,49.88,-1.33,0.07,0.57,-12.4,13.5,-4.3,35.58,,,,,,,,,,
13.09.07.885,10.1,2.5,0,,,20048.1,49.88,-1.07,0.85,0.09,13.2,-6.4,5.6,35.83,,,,,,,,,,
13.09.07.895,-87.0,21.8,0,,,20048.1,49.88,-0.44,0.67,0.69,-3.9,3.1,22.1,35.7,,,,,,,,,,
13.09.07.906,-57.1,14.3,0,,,20052.1,49.87,-0.76,0.81,-0.38,26.0,32.1,6.7,35.68,,,,,,,,,,
13.09.07.918,-96.4,24.1,0,,,20052.1,49.87,-0.57,0.55,-0.05,1.2,3.1,-24.1,35.59,,,,,,,,,,
13.09.07.929,-37.7,9.4,0,,,20052.1,49.87,-0.65,1.03,0.36,31.7,-7.0,8.8,35.67,,,,,,,,,,
13.09.07.939,-43.6,10.9,0,,,20052.1,49.87,-0.93,0.43,0.34,24.9,-8.0,-16.6,35.46,,,,,,,,,,
13.09.07.948,-92.4,23.1,0,,,20052.1,49.87,-0.55,1.11,0.98,28.7,0.8,12.3,35.44,,,,,,,,,,
13.09.07.957,-57.4,14.4,0,,,20052.1,49.87,-0.33,1.22,1.35,-43.0,7.0,-24.0,35.67,,,,,,,,,,
13.09.07.966,-126.0,31.5,0,,,20052.1,49.87,-0.61,0.49,0.45,-14.3,0.8,-24.6,35.43,,,,,,,,,,
13.09.07.974,-98.3,24.6,0,,,20052.1,49.87,-0.73,0.06,0.14,13.3,12.9,2.6,35.56,,,,,,,,,,
13.09.07.983,-92.7,23.2,0,,,20052.1,49.87,-0.49,0.45,0.08,-22.4,20.4,-8.5,35.25,,,,,,,,,,
13.09.07.993,-109.6,27.4,0,,,20052.1,49.87,-0.3,0.53,-0.33,10.4,19.3,-9.4,35.63,,,,,,,,,,
13.09.08.001,-135.3,33.8,0,,,20056.2,49.86,-0.41,0.56,0.84,5.3,-1.1,0.4,35.92,,,,,,,,,,
13.09.08.012,-102.4,25.6,0,,,20052.1,49.87,-0.67,0.5,1.1,-4.2,11.1,4.8,35.6,,,,,,,,,,
13.09.08.021,-172.1,43.0,1,19.0,166.7,20052.1,49.87,-0.12,0.35,1.53,14.6,5.6,-13.3,35.32,,,,,,,,,,
13.09.08.029,-171.4,42.8,0,,,20052.1,49.87,-0.35,0.35,0.43,-6.5,3.3,-15.4,35.4,,,,,,,,,,
13.09.08.040,-213.8,53.4,0,,,20052.1,49.87,-0.18,0.34,1.53,-22.8,12.1,6.2,35.39,,,,,,,,,,
13.09.08.049,-195.0,48.8,0,,,20052.1,49.87,-0.27,0.01,0.69,25.8,-0.5,10.9,35.69,,,,,,,,,,
13.09.08.061,-170.3,42.6,0,,,20052.1,49.87,-0.24,-0.03,0.66,-4.4,10.3,-29.3,35.32,,,,,,,,,,
13.09.08.072,-210.7,52.7,0,,,20048.1,49.88,-0.18,-0.27,-0.17,9.1,-24.5,-10.7,35.44,,,,,,,,,,
13.09.08.082,-189.6,47.4,0,,,20048.1,49.88,-0.15,0.02,0.76,-0.5,8.3,-1.5,35.34,,,,,,,,,,
13.09.08.092,-203.7,50.9,0,,,20048.1,49.88,-0.26,-0.21,1.47,-3.1,8.1,1.8,36.06,,,,,,,,,,
13.09.08.103,73.1,18.3,0,,,20048.1,49.88,-0.49,0.19,0.53,7.8,0.6,-16.2,35.81,,,,,,,,,,
13.09.08.114,161.8,40.4,0,,,20048.1,49.88,-0.27,-0.46,0.19,5.6,8.8,8.9,35.67,,,,,,,,,,
13.09.08.123,225.0,56.2,0,,,20048.1,49.88,-0.5,0.18,0.39,8.3,6.9,3.9,35.34,,,,,,,,,,
13.09.08.132,305.2,76.3,0,,,20048.1,49.88,-0.85,0.56,-0.42,6.0,20.7,-5.6,35.52,,,,,,,,,,
13.09.08.142,317.6,79.4,0,,,20044.1,49.89,-0.82,-0.22,0.34,6.6,25.3,-25.6,35.53,,,,,,,,,,
13.09.08.153,381.8,95.4,0,,,20044.1,49.89,-0.56,-0.18,-0.02,-1.1,12.1,5.7,35.87,,,,,,,,,,
13.09.08.164,483.0,120.8,0,,,20044.1,49.89,-0.83,0.64,-0.61,31.4,-5.5,-4.6,35.59,,,,,,,,,,
13.09.08.173,510.6,127.6,0,,,20044.1,49.89,-0.28,-0.15,0.21,46.9,3.1,-13.9,35.64,,,,,,,,,,
13.09.08.179,443.2,110.8,0,,,20044.1,49.89,-1.04,-0.11,0.14,-7.1,16.0,1.7,35.1,,,,,,,,,,
13.09.08.187,486.4,121.6,0,,,20044.1,49.89,-0.18,-0.26,-0.54,-10.4,10.2,-11.3,35.68,,,,,,,,,,
13.09.08.196,518.9,129.7,0,,,20044.1,49.89,-0.94,0.85,-0.55,-16.5,8.0,7.2,35.95,,,,,,,,,,
13.09.08.206,445.4,111.4,0,,,20044.1,49.89,-0.72,0.21,-0.59,5.1,9.5,-16.2,35.59,,,,,,,,,,
13.09.08.216,478.4,119.6,0,,,20040.1,49.9,-0.68,0.38,-0.03,19.3,-14.6,12.1,35.53,,,,,,,,,,
13.09.08.227,335.6,83.9,0,,,20040.1,49.9,-0.84,1.08,0.3,-22.8,6.9,-7.6,35.34,,,,,,,,,,
13.09.08.236,347.4,86.8,0,,,20040.1,49.9,-0.8,0.06,-0.33,-13.5,7.9,-1.8,35.59,,,,,,,,,,
13.09.08.244,272.2,68.0,0,,,20040.1,49.9,-0.84,0.45,1.08,-11.7,12.7,6.9,35.83,,,,,,,,,,
13.09.08.256,134.3,33.6,0,,,20040.1,49.9,-1.14,0.12,0.49,-18.7,18.2,10.9,35.63,,,,,,,,,,
13.09.08.265,68.7,17.2,0,,,20040.1,49.9,-0.97,0.61,0.04,24.7,-11.0,12.0,35.51,,,,,,,,,,
13.09.08.273,75.9,19.0,0,,,20040.1,49.9,-0.1,0.57,-0.04,4.0,6.6,5.9,35.57,,,,,,,,,,
13.09.08.281,-36.3,9.1,0,,,20036.1,49.91,-0.85,1.01,0.97,19.9,-4.2,-4.1,35.44,,,,,,,,,,
13.09.08.292,5.2,1.3,0,,,20036.1,49.91,-0.92,1.24,0.57,-4.1,2.8,-3.0,35.77,,,,,,,,,,
13.09.08.300,36.3,9.1,0,,,20036.1,49.91,-0.33,0.68,0.82,-4.2,10.4,4.1,35.46,,,,,,,,,,
13.09.08.309,46.7,11.7,0,,,20036.1,49.91,-0.58,1.17,0.58,-12.5,-25.9,11.6,35.32,,,,,,,,,,
13.09.08.320,78.8,19.7,0,,,20036.1,49.91,-0.6,0.72,0.97,-36.9,-10.3,-5.3,35.43,,,,,,,,,,
13.09.08.330,95.5,23.9,0,,,20036.1,49.91,-0.05,1.27,1.44,-6.8,11.5,-5.9,35.59,,,,,,,,,,
13.09.08.339,100.0,25.0,0,,,20036.1,49.91,-0.11,0.54,0.9,-2.9,-16.7,-1.0,35.88,,,,,,,,,,
13.09.08.346,96.3,24.1,0,,,20036.1,49.91,-0.52,0.62,0.19,27.7,4.2,-10.4,35.47,,,,,,,,,,
13.09.08.358,4.1,1.0,0,,,20032.1,49.92,0.04,-0.27,0.69,-8.4,13.8,11.7,35.54,,,,,,,,,,
13.09.08.368,31.8,8.0,0,,,20032.1,49.92,-0.2,0.48,1.04,-6.0,-13.4,-8.3,35.57,,,,,,,,,,
13.09.08.378,-32.0,8.0,0,,,20032.1,49.92,-0.38,0.79,1.37,0.2,-17.8,3.1,35.58,,,,,,,,,,
13.09.08.389,-42.9,10.7,0,,,20032.1,49.92,-0.12,0.27,0.51,1.9,21.9,2.6,35.47,,,,,,,,,,
13.09.08.398,-65.0,16.2,0,,,20032.1,49.92,-0.4,0.56,0.73,-0.2,-8.1,1.5,35.34,,,,,,,,,,
13.09.08.407,-53.4,13.4,0,,,20032.1,49.92,-0.44,0.45,0.5,2.6,3.9,-3.1,35.61,,,,,,,,,,
13.09.08.417,-73.8,18.4,0,,,20032.1,49.92,-0.89,-0.05,0.9,-20.7,-8.8,1.8,35.49,,,,,,,,,,
13.09.08.426,-75.8,19.0,0,,,20028.0,49.93,-0.3,-0.22,0.84,-29.8,-16.3,6.3,35.72,,,,,,,,,,
13.09.08.434,-29.0,7.2,0,,,20028.0,49.93,-0.54,-0.1,0.08,-18.7,-2.5,6.4,35.54,,,,,,,,,,
13.09.08.443,-62.5,15.6,0,,,20028.0,49.93,-0.22,-0.18,1.42,19.0,3.9,-7.8,35.56,,,,,,,,,,
13.09.08.453,-14.8,3.7,0,,,20028.0,49.93,-0.24,0.09,-0.27,10.5,5.0,-4.7,35.41,,,,,,,,,,
13.09.08.462,-59.5,14.9,1,20.0,136.1,20028.0,49.93,-0.54,0.02,-0.61,6.3,7.8,-15.6,35.89,,,,,,,,,,
13.09.08.473,-57.2,14.3,0,,,20028.0,49.93,-0.63,0.97,-0.2,0.9,-14.1,15.2,35.24,,,,,,,,,,
13.09.08.486,-112.6,28.2,0,,,20028.0,49.93,-1.13,-0.4,0.58,15.2,2.7,-23.0,35.55,,,,,,,,,,
13.09.08.495,-84.1,21.0,0,,,20024.0,49.94,-0.35,-0.03,0.16,34.7,13.8,-11.3,35.62,,,,,,,,,,
13.09.08.503,-58.7,14.7,0,,,20024.0,49.94,-0.73,0.34,0.55,13.6,5.6,1.9,35.56,,,,,,,,,,
13.09.08.513,-111.3,27.8,0,,,20024.0,49.94,-0.71,-0.2,-0.33,8.7,-16.6,18.0,35.48,,,,,,,,,,
13.09.08.521,-27.3,6.8,0,,,20024.0,49.94,-1.04,-0.29,-0.23,3.7,15.7,6.4,35.55,,,,,,,,,,
13.09.08.531,-106.4,26.6,0,,,20024.0,49.94,-0.75,0.36,-0.63,-5.3,19.4,-12.1,35.64,,,,,,,,,,
13.09.08.539,-156.6,39.2,0,,,20024.0,49.94,-0.56,0.22,-0.17,10.5,-3.8,2.5,35.5,,,,,,,,,,
13.09.08.550,-170.8,42.7,0,,,20024.0,49.94,-1.06,0.48,-0.36,-3.1,3.8,3.7,35.37,,,,,,,,,,
13.09.08.562,-141.8,35.4,0,,,20020.0,49.95,-0.45,1.12,0.11,14.5,3.6,9.8,35.49,,,,,,,,,,
13.09.08.573,-132.3,33.1,0,,,20020.0,49.95,-0.69,0.44,-0.34,-35.7,-7.0,-21.1,35.4,,,,,,,,,,
13.09.08.585,-204.1,51.0,0,,,20020.0,49.95,-0.39,0.39,0.21,-3.3,27.5,-1.9,35.67,,,,,,,,,,
13.09.08.593,-178.6,44.6,0,,,20020.0,49.95,-0.38,0.02,-0.02,-2.2,25.7,-5.9,35.53,,,,,,,,,,
13.09.08.602,-148.4,37.1,0,,,20020.0,49.95,-0.77,0.19,0.28,-8.0,-3.8,-3.0,35.6,,,,,,,,,,
13.09.08.613,-181.3,45.3,0,,,20020.0,49.95,-0.45,0.81,0.33,1.5,0.6,-11.0,35.66,,,,,,,,,,
13.09.08.622,-207.7,51.9,0,,,20020.0,49.95,-0.5,0.29,0.48,23.0,8.1,-4.9,35.35,,,,,,,,,,
13.09.08.632,9.5,2.4,0,,,20016.0,49.96,-0.55,1.35,-0.03,27.1,-18.2,9.8,35.26,,,,,,,,,,
13.09.08.641,113.5,28.4,0,,,20016.0,49.96,-0.39,0.64,0.95,9.3,3.2,-8.8,35.36,,,,,,,,,,
13.09.08.651,237.0,59.2,0,,,20016.0,49.96,-0.43,0.33,-0.16,10.6,6.0,-21.5,35.48,,,,,,,,,,
13.09.08.662,233.8,58.4,0,,,20016.0,49.96,-0.26,0.65,0.01,-27.9,-11.4,9.1,35.57,,,,,,,,,,
13.09.08.671,275.0,68.8,0,,,20016.0,49.96,-0.25,0.78,1.04,-4.5,10.7,-2.4,35.46,,,,,,,,,,
13.09.08.681,273.9,68.5,0,,,20016.0,49.96,-0.57,1.2,0.68,-29.8,-5.0,13.7,35.94,,,,,,,,,,
13.09.08.692,443.9,111.0,0,,,20016.0,49.96,-0.72,0.53,1.17,11.8,28.8,20.8,35.56,,,,,,,,,,
13.09.08.702,481.5,120.4,0,,,20012.0,49.97,0.11,0.53,1.4,2.5,15.8,5.4,35.62,,,,,,,,,,
13.09.08.710,410.9,102.7,0,,,20012.0,49.97,-0.24,0.48,0.52,28.4,11.8,-7.6,35.55,,,,,,,,,,
13.09.08.718,499.6,124.9,0,,,20012.0,49.97,-0.49,0.54,1.35,-1.7,-6.9,3.3,35.13,,,,,,,,,,
13.09.08.728,518.9,129.7,0,,,20012.0,49.97,-0.17,0.33,0.91,-8.4,8.5,-12.4,35.39,,,,,,,,,,
13.09.08.736,410.1,102.5,0,,,20012.0,49.97,-0.52,-0.24,0.24,10.6,16.0,-5.8,35.47,,,,,,,,,,
13.09.08.747,448.0,112.0,0,,,20012.0,49.97,-0.33,0.11,1.24,-18.5,9.1,5.0,35.76,,,,,,,,,,
13.09.08.758,422.2,105.6,0,,,20012.0,49.97,-0.6,0.22,0.22,-8.4,14.7,4.1,35.78,,,,,,,,,,
13.09.08.769,323.1,80.8,0,,,20008.0,49.98,-0.29,0.33,0.42,1.8,3.4,-11.9,35.51,,,,,,,,,,
13.09.08.780,249.2,62.3,0,,,20008.0,49.98,-0.6,0.06,0.69,-4.8,3.1,-8.0,35.95,,,,,,,,,,
13.09.08.790,186.6,46.6,0,,,20008.0,49.98,-0.59,-0.05,0.97,-10.0,28.8,9.5,35.56,,,,,,,,,,
13.09.08.798,102.8,25.7,0,,,20008.0,49.98,-0.64,-0.46,0.1,29.7,25.4,-12.2,35.66,,,,,,,,,,
13.09.08.807,78.2,19.6,0,,,20008.0,49.98,-0.49,-0.84,0.4,-10.8,5.7,-1.7,35.49,,,,,,,,,,
13.09.08.818,39.6,9.9,0,,,20008.0,49.98,-0.62,0.54,1.07,14.7,-0.5,-6.8,35.38,,,,,,,,,,
13.09.08.829,0.8,0.2,0,,,20008.0,49.98,-0.85,0.05,1.3,7.4,-0.1,-8.7,35.97,,,,,,,,,,
13.09.08.839,42.7,10.7,0,,,20004.0,49.99,-0.61,-0.02,1.13,-10.3,10.4,-12.5,35.54,,,,,,,,,,
13.09.08.849,72.6,18.2,0,,,20004.0,49.99,-0.78,0.26,0.43,15.1,-16.2,4.5,35.93,,,,,,,,,,
13.09.08.858,93.0,23.2,0,,,20004.0,49.99,-0.92,0.28,-0.91,-5.7,5.9,9.5,35.78,,,,,,,,,,
13.09.08.867,92.1,23.0,0,,,20004.0,49.99,-0.65,-0.7,0.03,-8.9,-4.4,7.1,35.32,,,,,,,,,,
13.09.08.878,66.8,16.7,0,,,20004.0,49.99,-0.11,0.39,0.22,-14.3,25.8,8.9,35.67,,,,,,,,,,
13.09.08.888,117.1,29.3,1,21.0,140.8,20004.0,49.99,-0.51,0.07,0.48,-5.2,14.5,8.5,35.43,,,,,,,,,,
13.09.08.898,78.3,19.6,0,,,20004.0,49.99,-0.5,0.57,-0.06,22.7,25.5,15.0,35.87,,,,,,,,,,
13.09.08.905,41.1,10.3,0,,,20004.0,49.99,-0.58,0.18,0.7,26.2,27.4,2.2,35.48,,35.51,,,,,,,,
13.09.08.916,8.5,2.1,0,,,20000.0,50.0,-0.59,0.51,-0.33,25.2,23.0,-12.2,35.69,,,,,,,,,,
13.09.08.926,10.9,2.7,0,,,20000.0,50.0,-1.01,0.21,0.36,-13.5,19.5,6.8,35.41,,,,,,,,,,
13.09.08.935,-18.3,4.6,0,,,20000.0,50.0,-0.33,0.55,0.37,-13.3,11.2,3.0,35.86,,,,,,,,,,
13.09.08.946,-27.8,7.0,0,,,20000.0,50.0,-0.65,-0.37,0.02,-5.6,25.3,-8.3,35.6,,,,,,,,,,
13.09.08.956,-31.4,7.8,0,,,20000.0,50.0,-0.97,0.73,0.93,13.2,-0.5,4.1,35.66,,,,,,,,,,
13.09.08.964,-46.0,11.5,0,,,20000.0,50.0,-0.85,0.54,0.95,-6.9,-6.8,-13.6,35.17,,,,,,,,,,
13.09.08.976,-30.9,7.7,0,,,20000.0,50.0,-0.54,0.67,0.92,14.8,-2.4,-4.5,35.26,,,,,,,,,,
13.09.08.985,-52.3,13.1,0,,,19996.0,50.01,-0.76,0.73,0.61,-24.1,7.0,10.2,35.26,,,,,,,,,,
13.09.08.993,-69.7,17.4,0,,,19996.0,50.01,-0.56,0.68,0.43,10.6,0.4,-8.0,35.68,,,,,,,,,,
13.09.09.004,-57.2,14.3,0,,,19996.0,50.01,-0.67,1.12,0.56,-13.4,-30.1,23.5,35.59,,,,,,,,,,
13.09.09.013,-70.7,17.7,0,,,19996.0,50.01,-0.69,-0.13,0.65,-3.0,16.5,2.7,35.31,,,,,,,,,,
13.09.09.025,-98.3,24.6,0,,,20000.0,50.0,-0.9,0.87,1.36,12.2,11.6,0.2,35.71,,,,,,,,,,
13.09.09.035,-100.9,25.2,0,,,20000.0,50.0,-0.03,0.77,1.19,-6.7,3.5,-0.1,35.71,,,,,,,,,,
13.09.09.044,-44.2,11.0,0,,,20000.0,50.0,-0.38,0.97,0.21,-19.2,-4.5,-8.6,35.74,,,,,,,,,,
13.09.09.054,-98.5,24.6,0,,,20000.0,50.0,-0.4,-0.04,1.4,26.2,24.5,2.5,35.66,,,,,,,,,,
13.09.09.064,-159.1,39.8,0,,,20000.0,50.0,-0.48,0.06,0.5,27.4,3.1,8.7,35.5,,,,,,,,,,
13.09.09.073,-117.7,29.4,0,,,20000.0,50.0,-0.24,0.26,0.67,-46.7,30.2,-8.1,35.23,,,,,,,,,,
13.09.09.083,-159.8,40.0,0,,,20004.0,49.99,-0.21,0.76,1.08,-20.7,27.8,-12.8,35.18,,,,,,,,,,
13.09.09.093,-191.3,47.8,0,,,20004.0,49.99,-0.41,0.26,0.97,18.6,-12.1,12.5,35.51,,,,,,,,,,
13.09.09.102,-101.5,25.4,0,,,20004.0,49.99,-0.42,0.54,-0.57,6.2,13.4,5.4,35.86,,,,,,,,,,
13.09.09.112,-126.4,31.6,0,,,20004.0,49.99,-0.46,0.27,0.8,26.6,0.9,-13.4,35.44,,,,,,,,,,
13.09.09.120,-116.4,29.1,0,,,20004.0,49.99,-0.24,-0.08,0.55,-21.6,9.6,-9.6,35.67,,,,,,,,,,
13.09.09.130,-158.8,39.7,0,,,20004.0,49.99,0.02,-0.22,0.53,-11.1,-1.8,23.4,36.03,,,,,,,,,,
13.09.09.140,-152.7,38.2,0,,,20008.0,49.98,-0.36,-0.37,0.98,-20.3,10.0,7.9,35.38,,,,,,,,,,
13.09.09.149,-160.7,40.2,0,,,20008.0,49.98,0.01,0.33,0.77,-17.9,-19.7,5.2,35.71,,,,,,,,,,
13.09.09.159,-200.1,50.0,0,,,20008.0,49.98,-0.64,0.16,0.64,8.7,-5.6,3.6,35.46,,,,,,,,,,
13.09.09.168,74.1,18.5,0,,,20008.0,49.98,-0.36,-0.54,0.8,15.2,2.7,8.6,35.68,,,,,,,,,,
13.09.09.177,114.3,28.6,0,,,20008.0,49.98,-0.71,-0.13,0.5,-9.8,7.4,5.6,35.58,,,,,,,,,,
13.09.09.186,167.2,41.8,0,,,20008.0,49.98,-0.77,0.12,0.01,31.9,8.8,-5.4,35.47,,,,,,,,,,
13.09.09.194,296.9,74.2,0,,,20012.0,49.97,-0.56,0.45,-0.05,3.7,-1.4,-5.2,35.6,,,,,,,,,,
13.09.09.203,300.1,75.0,0,,,20012.0,49.97,-0.7,-0.22,0.33,-9.4,17.5,-26.8,35.82,,,,,,,,,,
13.09.09.214,422.1,105.5,0,,,20012.0,49.97,-0.74,-0.57,-0.28,-15.7,22.4,-31.2,35.52,,,,,,,,,,
13.09.09.221,453.6,113.4,0,,,20012.0,49.97,-0.62,0.37,1.33,-16.8,12.4,-0.3,35.42,,,,,,,,,,
13.09.09.231,415.2,103.8,0,,,20012.0,49.97,-1.17,0.28,-0.14,-25.2,27.4,-2.2,35.44,,,,,,,,,,
13.09.09.238,471.0,117.8,0,,,20012.0,49.97,-0.87,0.12,0.55,-13.6,-9.4,28.0,35.61,,,,,,,,,,
13.09.09.247,406.8,101.7,0,,,20016.0,49.96,-0.98,0.42,0.15,-26.5,20.3,-1.9,35.8,,,,,,,,,,
13.09.09.256,517.2,129.3,0,,,20016.0,49.96,-0.9,0.56,0.25,17.0,-10.6,9.5,35.34,,,,,,,,,,
13.09.09.266,549.4,137.4,0,,,20016.0,49.96,-0.9,0.23,-0.33,10.4,1.4,-0.4,35.6,,,,,,,,,,
13.09.09.276,475.4,118.8,0,,,20016.0,49.96,-1.17,0.67,0.26,21.5,2.7,1.3,35.42,,,,,,,,,,
13.09.09.284,446.6,111.6,0,,,20016.0,49.96,-0.74,0.08,0.48,21.4,29.5,-1.5,35.79,,,,,,,,,,
13.09.09.296,313.3,78.3,1,22.0,147.1,20016.0,49.96,-0.75,0.35,0.71,-6.1,17.4,6.4,35.52,,,,,,,,,,
13.09.09.305,324.8,81.2,0,,,20020.0,49.95,-0.49,0.99,-0.27,-11.7,23.7,2.7,35.52,,,,,,,,,,
13.09.09.316,272.3,68.1,0,,,20020.0,49.95,-0.21,1.19,-0.45,16.2,11.1,-14.5,35.33,,,,,,,,,,
13.09.09.326,138.8,34.7,0,,,20020.0,49.95,-0.51,0.61,0.98,-16.9,-2.3,4.0,35.69,,,,,,,,,,
13.09.09.336,119.0,29.8,0,,,20020.0,49.95,-0.4,0.81,0.82,-1.6,-12.6,-3.4,35.53,,,,,,,,,,
13.09.09.345,4.6,1.2,0,,,20020.0,49.95,-0.46,0.53,0.49,11.5,31.9,-25.0,35.76,,,,,,,,,,
13.09.09.353,35.4,8.8,0,,,20020.0,49.95,-0.33,-0.06,0.87,-21.6,-4.3,12.8,35.21,,,,,,,,,,
13.09.09.363,-18.5,4.6,0,,,20024.0,49.94,-0.23,0.48,0.61,-11.8,-15.6,9.0,35.49,,,,,,,,,,
13.09.09.375,83.7,20.9,0,,,20024.0,49.94,-0.27,0.63,0.22,-6.9,-15.9,-24.4,35.67,,,,,,,,,,
13.09.09.387,73.7,18.4,0,,,20024.0,49.94,-0.27,0.7,0.51,-10.1,-3.5,-7.3,35.53,,,,,,,,,,
13.09.09.398,95.4,23.8,0,,,20024.0,49.94,0.12,-0.01,1.14,18.3,3.1,7.3,35.66,,,,,,,,,,
13.09.09.408,108.2,27.0,0,,,20024.0,49.94,-0.06,0.59,0.27,7.1,6.6,-8.9,35.44,,,,,,,,,,
13.09.09.417,40.6,10.2,0,,,20028.0,49.93,-0.2,0.85,0.96,1.7,16.2,-3.9,35.19,,,,,,,,,,
13.09.09.426,51.4,12.8,0,,,20028.0,49.93,-0.4,-0.02,0.4,-8.5,-4.9,-16.3,35.2,,,,,,,,,,
13.09.09.437,11.9,3.0,0,,,20028.0,49.93,-0.24,0.32,1.18,13.6,20.5,-9.3,35.39,,,,,,,,,,
13.09.09.446,-12.0,3.0,0,,,20028.0,49.93,-0.44,0.63,0.94,11.4,0.7,-4.8,35.34,,,,,,,,,,
13.09.09.457,-36.4,9.1,0,,,20028.0,49.93,-0.53,0.47,1.56,20.4,8.1,-3.1,35.43,,,,,,,,,,
13.09.09.465,27.7,6.9,0,,,20028.0,49.93,0.04,0.34,0.5,-25.2,10.8,-5.3,35.6,,,,,,,,,,
13.09.09.475,14.5,3.6,0,,,20032.1,49.92,0.02,-0.04,-0.74,-4.1,26.5,3.4,35.55,,,,,,,,,,
13.09.09.484,5.2,1.3,0,,,20032.1,49.92,-0.39,-0.08,0.56,12.7,6.5,6.3,35.38,,,,,,,,,,
13.09.09.494,-34.9,8.7,0,,,20032.1,49.92,-0.44,-0.31,0.77,-2.6,-20.0,-9.6,35.12,,,,,,,,,,
13.09.09.503,-32.4,8.1,0,,,20032.1,49.92,-0.49,-0.52,0.52,30.5,6.5,-3.7,35.53,,,,,,,,,,
13.09.09.513,-65.8,16.4,0,,,20032.1,49.92,-0.57,-0.25,-0.5,2.9,-6.7,-27.5,35.47,,,,,,,,,,
13.09.09.523,-34.4,8.6,0,,,20032.1,49.92,-0.32,-0.46,2.0,-9.4,-3.7,-5.0,35.91,,,,,,,,,,
13.09.09.531,-64.7,16.2,0,,,20036.1,49.91,-1.0,0.07,-0.28,3.4,-8.3,-0.8,35.92,,,,,,,,,,
13.09.09.542,-23.7,5.9,0,,,20036.1,49.91,-0.57,-0.22,-0.34,-0.9,4.6,-0.2,35.51,,,,,,,,,,
13.09.09.552,-51.8,13.0,0,,,20036.1,49.91,-0.55,-0.25,-0.95,5.6,14.8,9.1,35.47,,,,,,,,,,
13.09.09.563,-63.0,15.8,0,,,20036.1,49.91,-0.88,-0.05,0.02,-3.5,15.4,-1.1,35.76,,,,,,,,,,
13.09.09.574,-84.4,21.1,0,,,20036.1,49.91,-0.69,0.39,0.29,-8.7,-18.6,-9.2,35.34,,,,,,,,,,
13.09.09.583,-114.0,28.5,0,,,20040.1,49.9,-0.77,0.38,-1.02,-16.4,-11.5,-2.5,35.53,,,,,,,,,,
13.09.09.591,-129.9,32.5,0,,,20040.1,49.9,-0.66,0.4,-0.25,4.6,-7.5,8.5,35.68,,,,,,,,,,
13.09.09.601,-232.1,58.0,0,,,20040.1,49.9,-0.17,0.43,-0.94,-28.4,-10.4,0.6,35.65,,,,,,,,,,
13.09.09.612,-119.4,29.8,0,,,20040.1,49.9,-0.6,1.06,-0.2,-19.7,-6.9,-25.9,35.46,,,,,,,,,,
13.09.09.619,-98.2,24.6,0,,,20040.1,49.9,-0.78,0.63,0.37,-28.5,14.1,0.4,35.93,,,,,,,,,,
13.09.09.629,-139.9,35.0,0,,,20040.1,49.9,-0.6,0.47,0.31,-2.5,-0.1,-2.8,35.59,,,,,,,,,,
13.09.09.639,-206.7,51.7,0,,,20044.1,49.89,-0.59,0.51,-0.63,-3.9,-12.5,-1.6,35.6,,,,,,,,,,
13.09.09.649,-126.9,31.7,0,,,20044.1,49.89,-0.87,0.46,-0.35,9.3,27.9,16.9,35.35,,,,,,,,,,
13.09.09.657,-180.5,45.1,0,,,20044.1,49.89,-0.81,0.44,0.36,9.2,2.7,-7.8,35.47,,,,,,,,,,
13.09.09.669,-185.2,46.3,0,,,20044.1,49.89,-0.53,1.06,0.48,3.4,-18.3,5.2,35.74,,,,,,,,,,
13.09.09.679,-147.8,37.0,0,,,20044.1,49.89,-0.65,0.63,0.21,-6.0,23.6,7.4,35.53,,,,,,,,,,
13.09.09.688,-168.7,42.2,0,,,20044.1,49.89,-0.41,0.46,0.94,3.9,30.3,-1.2,35.55,,,,,,,,,,
13.09.09.698,31.8,8.0,0,,,20048.1,49.88,-0.51,0.15,0.24,6.5,18.6,9.9,35.55,,,,,,,,,,
13.09.09.707,103.7,25.9,0,,,20048.1,49.88,-0.14,0.41,0.41,5.2,2.6,-9.7,35.35,,,,,,,,,,
13.09.09.719,259.9,65.0,0,,,20048.1,49.88,-0.75,0.52,0.91,-17.4,14.8,-15.9,35.7,,,,,,,,,,
13.09.09.728,262.4,65.6,0,,,20048.1,49.88,-0.01,0.25,-0.23,-19.0,5.6,-5.3,35.74,,,,,,,,,,
13.09.09.737,305.8,76.4,1,23.0,136.1,20048.1,49.88,-0.06,0.82,0.39,26.6,33.4,-5.5,35.76,,,,,,,,,,
13.09.09.746,414.4,103.6,0,,,20048.1,49.88,-0.24,0.05,0.72,12.8,34.0,-4.1,35.7,,,,,,,,,,
13.09.09.757,503.9,126.0,0,,,20052.1,49.87,-0.23,0.65,0.42,-1.3,22.8,-4.1,35.84,,,,,,,,,,
13.09.09.767,474.5,118.6,0,,,20052.1,49.87,-0.83,-0.14,1.4,-11.8,14.5,-6.5,35.56,,,,,,,,,,
13.09.09.775,465.4,116.4,0,,,20052.1,49.87,-0.32,0.26,0.58,28.6,25.2,9.8,35.51,,,,,,,,,,
13.09.09.784,454.5,113.6,0,,,20052.1,49.87,-0.18,0.77,-0.1,2.1,21.2,7.2,35.42,,,,,,,,,,
13.09.09.796,462.6,115.6,0,,,20052.1,49.87,-0.44,0.66,1.05,42.7,-12.3,-3.3,35.73,,,,,,,,,,
13.09.09.808,424.3,106.1,0,,,20056.2,49.86,-0.53,-0.19,1.35,11.9,9.1,3.4,35.77,,,,,,,,,,
13.09.09.819,351.4,87.8,0,,,20056.2,49.86,-0.5,-0.08,0.37,-5.1,15.6,-4.5,35.56,,,,,,,,,,
13.09.09.829,372.8,93.2,0,,,20056.2,49.86,-0.4,0.14,0.75,-4.2,-17.2,-4.8,35.37,,,,,,,,,,
13.09.09.837,324.7,81.2,0,,,20056.2,49.86,-0.35,-0.35,0.9,8.0,14.3,11.2,35.67,,,,,,,,,,
13.09.09.846,330.0,82.5,0,,,20056.2,49.86,-0.68,0.13,0.97,1.4,15.7,6.9,35.58,,,,,,,,,,
13.09.09.856,227.0,56.8,0,,,20056.2,49.86,-0.74,0.05,0.07,5.7,8.5,-2.0,35.38,,,,,,,,,,
13.09.09.869,96.1,24.0,0,,,20060.2,49.85,-0.42,-0.49,-0.2,37.5,6.2,11.0,35.66,,,,,,,,,,
13.09.09.877,-73.7,18.4,0,,,20060.2,49.85,-0.34,-0.16,-0.2,-1.4,6.1,-11.0,35.61,,,,,,,,,,
13.09.09.886,-43.1,10.8,0,,,20060.2,49.85,-0.73,-0.26,-0.31,3.3,5.1,7.1,35.28,,,,,,,,,,
13.09.09.895,26.3,6.6,0,,,20060.2,49.85,-0.42,-0.51,0.57,-1.4,19.9,-19.6,35.69,,,,,,,,,,
13.09.09.904,23.9,6.0,0,,,20060.2,49.85,-1.16,0.75,-0.63,-15.1,2.6,-0.4,35.64,,,,,,,,,,
13.09.09.914,66.3,16.6,0,,,20060.2,49.85,-0.86,-0.39,-0.87,-21.6,26.1,11.5,35.43,,,,,,,,,,
13.09.09.923,86.0,21.5,0,,,20064.2,49.84,-0.65,-0.08,-0.27,5.4,-14.6,4.5,35.79,,,,,,,,,,
13.09.09.934,104.9,26.2,0,,,20064.2,49.84,-0.96,0.35,0.55,15.0,21.2,7.3,35.72,,,,,,,,,,
13.09.09.944,38.2,9.6,0,,,20064.2,49.84,-0.7,0.42,0.19,3.2,14.0,-13.1,35.38,,,,,,,,,,
13.09.09.954,110.2,27.6,0,,,20064.2,49.84,-0.93,0.24,0.44,35.1,-8.3,-5.6,35.69,,,,,,,,,,
13.09.09.964,82.0,20.5,0,,,20064.2,49.84,-0.53,0.36,-0.31,14.0,4.3,-6.4,35.49,,,,,,,,,,
13.09.09.972,32.2,8.0,0,,,20064.2,49.84,-0.51,0.47,0.02,8.1,-17.5,-0.8,35.59,,,,,,,,,,
13.09.09.980,12.3,3.1,0,,,20068.2,49.83,-0.55,0.01,-0.62,5.0,11.3,12.1,35.41,,,,,,,,,,
13.09.09.989,-8.7,2.2,0,,,20068.2,49.83,-0.45,0.56,0.77,-8.4,-9.9,2.0,35.61,,,,,,,,,,
13.09.09.998,0.1,0.0,0,,,20068.2,49.83,-0.39,0.2,0.03,-6.7,-28.4,1.6,35.92,,,,,,,,,,
13.09.10.007,-37.7,9.4,0,,,20068.2,49.83,-1.05,1.36,0.51,5.6,-6.6,9.0,35.45,115.5,,,,,,,,,
13.09.10.018,-48.5,12.1,0,,,20068.2,49.83,-0.51,0.31,1.13,-2.3,23.2,-12.7,35.63,,,,,,,,,,
13.09.10.028,-32.6,8.2,0,,,20068.2,49.83,-0.4,0.72,-0.34,-16.0,10.8,-5.2,35.43,,,,,,,,,,
13.09.10.037,-42.2,10.6,0,,,20068.2,49.83,-0.55,1.2,0.62,15.1,14.4,1.7,35.53,,,,,,,,,,
13.09.10.045,-85.2,21.3,0,,,20068.2,49.83,-0.51,0.58,0.31,-10.3,7.1,-3.1,35.49,,,,,,,,,,
13.09.10.055,-42.1,10.5,0,,,20068.2,49.83,-0.32,0.6,0.47,16.2,-2.1,-2.6,35.41,,,,,,,,,,
13.09.10.063,-86.2,21.6,0,,,20068.2,49.83,-0.76,0.22,0.74,19.5,18.7,24.0,35.54,,,,,,,,,,
13.09.10.075,-5.4,1.4,0,,,20068.2,49.83,0.26,0.32,1.65,-7.8,11.4,2.7,35.43,,,,,,,,,,
13.09.10.085,-124.5,31.1,0,,,20068.2,49.83,-0.38,0.78,0.83,-19.7,1.1,-6.6,35.5,,,,,,,,,,
13.09.10.095,-46.3,11.6,0,,,20068.2,49.83,-0.21,0.49,0.9,6.3,36.8,-1.7,35.78,,,,,,,,,,
13.09.10.106,-114.4,28.6,0,,,20068.2,49.83,-0.35,0.44,1.36,-13.4,-17.0,2.9,35.81,,,,,,,,,,
13.09.10.115,-79.8,20.0,0,,,20068.2,49.83,-0.27,1.46,1.15,-1.5,-12.6,4.3,35.62,,,,,,,,,,
13.09.10.124,-141.0,35.2,0,,,20068.2,49.83,0.13,0.42,1.42,32.9,20.2,13.0,35.63,,,,,,,,,,
13.09.10.133,-149.3,37.3,0,,,20072.3,49.82,-0.17,0.92,1.54,-25.8,8.6,-0.4,35.78,,,,,,,,,,
13.09.10.143,-81.8,20.4,0,,,20072.3,49.82,-0.56,0.38,1.99,24.9,-10.0,-1.6,35.61,,,,,,,,,,
13.09.10.152,-193.8,48.4,0,,,20072.3,49.82,-0.45,-0.14,0.46,-15.7,11.3,-0.3,35.3,,,,,,,,,,
13.09.10.164,-162.1,40.5,0,,,20072.3,49.82,-0.36,0.24,0.86,13.3,-9.9,4.2,35.53,,,,,,,,,,
13.09.10.175,-198.1,49.5,0,,,20072.3,49.82,-0.27,0.12,0.36,11.4,-5.1,7.8,35.46,,,,,,,,,,
13.09.10.185,-160.6,40.2,0,,,20072.3,49.82,-0.06,0.63,0.4,3.1,-4.0,-16.4,35.64,,,,,,,,,,
13.09.10.194,-173.7,43.4,1,24.0,131.3,20072.3,49.82,-0.6,0.28,1.05,-16.5,-11.9,-0.8,35.66,,,,,,,,,,
13.09.10.204,-198.3,49.6,0,,,20072.3,49.82,-0.46,-0.01,0.23,11.7,0.7,1.3,35.77,,,,,,,,,,
13.09.10.214,-195.0,48.8,0,,,20072.3,49.82,-0.78,0.39,0.87,-8.4,-7.6,-7.8,35.8,,,,,,,,,,
13.09.10.223,-197.1,49.3,0,,,20072.3,49.82,-0.96,-0.08,-0.46,11.1,21.2,4.0,35.28,,,,,,,,,,
13.09.10.233,102.8,25.7,0,,,20072.3,49.82,-1.0,0.48,-0.64,-12.9,8.5,-9.1,35.5,,,,,,,,,,
13.09.10.243,168.6,42.2,0,,,20072.3,49.82,-0.62,0.62,-0.24,-1.9,6.5,10.1,35.54,,,,,,,,,,
13.09.10.253,158.6,39.6,0,,,20072.3,49.82,-0.82,-0.08,-0.17,28.9,10.6,-6.2,35.73,,,,,,,,,,
13.09.10.262,282.7,70.7,0,,,20072.3,49.82,-0.69,-0.52,0.19,-25.8,3.6,6.0,35.42,,,,,,,,,,
13.09.10.272,306.7,76.7,0,,,20072.3,49.82,-0.56,0.27,-0.54,3.0,-5.5,-1.9,36.03,,,,,,,,,,
13.09.10.281,340.8,85.2,0,,,20072.3,49.82,-0.9,-0.2,-0.14,-12.4,-15.3,-8.5,35.71,,,,,,,,,,
13.09.10.290,514.7,128.7,0,,,20072.3,49.82,-0.39,0.94,0.62,20.8,16.0,-1.2,35.67,,,,,,,,,,
13.09.10.298,485.4,121.4,0,,,20072.3,49.82,-0.95,0.74,-0.43,3.6,-19.1,-5.5,35.45,,,,,,,,,,
13.09.10.309,383.8,96.0,0,,,20072.3,49.82,-0.81,0.28,0.11,-29.8,0.7,-21.9,35.27,,,,,,,,,,
13.09.10.319,513.7,128.4,0,,,20072.3,49.82,-0.41,0.77,0.15,-8.7,20.2,-12.7,35.65,,,,,,,,,,
13.09.10.329,466.4,116.6,0,,,20072.3,49.82,-0.49,0.83,-0.16,-1.0,13.3,-8.2,35.52,,,,,,,,,,
13.09.10.337,500.2,125.0,0,,,20072.3,49.82,-1.1,0.21,-0.05,0.6,-20.3,-6.2,35.66,,,,,,,,,,
13.09.10.349,451.8,113.0,0,,,20072.3,49.82,-0.44,1.08,0.05,-6.4,3.3,-8.1,35.7,,,,,,,,,,
13.09.10.357,401.7,100.4,0,,,20072.3,49.82,-0.63,0.6,0.79,-15.5,-8.6,4.6,35.71,,,,,,,,,,
13.09.10.366,429.3,107.3,0,,,20076.3,49.81,-0.7,0.4,-0.47,-25.8,4.7,12.2,35.7,,,,,,,,,,
13.09.10.376,304.4,76.1,0,,,20076.3,49.81,-0.4,0.95,0.12,9.3,7.9,8.0,35.66,,,,,,,,,,
13.09.10.385,208.3,52.1,0,,,20076.3,49.81,-0.3,0.42,1.45,-25.2,-10.3,11.2,35.69,,,,,,,,,,
13.09.10.395,143.6,35.9,0,,,20076.3,49.81,-0.58,-0.18,0.48,-13.6,2.6,17.8,35.67,,,,,,,,,,
13.09.10.405,63.1,15.8,0,,,20076.3,49.81,-0.09,0.6,1.25,-11.0,11.9,-28.6,35.34,,,,,,,,,,
13.09.10.414,-6.9,1.7,0,,,20076.3,49.81,-0.41,0.33,1.73,23.4,2.3,-12.2,35.46,,,,,,,,,,
13.09.10.424,76.7,19.2,0,,,20076.3,49.81,-0.2,1.16,0.67,16.9,-5.6,8.6,35.68,,,,,,,,,,
13.09.10.433,122.1,30.5,0,,,20076.3,49.81,-0.58,0.62,0.6,17.4,6.6,13.0,35.65,,,,,,,,,,
13.09.10.442,26.6,6.6,0,,,20076.3,49.81,-0.44,-0.34,0.36,4.7,20.1,-12.3,35.78,,,,,,,,,,
13.09.10.453,63.0,15.8,0,,,20076.3,49.81,0.18,0.26,1.0,-22.7,1.0,4.6,35.44,,,,,,,,,,
13.09.10.463,133.8,33.4,0,,,20076.3,49.81,-0.37,-0.15,1.11,13.2,-10.7,17.8,35.39,,,,,,,,,,
13.09.10.473,76.6,19.2,0,,,20076.3,49.81,-0.65,-0.12,0.49,14.4,-16.3,14.1,35.86,,,,,,,,,,
13.09.10.485,105.4,26.4,0,,,20076.3,49.81,-0.11,-0.15,0.57,6.2,-10.2,-17.3,35.79,,,,,,,,,,
13.09.10.494,13.0,3.2,0,,,20076.3,49.81,-0.46,0.09,0.89,-0.8,9.5,7.2,36.02,,,,,,,,,,
13.09.10.505,69.9,17.5,0,,,20076.3,49.81,-0.61,-0.44,0.29,9.8,-9.1,0.2,35.83,,,,,,,,,,
13.09.10.514,47.3,11.8,0,,,20076.3,49.81,-0.41,0.44,0.45,8.7,11.1,-4.9,35.69,,,,,,,,,,
13.09.10.523,-9.9,2.5,0,,,20076.3,49.81,-0.55,0.06,-0.1,-11.8,8.6,-10.6,35.53,,,,,,,,,,
13.09.10.532,-11.1,2.8,0,,,20076.3,49.81,-0.59,0.53,-0.07,20.4,24.4,-5.7,35.58,,,,,,,,,,
13.09.10.541,-75.2,18.8,0,,,20076.3,49.81,-0.26,0.17,0.53,-10.8,-12.3,-7.2,35.55,,,,,,,,,,
13.09.10.551,-49.3,12.3,0,,,20076.3,49.81,-0.74,0.43,-0.0,-12.1,16.5,12.6,35.6,,,,,,,,,,
13.09.10.559,-49.0,12.2,1,25.0,164.4,20076.3,49.81,-0.64,0.46,0.06,9.5,-11.2,4.9,35.48,,,,,,,,,,
13.09.10.571,-90.1,22.5,0,,,20076.3,49.81,-0.67,0.05,0.54,-5.8,-20.1,-9.6,35.31,,,,,,,,,,
13.09.10.582,-28.7,7.2,0,,,20076.3,49.81,-0.65,-0.37,-0.23,17.7,-29.7,7.5,35.6,,,,,,,,,,
13.09.10.593,-132.8,33.2,0,,,20080.3,49.8,-0.9,0.03,0.22,4.4,10.5,-10.4,35.66,,,,,,,,,,
13.09.10.602,-133.5,33.4,0,,,20080.3,49.8,-0.88,-0.11,-0.26,25.5,-3.8,3.8,35.5,,,,,,,,,,
13.09.10.612,-27.3,6.8,0,,,20080.3,49.8,-0.77,0.67,0.05,7.7,10.5,-1.2,35.52,,,,,,,,,,
13.09.10.621,-55.8,14.0,0,,,20080.3,49.8,-0.64,0.45,0.33,-18.4,-3.4,5.5,35.88,,,,,,,,,,
13.09.10.631,-28.5,7.1,0,,,20080.3,49.8,-1.09,0.49,-0.51,15.1,3.9,-11.3,35.31,,,,,,,,,,
13.09.10.641,-103.1,25.8,0,,,20080.3,49.8,-0.59,0.07,-0.33,21.5,21.2,-7.9,35.41,,,,,,,,,,
13.09.10.652,-114.7,28.7,0,,,20080.3,49.8,-0.52,0.1,-0.89,-26.3,7.4,-10.9,35.59,,,,,,,,,,
13.09.10.663,-149.1,37.3,0,,,20080.3,49.8,-1.08,0.72,0.16,10.4,25.8,-7.3,35.35,,,,,,,,,,
13.09.10.673,-86.9,21.7,0,,,20080.3,49.8,-0.01,0.27,-0.16,5.2,35.8,-5.6,35.52,,,,,,,,,,
13.09.10.684,-137.3,34.3,0,,,20080.3,49.8,-0.93,0.61,-0.01,-8.6,10.4,11.3,35.52,,,,,,,,,,
13.09.10.692,-139.2,34.8,0,,,20080.3,49.8,-0.3,0.55,0.08,-1.2,-3.2,-11.8,35.19,,,,,,,,,,
13.09.10.701,-188.2,47.0,0,,,20080.3,49.8,-0.56,0.69,0.15,8.4,26.8,1.8,35.32,,,,,,,,,,
13.09.10.709,-153.1,38.3,0,,,20080.3,49.8,-0.93,1.04,0.01,23.9,32.9,16.5,35.55,,,,,,,,,,
13.09.10.718,-149.3,37.3,0,,,20080.3,49.8,-0.41,0.41,0.33,-18.5,-9.2,8.5,35.78,,,,,,,,,,
13.09.10.730,-170.2,42.6,0,,,20080.3,49.8,-0.85,0.02,0.54,-17.0,0.4,0.2,35.25,,,,,,,,,,
13.09.10.741,-222.1,55.5,0,,,20080.3,49.8,-0.51,0.7,0.06,28.1,-6.6,-1.3,35.71,,,,,,,,,,
13.09.10.753,-221.0,55.2,0,,,20080.3,49.8,-0.55,0.89,-0.36,16.2,39.9,-5.8,35.6,,,,,,,,,,
13.09.10.764,75.1,18.8,0,,,20080.3,49.8,-0.73,0.22,0.71,23.1,-7.0,-1.0,35.7,,,,,,,,,,
13.09.10.773,162.8,40.7,0,,,20080.3,49.8,-0.53,-0.08,0.34,-4.4,-3.5,26.3,35.32,,,,,,,,,,
13.09.10.782,204.9,51.2,0,,,20080.3,49.8,-0.65,0.72,0.17,1.5,4.3,-4.0,35.49,,,,,,,,,,
13.09.10.791,300.4,75.1,0,,,20080.3,49.8,0.19,1.21,1.23,18.6,1.5,-3.3,35.61,,,,,,,,,,
13.09.10.801,374.2,93.6,0,,,20080.3,49.8,0.0,0.71,1.05,5.0,11.9,-17.1,35.46,,,,,,,,,,
13.09.10.811,386.8,96.7,0,,,20080.3,49.8,-0.17,0.45,0.88,8.8,3.7,5.6,35.76,,,,,,,,,,
13.09.10.819,365.9,91.5,0,,,20084.4,49.79,-0.31,0.38,0.98,-0.8,17.8,0.6,35.53,,,,,,,,,,
13.09.10.827,473.1,118.3,0,,,20084.4,49.79,-0.34,0.07,0.91,-11.9,-5.6,5.5,35.78,,,,,,,,,,
13.09.10.836,467.1,116.8,0,,,20084.4,49.79,-0.26,-0.23,1.43,13.3,7.6,7.6,35.67,,,,,,,,,,
13.09.10.847,531.1,132.8,0,,,20084.4,49.79,-0.32,-0.1,0.66,9.9,16.1,-3.0,35.34,,,,,,,,,,
13.09.10.856,478.3,119.6,0,,,20084.4,49.79,-0.44,0.44,0.08,4.2,5.3,-10.4,35.47,,,,,,,,,,
13.09.10.865,494.7,123.7,0,,,20084.4,49.79,-0.81,0.38,1.32,-15.6,-5.7,18.8,35.39,,,,,,,,,,
13.09.10.875,390.0,97.5,0,,,20084.4,49.79,-0.74,0.76,1.2,-20.5,19.9,19.4,35.38,,,,,,,,,,
13.09.10.885,427.7,106.9,0,,,20084.4,49.79,-0.21,-0.25,0.27,-8.9,-7.0,-0.7,35.5,,,,,,,,,,
13.09.10.897,390.9,97.7,0,,,20084.4,49.79,-0.33,0.21,0.62,13.6,-1.5,5.0,35.65,,,,,,,,,,
13.09.10.906,276.7,69.2,0,,,20084.4,49.79,-0.76,-0.35,-0.27,-11.2,31.3,3.9,35.45,,,,,,,,,,
13.09.10.916,153.7,38.4,1,26.0,168.1,20084.4,49.79,-0.82,0.78,-0.04,2.8,1.7,-6.7,35.65,,,,,,,,,,
13.09.10.923,132.6,33.2,0,,,20084.4,49.79,-0.97,-0.8,-0.2,-8.4,7.8,5.0,35.22,,,,,,,,,,
13.09.10.932,83.2,20.8,0,,,20084.4,49.79,-0.94,-0.15,-0.11,23.8,-2.3,-14.0,35.68,,,,,,,,,,
13.09.10.941,-58.3,14.6,0,,,20084.4,49.79,-1.05,0.11,0.29,12.2,1.6,20.5,35.35,,,,,,,,,,
13.09.10.952,15.9,4.0,0,,,20084.4,49.79,-0.52,-0.08,-0.2,15.5,-11.9,-19.2,35.51,,,,,,,,,,
13.09.10.960,2.9,0.7,0,,,20084.4,49.79,-0.64,-0.2,0.71,-10.9,-5.2,-18.8,35.26,,,,,,,,,,
13.09.10.969,112.0,28.0,0,,,20084.4,49.79,-1.09,0.25,-0.81,-9.6,-12.7,1.0,35.23,,,,,,,,,,
13.09.10.979,34.9,8.7,0,,,20084.4,49.79,-0.87,-0.07,-0.18,32.7,5.5,0.2,35.49,,,,,,,,,,
13.09.10.986,79.7,19.9,0,,,20084.4,49.79,-0.76,0.82,0.15,-13.0,15.8,-2.0,35.44,,,,,,,,,,
13.09.10.998,145.9,36.5,0,,,20084.4,49.79,-0.82,0.74,-0.14,-20.2,10.8,-9.3,35.36,,,,,,,,,,
13.09.11.007,118.9,29.7,0,,,20084.4,49.79,-0.77,0.09,-0.23,16.2,4.2,-7.4,35.38,,,,,,,,,,
13.09.11.017,-40.8,10.2,0,,,20088.4,49.78,-0.82,0.17,-0.22,-6.7,11.8,7.7,35.59,,,,,,,,,,
13.09.11.028,52.7,13.2,0,,,20088.4,49.78,-0.73,0.58,-0.25,-1.3,-11.5,12.0,35.76,,,,,,,,,,
13.09.11.035,43.1,10.8,0,,,20088.4,49.78,-1.02,0.93,0.77,27.6,17.9,-15.0,35.16,,,,,,,,,,
13.09.11.047,-60.4,15.1,0,,,20088.4,49.78,-0.62,0.61,0.24,7.7,-7.7,28.9,35.48,,,,,,,,,,
13.09.11.057,-67.5,16.9,0,,,20088.4,49.78,-0.5,0.7,0.07,16.8,9.3,-8.6,35.68,,,,,,,,,,
13.09.11.067,43.9,11.0,0,,,20088.4,49.78,-0.42,0.13,0.45,-3.8,0.9,13.9,35.69,,,,,,,,,,
13.09.11.078,-12.6,3.2,0,,,20088.4,49.78,-0.4,1.28,0.96,-13.9,8.2,2.0,35.46,,,,,,,,,,
13.09.11.089,-21.6,5.4,0,,,20092.4,49.77,-0.51,0.35,0.15,26.4,-9.1,-10.7,35.31,,,,,,,,,,
13.09.11.098,-77.2,19.3,0,,,20092.4,49.77,-0.13,0.44,0.97,16.6,45.0,19.7,35.5,,,,,,,,,,
13.09.11.109,-48.9,12.2,0,,,20092.4,49.77,-0.27,-0.33,0.0,23.7,-8.6,-12.7,35.4,,,,,,,,,,
13.09.11.119,-59.7,14.9,0,,,20092.4,49.77,-0.27,0.42,1.48,12.3,18.5,-8.3,35.6,,,,,,,,,,
13.09.11.130,-72.2,18.0,0,,,20092.4,49.77,-0.43,0.61,0.57,24.4,5.5,8.0,35.77,,,,,,,,,,
13.09.11.140,-116.6,29.2,0,,,20092.4,49.77,-0.63,0.23,1.36,-0.9,-12.8,-2.0,35.63,,,,,,,,,,
13.09.11.150,-100.9,25.2,0,,,20096.5,49.76,-0.22,-0.14,1.38,-12.2,8.3,-3.0,35.66,,,,,,,,,,
13.09.11.159,-80.2,20.0,0,,,20096.5,49.76,0.17,0.05,0.54,27.5,0.1,-6.4,35.7,,,,,,,,,,
13.09.11.169,-143.3,35.8,0,,,20096.5,49.76,-0.01,0.3,0.54,-9.0,-3.8,8.0,35.29,,,,,,,,,,
13.09.11.179,-105.4,26.4,0,,,20096.5,49.76,-0.67,0.34,0.55,15.2,12.4,-2.9,35.44,,,,,,,,,,
13.09.11.192,-104.7,26.2,0,,,20096.5,49.76,-0.91,0.12,1.7,-15.6,-3.2,-12.0,35.34,,,,,,,,,,
13.09.11.203,-138.8,34.7,0,,,20096.5,49.76,-0.29,0.2,0.5,-12.5,24.5,5.6,35.73,,,,,,,,,,
13.09.11.211,-130.4,32.6,0,,,20096.5,49.76,-0.17,0.11,1.57,36.8,5.7,8.5,35.53,,,,,,,,,,
13.09.11.220,-165.9,41.5,0,,,20100.5,49.75,-0.2,-0.37,0.74,16.3,22.3,12.9,35.66,,,,,,,,,,
13.09.11.228,-231.7,57.9,0,,,20100.5,49.75,-0.57,0.14,0.24,4.6,13.5,-8.2,35.81,,,,,,,,,,
13.09.11.237,-118.2,29.6,0,,,20100.5,49.75,-0.49,0.11,0.96,-14.5,11.7,-12.6,35.49,,,,,,,,,,
13.09.11.245,-221.0,55.2,0,,,20100.5,49.75,-0.51,-0.23,0.98,-23.4,11.0,-6.4,35.35,,,,,,,,,,
13.09.11.254,-107.9,27.0,0,,,20100.5,49.75,-0.48,0.53,0.62,-8.0,-22.5,2.6,35.36,,,,,,,,,,
13.09.11.265,-199.3,49.8,0,,,20100.5,49.75,-0.64,0.06,0.5,21.6,9.4,-4.1,35.62,,,,,,,,,,
13.09.11.276,-170.1,42.5,0,,,20100.5,49.75,-0.42,-0.05,0.86,-8.0,19.6,9.9,35.3,,,,,,,,,,
13.09.11.286,19.5,4.9,0,,,20104.5,49.74,-0.76,0.3,0.15,-2.8,14.7,-21.1,35.49,,,,,,,,,,
13.09.11.294,43.8,11.0,0,,,20104.5,49.74,-0.91,0.45,-0.19,1.8,15.4,-7.1,35.52,,,,,,,,,,
13.09.11.304,197.9,49.5,0,,,20104.5,49.74,-0.48,0.26,0.62,-18.5,24.5,-13.8,35.71,,,,,,,,,,
13.09.11.314,221.7,55.4,1,27.0,150.8,20104.5,49.74,-0.85,0.28,-1.12,-14.5,18.0,1.4,35.43,,,,,,,,,,
13.09.11.323,274.5,68.6,0,,,20104.5,49.74,-0.96,0.0,-0.05,-31.0,-2.7,-3.9,35.45,,,,,,,,,,
13.09.11.333,332.7,83.2,0,,,20104.5,49.74,-1.2,-0.15,-0.45,7.0,22.8,0.7,35.22,,,,,,,,,,
13.09.11.343,389.0,97.2,0,,,20104.5,49.74,-0.63,0.06,-0.17,-4.5,-8.2,-8.7,35.84,,,,,,,,,,
13.09.11.356,441.3,110.3,0,,,20108.6,49.73,-1.03,0.02,0.71,-14.0,10.8,8.7,35.68,,,,,,,,,,
13.09.11.364,480.3,120.1,0,,,20108.6,49.73,-0.92,1.16,-0.08,3.0,-8.2,-11.4,35.66,,,,,,,,,,
13.09.11.374,487.7,121.9,0,,,20108.6,49.73,-1.28,0.87,0.63,8.6,-13.8,9.9,35.56,,,,,,,,,,
13.09.11.385,501.5,125.4,0,,,20108.6,49.73,-0.62,-0.12,-0.64,4.7,17.5,7.2,35.53,,,,,,,,,,
13.09.11.394,442.3,110.6,0,,,20108.6,49.73,-0.34,1.12,0.17,3.0,-2.4,15.6,35.53,,,,,,,,,,
13.09.11.403,443.0,110.8,0,,,20108.6,49.73,-0.62,0.86,1.18,9.8,-8.5,1.6,35.73,,,,,,,,,,
13.09.11.413,453.5,113.4,0,,,20112.6,49.72,-0.32,0.72,-0.04,15.8,-6.3,-13.4,35.88,,,,,,,,,,
13.09.11.424,304.4,76.1,0,,,20112.6,49.72,-0.94,0.95,0.88,28.1,9.6,-17.1,35.44,,,,,,,,,,
13.09.11.433,328.8,82.2,0,,,20112.6,49.72,-0.52,0.23,0.38,14.9,21.7,2.3,35.45,,,,,,,,,,
13.09.11.440,310.0,77.5,0,,,20112.6,49.72,-0.38,0.18,0.67,-19.2,11.6,2.1,35.39,,,,,,,,,,
13.09.11.450,89.7,22.4,0,,,20112.6,49.72,-0.42,0.64,0.81,24.1,9.6,-5.8,35.61,,,,,,,,,,
13.09.11.459,138.5,34.6,0,,,20112.6,49.72,-0.75,0.9,1.17,2.9,-14.6,-5.6,35.48,,,,,,,,,,
13.09.11.469,-22.9,5.7,0,,,20112.6,49.72,-0.35,0.29,1.28,-13.5,2.6,0.9,35.48,,,,,,,,,,
13.09.11.478,7.5,1.9,0,,,20116.7,49.71,-0.38,0.19,0.36,-0.1,24.6,-0.8,35.7,,,,,,,,,,
13.09.11.486,-3.6,0.9,0,,,20116.7,49.71,-0.35,0.03,1.05,9.7,-7.5,6.7,35.17,,,,,,,,,,
13.09.11.498,98.2,24.6,0,,,20116.7,49.71,-0.45,0.06,0.61,-9.6,10.2,6.8,35.57,,,,,,,,,,
13.09.11.507,58.6,14.6,0,,,20116.7,49.71,-0.6,0.85,1.6,-7.1,1.0,2.6,35.63,,,,,,,,,,
13.09.11.516,77.4,19.4,0,,,20116.7,49.71,-0.2,-0.08,1.5,-12.5,2.0,12.2,35.7,,,,,,,,,,
13.09.11.525,70.3,17.6,0,,,20116.7,49.71,-0.82,0.3,0.45,27.3,6.8,-8.4,35.7,,,,,,,,,,
13.09.11.536,98.1,24.5,0,,,20116.7,49.71,-0.41,0.35,-0.0,2.3,-3.9,-4.9,35.7,,,,,,,,,,
13.09.11.545,31.4,7.8,0,,,20120.7,49.7,-0.18,0.09,0.61,10.3,11.9,3.4,35.71,,,,,,,,,,
13.09.11.553,87.5,21.9,0,,,20120.7,49.7,-0.81,-0.1,0.89,1.2,13.9,12.6,35.6,,,,,,,,,,
13.09.11.564,-18.2,4.6,0,,,20120.7,49.7,-0.47,-0.07,0.55,-8.7,15.9,6.5,35.78,,,,,,,,,,
13.09.11.573,61.2,15.3,0,,,20120.7,49.7,-0.8,-0.3,0.41,26.7,8.0,-3.9,35.65,,,,,,,,,,
13.09.11.585,-31.5,7.9,0,,,20120.7,49.7,-0.66,0.21,-0.46,-2.5,5.7,31.5,35.31,,,,,,,,,,
13.09.11.594,-1.7,0.4,0,,,20120.7,49.7,-0.56,0.37,0.35,14.0,-0.1,-28.2,35.46,,,,,,,,,,
13.09.11.606,10.1,2.5,0,,,20120.7,49.7,-0.49,-0.27,0.44,34.8,14.2,10.2,35.43,,,,,,,,,,
13.09.11.617,-24.2,6.0,0,,,20124.8,49.69,-0.81,-0.56,-0.1,8.9,9.6,-5.1,35.57,,,,,,,,,,
13.09.11.627,-99.1,24.8,0,,,20124.8,49.69,-0.64,0.16,0.29,3.2,24.6,-5.5,35.48,,,,,,,,,,
13.09.11.639,-66.8,16.7,0,,,20124.8,49.69,-0.6,0.14,0.3,-19.1,12.5,4.5,35.5,,,,,,,,,,
13.09.11.647,-99.6,24.9,0,,,20124.8,49.69,-0.66,0.02,0.86,14.1,18.0,-18.0,35.58,,,,,,,,,,
13.09.11.657,-60.3,15.1,0,,,20124.8,49.69,-0.99,0.39,0.82,14.4,-9.8,-4.9,35.58,,,,,,,,,,
13.09.11.668,-64.0,16.0,0,,,20124.8,49.69,-0.69,0.42,-0.09,-18.1,-6.9,1.7,35.45,,,,,,,,,,
13.09.11.679,,,0,,,,,,,,,,,,,,,,,,,,,
13.09.11.688,-68.8,17.2,0,,,20128.8,49.68,-0.77,0.53,-0.19,20.7,-0.9,-12.0,35.58,,,,,,,,,,
13.09.11.698,-31.0,7.8,0,,,20128.8,49.68,-0.93,0.24,-0.3,8.7,-2.5,3.9,35.72,,,,,,,,,,
13.09.11.706,-77.8,19.4,0,,,20128.8,49.68,-0.72,0.37,-0.74,-14.3,8.8,2.7,35.65,,,,,,,,,,
13.09.11.717,-80.8,20.2,0,,,20128.8,49.68,-0.65,0.22,0.39,-2.3,-3.4,-11.6,35.53,,,,,,,,,,
13.09.11.725,-85.9,21.5,1,28.0,146.0,20128.8,49.68,-0.93,0.32,-0.63,-36.3,0.2,8.5,35.58,,,,,,,,,,
13.09.11.736,-173.3,43.3,0,,,20128.8,49.68,-0.27,1.16,-0.29,-20.9,4.3,-16.2,35.46,,,,,,,,,,
13.09.11.747,-123.6,30.9,0,,,20132.9,49.67,-0.69,0.79,0.21,-10.4,1.0,-14.9,35.49,,,,,,,,,,
13.09.11.757,-179.3,44.8,0,,,20132.9,49.67,-0.59,0.61,-0.11,-9.2,5.9,-12.6,35.55,,,,,,,,,,
13.09.11.765,-155.7,38.9,0,,,20132.9,49.67,-0.73,0.83,0.25,-13.0,-13.5,2.8,35.56,,,,,,,,,,
13.09.11.772,-227.9,57.0,0,,,20132.9,49.67,-0.51,0.45,-0.06,10.6,22.0,14.8,35.54,,,,,,,,,,
13.09.11.781,-180.6,45.2,0,,,20132.9,49.67,-0.06,0.81,-0.26,2.2,5.1,4.7,35.75,,,,,,,,,,
13.09.11.791,-184.8,46.2,0,,,20132.9,49.67,-0.12,0.82,0.55,-1.5,20.3,12.8,35.46,,,,,,,,,,
13.09.11.801,-231.7,57.9,0,,,20132.9,49.67,-0.33,0.38,0.9,5.1,6.0,-11.2,35.79,,,,,,,,,,
13.09.11.810,-169.4,42.4,0,,,20136.9,49.66,-0.28,0.2,1.37,2.0,-7.4,-3.3,35.49,,,,,,,,,,
13.09.11.822,58.3,14.6,0,,,20136.9,49.66,-0.05,0.94,0.88,9.9,26.9,0.8,35.64,,,,,,,,,,
13.09.11.831,148.8,37.2,0,,,20136.9,49.66,0.06,0.64,0.8,1.7,11.0,3.9,35.83,,,,,,,,,,
13.09.11.840,206.2,51.6,0,,,20136.9,49.66,-0.38,0.42,1.08,18.6,4.8,8.0,35.76,,,,,,,,,,
13.09.11.851,259.4,64.8,0,,,20136.9,49.66,-0.24,0.58,1.75,-15.6,9.8,-8.8,35.68,,,,,,,,,,
13.09.11.859,350.2,87.6,0,,,20136.9,49.66,-0.37,0.33,0.87,15.7,7.0,1.5,35.82,,,,,,,,,,
13.09.11.868,358.6,89.6,0,,,20136.9,49.66,-0.17,0.41,1.24,-16.8,4.0,-1.3,35.62,,,,,,,,,,
13.09.11.879,417.6,104.4,0,,,20141.0,49.65,-0.17,0.78,0.34,26.3,-2.6,-7.5,35.31,,,,,,,,,,
13.09.11.888,538.6,134.6,0,,,20141.0,49.65,-0.04,0.78,-0.03,-4.5,-0.6,7.5,35.79,,,,,,,,,,
13.09.11.897,488.9,122.2,0,,,20141.0,49.65,-0.36,0.14,1.06,-2.7,13.5,2.1,35.54,,,,,,,,,,
13.09.11.906,500.7,125.2,0,,,20141.0,49.65,-0.6,-0.53,0.55,11.2,-7.5,-4.4,35.24,,,,,,,,,,
13.09.11.916,475.3,118.8,0,,,20141.0,49.65,-0.61,-0.59,0.77,-17.0,-12.0,7.8,35.61,,,,,,,,,,
13.09.11.925,483.0,120.8,0,,,20141.0,49.65,-0.45,0.3,0.84,5.9,7.8,-2.8,35.7,,,,,,,,,,
13.09.11.935,421.9,105.5,0,,,20141.0,49.65,-0.42,0.53,0.22,6.0,5.0,1.6,35.47,,,,,,,,,,
13.09.11.946,426.2,106.6,0,,,20145.0,49.64,-0.61,-0.32,0.22,15.0,-9.3,-32.0,35.61,,,,,,,,,,
13.09.11.956,390.5,97.6,0,,,20145.0,49.64,-0.44,0.25,-0.19,11.0,9.6,-10.4,35.44,,,,,,,,,,
13.09.11.964,311.0,77.8,0,,,20145.0,49.64,-0.26,0.09,0.68,-6.6,11.5,-3.8,35.54,,,,,,,,,,
13.09.11.975,189.5,47.4,0,,,20145.0,49.64,-0.81,0.61,0.28,-14.3,-4.6,15.5,35.7,,,,,,,,,,
13.09.11.984,151.0,37.8,0,,,20145.0,49.64,-0.3,-0.02,0.48,-3.9,-5.8,-25.9,35.63,,,,,,,,,,
13.09.11.993,89.2,22.3,0,,,20145.0,49.64,-1.01,0.61,-0.24,38.5,-9.0,-15.7,35.49,,,,,,,,,,
13.09.12.003,8.7,2.2,0,,,20149.1,49.63,-0.96,0.86,-0.55,9.3,-7.2,5.4,35.81,,,,,,,,,,
13.09.12.012,38.4,9.6,0,,,20149.1,49.63,-0.77,0.66,-0.32,-6.7,-2.6,3.3,35.9,,,,,,,,,,
13.09.12.023,14.2,3.6,0,,,20149.1,49.63,-0.98,0.19,-0.92,-20.3,10.5,-1.7,35.58,,,,,,,,,,
13.09.12.032,91.9,23.0,0,,,20149.1,49.63,-0.93,0.35,-0.51,23.2,-2.0,-11.6,35.54,,,,,,,,,,
13.09.12.041,141.6,35.4,0,,,20149.1,49.63,-0.61,0.48,0.31,-10.5,9.3,4.5,35.28,,,,,,,,,,
13.09.12.050,121.5,30.4,0,,,20149.1,49.63,-0.74,0.41,0.27,15.2,-20.4,0.2,35.52,,,,,,,,,,
13.09.12.060,147.4,36.8,0,,,20153.2,49.62,-1.46,0.35,0.41,0.0,5.2,0.5,35.56,,,,,,,,,,
13.09.12.069,73.0,18.2,0,,,20153.2,49.62,-0.53,0.69,-0.03,-15.0,33.0,2.3,35.57,,,,,,,,,,
13.09.12.076,68.1,17.0,0,,,20153.2,49.62,-0.19,0.62,1.06,-2.0,-6.7,-0.6,35.74,,,,,,,,,,
13.09.12.084,-7.5,1.9,0,,,20153.2,49.62,-0.45,0.69,0.02,-32.9,12.2,20.5,35.5,,,,,,,,,,
13.09.12.095,53.3,13.3,0,,,20153.2,49.62,-0.79,0.53,0.63,-23.8,-25.6,-0.9,35.37,,,,,,,,,,
13.09.12.108,-64.4,16.1,0,,,20157.2,49.61,-0.95,0.7,-0.22,-9.5,-4.3,-5.5,35.61,,,,,,,,,,
13.09.12.118,8.9,2.2,0,,,20157.2,49.61,-0.35,0.67,-0.02,5.0,7.8,14.8,35.27,,,,,,,,,,
13.09.12.129,-24.2,6.0,0,,,20157.2,49.61,-0.62,0.64,0.38,-8.2,-3.0,-12.6,35.74,,,,,,,,,,
13.09.12.140,-61.1,15.3,0,,,20157.2,49.61,-0.54,0.48,-0.06,-18.0,3.0,1.5,35.48,,,,,,,,,,
13.09.12.147,-11.0,2.8,0,,,20157.2,49.61,-0.34,1.02,1.18,-14.3,-3.1,11.1,35.48,,,,,,,,,,
13.09.12.156,-73.7,18.4,0,,,20161.3,49.6,-0.11,0.68,-0.16,-51.3,18.2,-14.0,35.43,,,,,,,,,,
13.09.12.166,-72.2,18.0,0,,,20161.3,49.6,0.15,0.11,1.53,-30.9,-6.7,14.7,35.26,,,,,,,,,,
13.09.12.177,-40.5,10.1,1,29.0,132.7,20161.3,49.6,-0.32,0.02,1.26,2.9,18.1,-4.5,35.42,,,,,,,,,,
13.09.12.187,-89.8,22.4,0,,,20161.3,49.6,0.03,0.22,1.65,39.6,3.1,-6.2,35.49,,,,,,,,,,
13.09.12.196,-25.1,6.3,0,,,20161.3,49.6,-0.34,0.41,1.29,11.3,11.0,-24.0,35.76,,,,,,,,,,
13.09.12.206,-96.5,24.1,0,,,20165.4,49.59,-0.45,0.09,0.51,-21.3,-1.3,-5.9,35.29,,,,,,,,,,
13.09.12.218,-101.3,25.3,0,,,20165.4,49.59,-0.54,0.39,0.55,-4.2,1.5,18.0,35.74,,,,,,,,,,
13.09.12.227,-100.1,25.0,0,,,20165.4,49.59,-0.21,-0.09,1.77,0.2,-23.8,20.0,35.53,,,,,,,,,,
13.09.12.235,-145.3,36.3,0,,,20165.4,49.59,-0.16,0.0,0.62,10.0,4.0,3.1,35.37,,,,,,,,,,
13.09.12.246,-115.1,28.8,0,,,20165.4,49.59,-0.4,0.3,1.2,12.2,21.3,1.4,35.52,,,,,,,,,,
13.09.12.254,-111.5,27.9,0,,,20169.4,49.58,-0.47,-0.17,0.06,29.3,-13.6,3.9,35.75,,,,,,,,,,
13.09.12.262,-109.8,27.4,0,,,20169.4,49.58,-0.4,0.13,0.65,-8.5,-7.5,1.2,35.52,,,,,,,,,,
13.09.12.272,-121.2,30.3,0,,,20169.4,49.58,-1.1,0.56,0.18,-7.1,14.1,12.2,35.63,,,,,,,,,,
13.09.12.281,-176.0,44.0,0,,,20169.4,49.58,-0.86,-0.07,0.41,-19.6,-4.8,-8.5,35.62,,,,,,,,,,
13.09.12.292,-174.9,43.7,0,,,20169.4,49.58,-0.98,-0.26,0.78,4.5,12.1,1.6,35.42,,,,,,,,,,
13.09.12.299,-183.2,45.8,0,,,20173.5,49.57,-1.16,-0.38,0.03,2.3,10.5,-7.1,35.64,,,,,,,,,,
13.09.12.310,-125.3,31.3,0,,,20173.5,49.57,-0.4,0.24,-0.9,5.0,3.7,-3.7,35.4,,,,,,,,,,
13.09.12.319,-165.4,41.4,0,,,20173.5,49.57,-0.68,0.01,0.93,-8.7,26.9,-4.6,35.3,,,,,,,,,,
13.09.12.328,-172.0,43.0,0,,,20173.5,49.57,-0.5,0.47,-0.06,8.4,-10.5,-2.5,35.46,,,,,,,,,,
13.09.12.338,-141.1,35.3,0,,,20173.5,49.57,-0.66,-0.06,-0.17,-14.7,8.1,-5.8,35.47,,,,,,,,,,
13.09.12.347,40.8,10.2,0,,,20177.6,49.56,-0.99,-0.38,-0.59,-0.2,3.8,9.8,35.41,,,,,,,,,,
13.09.12.356,111.3,27.8,0,,,20177.6,49.56,-0.99,-0.36,-0.15,-19.7,-0.9,-0.8,35.57,,,,,,,,,,
13.09.12.366,226.3,56.6,0,,,20177.6,49.56,-0.57,0.15,0.09,-14.9,3.9,-5.3,35.6,,,,,,,,,,
13.09.12.374,177.8,44.4,0,,,20177.6,49.56,-0.52,0.58,-0.79,10.9,13.6,-19.9,35.64,,,,,,,,,,
13.09.12.384,257.3,64.3,0,,,20177.6,49.56,-0.99,0.84,-0.47,8.4,25.7,1.7,35.5,,,,,,,,,,
13.09.12.393,373.6,93.4,0,,,20177.6,49.56,-0.45,0.7,0.29,28.7,-0.1,-0.2,35.35,,,,,,,,,,
13.09.12.404,395.6,98.9,0,,,20181.6,49.55,-0.98,0.75,-0.51,-1.6,5.6,9.1,35.47,,,,,,,,,,
13.09.12.413,506.3,126.6,0,,,20181.6,49.55,-0.49,0.23,-0.33,10.9,2.0,4.5,35.37,,,,,,,,,,
13.09.12.422,378.1,94.5,0,,,20181.6,49.55,-0.68,0.97,0.23,-3.7,-9.0,-9.3,35.78,,,,,,,,,,
13.09.12.432,500.1,125.0,0,,,20181.6,49.55,-0.55,0.35,-0.34,-12.0,-6.5,5.6,35.63,,,,,,,,,,
13.09.12.443,429.8,107.4,0,,,20181.6,49.55,-0.35,0.42,0.21,19.1,20.8,16.7,35.57,,,,,,,,,,
13.09.12.452,509.2,127.3,0,,,20185.7,49.54,-0.11,0.16,0.17,-1.0,19.4,-7.0,35.53,,,,,,,,,,
13.09.12.460,441.9,110.5,0,,,20185.7,49.54,-0.37,1.18,0.17,13.7,10.7,-11.9,35.43,,,,,,,,,,
13.09.12.471,346.3,86.6,0,,,20185.7,49.54,-0.11,0.69,0.34,15.7,19.6,8.1,35.49,,,,,,,,,,
13.09.12.480,334.9,83.7,0,,,20185.7,49.54,-0.22,0.95,0.96,6.6,10.7,-10.5,35.47,,,,,,,,,,
13.09.12.488,329.0,82.2,0,,,20185.7,49.54,-0.54,0.16,0.65,-1.5,16.3,-2.4,35.21,,,,,,,,,,
13.09.12.498,184.2,46.0,0,,,20189.8,49.53,-0.46,0.44,0.61,15.2,-20.5,12.9,35.66,,,,,,,,,,
13.09.12.508,137.1,34.3,0,,,20189.8,49.53,-0.05,0.0,0.83,3.0,5.4,0.7,35.64,,,,,,,,,,
13.09.12.516,76.3,19.1,0,,,20189.8,49.53,-0.44,0.12,0.49,-2.4,9.8,6.0,35.38,,,,,,,,,,
13.09.12.526,66.6,16.6,0,,,20189.8,49.53,0.1,0.65,0.7,-22.9,-3.9,0.0,35.57,,,,,,,,,,
13.09.12.534,11.5,2.9,0,,,20189.8,49.53,-1.19,0.63,1.04,-16.4,11.4,9.4,35.5,,,,,,,,,,
13.09.12.544,81.6,20.4,0,,,20193.9,49.52,-0.01,0.38,0.82,-9.8,0.2,-9.6,35.22,,,,,,,,,,
13.09.12.553,33.9,8.5,0,,,20193.9,49.52,-0.5,-0.22,0.2,0.2,28.8,-6.2,35.48,,,,,,,,,,
13.09.12.562,77.7,19.4,0,,,20193.9,49.52,-0.32,-0.35,1.21,-4.1,10.9,-16.2,35.68,,,,,,,,,,
13.09.12.571,89.0,22.2,0,,,20193.9,49.52,-0.15,0.18,1.29,5.0,16.0,9.8,35.72,,,,,,,,,,
13.09.12.583,68.8,17.2,0,,,20193.9,49.52,-0.17,0.21,0.68,11.3,12.6,21.0,35.42,,,,,,,,,,
13.09.12.594,38.7,9.7,0,,,20197.9,49.51,-0.02,0.33,-0.0,-16.1,3.8,-9.2,35.32,,,,,,,,,,
13.09.12.603,54.7,13.7,0,,,20197.9,49.51,-0.17,0.32,0.8,-26.7,6.2,0.1,35.35,,,,,,,,,,
13.09.12.613,127.7,31.9,1,30.0,137.6,20197.9,49.51,-0.57,0.42,0.24,8.9,18.0,-12.6,35.83,,,,,,,,,,
13.09.12.623,-4.4,1.1,0,,,20197.9,49.51,-1.0,-0.68,0.35,-25.4,13.8,-10.9,35.39,,,,,,,,,,
13.09.12.633,59.3,14.8,0,,,20197.9,49.51,-0.37,0.31,-1.01,3.5,-0.7,-6.7,35.48,,,,,,,,,,
13.09.12.645,-12.0,3.0,0,,,20202.0,49.5,-0.55,0.51,0.82,22.6,-15.5,25.2,35.64,,,,,,,,,,
13.09.12.654,-59.2,14.8,0,,,20202.0,49.5,-0.73,0.34,-0.06,-23.8,2.4,-1.0,35.51,,,,,,,,,,
13.09.12.664,-2.0,0.5,0,,,20202.0,49.5,-0.83,0.66,0.28,14.8,-8.8,-5.5,35.45,,,,,,,,,,
13.09.12.674,-25.4,6.4,0,,,20202.0,49.5,-0.94,0.29,0.06,6.7,8.4,-5.0,35.54,,,,,,,,,,
13.09.12.683,13.4,3.4,0,,,20202.0,49.5,-0.73,0.46,-0.56,13.0,6.4,8.7,35.51,,,,,,,,,,
13.09.12.695,12.0,3.0,0,,,20206.1,49.49,-0.86,0.08,0.04,-19.6,-4.3,14.7,35.42,,,,,,,,,,
13.09.12.703,-71.9,18.0,0,,,20206.1,49.49,-0.89,-0.1,-0.68,-9.4,2.6,8.6,35.8,,,,,,,,,,
13.09.12.715,-75.6,18.9,0,,,20206.1,49.49,-0.59,0.48,-0.25,18.6,15.2,-24.5,35.39,,,,,,,,,,
13.09.12.724,-57.0,14.2,0,,,20206.1,49.49,-0.61,0.24,-1.14,5.0,-4.3,12.0,35.41,,,,,,,,,,
13.09.12.734,-89.2,22.3,0,,,20206.1,49.49,-0.94,1.26,-0.18,-4.7,-0.3,-21.1,35.46,,,,,,,,,,
13.09.12.744,-108.8,27.2,0,,,20210.2,49.48,-0.45,0.82,0.33,28.4,-8.8,-13.8,35.54,,,,,,,,,,
13.09.12.754,-86.1,21.5,0,,,20210.2,49.48,-0.67,0.79,-0.39,-4.2,-8.1,-10.2,35.72,,,,,,,,,,
13.09.12.763,-115.8,29.0,0,,,20210.2,49.48,-0.52,0.82,-0.09,-11.6,10.3,-0.8,35.41,,,,,,,,,,
13.09.12.773,-140.1,35.0,0,,,20210.2,49.48,-0.74,0.72,0.4,-3.4,6.6,-0.4,35.44,,,,,,,,,,
13.09.12.782,-155.4,38.8,0,,,20210.2,49.48,-0.71,0.39,0.12,37.2,21.3,19.0,35.62,,,,,,,,,,
13.09.12.791,-145.0,36.2,0,,,20214.3,49.47,-0.52,1.05,0.55,10.4,16.3,1.3,35.58,,,,,,,,,,
13.09.12.800,-121.9,30.5,0,,,20214.3,49.47,-0.35,0.71,0.74,5.9,2.8,4.6,35.45,,,,,,,,,,
13.09.12.810,-145.0,36.2,0,,,20214.3,49.47,-0.61,0.24,0.44,11.0,-3.7,-7.0,35.46,,,,,,,,,,
13.09.12.818,-111.9,28.0,0,,,20214.3,49.47,-0.07,0.31,-0.29,-1.3,33.8,-18.2,35.64,,,,,,,,,,
13.09.12.827,-177.5,44.4,0,,,20214.3,49.47,-0.34,0.91,1.07,-31.6,7.4,-2.8,35.69,,,,,,,,,,
13.09.12.837,-215.1,53.8,0,,,20214.3,49.47,-0.05,0.72,0.87,-19.3,3.5,-13.3,35.32,,,,,,,,,,
13.09.12.846,-176.9,44.2,0,,,20218.4,49.46,-0.5,0.39,1.01,0.4,30.7,4.5,35.42,,,,,,,,,,
13.09.12.855,-162.7,40.7,0,,,20218.4,49.46,-0.55,0.08,1.45,3.4,10.1,12.8,35.67,,,,,,,,,,
13.09.12.864,-171.9,43.0,0,,,20218.4,49.46,-0.28,0.39,0.96,-14.8,-7.9,-11.1,35.43,,,,,,,,,,
13.09.12.874,10.0,2.5,0,,,20218.4,49.46,-0.28,0.52,2.0,23.7,13.2,-0.1,35.43,,,,,,,,,,
13.09.12.885,113.3,28.3,0,,,20218.4,49.46,-0.2,0.3,0.38,-7.9,-2.0,-3.1,35.44,,,,,,,,,,
13.09.12.897,110.4,27.6,0,,,20222.4,49.45,-0.53,0.75,0.09,11.9,15.2,5.2,35.61,,,,,,,,,,
13.09.12.909,286.1,71.5,0,,,20222.4,49.45,-0.83,0.83,1.26,-24.1,8.5,-3.0,35.62,,,,,,,,,,
13.09.12.921,351.7,87.9,0,,,20222.4,49.45,-0.31,0.39,0.49,-3.8,6.5,15.3,35.49,,,,,,,,,,
13.09.12.931,462.5,115.6,0,,,20222.4,49.45,-0.57,-0.11,0.32,-5.0,-8.0,-2.7,35.57,,,,,,,,,,
13.09.12.940,468.8,117.2,0,,,20226.5,49.44,-0.5,0.11,-0.19,-3.3,18.7,-2.1,35.76,,,,,,,,,,
13.09.12.950,517.5,129.4,0,,,20226.5,49.44,-0.45,0.21,0.12,-13.2,3.2,0.0,35.63,,,,,,,,,,
13.09.12.957,406.9,101.7,1,31.0,174.4,20226.5,49.44,-0.41,-0.02,0.61,14.2,-19.6,2.9,35.53,,,,,,,,,,
13.09.12.967,453.6,113.4,0,,,20226.5,49.44,-0.7,0.08,0.78,3.1,-15.2,-5.7,35.39,,,,,,,,,,
13.09.12.978,452.2,113.0,0,,,20226.5,49.44,-0.53,-0.08,0.44,26.6,13.4,-28.0,35.05,,,,,,,,,,
13.09.12.986,542.5,135.6,0,,,20226.5,49.44,-0.6,-0.02,-0.17,9.6,0.4,9.1,35.45,,,,,,,,,,
13.09.12.997,357.0,89.2,0,,,20230.6,49.43,-0.33,-0.21,0.16,-3.2,45.5,-5.0,35.66,,,,,,,,,,
13.09.13.008,399.7,99.9,0,,,20230.6,49.43,-0.67,0.14,0.42,5.6,-3.9,-12.4,35.74,,,,,,,,,,
13.09.13.018,292.1,73.0,0,,,20230.6,49.43,-0.75,0.15,-0.05,6.9,8.7,9.4,35.54,,,,,,,,,,
13.09.13.029,194.7,48.7,0,,,20234.7,49.42,-0.8,-0.09,0.69,-23.7,0.1,4.4,35.62,,,,,,,,,,
13.09.13.037,131.2,32.8,0,,,20234.7,49.42,-0.44,0.32,0.14,14.0,-9.2,-7.3,35.57,,,,,,,,,,
13.09.13.046,84.3,21.1,0,,,20238.8,49.41,-1.32,0.38,0.07,0.5,33.0,-3.0,35.2,,,,,,,,,,
13.09.13.059,7.7,1.9,0,,,20238.8,49.41,-0.51,0.47,-0.24,-2.5,26.6,-2.8,35.34,,,,,,,,,,
