timestamp,ppg,threshold,beat,beat_count,inst_bpm,gsr_resistance_ohm,gsr_conductance_us,accel_x,accel_y,accel_z,gyro_x,gyro_y,gyro_z,temp_c,window_bpm,window_temp_c,status_message,SpO2,bmi,age,height,weight,env_temp_c,env_humidity_pct
15.32.00.483,0.0,0.0,0,,,67708.3,14.77,0.23,0.72,0.63,1.0,5.5,-1.2,36.75,119.4,,,,17.9,21.0,160.02,45.76,31.44,45.0
15.32.00.491,59.0,14.8,0,,,67400.9,14.84,0.23,0.72,0.62,1.1,5.1,-1.1,36.75,,,,,,,,,,
15.32.00.504,162.8,40.7,0,,,62910.4,15.9,0.24,0.73,0.62,1.1,6.3,-1.5,36.75,,,,,,,,,,
15.32.00.516,202.0,50.5,0,,,67762.1,14.76,0.23,0.74,0.61,1.9,6.8,-2.2,36.75,,,,,,,,,,
15.32.00.524,279.5,69.9,0,,,63938.4,15.64,0.22,0.74,0.62,1.2,6.1,-1.6,36.75,,,,,,,,,,
15.32.00.540,343.0,85.8,0,,,64797.7,15.43,0.23,0.74,0.62,0.4,5.0,-1.8,36.75,,,,,,,,,,
15.32.00.577,421.3,105.3,0,,,63140.9,15.84,0.22,0.75,0.63,0.3,5.7,-1.6,36.75,,,,,,,,,,
15.32.00.585,399.9,100.0,0,,,67545.9,14.8,0.23,0.74,0.64,-0.1,5.1,-0.8,36.75,,,,,,,,,,
15.32.00.598,321.8,80.4,0,,,64027.4,15.62,0.23,0.72,0.63,0.3,6.7,-1.4,36.75,,,,,,,,,,
15.32.00.606,317.2,79.3,0,,,63829.1,15.67,0.22,0.73,0.63,0.2,6.7,-1.3,36.75,,,,,,,,,,
15.32.00.618,279.6,69.9,0,,,66756.1,14.98,0.22,0.73,0.62,0.6,5.0,-1.1,36.75,,,,,,,,,,
15.32.00.627,243.0,60.8,0,,,67675.4,14.78,0.23,0.73,0.63,0.4,5.2,-1.2,36.75,,,,,,,,,,
15.32.00.639,134.9,33.7,0,,,64867.1,15.42,0.23,0.73,0.62,1.0,6.5,-1.5,36.75,,,,,,,,,,
15.32.00.647,73.0,18.2,0,,,62259.2,16.06,0.23,0.74,0.62,0.6,6.2,-1.0,36.75,,,,,,,,,,
15.32.00.655,14.4,3.6,0,,,67239.3,14.87,0.23,0.74,0.62,0.7,5.3,-1.4,36.75,,,,,,,,,,
15.32.00.667,-9.0,2.2,0,,,63139.2,15.84,0.22,0.73,0.63,0.2,5.6,-1.6,36.75,,,,,,,,,,
15.32.00.680,44.6,11.2,0,,,64107.7,15.6,0.22,0.73,0.63,0.3,6.8,-1.4,36.75,,,,,,,,,,
15.32.00.692,61.7,15.4,0,,,64434.0,15.52,0.22,0.73,0.62,0.5,6.0,-1.4,36.75,,,,,,,,,,
15.32.00.700,50.3,12.6,0,,,64000.9,15.62,0.22,0.73,0.62,0.3,4.8,-0.7,36.75,,,,,,,,,,
15.32.00.712,80.8,20.2,0,,,64312.3,15.55,0.23,0.73,0.63,0.3,5.1,-0.8,36.75,,,,,,,,,,
15.32.00.725,74.9,18.7,0,,,65770.6,15.2,0.23,0.73,0.63,0.5,5.5,-1.0,36.75,,,,,,,,,,
15.32.00.733,88.6,22.2,0,,,63711.6,15.7,0.23,0.73,0.63,1.1,6.5,-1.2,36.75,,,,,,,,,,
15.32.00.745,50.5,12.6,0,,,63623.6,15.72,0.22,0.73,0.64,0.8,5.8,-1.3,36.75,,,,,,,,,,
15.32.00.758,3.1,0.8,0,,,65293.2,15.32,0.23,0.74,0.63,0.2,5.8,-1.2,36.75,,,,,,,,,,
15.32.00.766,18.4,4.6,0,,,66750.1,14.98,0.22,0.73,0.63,0.3,6.4,-1.0,36.75,,,,,,,,,,
15.32.00.778,-23.6,5.9,0,,,64327.9,15.55,0.23,0.73,0.63,0.4,5.8,-0.8,36.75,,,,,,,,,,
15.32.00.790,4.1,1.0,0,,,64256.8,15.56,0.23,0.74,0.63,0.4,5.4,-0.2,36.75,,,,,,,,,,
15.32.00.798,-4.1,1.0,0,,,66653.9,15.0,0.23,0.73,0.62,0.4,5.5,-0.3,36.75,,,,,,,,,,
15.32.00.811,-45.7,11.4,0,,,64807.5,15.43,0.23,0.74,0.63,0.5,5.7,-0.4,36.75,,,,,,,,,,
15.32.00.823,-50.9,12.7,0,,,62907.0,15.9,0.23,0.73,0.63,0.2,5.3,-0.3,36.75,,,,,,,,,,
15.32.00.831,-51.6,12.9,0,,,61044.5,16.38,0.23,0.74,0.64,-0.5,5.3,-0.5,36.75,,,,,,,,,,
15.32.00.844,-49.1,12.3,0,,,62912.9,15.89,0.22,0.72,0.63,-0.1,6.0,-0.7,36.75,,,,,,,,,,
15.32.00.856,-100.1,25.0,0,,,63057.7,15.86,0.22,0.72,0.63,0.2,5.7,-1.2,36.75,,,,,,,,,,
15.32.00.864,-61.3,15.3,0,,,63123.8,15.84,0.22,0.72,0.63,0.2,5.9,-0.7,36.75,,,,,,,,,,
15.32.00.876,-60.8,15.2,0,,,64361.6,15.54,0.23,0.73,0.62,0.7,6.5,-0.8,36.75,,,,,,,,,,
15.32.00.889,-87.3,21.8,0,,,59667.7,16.76,0.23,0.73,0.62,0.8,6.1,-0.5,36.75,,,,,,,,,,
15.32.00.897,-88.0,22.0,0,,,65313.2,15.31,0.23,0.74,0.63,0.7,5.2,-0.8,36.75,,,,,,,,,,
15.32.00.909,-95.8,24.0,0,,,63705.2,15.7,0.22,0.72,0.62,0.1,5.7,-1.3,36.75,,,,,,,,,,
15.32.00.921,-110.0,27.5,0,,,66044.1,15.14,0.22,0.73,0.63,-0.4,5.5,-1.3,36.75,,,,,,,,,,
15.32.00.930,-125.5,31.4,0,,,66915.5,14.94,0.23,0.73,0.63,-0.4,6.2,-1.6,36.75,,,,,,,,,,
15.32.00.942,-121.5,30.4,0,,,62488.2,16.0,0.22,0.73,0.63,-0.4,6.7,-1.7,36.75,,,,,,,,,,
15.32.00.954,-163.2,40.8,0,,,63229.2,15.82,0.23,0.72,0.63,0.0,6.3,-1.3,36.75,,,,,,,,,,
15.32.00.966,-174.1,43.5,0,,,64917.5,15.4,0.23,0.73,0.63,-0.1,5.4,-1.0,36.75,,,,,,,,,,
15.32.00.975,-150.0,37.5,0,,,64390.9,15.53,0.23,0.73,0.63,0.6,5.1,-1.0,36.75,,,,,,,,,,
15.32.00.987,16.6,4.2,1,1.0,124.9,62173.2,16.08,0.23,0.73,0.63,0.6,5.5,-1.4,36.75,,,,,,,,,,
15.32.00.999,100.0,25.0,0,1.0,,63882.5,15.65,0.23,0.74,0.63,0.5,6.2,-1.1,36.75,,,,,,,,,,
15.32.01.007,161.5,40.4,0,1.0,,65111.2,15.36,0.23,0.74,0.62,0.5,6.2,-1.4,36.75,,,,,,,,,,
15.32.01.024,248.2,62.0,0,1.0,,61958.7,16.14,0.23,0.74,0.63,-0.3,6.3,-1.6,36.75,,,,,,,,,,
15.32.01.032,282.8,70.7,0,1.0,,61638.3,16.22,0.23,0.74,0.62,-0.3,6.6,-1.3,36.75,,,,,,,,,,
15.32.01.044,379.4,94.8,0,1.0,,61529.3,16.25,0.23,0.73,0.62,-0.1,6.0,-1.4,36.75,,,,,,,,,,
15.32.01.053,418.7,104.7,0,1.0,,60391.4,16.56,0.23,0.73,0.63,-0.1,6.1,-1.3,36.75,,,,,,,,,,
15.32.01.065,380.6,95.2,0,1.0,,63185.0,15.83,0.23,0.73,0.63,-0.1,5.4,-1.5,36.75,,,,,,,,,,
15.32.01.073,389.7,97.4,0,1.0,,64966.9,15.39,0.23,0.73,0.63,0.3,5.5,-1.2,36.75,,,,,,,,,,
15.32.01.086,426.6,106.6,0,1.0,,64276.9,15.56,0.23,0.73,0.64,0.8,6.1,-1.5,36.75,,,,,,,,,,
15.32.01.093,397.8,99.4,0,1.0,,59749.1,16.74,0.23,0.73,0.63,1.4,6.2,-1.3,36.75,,,,,,,,,,
15.32.01.106,366.8,91.7,0,1.0,,60251.7,16.6,0.23,0.73,0.63,1.2,6.4,-1.2,36.75,,,,,,,,,,
15.32.01.114,318.2,79.6,0,1.0,,61541.1,16.25,0.22,0.73,0.63,0.5,5.7,-1.3,36.75,,,,,,,,,,
15.32.01.122,269.2,67.3,0,1.0,,63535.5,15.74,0.23,0.73,0.63,0.1,4.9,-1.0,36.75,,,,,,,,,,
15.32.01.134,183.1,45.8,0,1.0,,62151.4,16.09,0.23,0.73,0.63,0.4,5.8,-1.1,36.75,,,,,,,,,,
15.32.01.143,140.2,35.0,0,1.0,,60151.3,16.62,0.22,0.73,0.63,0.5,6.3,-1.1,36.75,,,,,,,,,,
15.32.01.155,35.5,8.9,0,1.0,,61795.8,16.18,0.22,0.73,0.63,-0.2,5.6,-0.8,36.75,,,,,,,,,,
15.32.01.163,3.7,0.9,0,1.0,,62874.3,15.9,0.23,0.73,0.62,0.7,4.6,-1.1,36.75,,,,,,,,,,
15.32.01.175,34.2,8.6,0,1.0,,63796.4,15.67,0.23,0.74,0.63,0.1,5.4,-1.1,36.75,,,,,,,,,,
15.32.01.184,62.9,15.7,0,1.0,,59117.7,16.92,0.24,0.74,0.63,0.2,5.9,-0.8,36.75,,,,,,,,,,
15.32.01.196,72.1,18.0,0,1.0,,66244.1,15.1,0.23,0.73,0.63,0.3,6.2,-0.9,36.75,,,,,,,,,,
15.32.01.204,73.5,18.4,0,1.0,,61989.3,16.13,0.23,0.74,0.63,0.5,5.6,-0.8,36.75,,,,,,,,,,
15.32.01.216,57.5,14.4,0,1.0,,66937.7,14.94,0.23,0.73,0.63,0.1,5.3,-1.0,36.75,,,,,,,,,,
15.32.01.229,58.0,14.5,0,1.0,,66306.0,15.08,0.23,0.73,0.63,-0.3,5.8,-0.5,36.75,,,,,,,,,,
15.32.01.237,57.8,14.4,0,1.0,,61745.3,16.2,0.23,0.73,0.63,0.2,5.2,-0.5,36.75,,,,,,,,,,
15.32.01.249,27.0,6.8,0,1.0,,65837.2,15.19,0.23,0.72,0.64,0.5,4.9,-0.7,36.75,,,,,,,,,,
15.32.01.261,28.3,7.1,0,1.0,,65695.3,15.22,0.22,0.72,0.64,0.5,5.8,-1.0,36.75,,,,,,,,,,
15.32.01.270,4.1,1.0,0,1.0,,62875.7,15.9,0.23,0.74,0.64,0.4,5.1,-0.4,36.75,,,,,,,,,,
15.32.01.282,-22.4,5.6,0,1.0,,64523.7,15.5,0.24,0.73,0.62,0.4,6.7,-1.0,36.75,,,,,,,,,,
15.32.01.294,-3.5,0.9,0,1.0,,65091.9,15.36,0.23,0.73,0.63,1.2,5.8,-1.6,36.75,,,,,,,,,,
15.32.01.302,-75.5,18.9,0,1.0,,65161.2,15.35,0.23,0.73,0.63,0.2,5.4,-1.2,36.75,,,,,,,,,,
15.32.01.315,-64.3,16.1,0,1.0,,62261.9,16.06,0.23,0.72,0.63,0.4,6.1,-1.4,36.75,,,,,,,,,,
15.32.01.327,-48.4,12.1,0,1.0,,65891.4,15.18,0.23,0.73,0.62,0.7,5.6,-1.4,36.75,,,,,,,,,,
15.32.01.335,-46.4,11.6,0,1.0,,64316.4,15.55,0.23,0.73,0.63,1.0,5.8,-1.0,36.75,,,,,,,,,,
15.32.01.376,-74.0,18.5,0,1.0,,64090.9,15.6,0.23,0.72,0.64,0.6,5.7,-1.5,36.75,,,,,,,,,,
15.32.01.384,-92.7,23.2,0,1.0,,56526.4,17.69,0.23,0.73,0.63,0.3,6.2,-1.5,36.75,,,,,,,,,,
15.32.01.397,-111.6,27.9,0,1.0,,68002.0,14.71,0.23,0.73,0.63,0.5,5.7,-1.4,36.75,,,,,,,,,,
15.32.01.405,-131.0,32.8,0,1.0,,60830.5,16.44,0.23,0.73,0.63,0.9,6.1,-1.5,36.75,,,,,,,,,,
15.32.01.417,-108.8,27.2,0,1.0,,65671.6,15.23,0.23,0.73,0.63,1.1,5.9,-1.4,36.75,,,,,,,,,,
15.32.01.425,-114.6,28.6,0,1.0,,65690.7,15.22,0.23,0.72,0.62,1.0,5.5,-1.8,36.75,,,,,,,,,,
15.32.01.438,-134.5,33.6,0,1.0,,63532.5,15.74,0.23,0.74,0.63,0.5,5.7,-1.5,36.75,,,,,,,,,,
15.32.01.446,-140.8,35.2,0,1.0,,64211.1,15.57,0.23,0.73,0.63,1.0,5.6,-1.5,36.75,,,,,,,,,,
15.32.01.458,-139.1,34.8,0,1.0,,62510.2,16.0,0.23,0.74,0.62,0.4,6.0,-1.4,36.75,,,,,,,,,,
15.32.01.466,-154.9,38.7,0,1.0,,64641.2,15.47,0.23,0.74,0.63,-0.7,5.6,-1.1,36.75,,,,,,,,,,
15.32.01.479,-138.5,34.6,0,1.0,,64057.0,15.61,0.23,0.73,0.63,-0.5,6.4,-0.6,36.75,,,,,,,,,,
15.32.01.487,-168.9,42.2,0,1.0,,60095.6,16.64,0.23,0.73,0.63,0.1,6.5,-0.9,36.75,,,,,,,,,,
15.32.01.499,87.1,21.8,1,2.0,122.1,63327.9,15.79,0.23,0.72,0.62,0.7,6.2,-1.3,36.75,,,,,,,,,,
15.32.01.511,202.2,50.6,0,2.0,,62488.2,16.0,0.23,0.73,0.62,-0.1,4.4,-0.9,36.75,,,,,,,,,,
15.32.01.520,246.9,61.7,0,2.0,,64328.3,15.55,0.23,0.74,0.63,0.3,4.9,-1.2,36.75,,,,,,,,,,
15.32.01.532,289.0,72.2,0,2.0,,67408.0,14.84,0.23,0.73,0.64,0.6,6.8,-1.4,36.75,,,,,,,,,,
15.32.01.540,364.2,91.0,0,2.0,,65457.1,15.28,0.23,0.73,0.63,0.2,6.3,-1.1,36.75,,,,,,,,,,
15.32.01.553,340.1,85.0,0,2.0,,62360.0,16.04,0.23,0.73,0.64,0.0,6.0,-1.1,36.75,,,,,,,,,,
15.32.01.561,370.3,92.6,0,2.0,,63975.1,15.63,0.23,0.73,0.63,-0.1,6.3,-1.4,36.75,,,,,,,,,,
15.32.01.573,399.0,99.8,0,2.0,,59968.7,16.68,0.22,0.72,0.63,0.4,6.3,-1.2,36.75,,,,,,,,,,
15.32.01.581,432.9,108.2,0,2.0,,64863.5,15.42,0.23,0.72,0.63,0.1,5.3,-0.7,36.75,,,,,,,,,,
15.32.01.593,403.4,100.8,0,2.0,,63508.0,15.75,0.23,0.73,0.63,0.3,4.6,-1.1,36.75,,,,,,,,,,
15.32.01.601,335.7,83.9,0,2.0,,59971.7,16.67,0.23,0.73,0.64,0.4,6.3,-1.5,36.75,,,,,,,,,,
15.32.01.614,319.6,79.9,0,2.0,,69776.2,14.33,0.23,0.73,0.64,-1.0,6.1,-0.9,36.75,,,,,,,,,,
15.32.01.622,271.3,67.8,0,2.0,,67490.8,14.82,0.23,0.73,0.64,-0.3,5.6,-1.0,36.75,,,,,,,,,,
15.32.01.634,208.9,52.2,0,2.0,,61072.6,16.37,0.23,0.73,0.64,0.1,6.5,-1.2,36.75,,,,,,,,,,
15.32.01.642,143.2,35.8,0,2.0,,62900.9,15.9,0.23,0.73,0.63,0.8,6.9,-0.9,36.75,,,,,,,,,,
15.32.01.655,69.3,17.3,0,2.0,,63281.2,15.8,0.22,0.72,0.63,0.9,6.0,-1.5,36.75,,,,,,,,,,
15.32.01.663,-38.9,9.7,0,2.0,,68583.7,14.58,0.23,0.73,0.63,0.1,4.8,-1.5,36.75,,,,,,,,,,
15.32.01.675,57.4,14.4,0,2.0,,64907.6,15.41,0.23,0.73,0.63,0.4,4.6,-1.3,36.75,,,,,,,,,,
15.32.01.683,56.6,14.2,0,2.0,,61561.6,16.24,0.23,0.73,0.63,1.4,5.8,-1.2,36.75,,,,,,,,,,
15.32.01.696,71.2,17.8,0,2.0,,63407.7,15.77,0.23,0.73,0.62,1.4,6.7,-1.6,36.75,,,,,,,,,,
15.32.01.704,47.6,11.9,0,2.0,,64543.5,15.49,0.24,0.74,0.63,1.0,5.6,-1.0,36.75,,,,,,,,,,
15.32.01.716,76.7,19.2,0,2.0,,61326.1,16.31,0.23,0.73,0.63,1.4,5.7,-1.4,36.75,,,,,,,,,,
15.32.01.724,69.2,17.3,0,2.0,,67071.5,14.91,0.23,0.73,0.62,0.8,6.4,-1.1,36.75,,,,,,,,,,
15.32.01.737,26.6,6.6,0,2.0,,63490.5,15.75,0.23,0.73,0.63,0.3,5.8,-1.0,36.75,,,,,,,,,,
15.32.01.745,61.4,15.4,0,2.0,,63772.5,15.68,0.23,0.72,0.63,0.1,4.8,-1.4,36.75,,,,,,,,,,
15.32.01.757,37.6,9.4,0,2.0,,65188.3,15.34,0.24,0.73,0.64,0.0,4.8,-1.2,36.75,,,,,,,,,,
15.32.01.769,40.8,10.2,0,2.0,,60537.2,16.52,0.24,0.73,0.64,0.5,6.0,-1.1,36.75,,,,,,,,,,
15.32.01.778,-10.7,2.7,0,2.0,,59798.4,16.72,0.23,0.73,0.63,1.0,6.5,-0.8,36.75,,,,,,,,,,
15.32.01.790,-4.8,1.2,0,2.0,,64072.4,15.61,0.23,0.74,0.63,1.1,6.1,-0.5,36.75,,,,,,,,,,
15.32.01.798,-32.5,8.1,0,2.0,,63803.6,15.67,0.23,0.73,0.63,1.3,6.5,-1.1,36.75,,,,,,,,,,
15.32.01.810,-51.8,13.0,0,2.0,,64144.4,15.59,0.22,0.74,0.62,1.1,5.8,-1.1,36.75,,,,,,,,,,
15.32.01.819,-36.6,9.2,0,2.0,,63353.5,15.78,0.23,0.73,0.62,0.4,5.0,-0.6,36.75,,,,,,,,,,
15.32.01.831,-47.2,11.8,0,2.0,,64886.2,15.41,0.23,0.73,0.63,0.1,5.1,-0.8,36.75,,,,,,,,,,
15.32.01.839,-40.5,10.1,0,2.0,,61431.5,16.28,0.23,0.73,0.62,0.3,6.4,-1.0,36.75,,,,,,,,,,
15.32.01.851,-49.1,12.3,0,2.0,,64454.5,15.51,0.23,0.73,0.63,-0.2,5.4,-0.9,36.75,,,,,,,,,,
15.32.01.860,-54.6,13.6,0,2.0,,62282.3,16.06,0.24,0.73,0.63,0.0,5.1,-1.0,36.75,,,,,,,,,,
15.32.01.872,-77.1,19.3,0,2.0,,62362.6,16.04,0.23,0.73,0.65,0.7,6.4,-1.2,36.75,,,,,,,,,,
15.32.01.884,-100.6,25.2,0,2.0,,62561.7,15.98,0.23,0.72,0.63,0.8,7.1,-1.6,36.75,,,,,,,,,,
15.32.01.896,-75.4,18.8,0,2.0,,62939.6,15.89,0.23,0.72,0.63,0.6,5.3,-1.0,36.75,,,,,,,,,,
15.32.01.905,-85.1,21.3,0,2.0,,60236.1,16.6,0.23,0.73,0.64,1.1,4.9,-1.0,36.75,,,,,,,,,,
15.32.01.917,-88.6,22.2,0,2.0,,62878.8,15.9,0.23,0.73,0.63,1.4,5.9,-1.2,36.75,,,,,,,,,,
15.32.01.925,-122.0,30.5,0,2.0,,64809.9,15.43,0.23,0.74,0.63,1.7,6.3,-0.8,36.75,,,,,,,,,,
15.32.01.937,-151.2,37.8,0,2.0,,62614.0,15.97,0.23,0.74,0.62,0.7,5.0,-0.8,36.75,,,,,,,,,,
15.32.01.946,-150.1,37.5,0,2.0,,61555.9,16.25,0.23,0.73,0.63,0.4,4.7,-1.1,36.75,,,,,,,,,,
15.32.01.958,-155.6,38.9,0,2.0,,63325.7,15.79,0.23,0.73,0.63,0.7,6.8,-1.2,36.75,,,,,,,,,,
15.32.01.966,-157.3,39.3,0,2.0,,61036.5,16.38,0.23,0.73,0.63,0.6,6.9,-1.1,36.75,,,,,,,,,,
15.32.01.978,-106.1,26.5,0,2.0,,63475.1,15.75,0.23,0.72,0.63,0.4,5.8,-1.4,36.75,,,,,,,,,,
15.32.01.987,-169.1,42.3,0,2.0,,66218.8,15.1,0.23,0.72,0.64,1.1,4.7,-1.5,36.75,,,,,,,,,,
15.32.01.999,39.1,9.8,1,3.0,119.6,65667.8,15.23,0.24,0.72,0.63,0.5,5.2,-0.7,36.75,,,,,,,,,,
15.32.02.007,108.1,27.0,0,3.0,,67444.0,14.83,0.24,0.73,0.63,1.5,7.3,-1.2,36.75,,,,,,,,,,
15.32.02.019,195.3,48.8,0,3.0,,62791.1,15.93,0.23,0.73,0.63,1.0,6.4,-1.5,36.75,,,,,,,,,,
15.32.02.028,263.9,66.0,0,3.0,,63918.6,15.64,0.23,0.72,0.63,1.3,3.7,-1.3,36.75,,,,,,,,,,
15.32.02.040,333.7,83.4,0,3.0,,64104.2,15.6,0.23,0.73,0.63,0.5,4.2,-0.9,36.75,,,,,,,,,,
15.32.02.048,310.6,77.6,0,3.0,,61985.8,16.13,0.23,0.74,0.63,1.1,7.3,-1.0,36.75,,,,,,,,,,
15.32.02.060,378.0,94.5,0,3.0,,60961.8,16.4,0.23,0.73,0.63,0.4,7.2,-1.0,36.75,,,,,,,,,,
15.32.02.069,358.3,89.6,0,3.0,,61995.7,16.13,0.23,0.73,0.62,0.4,4.5,-1.1,36.75,,,,,,,,,,
15.32.02.081,450.4,112.6,0,3.0,,69090.8,14.47,0.23,0.74,0.62,0.3,5.1,-1.2,36.75,,,,,,,,,,
15.32.02.089,370.6,92.6,0,3.0,,66889.4,14.95,0.24,0.73,0.64,1.9,7.6,-1.5,36.75,,,,,,,,,,
15.32.02.101,368.9,92.2,0,3.0,,61429.1,16.28,0.23,0.72,0.63,0.4,6.1,-1.2,36.75,,,,,,,,,,
15.32.02.109,312.6,78.2,0,3.0,,64042.4,15.61,0.23,0.73,0.63,0.4,4.6,-0.8,36.75,,,,,,,,,,
15.32.02.122,282.9,70.7,0,3.0,,63309.3,15.8,0.23,0.73,0.63,1.5,5.7,-1.4,36.75,,,,,,,,,,
15.32.02.130,251.9,63.0,0,3.0,,62417.5,16.02,0.23,0.73,0.63,2.0,7.7,-0.6,36.75,,,,,,,,,,
15.32.02.142,149.8,37.4,0,3.0,,63641.4,15.71,0.23,0.73,0.62,0.9,5.3,-0.6,36.75,,,,,,,,,,
15.32.02.179,23.4,5.8,0,3.0,,64031.9,15.62,0.24,0.74,0.63,0.7,4.2,-0.3,36.81,,,,,,,,,,
15.32.02.187,3.7,0.9,0,3.0,,68904.5,14.51,0.23,0.73,0.63,0.6,6.5,-1.8,36.81,,,,,,,,,,
15.32.02.200,33.6,8.4,0,3.0,,65191.5,15.34,0.22,0.72,0.64,0.1,7.3,-1.4,36.81,,,,,,,,,,
15.32.02.212,63.5,15.9,0,3.0,,65104.7,15.36,0.23,0.72,0.63,0.5,5.0,-0.8,36.81,,,,,,,,,,
15.32.02.220,67.4,16.8,0,3.0,,64657.6,15.47,0.23,0.73,0.63,1.4,5.6,-0.9,36.81,,,,,,,,,,
15.32.02.232,66.2,16.6,0,3.0,,66886.8,14.95,0.23,0.75,0.63,2.1,7.9,0.0,36.81,,,,,,,,,,
15.32.02.241,73.3,18.3,0,3.0,,62478.0,16.01,0.22,0.73,0.62,-0.8,5.4,-0.8,36.81,,,,,,,,,,
15.32.02.253,21.4,5.4,0,3.0,,62724.7,15.94,0.23,0.7,0.63,1.1,1.1,-1.5,36.81,,,,,,,,,,
15.32.02.261,21.3,5.3,0,3.0,,63439.0,15.76,0.24,0.73,0.63,1.0,6.0,-0.5,36.81,,,,,,,,,,
15.32.02.273,12.8,3.2,0,3.0,,66291.6,15.08,0.24,0.76,0.61,3.9,11.8,-0.7,36.81,,,,,,,,,,
15.32.02.282,-3.6,0.9,0,3.0,,63230.7,15.82,0.24,0.74,0.59,0.6,6.5,-1.1,36.81,,,,,,,,,,
15.32.02.294,-16.5,4.1,0,3.0,,60791.0,16.45,0.23,0.72,0.63,-2.6,-2.2,-1.5,36.81,,,,,,,,,,
15.32.02.302,-21.6,5.4,0,3.0,,64710.4,15.45,0.23,0.72,0.65,-1.4,1.5,-1.3,36.81,,,,,,,,,,
15.32.02.314,-29.7,7.4,0,3.0,,65733.3,15.21,0.24,0.73,0.64,3.0,13.5,-1.5,36.81,,,,,,,,,,
15.32.02.323,-35.8,9.0,0,3.0,,60974.5,16.4,0.23,0.74,0.6,3.9,13.6,-1.8,36.81,,,,,,,,,,
15.32.02.335,-20.1,5.0,0,3.0,,64980.9,15.39,0.22,0.74,0.61,1.4,2.9,-1.8,36.81,,,,,,,,,,
15.32.02.343,-55.4,13.8,0,3.0,,65250.7,15.33,0.23,0.73,0.64,0.2,-1.0,-0.7,36.81,,,,,,,,,,
15.32.02.355,-59.3,14.8,0,3.0,,63892.1,15.65,0.24,0.72,0.64,1.4,4.9,-0.2,36.81,,,,,,,,,,
15.32.02.363,-72.0,18.0,0,3.0,,65567.6,15.25,0.24,0.73,0.63,2.6,8.8,-0.6,36.81,,,,,,,,,,
15.32.02.376,-77.9,19.5,0,3.0,,66360.3,15.07,0.23,0.74,0.61,2.3,6.6,-1.1,36.81,,,,,,,,,,
15.32.02.384,-75.7,18.9,0,3.0,,64417.5,15.52,0.23,0.73,0.63,-0.1,3.8,-1.3,36.81,,,,,,,,,,
15.32.02.396,-122.5,30.6,0,3.0,,65904.2,15.17,0.24,0.72,0.64,0.0,5.6,-1.6,36.81,,,,,,,,,,
15.32.02.408,-90.4,22.6,0,3.0,,62419.6,16.02,0.23,0.73,0.64,1.1,7.9,-1.1,36.81,,,,,,,,,,
15.32.02.417,-113.4,28.4,0,3.0,,61191.0,16.34,0.23,0.73,0.63,1.7,7.3,-0.7,36.81,,,,,,,,,,
15.32.02.429,-113.3,28.3,0,3.0,,67106.9,14.9,0.23,0.73,0.63,0.8,4.3,-1.0,36.81,,,,,,,,,,
15.32.02.441,-128.9,32.2,0,3.0,,62586.3,15.98,0.24,0.72,0.61,2.5,4.0,0.1,36.81,,,,,,,,,,
15.32.02.449,-127.6,31.9,0,3.0,,63667.4,15.71,0.25,0.75,0.64,-0.2,7.9,-1.5,36.81,,,,,,,,,,
15.32.02.462,-143.6,35.9,0,3.0,,61874.3,16.16,0.23,0.73,0.61,1.1,7.4,-1.1,36.81,,,,,,,,,,
15.32.02.474,-126.5,31.6,0,3.0,,61589.8,16.24,0.23,0.73,0.63,-0.4,5.4,-1.0,36.81,,,,,,,,,,
15.32.02.482,-172.9,43.2,0,3.0,,64397.5,15.53,0.23,0.72,0.62,-1.2,5.1,-1.0,36.81,,,,,,,,,,
15.32.02.494,-10.6,2.6,1,4.0,122.9,63583.3,15.73,0.23,0.72,0.64,0.3,6.2,-1.2,36.81,,,,,,,,,,
15.32.02.507,79.1,19.8,0,4.0,,63836.9,15.66,0.24,0.73,0.63,0.4,6.9,-1.3,36.81,,,,,,,,,,
15.32.02.515,177.6,44.4,0,4.0,,63914.5,15.65,0.23,0.73,0.63,0.4,6.0,-1.3,36.81,,,,,,,,,,
15.32.02.527,228.2,57.0,0,4.0,,68130.3,14.68,0.24,0.73,0.64,1.1,5.8,-1.2,36.81,,,,,,,,,,
15.32.02.540,326.3,81.6,0,4.0,,66825.3,14.96,0.23,0.73,0.63,1.2,6.2,-1.3,36.81,,,,,,,,,,
15.32.02.548,321.6,80.4,0,4.0,,67061.3,14.91,0.23,0.74,0.63,1.1,5.6,-0.8,36.81,,,,,,,,,,
15.32.02.560,405.3,101.3,0,4.0,,59673.9,16.76,0.23,0.74,0.62,0.4,5.2,-1.1,36.81,,,,,,,,,,
15.32.02.572,427.4,106.8,0,4.0,,65377.2,15.3,0.23,0.73,0.62,1.3,6.5,-1.3,36.81,,,,,,,,,,
15.32.02.581,431.2,107.8,0,4.0,,60183.7,16.62,0.23,0.73,0.63,0.4,6.1,-2.0,36.81,,,,,,,,,,
15.32.02.593,375.9,94.0,0,4.0,,62315.8,16.05,0.23,0.72,0.63,0.7,5.6,-1.0,36.81,,,,,,,,,,
15.32.02.605,411.0,102.8,0,4.0,,67522.5,14.81,0.24,0.73,0.63,-0.3,5.7,-1.2,36.81,,,,,,,,,,
15.32.02.613,339.2,84.8,0,4.0,,67042.2,14.92,0.23,0.73,0.63,1.4,6.7,-1.5,36.81,,,,,,,,,,
15.32.02.626,283.9,71.0,0,4.0,,65948.9,15.16,0.23,0.73,0.62,1.3,6.2,-1.4,36.81,,,,,,,,,,
15.32.02.638,221.4,55.4,0,4.0,,65396.7,15.29,0.23,0.73,0.63,1.8,5.9,-1.0,36.81,,,,,,,,,,
15.32.02.646,188.0,47.0,0,4.0,,64538.7,15.49,0.23,0.74,0.63,1.7,5.5,-1.1,36.81,,,,,,,,,,
15.32.02.658,70.2,17.6,0,4.0,,64845.2,15.42,0.23,0.73,0.62,1.5,5.2,-1.1,36.81,,,,,,,,,,
15.32.02.671,-6.1,1.5,0,4.0,,66253.1,15.09,0.23,0.74,0.63,0.5,4.9,-0.8,36.81,,,,,,,,,,
15.32.02.679,51.6,12.9,0,4.0,,60623.2,16.5,0.24,0.73,0.63,0.4,5.0,-1.3,36.81,,,,,,,,,,
15.32.02.691,42.9,10.7,0,4.0,,64512.1,15.5,0.23,0.73,0.63,0.6,6.5,-1.3,36.81,,,,,,,,,,
15.32.02.703,69.1,17.3,0,4.0,,62196.2,16.08,0.23,0.73,0.62,0.6,7.3,-1.4,36.81,,,,,,,,,,
15.32.02.712,107.6,26.9,0,4.0,,63045.0,15.86,0.24,0.73,0.63,0.2,6.5,-1.3,36.81,,,,,,,,,,
15.32.02.724,56.3,14.1,0,4.0,,63421.9,15.77,0.23,0.72,0.63,-0.1,6.1,-1.1,36.81,,,,,,,,,,
15.32.02.736,49.5,12.4,0,4.0,,63972.2,15.63,0.24,0.73,0.64,1.8,5.6,-1.1,36.81,,,,,,,,,,
15.32.02.744,37.8,9.4,0,4.0,,62578.0,15.98,0.23,0.73,0.63,0.2,5.9,-1.1,36.81,,,,,,,,,,
15.32.02.757,,,0,4.0,,58767.2,17.02,,,,,,,,,,,,,,,,,
15.32.02.773,,,0,4.0,,64052.4,15.61,,,,,,,,,36.77,,,,,,,,
15.32.02.781,-15.6,3.9,0,4.0,,62829.4,15.92,0.22,0.73,0.62,0.3,6.1,-1.0,36.81,,,,,,,,,,
15.32.02.794,-41.4,10.4,0,4.0,,63157.2,15.83,0.23,0.73,0.63,0.6,6.7,-1.1,36.81,,,,,,,,,,
15.32.02.802,-16.5,4.1,0,4.0,,65352.8,15.3,0.23,0.73,0.63,0.8,6.3,-1.4,36.81,,,,,,,,,,
15.32.02.814,-48.8,12.2,0,4.0,,64319.1,15.55,0.23,0.73,0.62,0.7,5.9,-0.7,36.81,,,,,,,,,,
15.32.02.822,-52.3,13.1,0,4.0,,64111.1,15.6,0.24,0.73,0.63,0.8,5.5,-1.1,36.81,,,,,,,,,,
15.32.02.835,-47.5,11.9,0,4.0,,63506.5,15.75,0.24,0.73,0.63,1.5,5.7,-1.1,36.81,,,,,,,,,,
15.32.02.847,-67.8,17.0,0,4.0,,63734.0,15.69,0.23,0.73,0.63,1.3,6.4,-1.3,36.81,,,,,,,,,,
15.32.02.855,-69.9,17.5,0,4.0,,61545.0,16.25,0.23,0.73,0.62,0.5,5.0,-1.2,36.81,,,,,,,,,,
15.32.02.867,-15.2,3.8,0,4.0,,64122.1,15.6,0.23,0.74,0.63,0.7,5.6,-1.7,36.81,,,,,,,,,,
15.32.02.875,-40.2,10.0,0,4.0,,61813.2,16.18,0.22,0.73,0.63,0.5,7.5,-1.6,36.81,,,,,,,,,,
15.32.02.888,-62.6,15.6,0,4.0,,62557.1,15.99,0.23,0.73,0.63,0.5,6.1,-1.3,36.81,,,,,,,,,,
15.32.02.900,-71.3,17.8,0,4.0,,60900.5,16.42,0.23,0.73,0.63,0.3,5.0,-1.2,36.81,,,,,,,,,,
15.32.02.908,-125.0,31.2,0,4.0,,64964.5,15.39,0.23,0.73,0.64,0.3,6.1,-1.4,36.81,,,,,,,,,,
15.32.02.921,-116.1,29.0,0,4.0,,68133.5,14.68,0.23,0.73,0.62,1.0,5.5,-1.0,36.81,,,,,,,,,,
15.32.02.933,-125.5,31.4,0,4.0,,64990.4,15.39,0.23,0.74,0.63,0.9,5.2,-1.3,36.81,,,,,,,,,,
15.32.02.941,-132.4,33.1,0,4.0,,57800.0,17.3,0.24,0.73,0.63,1.4,6.4,-1.8,36.81,,,,,,,,,,
15.32.02.982,-177.2,44.3,0,4.0,,64495.6,15.5,0.23,0.73,0.62,0.7,6.0,-1.2,36.75,,,,,,,,,,
15.32.02.994,-147.4,36.8,0,4.0,,63161.8,15.83,0.23,0.73,0.63,0.6,5.8,-1.3,36.75,,,,,,,,,,
15.32.03.002,44.1,11.0,1,5.0,118.7,64298.1,15.55,0.23,0.73,0.63,0.8,5.6,-1.6,36.75,,,,,,,,,,
15.32.03.015,133.1,33.3,0,5.0,,66610.3,15.01,0.23,0.73,0.63,0.8,5.2,-1.2,36.75,,,,,,,,,,
15.32.03.027,242.2,60.6,0,5.0,,64387.1,15.53,0.23,0.73,0.63,0.8,5.8,-1.4,36.75,,,,,,,,,,
15.32.03.035,231.9,58.0,0,5.0,,65733.8,15.21,0.23,0.73,0.63,1.1,6.0,-1.7,36.75,,,,,,,,,,
15.32.03.048,311.2,77.8,0,5.0,,64732.7,15.45,0.23,0.73,0.62,0.9,5.7,-1.7,36.75,,,,,,,,,,
15.32.03.060,374.7,93.7,0,5.0,,61246.1,16.33,0.23,0.73,0.63,0.7,6.0,-1.5,36.75,,,,,,,,,,
15.32.03.068,369.0,92.2,0,5.0,,65752.1,15.21,0.23,0.73,0.63,0.7,5.8,-1.7,36.75,,,,,,,,,,
15.32.03.080,440.2,110.0,0,5.0,,65614.4,15.24,0.23,0.73,0.63,0.6,5.7,-1.7,36.75,,,,,,,,,,
15.32.03.093,418.7,104.7,0,5.0,,63902.2,15.65,0.23,0.72,0.62,0.4,5.8,-1.5,36.75,,,,,,,,,,
15.32.03.101,369.6,92.4,0,5.0,,65904.2,15.17,0.23,0.73,0.63,1.0,5.6,-1.3,36.75,,,,,,,,,,
15.32.03.113,345.1,86.3,0,5.0,,65638.3,15.24,0.23,0.73,0.63,0.8,6.0,-1.5,36.75,,,,,,,,,,
15.32.03.121,340.9,85.2,0,5.0,,63583.0,15.73,0.23,0.72,0.63,0.5,5.9,-1.7,36.75,,,,,,,,,,
15.32.03.134,227.7,56.9,0,5.0,,62136.3,16.09,0.23,0.73,0.62,0.1,5.6,-1.3,36.75,,,,,,,,,,
15.32.03.146,181.9,45.5,0,5.0,,62531.6,15.99,0.23,0.73,0.63,0.3,5.4,-1.6,36.75,,,,,,,,,,
15.32.03.154,116.6,29.2,0,5.0,,66614.8,15.01,0.23,0.73,0.62,0.6,5.6,-1.7,36.75,,,,,,,,,,
15.32.03.166,53.9,13.5,0,5.0,,63026.0,15.87,0.23,0.73,0.63,0.4,5.1,-1.7,36.75,,,,,,,,,,
15.32.03.179,10.0,2.5,0,5.0,,65204.8,15.34,0.24,0.73,0.63,0.9,6.2,-1.8,36.75,,,,,,,,,,
15.32.03.187,9.1,2.3,0,5.0,,62574.9,15.98,0.23,0.73,0.63,0.9,6.6,-1.8,36.75,,,,,,,,,,
15.32.03.199,48.5,12.1,0,5.0,,63300.3,15.8,0.23,0.73,0.62,0.9,6.0,-1.7,36.75,,,,,,,,,,
15.32.03.211,91.5,22.9,0,5.0,,65734.2,15.21,0.23,0.73,0.62,0.4,6.1,-1.4,36.75,,,,,,,,,,
15.32.03.220,59.5,14.9,0,5.0,,65448.9,15.28,0.23,0.73,0.63,0.2,5.7,-1.2,36.75,,,,,,,,,,
15.32.03.232,84.2,21.0,0,5.0,,63478.2,15.75,0.23,0.72,0.63,1.0,5.0,-1.2,36.75,,,,,,,,,,
15.32.03.244,56.2,14.0,0,5.0,,66952.9,14.94,0.23,0.73,0.63,0.3,5.6,-1.5,36.75,,,,,,,,,,
15.32.03.252,35.9,9.0,0,5.0,,62271.8,16.06,0.23,0.73,0.62,1.2,6.9,-1.7,36.75,,,,,,,,,,
15.32.03.265,23.8,6.0,0,5.0,,62078.0,16.11,0.23,0.72,0.62,1.1,5.0,-1.8,36.75,,,,,,,,,,
15.32.03.273,-4.9,1.2,0,5.0,,63786.7,15.68,0.24,0.72,0.63,0.3,4.4,-1.8,36.75,,,,,,,,,,
15.32.03.285,-10.6,2.6,0,5.0,,65729.4,15.21,0.24,0.73,0.63,0.4,5.8,-1.6,36.75,,,,,,,,,,
15.32.03.297,-13.3,3.3,0,5.0,,68749.1,14.55,0.23,0.73,0.62,1.1,7.0,-2.1,36.75,,,,,,,,,,
15.32.03.306,-15.7,3.9,0,5.0,,60482.3,16.53,0.23,0.74,0.62,0.6,6.2,-1.7,36.75,,,,,,,,,,
15.32.03.318,-50.8,12.7,0,5.0,,64041.2,15.61,0.23,0.74,0.63,0.3,5.8,-1.9,36.75,,,,,,,,,,
15.32.03.330,-61.8,15.4,0,5.0,,66796.2,14.97,0.23,0.73,0.64,0.7,6.7,-1.4,36.75,,,,,,,,,,
15.32.03.338,-22.4,5.6,0,5.0,,64348.6,15.54,0.23,0.74,0.62,1.2,6.4,-1.0,36.75,,,,,,,,,,
15.32.03.351,-76.4,19.1,0,5.0,,62418.9,16.02,0.23,0.74,0.64,1.0,4.7,-0.9,36.75,,,,,,,,,,
15.32.03.363,-65.3,16.3,0,5.0,,63499.7,15.75,0.23,0.73,0.63,1.1,4.9,-0.8,36.75,,,,,,,,,,
15.32.03.371,-74.7,18.7,0,5.0,,63664.0,15.71,0.23,0.74,0.63,0.7,5.5,-0.9,36.75,,,,,,,,,,
15.32.03.383,-89.7,22.4,0,5.0,,67144.7,14.89,0.23,0.73,0.63,0.3,6.3,-0.8,36.75,,,,,,,,,,
15.32.03.396,-109.5,27.4,0,5.0,,67152.9,14.89,0.23,0.72,0.63,0.4,7.1,-1.0,36.75,,,,,,,,,,
15.32.03.404,-80.1,20.0,0,5.0,,62224.7,16.07,0.24,0.73,0.63,-0.2,5.3,-0.7,36.75,,,,,,,,,,
15.32.03.416,-74.6,18.6,0,5.0,,68056.4,14.69,0.23,0.72,0.62,1.0,5.4,-0.5,36.75,,,,,,,,,,
15.32.03.424,-115.1,28.8,0,5.0,,62850.3,15.91,0.23,0.73,0.64,1.1,6.2,-0.7,36.75,,,,,,,,,,
15.32.03.437,-124.8,31.2,0,5.0,,64708.0,15.45,0.24,0.73,0.61,1.2,5.6,-1.1,36.75,,,,,,,,,,
15.32.03.449,-125.7,31.4,0,5.0,,64811.9,15.43,0.23,0.74,0.61,2.9,5.6,-0.8,36.75,,,,,,,,,,
15.32.03.457,-118.3,29.6,0,5.0,,62495.3,16.0,0.23,0.75,0.63,0.8,7.0,-1.3,36.75,,,,,,,,,,
15.32.03.470,-157.8,39.4,0,5.0,,65905.1,15.17,0.23,0.73,0.61,-0.5,4.6,-1.3,36.75,,,,,,,,,,
15.32.03.482,-158.2,39.6,0,5.0,,60727.8,16.47,0.23,0.72,0.64,-2.0,3.2,-1.6,36.75,,,,,,,,,,
15.32.03.490,-155.7,38.9,0,5.0,,64936.2,15.4,0.23,0.72,0.65,-0.5,8.4,-1.9,36.75,,,,,,,,,,
15.32.03.502,59.0,14.8,1,6.0,119.1,65680.2,15.23,0.23,0.72,0.62,2.0,10.8,-1.8,36.75,,,,,,,,,,
15.32.03.515,122.1,30.5,0,6.0,,65396.4,15.29,0.23,0.71,0.62,0.4,5.2,-1.7,36.75,,,,,,,,,,
15.32.03.523,187.1,46.8,0,6.0,,67230.7,14.87,0.22,0.72,0.63,0.9,2.6,-1.7,36.75,,,,,,,,,,
15.32.03.535,233.5,58.4,0,6.0,,63827.6,15.67,0.23,0.73,0.64,3.0,6.2,-1.6,36.75,,,,,,,,,,
15.32.03.547,323.6,80.9,0,6.0,,59304.3,16.86,0.24,0.73,0.61,3.0,7.4,-1.8,36.75,,,,,,,,,,
15.32.03.556,353.0,88.2,0,6.0,,67579.2,14.8,0.23,0.75,0.61,1.9,5.7,-2.4,36.75,,,,,,,,,,
15.32.03.568,398.4,99.6,0,6.0,,63345.5,15.79,0.23,0.74,0.62,0.6,5.6,-2.9,36.75,,,,,,,,,,
15.32.03.580,457.8,114.4,0,6.0,,62968.7,15.88,0.23,0.73,0.63,0.7,8.1,-2.8,36.75,,,,,,,,,,
15.32.03.588,410.4,102.6,0,6.0,,61917.8,16.15,0.23,0.73,0.64,-0.1,8.8,-2.6,36.75,,,,,,,,,,
15.32.03.601,374.6,93.6,0,6.0,,60909.3,16.42,0.23,0.73,0.63,0.4,6.6,-2.1,36.75,,,,,,,,,,
15.32.03.613,344.6,86.2,0,6.0,,60126.9,16.63,0.22,0.72,0.63,0.7,5.5,-2.2,36.75,,,,,,,,,,
15.32.03.621,325.2,81.3,0,6.0,,64335.7,15.54,0.23,0.73,0.64,1.2,5.9,-1.9,36.75,,,,,,,,,,
15.32.03.633,272.9,68.2,0,6.0,,66373.3,15.07,0.23,0.73,0.64,1.9,6.8,-2.6,36.75,,,,,,,,,,
15.32.03.642,260.2,65.0,0,6.0,,62898.3,15.9,0.23,0.73,0.62,2.2,7.8,-2.8,36.75,,,,,,,,,,
15.32.03.654,136.0,34.0,0,6.0,,64789.1,15.43,0.24,0.74,0.63,1.2,8.0,-2.7,36.75,,,,,,,,,,
15.32.03.666,76.4,19.1,0,6.0,,67663.2,14.78,0.23,0.74,0.62,0.1,8.2,-3.3,36.75,,,,,,,,,,
15.32.03.674,-2.8,0.7,0,6.0,,64212.2,15.57,0.22,0.72,0.62,0.9,8.7,-3.2,36.75,,,,,,,,,,
15.32.03.687,48.1,12.0,0,6.0,,61744.6,16.2,0.22,0.73,0.63,0.1,8.3,-3.3,36.75,,,,,,,,,,
15.32.03.699,41.3,10.3,0,6.0,,64447.7,15.52,0.23,0.74,0.64,0.5,7.0,-3.2,36.75,,,,,,,,,,
15.32.03.707,41.3,10.3,0,6.0,,62296.1,16.05,0.23,0.74,0.63,0.1,8.4,-2.9,36.75,,,,,,,,,,
15.32.03.719,103.4,25.8,0,6.0,,65062.2,15.37,0.22,0.73,0.63,0.6,7.8,-2.6,36.75,,,,,,,,,,
15.32.03.732,50.2,12.6,0,6.0,,61929.2,16.15,0.22,0.73,0.63,0.1,7.1,-2.3,36.75,,,,,,,,,,
15.32.03.744,75.1,18.8,0,6.0,,60474.2,16.54,0.22,0.73,0.63,0.1,6.7,-2.2,36.75,,,,,,,,,,
15.32.03.781,-20.5,5.1,0,6.0,,66201.5,15.11,0.22,0.74,0.63,-0.4,7.1,-2.8,36.75,,,,,,,,,,
15.32.03.793,-20.7,5.2,0,6.0,,64383.9,15.53,0.22,0.72,0.62,-0.4,7.3,-3.4,36.75,,,,,,,,,,
15.32.03.805,-27.8,7.0,0,6.0,,65301.9,15.31,0.22,0.72,0.63,-0.5,6.7,-3.2,36.75,,,,,,,,,,
15.32.03.814,-5.0,1.2,0,6.0,,62335.8,16.04,0.22,0.73,0.63,0.0,7.3,-3.1,36.75,,,,,,,,,,
15.32.03.826,-54.3,13.6,0,6.0,,60541.6,16.52,0.21,0.71,0.64,-0.3,7.4,-3.3,36.75,,,,,,,,,,
15.32.03.838,-34.2,8.6,0,6.0,,65980.0,15.16,0.23,0.73,0.64,-1.2,6.3,-1.6,36.75,,,,,,,,,,
15.32.03.851,-61.3,15.3,0,6.0,,66208.3,15.1,0.22,0.73,0.63,1.1,6.2,-2.7,36.75,,,,,,,,,,
15.32.03.859,-85.0,21.2,0,6.0,,61957.3,16.14,0.21,0.72,0.62,-0.4,6.1,-3.1,36.75,,,,,,,,,,
15.32.03.871,-61.8,15.4,0,6.0,,66458.1,15.05,0.22,0.73,0.63,-0.2,6.1,-2.3,36.75,,,,,,,,,,
15.32.03.883,-61.9,15.5,0,6.0,,64234.5,15.57,0.22,0.74,0.63,0.9,8.5,-3.1,36.75,,,,,,,,,,
15.32.03.891,-60.4,15.1,0,6.0,,63546.0,15.74,0.21,0.75,0.62,-0.8,9.0,-2.7,36.75,,,,,,,,,,
15.32.03.904,-113.2,28.3,0,6.0,,62053.9,16.12,0.22,0.74,0.63,0.8,6.3,-2.6,36.75,,,,,,,,,,
15.32.03.916,-87.2,21.8,0,6.0,,65311.5,15.31,0.22,0.74,0.63,1.0,6.3,-2.3,36.75,,,,,,,,,,
15.32.03.925,-108.1,27.0,0,6.0,,65118.4,15.36,0.22,0.73,0.64,0.6,7.0,-1.9,36.75,,,,,,,,,,
15.32.03.937,-161.5,40.4,0,6.0,,64986.1,15.39,0.21,0.75,0.64,0.4,7.3,-1.0,36.75,,,,,,,,,,
15.32.03.949,-148.0,37.0,0,6.0,,58974.8,16.96,0.22,0.72,0.63,0.1,6.6,-1.4,36.75,,,,,,,,,,
15.32.03.957,-132.4,33.1,0,6.0,,62925.9,15.89,0.21,0.73,0.65,3.7,4.6,-1.0,36.75,,,,,,,,,,
15.32.03.969,-131.8,33.0,0,6.0,,64215.8,15.57,0.23,0.72,0.64,3.3,8.4,-1.2,36.75,,,,,,,,,,
15.32.03.982,-122.6,30.6,0,6.0,,64173.5,15.58,0.21,0.73,0.64,2.3,7.3,-1.0,36.75,,,,,,,,,,
15.32.03.990,-197.6,49.4,0,6.0,,60566.9,16.51,0.22,0.74,0.61,3.3,5.9,-2.3,36.75,,,,,,,,,,
15.32.04.002,35.6,8.9,1,7.0,122.9,64964.0,15.39,0.21,0.73,0.61,2.1,6.4,-2.5,36.75,,,,,,,,,,
15.32.04.014,102.4,25.6,0,7.0,,66193.5,15.11,0.22,0.73,0.63,0.4,7.7,-2.8,36.75,,,,,,,,,,
15.32.04.023,176.8,44.2,0,7.0,,59918.4,16.69,0.21,0.71,0.61,2.2,8.0,-3.6,36.75,,,,,,,,,,
15.32.04.035,231.8,58.0,0,7.0,,64199.9,15.58,0.22,0.76,0.66,3.6,6.4,-3.1,36.75,,,,,,,,,,
15.32.04.047,356.3,89.1,0,7.0,,61636.5,16.22,0.22,0.73,0.61,3.1,11.1,-2.6,36.75,,,,,,,,,,
15.32.04.055,336.3,84.1,0,7.0,,64187.2,15.58,0.22,0.76,0.63,1.3,8.2,-0.9,36.75,,,,,,,,,,
15.32.04.068,345.5,86.4,0,7.0,,61449.6,16.27,0.21,0.73,0.62,2.7,6.4,-2.8,36.75,,,,,,,,,,
15.32.04.080,389.9,97.5,0,7.0,,63943.5,15.64,0.22,0.74,0.64,3.1,7.1,-1.5,36.75,,,,,,,,,,
15.32.04.088,407.6,101.9,0,7.0,,63857.6,15.66,0.21,0.74,0.62,2.7,9.5,-1.7,36.75,,,,,,,,,,
15.32.04.100,361.9,90.5,0,7.0,,67835.1,14.74,0.21,0.73,0.62,5.3,7.0,-1.7,36.75,,,,,,,,,,
15.32.04.113,371.8,93.0,0,7.0,,66391.8,15.06,0.22,0.74,0.64,2.9,6.7,-1.4,36.75,,,,,,,,,,
15.32.04.121,369.1,92.3,0,7.0,,67581.7,14.8,0.21,0.74,0.63,2.9,7.1,-1.6,36.75,,,,,,,,,,
15.32.04.133,277.2,69.3,0,7.0,,62034.0,16.12,0.21,0.73,0.63,3.0,5.2,-1.2,36.75,,,,,,,,,,
15.32.04.146,196.5,49.1,0,7.0,,59598.7,16.78,0.21,0.73,0.64,4.1,6.5,-2.0,36.75,,,,,,,,,,
15.32.04.154,145.8,36.4,0,7.0,,60829.3,16.44,0.21,0.74,0.63,5.3,8.0,-2.5,36.75,,,,,,,,,,
15.32.04.166,64.4,16.1,0,7.0,,61786.1,16.18,0.22,0.75,0.62,3.4,7.9,-1.9,36.75,,,,,,,,,,
15.32.04.178,-46.4,11.6,0,7.0,,64060.0,15.61,0.21,0.74,0.62,3.3,6.6,-2.2,36.75,,,,,,,,,,
15.32.04.186,4.4,1.1,0,7.0,,67584.8,14.8,0.21,0.73,0.63,3.4,7.5,-2.4,36.75,,,,,,,,,,
15.32.04.199,41.4,10.4,0,7.0,,63737.4,15.69,0.21,0.73,0.63,3.6,7.8,-2.5,36.75,,,,,,,,,,
15.32.04.211,71.2,17.8,0,7.0,,64832.1,15.42,0.21,0.74,0.62,2.8,7.9,-2.3,36.75,,,,,,,,,,
15.32.04.219,63.7,15.9,0,7.0,,65850.4,15.19,0.21,0.74,0.62,3.0,8.2,-2.5,36.75,,,,,,,,,,
15.32.04.231,99.9,25.0,0,7.0,,62824.0,15.92,0.21,0.75,0.62,3.2,7.8,-2.7,36.75,,,,,,,,,,
15.32.04.244,61.8,15.4,0,7.0,,64164.5,15.58,0.21,0.75,0.63,3.3,8.2,-2.2,36.75,,,,,,,,,,
15.32.04.252,75.1,18.8,0,7.0,,61442.9,16.28,0.21,0.74,0.62,2.9,8.0,-2.2,36.75,,,,,,,,,,
15.32.04.264,14.3,3.6,0,7.0,,59313.2,16.86,0.21,0.74,0.62,2.6,7.4,-2.0,36.75,,,,,,,,,,
15.32.04.277,-12.5,3.1,0,7.0,,64435.5,15.52,0.21,0.74,0.62,2.9,7.4,-2.4,36.75,,,,,,,,,,
15.32.04.285,7.0,1.8,0,7.0,,64000.4,15.62,0.21,0.74,0.63,4.1,6.8,-2.1,36.75,,,,,,,,,,
15.32.04.298,-26.6,6.6,0,7.0,,64273.7,15.56,0.22,0.75,0.63,2.8,7.4,-1.8,36.75,,,,,,,,,,
15.32.04.309,-14.9,3.7,0,7.0,,66161.8,15.11,0.21,0.74,0.62,2.6,7.9,-2.4,36.75,,,,,,,,,,
15.32.04.318,-53.7,13.4,0,7.0,,67038.6,14.92,0.21,0.74,0.62,4.6,7.1,-2.3,36.75,,,,,,,,,,
15.32.04.330,-61.6,15.4,0,7.0,,63708.6,15.7,0.21,0.75,0.63,3.6,7.9,-2.2,36.75,,,,,,,,,,
15.32.04.342,-51.3,12.8,0,7.0,,61798.5,16.18,0.21,0.75,0.62,3.3,8.8,-2.3,36.75,,,,,,,,,,
15.32.04.350,-33.1,8.3,0,7.0,,62166.8,16.09,0.21,0.74,0.61,4.8,7.2,-2.1,36.75,,,,,,,,,,
15.32.04.363,-37.1,9.3,0,7.0,,60311.5,16.58,0.18,0.74,0.64,3.8,8.2,-1.5,36.75,,,,,,,,,,
15.32.04.371,-43.3,10.8,0,7.0,,67540.2,14.81,0.22,0.75,0.65,9.5,8.9,-2.6,36.75,,,,,,,,,,
15.32.04.383,-79.7,19.9,0,7.0,,61432.9,16.28,0.21,0.73,0.62,8.8,6.8,-1.0,36.75,,,,,,,,,,
15.32.04.395,-67.5,16.9,0,7.0,,64185.6,15.58,0.2,0.75,0.63,5.3,4.4,0.1,36.75,,,,,,,,,,
15.32.04.404,-134.0,33.5,0,7.0,,60221.9,16.61,0.21,0.74,0.61,8.9,8.5,-1.5,36.75,,,,,,,,,,
15.32.04.416,-86.2,21.6,0,7.0,,64330.2,15.54,0.2,0.75,0.61,2.8,5.8,-2.3,36.75,,,,,,,,,,
15.32.04.428,-107.2,26.8,0,7.0,,63205.0,15.82,0.2,0.76,0.62,7.1,7.3,-1.5,36.75,,,,,,,,,,
15.32.04.436,-141.2,35.3,0,7.0,,60323.8,16.58,0.21,0.75,0.61,2.5,9.3,-2.7,36.75,,,,,,,,,,
15.32.04.449,-114.2,28.6,0,7.0,,61701.6,16.21,0.2,0.76,0.61,3.0,7.1,-2.9,36.75,,,,,,,,,,
15.32.04.461,-136.9,34.2,0,7.0,,61878.1,16.16,0.21,0.74,0.62,2.4,6.7,-2.8,36.75,,,,,,,,,,
15.32.04.469,-109.7,27.4,0,7.0,,64612.3,15.48,0.2,0.76,0.63,2.5,7.6,-2.0,36.75,,,,,,,,,,
15.32.04.482,-162.8,40.7,0,7.0,,65357.0,15.3,0.2,0.74,0.62,5.1,7.5,-2.3,36.75,,,,,,,,,,
15.32.04.494,-145.1,36.3,0,7.0,,64534.5,15.5,0.2,0.74,0.62,1.9,6.7,-1.7,36.75,,,,,,,,,,
15.32.04.502,-199.1,49.8,0,7.0,,63779.6,15.68,0.2,0.76,0.61,5.6,6.9,-2.5,36.75,,,,,,,,,,
15.32.04.514,109.9,27.5,1,8.0,119.9,64497.1,15.5,0.21,0.75,0.61,4.3,7.7,-2.0,36.75,,,,,,,,,,
15.32.04.522,155.4,38.8,0,8.0,,61853.2,16.17,0.2,0.75,0.61,4.9,7.9,-2.0,36.75,,,,,,,,,,
15.32.04.535,204.0,51.0,0,8.0,,64174.5,15.58,0.18,0.74,0.6,8.6,11.2,-3.0,36.75,,,,,,,,,,
15.32.04.547,274.8,68.7,0,8.0,,63452.0,15.76,0.22,0.75,0.61,5.7,10.2,-3.3,36.75,,,,,,,,,,
15.32.04.588,421.1,105.3,0,8.0,,63371.5,15.78,0.2,0.76,0.62,2.6,7.4,-2.4,36.81,,,,,,,,,,
15.32.04.596,407.9,102.0,0,8.0,,64231.7,15.57,0.2,0.76,0.61,1.9,6.3,-2.4,36.81,,,,,,,,,,
15.32.04.608,373.0,93.2,0,8.0,,60900.5,16.42,0.2,0.76,0.61,1.6,6.7,-2.7,36.81,,,,,,,,,,
15.32.04.617,392.3,98.1,0,8.0,,60679.4,16.48,0.2,0.75,0.62,1.4,7.8,-2.5,36.81,,,,,,,,,,
15.32.04.629,324.5,81.1,0,8.0,,65520.3,15.26,0.2,0.75,0.6,1.8,7.0,-2.4,36.81,,,,,,,,,,
15.32.04.641,236.2,59.0,0,8.0,,62597.4,15.98,0.16,0.73,0.65,10.1,7.9,-2.3,36.81,,,,,,,,,,
15.32.04.650,186.3,46.6,0,8.0,,65412.0,15.29,0.22,0.71,0.55,17.5,9.6,-3.4,36.81,,,,,,,,,,
15.32.04.662,114.5,28.6,0,8.0,,63536.6,15.74,0.2,0.78,0.64,-3.5,6.7,-1.6,36.81,,,,,,,,,,
15.32.04.674,21.9,5.5,0,8.0,,63692.0,15.7,0.2,0.76,0.62,3.3,5.9,-0.8,36.81,,,,,,,,,,
15.32.04.682,42.5,10.6,0,8.0,,66680.9,15.0,0.2,0.74,0.6,1.7,3.1,-2.6,36.81,,,,,,,,,,
15.32.04.695,39.8,10.0,0,8.0,,63929.3,15.64,0.21,0.76,0.62,3.3,5.8,-3.1,36.81,,,,,,,,,,
15.32.04.707,20.3,5.1,0,8.0,,62540.5,15.99,0.21,0.76,0.61,-0.6,3.4,-1.5,36.81,,,,,,,,,,
15.32.04.715,71.3,17.8,0,8.0,,62793.8,15.93,0.18,0.75,0.56,1.5,1.7,-3.1,36.81,,,,,,,,,,
15.32.04.727,46.8,11.7,0,8.0,,65128.1,15.35,0.2,0.77,0.63,3.8,8.5,-3.2,36.81,,,,,,,,,,
15.32.04.739,97.8,24.4,0,8.0,,60676.8,16.48,0.19,0.76,0.58,2.5,10.8,-2.5,36.81,,,,,,,,,,
15.32.04.748,76.1,19.0,0,8.0,,62082.1,16.11,0.2,0.78,0.59,1.8,6.0,-1.3,36.81,,,,,,,,,,
15.32.04.760,50.5,12.6,0,8.0,,60737.2,16.46,0.2,0.75,0.61,2.5,3.3,-1.9,36.81,,,,,,,,,,
15.32.04.772,12.6,3.2,0,8.0,,62270.7,16.06,0.21,0.75,0.62,-0.3,3.5,-1.4,36.81,,,,,,,,,,
15.32.04.781,18.5,4.6,0,8.0,,63344.6,15.79,0.21,0.76,0.61,-0.3,3.7,-2.2,36.81,,,,,,,,,,
15.32.04.793,-27.3,6.8,0,8.0,,62908.9,15.9,0.2,0.76,0.6,2.4,4.4,-2.2,36.81,,,,,,,,,,
15.32.04.805,-33.9,8.5,0,8.0,,60864.8,16.43,0.21,0.75,0.59,3.2,10.3,-2.6,36.81,,,,,,,,,,
15.32.04.813,-30.5,7.6,0,8.0,,63919.5,15.64,0.2,0.77,0.61,3.3,11.5,-3.3,36.81,,,,,,,,,,
15.32.04.826,-38.2,9.6,0,8.0,,64512.7,15.5,0.19,0.76,0.6,2.7,9.0,-3.4,36.81,,,,,,,,,,
15.32.04.838,-44.2,11.0,0,8.0,,64127.2,15.59,0.19,0.77,0.6,0.6,4.7,-2.6,36.81,,,,,,,,,,
15.32.04.846,-42.7,10.7,0,8.0,,66808.8,14.97,0.19,0.77,0.6,0.2,4.2,-2.8,36.81,,,,,,,,,,
15.32.04.858,-76.1,19.0,0,8.0,,65227.0,15.33,0.19,0.76,0.62,-0.7,5.8,-2.2,36.81,,,,,,,,,,
15.32.04.871,-59.0,14.8,0,8.0,,62995.0,15.87,0.19,0.76,0.61,2.2,6.0,-2.4,36.81,,,,,,,,,,
15.32.04.879,-104.2,26.0,0,8.0,,70769.5,14.13,0.2,0.75,0.62,1.0,7.2,-2.2,36.81,,,,,,,,,,
15.32.04.891,-81.2,20.3,0,8.0,,60800.9,16.45,0.19,0.76,0.62,-1.0,6.3,-2.0,36.81,,,,,,,,,,
15.32.04.899,-111.3,27.8,0,8.0,,61765.1,16.19,0.2,0.76,0.61,-0.5,3.7,-1.5,36.81,,,,,,,,,,
15.32.04.912,-81.8,20.4,0,8.0,,62968.1,15.88,0.2,0.77,0.61,-1.5,4.3,-2.0,36.81,,,,,,,,,,
15.32.04.924,-93.0,23.2,0,8.0,,59819.2,16.72,0.2,0.75,0.61,-0.8,6.5,-2.4,36.81,,,,,,,,,,
15.32.04.932,-93.3,23.3,0,8.0,,67093.6,14.9,0.19,0.75,0.61,3.2,7.2,-1.9,36.81,,,,,,,,,,
15.32.04.944,-91.0,22.8,0,8.0,,61315.6,16.31,0.2,0.75,0.61,0.9,8.4,-2.1,36.81,,,,,,,,,,
15.32.04.957,-137.5,34.4,0,8.0,,61874.7,16.16,0.19,0.76,0.6,1.3,5.6,-2.1,36.81,,,,,,,,,,
15.32.04.965,-147.3,36.8,0,8.0,,63728.5,15.69,0.2,0.76,0.6,-1.3,5.0,-1.6,36.81,,,,,,,,,,
15.32.04.977,-143.8,36.0,0,8.0,,64512.8,15.5,0.2,0.76,0.61,0.4,4.3,-2.2,36.81,,,,,,,,,,
15.32.04.989,-149.2,37.3,0,8.0,,61200.6,16.34,0.2,0.76,0.6,-0.7,5.4,-2.0,36.81,,,,,,,,,,
15.32.04.998,-141.2,35.3,0,8.0,,61473.1,16.27,0.2,0.76,0.61,0.1,6.6,-2.6,36.81,,,,,,,,,,
15.32.05.010,1.5,0.4,1,9.0,114.7,63989.0,15.63,0.19,0.75,0.61,0.3,6.4,-2.1,36.81,,,,,,,,,,
15.32.05.022,101.2,25.3,0,9.0,,63830.4,15.67,0.19,0.76,0.61,-1.4,6.9,-2.7,36.81,,,,,,,,,,
15.32.05.030,161.7,40.4,0,9.0,,66615.7,15.01,0.19,0.76,0.6,-1.9,4.0,-2.3,36.81,,,,,,,,,,
15.32.05.043,291.0,72.8,0,9.0,,64419.1,15.52,0.19,0.76,0.63,-2.9,4.3,-2.4,36.81,,,,,,,,,,
15.32.05.055,314.5,78.6,0,9.0,,64470.8,15.51,0.19,0.75,0.6,0.8,6.5,-2.6,36.81,,,,,,,,,,
15.32.05.063,348.3,87.1,0,9.0,,64604.6,15.48,0.2,0.75,0.62,-3.3,5.5,-1.7,36.81,,,,,,,,,,
15.32.05.075,381.1,95.3,0,9.0,,63980.1,15.63,0.18,0.75,0.61,-3.3,3.5,-1.3,36.81,,,,,,,,,,
15.32.05.088,480.7,120.2,0,9.0,,61273.3,16.32,0.19,0.76,0.62,-3.7,0.0,-1.9,36.81,,,,,,,,,,
15.32.05.096,379.1,94.8,0,9.0,,63969.3,15.63,0.2,0.75,0.62,-1.4,3.0,-2.2,36.81,,,,,,,,,,
15.32.05.108,353.4,88.4,0,9.0,,62940.3,15.89,0.19,0.75,0.6,-2.3,4.9,-1.5,36.81,,,,,,,,,,
15.32.05.121,379.3,94.8,0,9.0,,60789.2,16.45,0.19,0.76,0.6,-1.5,6.1,-1.5,36.81,,,,,,,,,,
15.32.05.129,301.9,75.5,0,9.0,,63970.3,15.63,0.2,0.75,0.61,-0.8,4.9,-1.9,36.81,,,,,,,,,,
15.32.05.141,279.9,70.0,0,9.0,,61477.4,16.27,0.21,0.76,0.61,-1.4,4.9,-1.4,36.81,,,,,,,,,,
15.32.05.153,173.4,43.4,0,9.0,,65693.4,15.22,0.21,0.77,0.6,-1.0,6.6,-1.3,36.81,,,,,,,,,,
15.32.05.166,91.7,22.9,0,9.0,,62733.7,15.94,0.19,0.77,0.59,0.8,6.3,-1.8,36.81,,,,,,,,,,
15.32.05.174,65.3,16.3,0,9.0,,66014.9,15.15,0.19,0.75,0.62,-0.7,4.5,-2.2,36.81,,,,,,,,,,
15.32.05.186,15.8,4.0,0,9.0,,62284.3,16.06,0.19,0.74,0.62,-4.3,0.9,-1.8,36.81,,,,,,,,,,
15.32.05.198,56.9,14.2,0,9.0,,64417.6,15.52,0.19,0.74,0.65,-3.3,4.1,-1.9,36.81,,,,,,,,,,
15.32.05.207,67.1,16.8,0,9.0,,63477.6,15.75,0.2,0.75,0.63,-2.0,8.5,-1.7,36.81,,,,,,,,,,
15.32.05.219,73.7,18.4,0,9.0,,62022.9,16.12,0.19,0.75,0.6,-2.8,5.1,-1.1,36.81,,,,,,,,,,
15.32.05.231,59.6,14.9,0,9.0,,63283.0,15.8,0.2,0.76,0.59,-3.3,-1.3,-1.7,36.81,,,,,,,,,,
15.32.05.243,61.9,15.5,0,9.0,,63843.7,15.66,0.2,0.75,0.62,-0.2,0.1,-1.7,36.81,,,,,,,,,,
15.32.05.252,57.5,14.4,0,9.0,,64239.8,15.57,0.2,0.76,0.63,1.0,7.6,-0.7,36.81,,,,,,,,,,
15.32.05.264,51.0,12.8,0,9.0,,60684.3,16.48,0.2,0.76,0.61,0.7,8.5,-1.2,36.81,,,,,,,,,,
15.32.05.276,16.8,4.2,0,9.0,,64844.3,15.42,0.19,0.75,0.61,-0.8,5.0,-1.9,36.81,,,,,,,,,,
15.32.05.288,2.1,0.5,0,9.0,,63716.2,15.69,0.19,0.74,0.63,-1.5,3.6,-2.1,36.81,,,,,,,,,,
15.32.05.297,1.1,0.3,0,9.0,,64212.0,15.57,0.19,0.75,0.62,-1.3,5.0,-1.0,36.81,,,,,,,,,,
15.32.05.309,-13.7,3.4,0,9.0,,61994.1,16.13,0.19,0.75,0.61,-0.4,5.6,-0.5,36.81,,,,,,,,,,
15.32.05.321,-52.2,13.0,0,9.0,,60812.5,16.44,0.2,0.75,0.61,0.7,5.9,-0.8,36.81,,,,,,,,,,
15.32.05.334,-50.6,12.6,0,9.0,,61853.4,16.17,0.2,0.75,0.62,0.5,4.0,-0.7,36.81,,,,,,,,,,
15.32.05.342,-60.2,15.0,0,9.0,,65521.1,15.26,0.2,0.75,0.62,0.5,4.1,-1.0,36.81,,,,,,,,,,
15.32.05.354,-42.6,10.6,0,9.0,,58681.2,17.04,0.2,0.75,0.63,1.8,5.6,-0.8,36.81,,,,,,,,,,
15.32.05.391,-84.3,21.1,0,9.0,,62936.2,15.89,0.19,0.75,0.62,2.7,7.2,-0.9,36.75,,,,,,,,,,
15.32.05.399,-107.7,26.9,0,9.0,,66307.0,15.08,0.2,0.75,0.62,2.0,6.1,-0.7,36.75,,,,,,,,,,
15.32.05.411,-93.4,23.4,0,9.0,,63095.7,15.85,0.2,0.75,0.62,2.7,7.4,-0.5,36.75,,,,,,,,,,
15.32.05.420,-85.2,21.3,0,9.0,,63621.2,15.72,0.2,0.75,0.61,1.8,6.1,-0.3,36.75,,,,,,,,,,
15.32.05.432,-101.5,25.4,0,9.0,,61021.4,16.39,0.2,0.75,0.61,1.9,4.4,-0.2,36.75,,,,,,,,,,
15.32.05.440,-114.7,28.7,0,9.0,,64760.9,15.44,0.2,0.75,0.61,1.9,4.2,-0.4,36.75,,,,,,,,,,
15.32.05.452,-104.1,26.0,0,9.0,,64586.4,15.48,0.2,0.75,0.62,2.0,5.4,0.0,36.75,,,,,,,,,,
15.32.05.461,-106.6,26.6,0,9.0,,62552.6,15.99,0.2,0.75,0.62,1.7,5.8,0.4,36.75,,,,,,,,,,
15.32.05.473,-169.7,42.4,0,9.0,,62771.2,15.93,0.2,0.75,0.61,1.6,5.5,0.6,36.75,,,,,,,,,,
15.32.05.481,-130.9,32.7,0,9.0,,62134.4,16.09,0.2,0.75,0.61,1.6,5.3,0.4,36.75,,,,,,,,,,
15.32.05.493,-132.0,33.0,0,9.0,,66628.6,15.01,0.2,0.76,0.61,1.2,4.7,0.5,36.75,118.3,,,,,,,,,
15.32.05.502,-166.6,41.6,0,9.0,,67079.1,14.91,0.2,0.75,0.61,1.4,4.5,0.1,36.75,,,,,,,,,,
15.32.05.514,63.0,15.8,1,10.0,117.9,65097.1,15.36,0.21,0.75,0.61,1.9,5.4,-0.3,36.75,,,,,,,,,,
15.32.05.526,135.7,33.9,0,10.0,,65317.9,15.31,0.2,0.75,0.62,1.7,5.9,-0.2,36.75,,,,,,,,,,
15.32.05.534,180.6,45.2,0,10.0,,63398.2,15.77,0.2,0.75,0.61,1.6,6.2,-0.3,36.75,,,,,,,,,,
15.32.05.547,256.6,64.2,0,10.0,,63923.5,15.64,0.2,0.75,0.62,2.0,5.0,0.1,36.75,,,,,,,,,,
15.32.05.555,287.2,71.8,0,10.0,,66450.4,15.05,0.2,0.76,0.61,1.4,5.3,0.4,36.75,,,,,,,,,,
15.32.05.567,390.2,97.6,0,10.0,,59880.6,16.7,0.2,0.76,0.62,1.1,4.7,0.1,36.75,,,,,,,,,,
15.32.05.575,402.5,100.6,0,10.0,,62329.5,16.04,0.2,0.75,0.61,1.7,4.5,0.4,36.75,,,,,,,,,,
15.32.05.588,369.9,92.5,0,10.0,,62594.1,15.98,0.2,0.75,0.62,1.8,5.3,0.2,36.75,,,,,,,,,,
15.32.05.596,416.9,104.2,0,10.0,,62954.3,15.88,0.2,0.75,0.61,1.7,6.1,-0.1,36.75,,,,,,,,,,
15.32.05.608,366.4,91.6,0,10.0,,65474.2,15.27,0.2,0.76,0.61,1.9,5.4,-0.2,36.75,,,,,,,,,,
15.32.05.616,379.2,94.8,0,10.0,,64572.2,15.49,0.2,0.75,0.6,1.8,4.8,-0.2,36.75,,,,,,,,,,
15.32.05.629,373.3,93.3,0,10.0,,64646.5,15.47,0.2,0.75,0.62,2.1,5.2,-0.1,36.75,,,,,,,,,,
15.32.05.641,289.4,72.4,0,10.0,,65301.6,15.31,0.2,0.75,0.61,2.1,5.8,0.0,36.75,,,,,,,,,,
15.32.05.649,204.2,51.0,0,10.0,,64756.4,15.44,0.21,0.75,0.61,2.1,4.5,-0.2,36.75,,,,,,,,,,
15.32.05.661,147.5,36.9,0,10.0,,61685.7,16.21,0.21,0.76,0.61,1.9,4.5,-0.1,36.75,,,,,,,,,,
15.32.05.670,91.0,22.8,0,10.0,,64692.0,15.46,0.21,0.76,0.61,1.6,5.4,-0.3,36.75,,,,,,,,,,
15.32.05.682,1.5,0.4,0,10.0,,60297.1,16.58,0.2,0.76,0.61,1.6,5.9,-0.5,36.75,,,,,,,,,,
15.32.05.690,14.0,3.5,0,10.0,,64370.3,15.54,0.21,0.75,0.6,1.4,5.0,-0.2,36.75,,,,,,,,,,
15.32.05.703,56.2,14.0,0,10.0,,64031.6,15.62,0.2,0.75,0.61,1.0,4.6,-0.2,36.75,,,,,,,,,,
15.32.05.710,103.0,25.8,0,10.0,,62594.6,15.98,0.2,0.75,0.62,1.2,5.2,0.1,36.75,,,,,,,,,,
15.32.05.723,61.1,15.3,0,10.0,,63910.0,15.65,0.21,0.75,0.61,1.1,5.8,-0.5,36.75,,,,,,,,,,
15.32.05.731,55.5,13.9,0,10.0,,59953.6,16.68,0.21,0.75,0.61,0.9,4.9,-0.3,36.75,,,,,,,,,,
15.32.05.743,60.5,15.1,0,10.0,,66242.7,15.1,0.21,0.75,0.61,1.2,4.9,-0.7,36.75,,,,,,,,,,
15.32.05.751,48.7,12.2,0,10.0,,63969.9,15.63,0.2,0.76,0.61,0.8,5.6,-0.7,36.75,,,,,,,,,,
15.32.05.764,45.1,11.3,0,10.0,,66092.9,15.13,0.21,0.76,0.6,1.2,6.1,-0.8,36.75,,,,,,,,,,
15.32.05.772,28.8,7.2,0,10.0,,59065.1,16.93,0.2,0.76,0.61,0.9,5.5,-0.6,36.75,,,,,,,,,,
15.32.05.784,-10.1,2.5,0,10.0,,61411.9,16.28,0.21,0.76,0.61,1.2,4.9,-0.5,36.75,,,,,,,,,,
15.32.05.792,-8.6,2.2,0,10.0,,64136.5,15.59,0.21,0.76,0.62,0.7,4.9,-0.1,36.75,,,,,,,,,,
15.32.05.805,3.4,0.8,0,10.0,,63964.0,15.63,0.21,0.75,0.61,0.9,5.0,0.1,36.75,,,,,,,,,,
15.32.05.813,-28.1,7.0,0,10.0,,59417.1,16.83,0.21,0.76,0.62,1.0,4.8,0.3,36.75,,,,,,,,,,
15.32.05.825,-27.9,7.0,0,10.0,,62973.5,15.88,0.21,0.76,0.62,0.8,5.3,0.2,36.75,,,,,,,,,,
15.32.05.833,-22.8,5.7,0,10.0,,61961.3,16.14,0.21,0.76,0.61,0.7,5.5,0.2,36.75,,,,,,,,,,
15.32.05.846,-33.4,8.4,0,10.0,,65728.2,15.21,0.21,0.75,0.61,1.3,5.7,0.1,36.75,,,,,,,,,,
15.32.05.854,-55.5,13.9,0,10.0,,66355.4,15.07,0.2,0.75,0.6,1.1,5.9,0.3,36.75,,,,,,,,,,
15.32.05.866,-77.1,19.3,0,10.0,,67525.1,14.81,0.2,0.75,0.61,1.2,5.5,-0.2,36.75,,,,,,,,,,
15.32.05.874,-76.1,19.0,0,10.0,,63211.4,15.82,0.2,0.75,0.62,1.0,5.1,0.1,36.75,,,,,,,,,,
15.32.05.887,-74.0,18.5,0,10.0,,63442.3,15.76,0.21,0.76,0.62,0.6,5.6,0.3,36.75,,,,,,,,,,
15.32.05.895,-64.2,16.0,0,10.0,,61000.3,16.39,0.21,0.75,0.61,0.4,5.4,-0.3,36.75,,,,,,,,,,
15.32.05.907,-82.3,20.6,0,10.0,,68600.5,14.58,0.21,0.74,0.61,0.4,5.3,-0.2,36.75,,,,,,,,,,
15.32.05.915,-102.4,25.6,0,10.0,,67001.3,14.93,0.21,0.75,0.61,0.3,5.3,-0.3,36.75,,,,,,,,,,
15.32.05.928,-88.2,22.0,0,10.0,,61461.1,16.27,0.21,0.75,0.6,-0.4,5.3,-0.8,36.75,,,,,,,,,,
15.32.05.936,-130.5,32.6,0,10.0,,65397.8,15.29,0.21,0.74,0.6,-0.1,5.6,-0.9,36.75,,,,,,,,,,
15.32.05.948,-105.9,26.5,0,10.0,,68332.0,14.63,0.22,0.78,0.63,7.7,3.4,-0.6,36.75,,,,,,,,,,
15.32.05.956,-100.9,25.2,0,10.0,,61207.9,16.34,0.21,0.75,0.57,2.8,9.8,-1.2,36.75,,,,,,,,,,
15.32.05.969,-113.7,28.4,0,10.0,,61460.2,16.27,0.21,0.7,0.62,-0.4,1.6,-2.4,36.75,,,,,,,,,,
15.32.05.977,-132.8,33.2,0,10.0,,64071.7,15.61,0.21,0.76,0.62,7.9,-1.6,-1.4,36.75,,,,,,,,,,
15.32.05.989,-170.8,42.7,0,10.0,,63564.1,15.73,0.2,0.78,0.65,-2.2,5.9,0.9,36.75,,,,,,,,,,
15.32.05.997,-140.5,35.1,0,10.0,,64203.4,15.58,0.22,0.76,0.61,-0.9,10.4,0.3,36.75,,,,,,,,,,
15.32.06.010,-6.7,1.7,1,11.0,118.3,67634.8,14.79,0.23,0.78,0.58,0.2,8.1,0.6,36.75,,,,,,,,,,
15.32.06.018,105.4,26.4,0,11.0,,64091.2,15.6,0.2,0.71,0.56,-0.5,7.6,-2.4,36.75,,,,,,,,,,
15.32.06.030,152.3,38.1,0,11.0,,62966.6,15.88,0.21,0.77,0.64,4.6,2.5,-0.3,36.75,,,,,,,,,,
15.32.06.038,211.9,53.0,0,11.0,,63938.5,15.64,0.22,0.75,0.59,-1.5,1.1,-0.1,36.75,,,,,,,,,,
15.32.06.050,279.9,70.0,0,11.0,,63817.5,15.67,0.22,0.79,0.64,2.2,0.2,0.1,36.75,,,,,,,,,,
15.32.06.059,355.2,88.8,0,11.0,,63730.4,15.69,0.2,0.73,0.6,3.2,11.4,-1.6,36.75,,,,,,,,,,
15.32.06.071,352.1,88.0,0,11.0,,62583.6,15.98,0.19,0.72,0.59,-3.1,10.6,-1.3,36.75,,,,,,,,,,
15.32.06.079,413.9,103.5,0,11.0,,62782.5,15.93,0.21,0.77,0.59,-2.6,-0.5,-1.1,36.75,,,,,,,,,,
15.32.06.091,377.1,94.3,0,11.0,,62847.6,15.91,0.21,0.76,0.64,-0.3,1.2,-1.2,36.75,,,,,,,,,,
15.32.06.104,435.5,108.9,0,11.0,,62792.1,15.93,0.21,0.74,0.64,4.1,12.8,-0.7,36.75,,,,,,,,,,
15.32.06.112,405.8,101.4,0,11.0,,65397.1,15.29,0.21,0.75,0.58,2.4,11.9,0.2,36.75,,,,,,,,,,
15.32.06.124,326.4,81.6,0,11.0,,62015.7,16.12,0.21,0.76,0.57,-0.9,-1.5,-0.2,36.75,,,,,,,,,,
15.32.06.133,324.1,81.0,0,11.0,,62236.2,16.07,0.22,0.77,0.63,1.0,-3.6,-0.7,36.75,,,,,,,,,,
15.32.06.145,276.3,69.1,0,11.0,,65590.1,15.25,0.22,0.74,0.62,1.9,7.7,-0.9,36.75,,,,,,,,,,
15.32.06.153,231.2,57.8,0,11.0,,63374.2,15.78,0.21,0.74,0.59,1.8,11.3,-1.0,36.75,,,,,,,,,,
15.32.06.190,-30.0,7.5,0,11.0,,62212.8,16.07,0.21,0.77,0.59,1.2,5.1,-1.0,36.75,,,,,,,,,,
15.32.06.202,26.4,6.6,0,11.0,,65044.4,15.37,0.21,0.74,0.6,1.7,8.8,-1.1,36.75,,,,,,,,,,
15.32.06.211,58.3,14.6,0,11.0,,70740.9,14.14,0.21,0.76,0.6,0.9,3.4,-0.8,36.75,,,,,,,,,,
15.32.06.223,47.6,11.9,0,11.0,,65108.9,15.36,0.22,0.76,0.61,0.3,2.0,-0.4,36.75,,,,,,,,,,
15.32.06.231,63.4,15.8,0,11.0,,63232.2,15.81,0.21,0.76,0.61,1.1,6.6,-1.2,36.75,,,,,,,,,,
15.32.06.243,40.8,10.2,0,11.0,,65617.6,15.24,0.21,0.75,0.61,1.5,8.7,-0.9,36.75,,,,,,,,,,
15.32.06.251,96.3,24.1,0,11.0,,67187.0,14.88,0.21,0.75,0.6,0.2,4.9,-1.3,36.75,,,,,,,,,,
15.32.06.264,44.9,11.2,0,11.0,,60691.5,16.48,0.21,0.76,0.61,-0.9,2.9,-1.0,36.75,,,,,,,,,,
15.32.06.272,-0.2,0.0,0,11.0,,65086.4,15.36,0.21,0.76,0.62,0.0,5.2,-1.0,36.75,,,,,,,,,,
15.32.06.284,-2.4,0.6,0,11.0,,64648.5,15.47,0.21,0.75,0.6,0.0,6.9,-1.1,36.75,,,,,,,,,,
15.32.06.292,4.0,1.0,0,11.0,,65786.2,15.2,0.21,0.75,0.6,0.0,4.6,-1.2,36.75,,,,,,,,,,
15.32.06.305,-22.9,5.7,0,11.0,,60644.4,16.49,0.21,0.75,0.6,-0.3,2.8,-1.5,36.75,,,,,,,,,,
15.32.06.313,-30.1,7.5,0,11.0,,62331.6,16.04,0.22,0.75,0.61,0.1,5.0,-1.6,36.75,,,,,,,,,,
15.32.06.325,-12.9,3.2,0,11.0,,63753.7,15.69,0.21,0.75,0.61,0.8,7.4,-1.4,36.75,,,,,,,,,,
15.32.06.333,-59.7,14.9,0,11.0,,64970.8,15.39,0.21,0.75,0.61,0.2,6.8,-1.3,36.75,,,,,,,,,,
15.32.06.346,-4.2,1.0,0,11.0,,61705.8,16.21,0.21,0.76,0.6,-0.3,5.1,-1.4,36.75,,,,,,,,,,
15.32.06.354,-62.4,15.6,0,11.0,,65171.1,15.34,0.21,0.75,0.6,0.5,6.3,-1.5,36.75,,,,,,,,,,
15.32.06.366,-49.1,12.3,0,11.0,,63236.1,15.81,0.21,0.75,0.61,1.0,6.6,-1.5,36.75,,,,,,,,,,
15.32.06.378,-87.8,22.0,0,11.0,,61498.8,16.26,0.2,0.75,0.6,-1.2,5.3,-1.8,36.75,,,,,,,,,,
15.32.06.386,-63.1,15.8,0,11.0,,67230.6,14.87,0.22,0.78,0.65,0.9,1.8,-0.6,36.75,,,,,,,,,,
15.32.06.399,-80.8,20.2,0,11.0,,64357.7,15.54,0.21,0.73,0.58,1.6,7.7,-2.4,36.75,,,,,,,,,,
15.32.06.411,-37.8,9.4,0,11.0,,65062.4,15.37,0.21,0.76,0.61,-1.5,6.0,-1.2,36.75,,,,,,,,,,
15.32.06.423,-115.0,28.8,0,11.0,,66694.7,14.99,0.21,0.75,0.6,0.7,5.1,-1.7,36.75,,,,,,,,,,
15.32.06.431,-128.4,32.1,0,11.0,,63830.9,15.67,0.22,0.75,0.62,-1.2,2.6,-1.3,36.75,,,,,,,,,,
15.32.06.444,-127.4,31.8,0,11.0,,63673.2,15.71,0.21,0.75,0.61,0.2,7.3,-1.4,36.75,,,,,,,,,,
15.32.06.456,-134.7,33.7,0,11.0,,65053.6,15.37,0.22,0.75,0.6,0.8,6.5,-1.2,36.75,,,,,,,,,,
15.32.06.464,-119.3,29.8,0,11.0,,63747.5,15.69,0.22,0.76,0.61,0.1,3.3,-1.3,36.75,,,,,,,,,,
15.32.06.477,-125.9,31.5,0,11.0,,63897.0,15.65,0.22,0.75,0.62,1.3,5.4,-1.5,36.75,,,,,,,,,,
15.32.06.489,-176.9,44.2,0,11.0,,65561.7,15.25,0.21,0.74,0.6,1.1,7.3,-1.1,36.75,,,,,,,,,,
15.32.06.497,-142.0,35.5,0,11.0,,64270.2,15.56,0.21,0.76,0.61,0.8,6.5,-0.7,36.75,,,,,,,,,,
15.32.06.510,-149.3,37.3,0,11.0,,62659.1,15.96,0.22,0.76,0.6,-1.3,4.2,-1.0,36.75,,,,,,,,,,
15.32.06.522,113.2,28.3,1,12.0,119.0,61297.0,16.31,0.21,0.76,0.61,-0.4,3.9,-1.0,36.75,,,,,,,,,,
15.32.06.530,124.0,31.0,0,12.0,,60924.8,16.41,0.22,0.74,0.61,0.4,6.8,-1.1,36.75,,,,,,,,,,
15.32.06.542,225.9,56.5,0,12.0,,63649.8,15.71,0.21,0.75,0.6,-0.2,6.3,-1.2,36.75,,,,,,,,,,
15.32.06.554,292.5,73.1,0,12.0,,62900.2,15.9,0.22,0.76,0.6,0.0,3.9,-1.2,36.75,,,,,,,,,,
15.32.06.563,366.3,91.6,0,12.0,,59940.7,16.68,0.22,0.75,0.62,1.2,5.0,-1.6,36.75,,,,,,,,,,
15.32.06.575,348.5,87.1,0,12.0,,63497.1,15.75,0.21,0.75,0.6,2.2,8.0,-1.8,36.75,,,,,,,,,,
15.32.06.587,365.1,91.3,0,12.0,,66656.9,15.0,0.21,0.75,0.61,1.6,7.2,-1.1,36.75,,,,,,,,,,
15.32.06.595,368.9,92.2,0,12.0,,62930.8,15.89,0.21,0.75,0.61,1.0,4.9,-1.6,36.75,,,,,,,,,,
15.32.06.608,438.7,109.7,0,12.0,,63454.0,15.76,0.21,0.76,0.61,1.0,5.4,-1.1,36.75,,,,,,,,,,
15.32.06.620,414.6,103.6,0,12.0,,63153.2,15.83,0.21,0.75,0.61,0.6,7.3,-1.0,36.75,,,,,,,,,,
15.32.06.628,355.1,88.8,0,12.0,,67792.0,14.75,0.21,0.75,0.61,0.2,6.2,-0.9,36.75,,,,,,,,,,
15.32.06.640,308.1,77.0,0,12.0,,64119.6,15.6,0.22,0.75,0.61,0.5,5.1,-1.0,36.75,,,,,,,,,,
15.32.06.653,257.4,64.4,0,12.0,,62620.4,15.97,0.22,0.75,0.61,0.5,4.7,-1.1,36.75,,,,,,,,,,
15.32.06.661,214.8,53.7,0,12.0,,64383.8,15.53,0.21,0.75,0.61,0.7,5.6,-1.2,36.75,,,,,,,,,,
15.32.06.673,108.8,27.2,0,12.0,,63241.3,15.81,0.21,0.75,0.61,0.5,6.0,-0.9,36.75,,,,,,,,,,
15.32.06.686,-12.7,3.2,0,12.0,,59182.7,16.9,0.21,0.75,0.61,0.5,5.9,-1.1,36.75,,,,,,,,,,
15.32.06.694,14.8,3.7,0,12.0,,62753.7,15.94,0.22,0.75,0.6,0.4,5.5,-1.1,36.75,,,,,,,,,,
15.32.06.706,24.8,6.2,0,12.0,,63183.5,15.83,0.22,0.75,0.6,0.9,6.1,-1.2,36.75,,,,,,,,,,
15.32.06.718,48.5,12.1,0,12.0,,61064.4,16.38,0.22,0.75,0.62,1.1,6.3,-0.7,36.75,,,,,,,,,,
15.32.06.726,74.6,18.6,0,12.0,,63043.2,15.86,0.22,0.75,0.62,0.8,5.8,-1.1,36.75,,,,,,,,,,
15.32.06.739,107.1,26.8,0,12.0,,62086.4,16.11,0.22,0.75,0.6,0.5,5.4,-1.1,36.75,,,,,,,,,,
15.32.06.751,57.2,14.3,0,12.0,,61489.8,16.26,0.21,0.75,0.61,1.3,5.8,-1.5,36.75,,,,,,,,,,
15.32.06.759,48.1,12.0,0,12.0,,63273.3,15.8,0.21,0.75,0.61,0.7,6.2,-1.3,36.75,,,,,,,,,,
15.32.06.771,45.7,11.4,0,12.0,,64261.9,15.56,0.21,0.75,0.61,0.5,6.0,-1.2,36.75,,,,,,,,,,
15.32.06.784,33.3,8.3,0,12.0,,65929.0,15.17,0.21,0.75,0.61,0.6,5.4,-1.1,36.75,,,,,,,,,,
15.32.06.792,-0.9,0.2,0,12.0,,62970.3,15.88,0.21,0.75,0.6,0.2,5.3,-1.2,36.75,,,,,,,,,,
15.32.06.804,7.9,2.0,0,12.0,,65961.0,15.16,0.21,0.75,0.61,0.4,4.9,-1.2,36.75,,,,,,,,,,
15.32.06.816,-20.8,5.2,0,12.0,,62626.4,15.97,0.22,0.75,0.61,0.8,5.4,-1.2,36.75,,,,,,,,,,
15.32.06.829,-47.4,11.8,0,12.0,,57205.2,17.48,0.22,0.75,0.6,1.0,5.3,-1.3,36.75,,,,,,,,,,
15.32.06.837,-56.4,14.1,0,12.0,,66624.4,15.01,0.21,0.75,0.61,1.2,6.1,-1.1,36.75,,,,,,,,,,
15.32.06.849,-31.8,8.0,0,12.0,,66291.3,15.08,0.22,0.76,0.6,0.7,5.5,-1.2,36.75,,,,,,,,,,
15.32.06.862,-40.2,10.0,0,12.0,,60859.5,16.43,0.21,0.75,0.61,0.3,4.7,-1.0,36.75,,,,,,,,,,
15.32.06.870,-54.5,13.6,0,12.0,,65353.4,15.3,0.22,0.75,0.61,0.2,5.0,-1.2,36.75,,,,,,,,,,
15.32.06.882,-53.2,13.3,0,12.0,,64713.1,15.45,0.21,0.75,0.61,0.4,5.9,-1.3,36.75,,,,,,,,,,
15.32.06.894,-97.1,24.3,0,12.0,,62996.1,15.87,0.21,0.76,0.61,0.3,5.8,-1.1,36.75,,,,,,,,,,
15.32.06.903,-68.4,17.1,0,12.0,,65581.2,15.25,0.21,0.75,0.6,0.2,5.4,-1.1,36.75,,,,,,,,,,
15.32.06.915,-100.7,25.2,0,12.0,,63148.3,15.84,0.22,0.75,0.61,0.2,5.5,-1.1,36.75,,,,,,,,,,
15.32.06.927,-106.5,26.6,0,12.0,,64840.4,15.42,0.21,0.75,0.61,0.4,5.9,-1.2,36.75,,,,,,,,,,
15.32.06.935,-132.9,33.2,0,12.0,,63921.4,15.64,0.22,0.75,0.61,0.3,5.9,-1.1,36.75,,,,,,,,,,
15.32.06.948,-117.3,29.3,0,12.0,,65294.1,15.32,0.22,0.75,0.61,0.5,5.8,-1.3,36.75,,,,,,,,,,
15.32.06.960,-142.4,35.6,0,12.0,,61951.1,16.14,0.21,0.75,0.61,0.5,6.3,-1.1,36.75,,,,,,,,,,
15.32.07.001,-186.8,46.7,0,12.0,,65874.4,15.18,0.22,0.75,0.61,0.6,5.6,-1.2,36.75,,,,,,,,,,
15.32.07.009,-197.4,49.4,0,12.0,,65057.0,15.37,0.22,0.75,0.62,0.6,6.6,-1.2,36.75,,,,,,,,,,
15.32.07.022,52.1,13.0,1,13.0,120.2,66393.2,15.06,0.21,0.75,0.61,0.7,5.9,-1.0,36.75,,,,,,,,,,
15.32.07.034,152.2,38.0,0,13.0,,63310.2,15.8,0.21,0.75,0.61,0.4,5.9,-1.3,36.75,,,,,,,,,,
15.32.07.042,193.9,48.5,0,13.0,,66232.0,15.1,0.21,0.75,0.61,0.4,5.9,-1.2,36.75,,,,,,,,,,
15.32.07.054,266.8,66.7,0,13.0,,63187.1,15.83,0.21,0.75,0.6,0.1,5.9,-1.3,36.75,,,,,,,,,,
15.32.07.066,330.4,82.6,0,13.0,,62502.1,16.0,0.21,0.75,0.61,0.1,5.1,-1.2,36.75,,,,,,,,,,
15.32.07.075,402.8,100.7,0,13.0,,61722.5,16.2,0.22,0.75,0.61,0.6,5.3,-1.2,36.75,,,,,,,,,,
15.32.07.087,422.4,105.6,0,13.0,,64485.0,15.51,0.21,0.75,0.61,1.4,6.1,-1.5,36.75,,,,,,,,,,
15.32.07.099,427.2,106.8,0,13.0,,65067.3,15.37,0.21,0.75,0.61,1.6,7.3,-1.2,36.75,,,,,,,,,,
15.32.07.107,440.4,110.1,0,13.0,,57699.5,17.33,0.21,0.75,0.61,0.9,5.9,-1.2,36.75,,,,,,,,,,
15.32.07.120,396.5,99.1,0,13.0,,67371.7,14.84,0.21,0.75,0.61,0.8,5.0,-1.0,36.75,,,,,,,,,,
15.32.07.132,360.8,90.2,0,13.0,,64340.9,15.54,0.21,0.75,0.61,0.3,6.1,-0.7,36.75,,,,,,,,,,
15.32.07.140,350.9,87.7,0,13.0,,65180.7,15.34,0.21,0.75,0.61,0.0,6.0,-1.1,36.75,,,,,,,,,,
15.32.07.153,240.0,60.0,0,13.0,,61643.7,16.22,0.22,0.75,0.61,0.1,4.7,-0.8,36.75,,,,,,,,,,
15.32.07.165,129.6,32.4,0,13.0,,63890.2,15.65,0.22,0.75,0.61,0.5,6.0,-1.3,36.75,,,,,,,,,,
15.32.07.173,90.1,22.5,0,13.0,,64520.9,15.5,0.21,0.75,0.61,0.8,5.9,-1.5,36.75,,,,,,,,,,
15.32.07.185,30.9,7.7,0,13.0,,61568.3,16.24,0.22,0.76,0.62,1.2,5.5,-1.3,36.75,,,,,,,,,,
15.32.07.193,13.1,3.3,0,13.0,,68794.4,14.54,0.22,0.75,0.61,1.5,6.1,-1.4,36.75,,,,,,,,,,
15.32.07.206,36.6,9.2,0,13.0,,61994.1,16.13,0.22,0.75,0.61,2.0,7.0,-1.5,36.75,,,,,,,,,,
15.32.07.218,32.9,8.2,0,13.0,,63803.9,15.67,0.22,0.75,0.61,1.7,7.4,-1.4,36.75,,,,,,,,,,
15.32.07.226,77.7,19.4,0,13.0,,65481.5,15.27,0.21,0.76,0.62,1.2,6.3,-1.5,36.75,,,,,,,,,,
15.32.07.238,42.8,10.7,0,13.0,,63194.3,15.82,0.21,0.75,0.6,1.0,6.0,-1.6,36.75,,,,,,,,,,
15.32.07.251,83.8,21.0,0,13.0,,61547.1,16.25,0.21,0.75,0.61,1.2,6.4,-1.1,36.75,,,,,,,,,,
15.32.07.259,59.6,14.9,0,13.0,,62786.4,15.93,0.22,0.75,0.6,0.7,6.1,-0.6,36.75,,,,,,,,,,
15.32.07.271,49.3,12.3,0,13.0,,62436.8,16.02,0.22,0.76,0.61,0.5,5.1,-0.7,36.75,,,,,,,,,,
15.32.07.284,7.2,1.8,0,13.0,,62461.2,16.01,0.22,0.75,0.61,0.2,5.3,-1.2,36.75,,,,,,,,,,
15.32.07.292,-15.3,3.8,0,13.0,,63760.5,15.68,0.22,0.75,0.61,0.3,5.8,-1.6,36.75,,,,,,,,,,
15.32.07.304,3.2,0.8,0,13.0,,64944.2,15.4,0.22,0.75,0.62,0.5,5.9,-1.3,36.75,,,,,,,,,,
15.32.07.316,3.9,1.0,0,13.0,,64595.2,15.48,0.22,0.75,0.62,1.0,6.5,-1.4,36.75,,,,,,,,,,
15.32.07.324,-28.2,7.0,0,13.0,,61957.0,16.14,0.21,0.75,0.62,0.8,6.9,-1.3,36.75,,,,,,,,,,
15.32.07.337,-3.4,0.8,0,13.0,,64338.4,15.54,0.21,0.75,0.61,1.1,6.0,-0.9,36.75,,,,,,,,,,
15.32.07.349,-45.2,11.3,0,13.0,,61943.2,16.14,0.21,0.75,0.61,0.9,4.8,-1.0,36.75,,,,,,,,,,
15.32.07.358,-25.3,6.3,0,13.0,,66242.1,15.1,0.22,0.75,0.61,1.3,6.4,-1.1,36.75,,,,,,,,,,
15.32.07.370,-78.1,19.5,0,13.0,,65007.2,15.38,0.21,0.75,0.61,0.7,7.1,-1.3,36.75,,,,,,,,,,
15.32.07.378,-57.7,14.4,0,13.0,,64838.6,15.42,0.21,0.76,0.6,0.7,6.0,-1.1,36.75,,,,,,,,,,
15.32.07.390,-77.0,19.2,0,13.0,,61578.5,16.24,0.22,0.75,0.61,0.7,5.1,-1.3,36.75,,,,,,,,,,
15.32.07.402,-84.3,21.1,0,13.0,,65646.4,15.23,0.22,0.75,0.61,0.8,6.1,-1.4,36.75,,,,,,,,,,
15.32.07.411,-48.7,12.2,0,13.0,,65847.5,15.19,0.22,0.75,0.61,1.0,6.2,-1.2,36.75,,,,,,,,,,
15.32.07.423,-71.3,17.8,0,13.0,,62515.8,16.0,0.21,0.75,0.6,0.8,5.3,-1.1,36.75,,,,,,,,,,
15.32.07.435,-119.7,29.9,0,13.0,,62156.0,16.09,0.22,0.75,0.61,1.4,5.6,-1.2,36.75,,,,,,,,,,
15.32.07.443,-128.2,32.0,0,13.0,,63857.9,15.66,0.21,0.75,0.61,1.8,6.7,-1.3,36.75,,,,,,,,,,
15.32.07.456,-111.6,27.9,0,13.0,,62729.0,15.94,0.22,0.75,0.61,1.2,7.1,-0.9,36.75,,,,,,,,,,
15.32.07.468,-115.3,28.8,0,13.0,,64093.1,15.6,0.22,0.76,0.61,0.0,5.3,-1.3,36.75,,,,,,,,,,
15.32.07.476,-125.0,31.2,0,13.0,,62751.3,15.94,0.22,0.75,0.61,0.4,5.1,-1.5,36.75,,,,,,,,,,
15.32.07.488,-168.5,42.1,0,13.0,,63759.3,15.68,0.22,0.75,0.61,1.1,6.1,-1.3,36.75,,,,,,,,,,
15.32.07.497,-177.5,44.4,0,13.0,,60729.0,16.47,0.22,0.75,0.61,0.3,6.6,-1.3,36.75,,,,,,,,,,
15.32.07.509,-178.1,44.5,0,13.0,,63343.2,15.79,0.22,0.76,0.61,1.0,6.1,-1.5,36.75,,,,,,,,,,
15.32.07.521,38.3,9.6,1,14.0,118.5,62525.6,15.99,0.21,0.75,0.61,0.8,5.7,-1.4,36.75,,,,,,,,,,
15.32.07.530,82.3,20.6,0,14.0,,63051.5,15.86,0.21,0.75,0.62,0.7,5.7,-1.4,36.75,,,,,,,,,,
15.32.07.542,196.8,49.2,0,14.0,,64651.3,15.47,0.21,0.75,0.61,0.9,6.1,-1.7,36.75,,,,,,,,,,
15.32.07.550,230.8,57.7,0,14.0,,62164.5,16.09,0.21,0.75,0.61,1.1,6.1,-1.6,36.75,,,,,,,,,,
15.32.07.562,283.8,71.0,0,14.0,,68629.4,14.57,0.21,0.74,0.61,0.0,6.1,-1.3,36.75,,,,,,,,,,
15.32.07.574,321.6,80.4,0,14.0,,67441.5,14.83,0.22,0.75,0.61,0.4,5.6,-1.6,36.75,,,,,,,,,,
15.32.07.583,368.8,92.2,0,14.0,,67162.0,14.89,0.22,0.76,0.61,1.8,6.7,-1.7,36.75,,,,,,,,,,
15.32.07.595,361.8,90.4,0,14.0,,60519.5,16.52,0.21,0.75,0.61,0.9,6.4,-1.8,36.75,,,,,,,,,,
15.32.07.607,407.7,101.9,0,14.0,,64252.1,15.56,0.21,0.76,0.61,1.6,4.3,-1.4,36.75,,,,,,,,,,
15.32.07.615,389.5,97.4,0,14.0,,59946.1,16.68,0.21,0.74,0.61,1.4,4.5,-1.2,36.75,,,,,,,,,,
15.32.07.628,374.4,93.6,0,14.0,,60640.3,16.49,0.2,0.75,0.62,3.0,6.5,-1.0,36.75,,,,,,,,,,
15.32.07.636,398.7,99.7,0,14.0,,60401.4,16.56,0.21,0.75,0.59,3.4,5.2,-0.4,36.75,,,,,,,,,,
15.32.07.648,318.8,79.7,0,14.0,,65028.2,15.38,0.21,0.76,0.61,0.9,3.8,-0.6,36.75,,,,,,,,,,
15.32.07.661,211.1,52.8,0,14.0,,61758.2,16.19,0.22,0.75,0.61,1.3,4.7,-0.3,36.75,,,,,,,,,,
15.32.07.669,149.5,37.4,0,14.0,,61107.7,16.36,0.22,0.75,0.61,1.6,6.0,-0.3,36.75,,,,,,,,,,
15.32.07.681,77.7,19.4,0,14.0,,62252.0,16.06,0.22,0.76,0.6,1.6,5.8,-0.9,36.75,,,,,,,,,,
15.32.07.689,10.4,2.6,0,14.0,,64744.5,15.45,0.23,0.76,0.6,1.3,5.7,-1.5,36.75,,,,,,,,,,
15.32.07.702,20.9,5.2,0,14.0,,62988.3,15.88,0.22,0.75,0.6,0.8,7.8,-1.7,36.75,,,,,,,,,,
15.32.07.714,19.0,4.8,0,14.0,,66312.1,15.08,0.21,0.75,0.61,0.5,8.6,-1.9,36.75,,,,,,,,,,
15.32.07.722,26.6,6.6,0,14.0,,65200.4,15.34,0.22,0.75,0.6,1.9,7.4,-1.7,36.75,,,,,,,,,,
15.32.07.734,69.6,17.4,0,14.0,,64657.6,15.47,0.21,0.75,0.61,1.1,7.1,-1.8,36.75,,,,,,,,,,
15.32.07.747,69.4,17.4,0,14.0,,67443.8,14.83,0.21,0.75,0.61,1.0,6.5,-1.4,36.75,,,,,,,,,,
15.32.07.755,70.4,17.6,0,14.0,,65160.2,15.35,0.21,0.75,0.61,1.5,6.2,-1.2,36.75,,,,,,,,,,
15.32.07.767,51.9,13.0,0,14.0,,61142.1,16.36,0.21,0.75,0.61,1.1,6.8,-0.9,36.75,,,,,,,,,,
15.32.07.804,2.0,0.5,0,14.0,,63271.2,15.8,0.22,0.76,0.62,0.5,5.4,-1.1,36.81,,,,,,,,,,
15.32.07.816,-17.8,4.4,0,14.0,,66318.3,15.08,0.22,0.76,0.61,0.4,6.3,-1.7,36.81,,,,,,,,,,
15.32.07.829,-31.7,7.9,0,14.0,,67350.2,14.85,0.22,0.75,0.6,1.1,5.9,-2.0,36.81,,,,,,,,,,
15.32.07.837,-23.5,5.9,0,14.0,,61543.6,16.25,0.21,0.76,0.62,2.9,7.2,-1.8,36.81,,,,,,,,,,
15.32.07.849,-32.3,8.1,0,14.0,,63872.6,15.66,0.21,0.75,0.61,2.4,8.6,-1.9,36.81,,,,,,,,,,
15.32.07.861,-44.8,11.2,0,14.0,,68990.1,14.49,0.21,0.75,0.61,1.7,7.1,-1.4,36.81,,,,,,,,,,
15.32.07.869,-51.7,12.9,0,14.0,,58939.2,16.97,0.21,0.75,0.6,1.5,5.4,-1.2,36.81,,,,,,,,,,
15.32.07.882,-74.0,18.5,0,14.0,,61237.4,16.33,0.22,0.75,0.62,1.3,5.8,-1.6,36.81,,,,,,,,,,
15.32.07.890,-74.0,18.5,0,14.0,,59359.6,16.85,0.21,0.76,0.6,0.8,6.4,-1.3,36.81,,,,,,,,,,
15.32.07.902,-53.1,13.3,0,14.0,,65599.8,15.24,0.21,0.75,0.6,0.3,4.9,-1.2,36.81,,,,,,,,,,
15.32.07.914,-79.0,19.8,0,14.0,,60668.5,16.48,0.21,0.76,0.6,0.5,5.0,-1.7,36.81,,,,,,,,,,
15.32.07.927,-91.5,22.9,0,14.0,,63363.8,15.78,0.21,0.76,0.61,0.9,6.6,-1.4,36.81,,,,,,,,,,
15.32.07.935,-133.0,33.2,0,14.0,,67496.7,14.82,0.21,0.75,0.61,-0.1,6.0,-1.5,36.81,,,,,,,,,,
15.32.07.947,-124.5,31.1,0,14.0,,62912.2,15.9,0.21,0.75,0.61,0.2,4.8,-1.2,36.81,,,,,,,,,,
15.32.07.959,-163.6,40.9,0,14.0,,62312.8,16.05,0.21,0.75,0.61,0.6,5.5,-1.2,36.81,,,,,,,,,,
15.32.07.972,-104.9,26.2,0,14.0,,64961.3,15.39,0.21,0.75,0.61,0.7,6.4,-0.9,36.81,,,,,,,,,,
15.32.07.980,-124.7,31.2,0,14.0,,63866.5,15.66,0.22,0.76,0.6,0.7,5.9,-0.8,36.81,,,,,,,,,,
15.32.07.993,-147.0,36.8,0,14.0,,65970.5,15.16,0.21,0.76,0.6,0.8,5.7,-1.4,36.81,,,,,,,,,,
15.32.08.005,-129.0,32.2,0,14.0,,69194.2,14.45,0.22,0.75,0.6,1.5,6.7,-1.4,36.81,,,,,,,,,,
15.32.08.013,-176.3,44.1,0,14.0,,63387.4,15.78,0.22,0.76,0.61,1.5,7.8,-1.3,36.81,,,,,,,,,,
15.32.08.025,73.1,18.3,1,15.0,124.0,62110.7,16.1,0.21,0.76,0.61,0.9,6.8,-1.6,36.81,,,,,,,,,,
15.32.08.038,133.6,33.4,0,15.0,,69784.0,14.33,0.21,0.75,0.6,1.2,5.7,-1.7,36.81,,,,,,,,,,
15.32.08.046,211.7,52.9,0,15.0,,66308.2,15.08,0.21,0.75,0.61,1.7,7.6,-1.7,36.81,,,,,,,,,,
15.32.08.058,247.5,61.9,0,15.0,,67382.7,14.84,0.21,0.75,0.61,1.5,7.8,-1.6,36.81,,,,,,,,,,
15.32.08.070,334.9,83.7,0,15.0,,64609.4,15.48,0.21,0.76,0.61,1.4,5.7,-1.3,36.81,,,,,,,,,,
15.32.08.078,350.6,87.6,0,15.0,,59818.8,16.72,0.21,0.75,0.61,1.8,5.1,-1.0,36.81,,,,,,,,,,
15.32.08.091,409.3,102.3,0,15.0,,62287.8,16.05,0.21,0.75,0.61,1.6,6.1,-1.2,36.81,,,,,,,,,,
15.32.08.103,452.9,113.2,0,15.0,,62587.1,15.98,0.21,0.76,0.61,0.7,5.2,-0.6,36.81,,,,,,,,,,
15.32.08.111,423.6,105.9,0,15.0,,67151.1,14.89,0.21,0.75,0.61,0.5,3.8,-1.0,36.81,,,,,,,,,,
15.32.08.123,423.7,105.9,0,15.0,,63309.4,15.8,0.22,0.75,0.61,0.8,4.8,-1.0,36.81,,,,,,,,,,
15.32.08.136,292.4,73.1,0,15.0,,64215.6,15.57,0.21,0.75,0.61,0.3,6.0,-1.1,36.81,,,,,,,,,,
15.32.08.144,337.5,84.4,0,15.0,,61327.5,16.31,0.21,0.76,0.6,0.0,5.3,-0.9,36.81,,,,,,,,,,
15.32.08.156,267.7,66.9,0,15.0,,65903.5,15.17,0.21,0.76,0.6,0.6,4.4,-1.0,36.81,,,,,,,,,,
15.32.08.169,191.5,47.9,0,15.0,,66618.4,15.01,0.21,0.76,0.61,0.6,5.4,-1.5,36.81,,,,,,,,,,
15.32.08.177,134.6,33.6,0,15.0,,63904.5,15.65,0.22,0.75,0.61,0.7,5.9,-1.2,36.81,,,,,,,,,,
15.32.08.189,51.6,12.9,0,15.0,,63878.3,15.65,0.21,0.76,0.61,0.6,5.6,-0.8,36.81,,,,,,,,,,
15.32.08.201,31.6,7.9,0,15.0,,64696.2,15.46,0.22,0.75,0.61,0.3,6.2,-1.1,36.81,,,,,,,,,,
15.32.08.214,70.3,17.6,0,15.0,,63949.6,15.64,0.22,0.76,0.6,0.4,6.4,-1.2,36.81,,,,,,,,,,
15.32.08.222,63.4,15.8,0,15.0,,65726.8,15.21,0.21,0.76,0.6,0.3,5.4,-1.3,36.81,,,,,,,,,,
15.32.08.234,68.8,17.2,0,15.0,,64570.5,15.49,0.21,0.75,0.61,0.3,5.3,-1.1,36.81,,,,,,,,,,
15.32.08.246,79.5,19.9,0,15.0,,64298.9,15.55,0.22,0.75,0.61,0.2,5.3,-1.3,36.81,,,,,,,,,,
15.32.08.254,37.5,9.4,0,15.0,,63352.2,15.78,0.22,0.75,0.61,0.4,5.4,-1.0,36.81,,,,,,,,,,
15.32.08.267,61.7,15.4,0,15.0,,64221.4,15.57,0.22,0.75,0.6,0.3,5.3,-1.0,36.81,,,,,,,,,,
15.32.08.279,46.7,11.7,0,15.0,,63174.6,15.83,0.22,0.75,0.61,-0.1,4.7,-1.0,36.81,,,,,,,,,,
15.32.08.287,21.9,5.5,0,15.0,,64448.6,15.52,0.21,0.75,0.62,0.6,6.0,-1.4,36.81,,,,,,,,,,
15.32.08.300,22.3,5.6,0,15.0,,62736.1,15.94,0.21,0.75,0.61,0.3,6.1,-1.1,36.81,,,,,,,,,,
15.32.08.312,-3.6,0.9,0,15.0,,62726.7,15.94,0.22,0.75,0.6,0.0,4.9,-1.5,36.81,,,,,,,,,,
15.32.08.320,-39.1,9.8,0,15.0,,64392.9,15.53,0.21,0.75,0.6,1.0,4.6,-1.3,36.81,,,,,,,,,,
15.32.08.333,-29.2,7.3,0,15.0,,65444.0,15.28,0.22,0.76,0.61,0.7,6.6,-0.9,36.81,,,,,,,,,,
15.32.08.345,-60.7,15.2,0,15.0,,58591.6,17.07,0.21,0.76,0.59,0.5,6.4,-1.2,36.81,,,,,,,,,,
15.32.08.353,-63.6,15.9,0,15.0,,62794.1,15.93,0.21,0.75,0.6,0.8,4.6,-0.9,36.81,,,,,,,,,,
15.32.08.365,-49.4,12.4,0,15.0,,62800.6,15.92,0.22,0.75,0.61,0.0,5.3,-1.3,36.81,,,,,,,,,,
15.32.08.378,-69.7,17.4,0,15.0,,64382.3,15.53,0.22,0.75,0.61,-0.3,5.2,-1.0,36.81,,,,,,,,,,
15.32.08.386,-75.7,18.9,0,15.0,,64774.2,15.44,0.22,0.75,0.6,0.1,4.3,-1.0,36.81,,,,,,,,,,
15.32.08.398,-70.5,17.6,0,15.0,,68080.4,14.69,0.22,0.76,0.6,1.0,4.8,-1.2,36.81,,,,,,,,,,
15.32.08.410,-76.5,19.1,0,15.0,,62193.8,16.08,0.22,0.75,0.61,0.8,5.8,-1.2,36.81,,,,,,,,,,
15.32.08.418,-85.6,21.4,0,15.0,,67622.5,14.79,0.22,0.75,0.61,0.8,5.6,-1.2,36.81,,,,,,,,,,
15.32.08.431,-86.4,21.6,0,15.0,,59144.8,16.91,0.22,0.75,0.61,2.0,5.9,-1.3,36.81,,,,,,,,,,
15.32.08.443,-117.3,29.3,0,15.0,,60206.6,16.61,0.22,0.76,0.61,1.9,6.8,-1.4,36.81,,,,,,,,,,
15.32.08.451,-129.9,32.5,0,15.0,,60937.6,16.41,0.22,0.76,0.6,1.0,6.4,-1.3,36.81,,,,,,,,,,
15.32.08.463,-100.3,25.1,0,15.0,,66615.8,15.01,0.22,0.75,0.6,0.7,5.4,-1.6,36.81,,,,,,,,,,
15.32.08.476,-123.3,30.8,0,15.0,,64653.9,15.47,0.21,0.75,0.61,0.2,4.8,-1.2,36.81,,,,,,,,,,
15.32.08.484,-118.7,29.7,0,15.0,,66468.6,15.04,0.22,0.75,0.61,-0.1,5.6,-0.9,36.81,,,,,,,,,,
15.32.08.496,-110.8,27.7,0,15.0,,67330.2,14.85,0.22,0.75,0.61,0.0,5.8,-1.0,36.81,,,,,,,,,,
15.32.08.509,-138.0,34.5,0,15.0,,63442.3,15.76,0.21,0.75,0.61,0.1,4.8,-1.1,36.81,,,,,,,,,,
15.32.08.517,-152.2,38.0,0,15.0,,63901.5,15.65,0.21,0.75,0.61,0.0,4.9,-0.8,36.81,,,,,,,,,,
15.32.08.529,73.1,18.3,1,16.0,121.5,63675.3,15.7,0.22,0.76,0.6,-0.1,5.4,-1.1,36.81,,,,,,,,,,
15.32.08.537,163.4,40.8,0,16.0,,64532.0,15.5,0.21,0.75,0.6,0.2,5.8,-1.4,36.81,,,,,,,,,,
15.32.08.550,191.5,47.9,0,16.0,,66119.9,15.12,0.22,0.75,0.61,0.2,5.9,-1.4,36.81,,,,,,,,,,
15.32.08.562,265.3,66.3,0,16.0,,63427.4,15.77,0.22,0.76,0.61,-0.1,5.6,-0.8,36.81,,,,,,,,,,
15.32.08.570,311.6,77.9,0,16.0,,65672.9,15.23,0.22,0.75,0.61,0.1,5.7,-1.0,36.81,,,,,,,,,,
15.32.08.611,377.1,94.3,0,16.0,,64478.0,15.51,0.22,0.76,0.6,0.7,6.1,-1.4,36.81,,,,,,,,,,
15.32.08.623,369.5,92.4,0,16.0,,66963.8,14.93,0.22,0.75,0.59,0.2,5.4,-1.3,36.81,,,,,,,,,,
15.32.08.631,327.5,81.9,0,16.0,,61394.3,16.29,0.22,0.75,0.6,0.6,4.8,-1.2,36.81,,,,,,,,,,
15.32.08.644,314.8,78.7,0,16.0,,65100.1,15.36,0.22,0.76,0.61,0.6,5.7,-1.0,36.81,,,,,,,,,,
15.32.08.656,254.5,63.6,0,16.0,,59491.3,16.81,0.22,0.76,0.61,-0.1,6.0,-1.2,36.81,,,,,,,,,,
15.32.08.664,195.6,48.9,0,16.0,,61767.8,16.19,0.22,0.75,0.6,0.2,5.5,-1.0,36.81,,,,,,,,,,
15.32.08.677,139.8,35.0,0,16.0,,62350.5,16.04,0.22,0.75,0.6,1.0,5.3,-1.0,36.81,,,,,,,,,,
15.32.08.689,51.4,12.8,0,16.0,,63604.3,15.72,0.22,0.75,0.61,0.7,5.2,-1.3,36.81,,,,,,,,,,
15.32.08.697,6.3,1.6,0,16.0,,66766.7,14.98,0.22,0.75,0.61,0.9,4.5,-1.1,36.81,,,,,,,,,,
15.32.08.709,29.6,7.4,0,16.0,,63192.9,15.82,0.22,0.75,0.6,0.3,4.5,-1.2,36.81,,,,,,,,,,
15.32.08.721,24.5,6.1,0,16.0,,60987.4,16.4,0.21,0.75,0.61,0.9,5.5,-1.5,36.81,,,,,,,,,,
15.32.08.730,76.2,19.0,0,16.0,,66970.1,14.93,0.22,0.76,0.61,0.5,5.7,-1.6,36.81,,,,,,,,,,
15.32.08.742,81.1,20.3,0,16.0,,61201.9,16.34,0.22,0.76,0.6,-0.5,5.9,-1.6,36.81,,,,,,,,,,
15.32.08.750,134.8,33.7,0,16.0,,65870.2,15.18,0.21,0.75,0.6,-1.1,5.9,-1.7,36.81,,,,,,,,,,
15.32.08.762,52.5,13.1,0,16.0,,59713.8,16.75,0.22,0.75,0.62,-0.6,6.1,-1.8,36.81,,,,,,,,,,
15.32.08.775,57.4,14.4,0,16.0,,61928.0,16.15,0.22,0.74,0.61,-0.9,6.6,-1.5,36.81,,,,,,,,,,
15.32.08.783,15.0,3.8,0,16.0,,62782.2,15.93,0.22,0.75,0.61,-1.2,5.5,-1.8,36.81,,,,,,,,,,
15.32.08.795,-8.4,2.1,0,16.0,,61843.3,16.17,0.22,0.75,0.61,-1.2,4.8,-1.8,36.81,,,,,,,,,,
15.32.08.807,-35.3,8.8,0,16.0,,65584.5,15.25,0.22,0.75,0.61,-0.4,6.1,-1.7,36.81,,,,,,,,,,
15.32.08.816,-15.0,3.8,0,16.0,,59669.3,16.76,0.22,0.75,0.61,-0.7,6.6,-1.5,36.81,,,,,,,,,,
15.32.08.828,13.7,3.4,0,16.0,,63679.7,15.7,0.22,0.75,0.61,-0.9,5.8,-1.5,36.81,,,,,,,,,,
15.32.08.841,-30.0,7.5,0,16.0,,63120.7,15.84,0.22,0.75,0.61,-0.2,4.8,-1.4,36.81,,,,,,,,,,
15.32.08.849,-55.6,13.9,0,16.0,,63941.6,15.64,0.22,0.75,0.61,-0.8,5.7,-1.4,36.81,,,,,,,,,,
15.32.08.861,-80.5,20.1,0,16.0,,63069.6,15.86,0.22,0.75,0.61,-1.0,5.8,-1.3,36.81,,,,,,,,,,
15.32.08.873,-54.9,13.7,0,16.0,,63870.6,15.66,0.22,0.75,0.61,-0.2,5.1,-1.3,36.81,,,,,,,,,,
15.32.08.881,-48.6,12.2,0,16.0,,61726.0,16.2,0.22,0.75,0.61,-0.8,5.1,-1.1,36.81,,,,,,,,,,
15.32.08.894,-86.5,21.6,0,16.0,,63120.0,15.84,0.22,0.75,0.61,-0.7,6.1,-1.4,36.81,,,,,,,,,,
15.32.08.902,-68.0,17.0,0,16.0,,63855.8,15.66,0.22,0.75,0.61,-0.5,5.4,-1.3,36.81,,,,,,,,,,
15.32.08.914,-91.3,22.8,0,16.0,,64741.9,15.45,0.22,0.75,0.62,-0.1,6.0,-1.4,36.81,,,,,,,,,,
15.32.08.926,-90.2,22.6,0,16.0,,67836.1,14.74,0.22,0.74,0.61,0.4,5.3,-1.3,36.81,,,,,,,,,,
15.32.08.934,-118.8,29.7,0,16.0,,64201.9,15.58,0.22,0.75,0.62,1.6,4.8,-1.1,36.81,,,,,,,,,,
15.32.08.947,-114.6,28.6,0,16.0,,67611.3,14.79,0.22,0.75,0.62,1.4,4.8,-0.9,36.81,,,,,,,,,,
15.32.08.959,-125.2,31.3,0,16.0,,62942.4,15.89,0.22,0.75,0.61,1.4,4.7,-0.8,36.81,,,,,,,,,,
15.32.08.967,-123.0,30.8,0,16.0,,62419.7,16.02,0.22,0.76,0.58,0.9,6.2,-0.8,36.81,,,,,,,,,,
15.32.08.980,-111.2,27.8,0,16.0,,61761.8,16.19,0.22,0.74,0.61,4.5,6.2,-2.1,36.81,,,,,,,,,,
15.32.08.988,-159.2,39.8,0,16.0,,62355.8,16.04,0.22,0.73,0.62,4.0,7.1,-1.8,36.81,,,,,,,,,,
15.32.09.000,-165.2,41.3,0,16.0,,61113.8,16.36,0.22,0.75,0.62,2.9,9.2,-1.3,36.81,,,,,,,,,,
15.32.09.013,-164.1,41.0,0,16.0,,58027.6,17.23,0.23,0.75,0.59,4.4,8.6,-2.3,36.81,,,,,,,,,,
15.32.09.021,-180.2,45.0,0,16.0,,62772.8,15.93,0.22,0.72,0.6,5.0,8.1,-4.6,36.81,,,,,,,,,,
15.32.09.033,65.4,16.4,1,17.0,121.5,65977.2,15.16,0.24,0.78,0.62,7.2,9.9,-2.8,36.81,,,,,,,,,,
15.32.09.045,176.6,44.2,0,17.0,,67117.1,14.9,0.24,0.76,0.59,3.8,12.6,-5.2,36.81,,,,,,,,,,
15.32.09.054,220.1,55.0,0,17.0,,64872.6,15.41,0.22,0.77,0.6,5.6,14.3,-5.9,36.81,,,,,,,,,,
15.32.09.066,265.0,66.2,0,17.0,,61211.8,16.34,0.22,0.77,0.59,9.5,17.1,-7.4,36.81,,,,,,,,,,
15.32.09.074,345.2,86.3,0,17.0,,61381.8,16.29,0.2,0.78,0.59,7.0,19.7,-7.8,36.81,,,,,,,,,,
15.32.09.086,335.2,83.8,0,17.0,,63472.8,15.75,0.19,0.78,0.61,3.9,21.8,-7.0,36.81,,,,,,,,,,
15.32.09.098,412.2,103.0,0,17.0,,63861.1,15.66,0.19,0.77,0.62,6.4,22.2,-7.9,36.81,,,,,,,,,,
15.32.09.107,418.0,104.5,0,17.0,,64567.9,15.49,0.21,0.75,0.62,3.3,17.6,-8.1,36.81,,,,,,,,,,
15.32.09.119,425.1,106.3,0,17.0,,60790.9,16.45,0.19,0.74,0.61,5.9,16.3,-6.4,36.81,,,,,,,,,,
15.32.09.131,379.4,94.8,0,17.0,,62485.5,16.0,0.2,0.75,0.63,5.4,15.2,-4.5,36.81,,,,,,,,,,
15.32.09.139,370.6,92.6,0,17.0,,62749.7,15.94,0.19,0.76,0.66,6.3,15.9,1.1,36.81,,,,,,,,,,
15.32.09.152,318.3,79.6,0,17.0,,64209.4,15.57,0.17,0.74,0.55,-2.4,-5.1,1.5,36.81,,,,,,,,,,
15.32.09.164,250.8,62.7,0,17.0,,64883.6,15.41,0.2,0.77,0.63,2.5,-2.0,1.1,36.81,,,,,,,,,,
15.32.09.172,191.3,47.8,0,17.0,,65438.4,15.28,0.19,0.76,0.64,3.6,5.2,2.4,36.81,,,,,,,,,,
15.32.09.185,89.0,22.2,0,17.0,,65653.6,15.23,0.18,0.77,0.6,2.4,7.1,5.2,36.81,,,,,,,,,,
15.32.09.193,9.7,2.4,0,17.0,,63571.4,15.73,0.2,0.76,0.59,-0.2,1.8,4.3,36.81,,,,,,,,,,
15.32.09.205,9.8,2.4,0,17.0,,62513.5,16.0,0.21,0.75,0.58,-5.2,-3.3,3.4,36.81,,,,,,,,,,
15.32.09.217,33.4,8.4,0,17.0,,65890.1,15.18,0.23,0.76,0.61,2.5,-0.8,3.3,36.81,,,,,,,,,,
15.32.09.226,61.2,15.3,0,17.0,,64083.0,15.6,0.23,0.74,0.62,7.5,1.7,2.9,36.81,,,,,,,,,,
15.32.09.238,57.3,14.3,0,17.0,,62020.7,16.12,0.25,0.75,0.61,13.4,5.1,2.2,36.81,,,,,,,,,,
15.32.09.246,70.5,17.6,0,17.0,,67320.4,14.85,0.25,0.75,0.58,24.1,9.4,-0.1,36.81,,,,,,,,,,
15.32.09.258,75.7,18.9,0,17.0,,64722.1,15.45,0.24,0.75,0.6,34.7,13.6,-3.1,36.81,,,,,,,,,,
15.32.09.270,58.5,14.6,0,17.0,,61341.2,16.3,0.22,0.78,0.59,33.9,21.3,-3.2,36.81,,,,,,,,,,
15.32.09.279,42.2,10.6,0,17.0,,66082.1,15.13,0.2,0.8,0.55,35.0,25.8,-5.5,36.81,,,,,,,,,,
15.32.09.291,11.2,2.8,0,17.0,,63173.6,15.83,0.17,0.81,0.59,26.6,25.4,-8.4,36.81,,,,,,,,,,
15.32.09.303,-29.4,7.4,0,17.0,,63618.9,15.72,0.16,0.8,0.6,13.7,22.5,-10.6,36.81,,,,,,,,,,
15.32.09.311,-45.8,11.4,0,17.0,,62249.3,16.06,0.16,0.78,0.57,1.1,20.3,-9.6,36.81,,,,,,,,,,
15.32.09.324,-7.5,1.9,0,17.0,,66467.9,15.04,0.18,0.75,0.56,0.6,23.7,-10.6,36.81,,,,,,,,,,
15.32.09.336,-46.7,11.7,0,17.0,,63330.2,15.79,0.19,0.8,0.6,-8.3,37.5,-14.0,36.81,,,,,,,,,,
15.32.09.344,-48.9,12.2,0,17.0,,63927.9,15.64,0.18,0.79,0.57,-10.3,45.2,-16.0,36.81,,,,,,,,,,
15.32.09.357,-70.2,17.6,0,17.0,,65255.1,15.32,0.17,0.78,0.6,-9.3,54.4,-17.1,36.81,,,,,,,,,,
15.32.09.369,-56.4,14.1,0,17.0,,61797.1,16.18,0.13,0.81,0.6,-14.0,57.3,-15.7,36.81,,,,,,,,,,
15.32.09.410,-99.1,24.8,0,17.0,,62480.6,16.0,0.14,0.83,0.56,-17.3,60.0,-16.2,36.81,,,,,,,,,,
15.32.09.418,-89.5,22.4,0,17.0,,63337.4,15.79,0.12,0.76,0.67,-31.5,56.3,-23.6,36.81,,,,,,,,,,
15.32.09.430,-103.7,25.9,0,17.0,,59662.0,16.76,0.15,0.73,0.65,-15.7,60.8,-28.9,36.81,,,,,,,,,,
15.32.09.438,-110.9,27.7,0,17.0,,69340.3,14.42,0.13,0.78,0.62,-8.5,77.8,-28.1,36.81,,,,,,,,,,
15.32.09.451,-83.3,20.8,0,17.0,,62623.3,15.97,0.14,0.75,0.68,-8.9,99.8,-32.2,36.81,,,,,,,,,,
15.32.09.459,-115.1,28.8,0,17.0,,62262.5,16.06,0.11,0.74,0.57,6.0,95.0,-37.8,36.81,,,,,,,,,,
15.32.09.471,-110.4,27.6,0,17.0,,63940.5,15.64,0.09,0.74,0.59,3.0,87.5,-39.8,36.81,,,,,,,,,,
15.32.09.479,-130.2,32.6,0,17.0,,64898.9,15.41,0.04,0.75,0.65,8.9,73.0,-39.7,36.81,,,,,,,,,,
15.32.09.488,-154.2,38.6,0,17.0,,63257.0,15.81,0.01,0.75,0.66,12.6,62.9,-33.6,36.81,,,,,,,,,,
15.32.09.500,-150.1,37.5,0,17.0,,64076.3,15.61,0.02,0.76,0.64,-0.2,63.4,-29.0,36.81,,,,,,,,,,
15.32.09.512,-151.7,37.9,0,17.0,,63905.5,15.65,0.01,0.72,0.6,19.1,45.0,-17.7,36.81,,,,,,,,,,
15.32.09.520,-145.1,36.3,0,17.0,,64063.0,15.61,0.02,0.76,0.61,22.7,34.4,-5.1,36.81,,,,,,,,,,
15.32.09.533,48.3,12.1,1,18.0,117.2,64754.6,15.44,-0.01,0.77,0.61,27.9,31.2,2.3,36.81,,,,,,,,,,
15.32.09.545,172.5,43.1,0,18.0,,69250.7,14.44,0.1,0.73,0.58,44.1,31.3,22.2,36.81,,,,,,,,,,
15.32.09.553,258.2,64.6,0,18.0,,67560.5,14.8,-0.22,0.81,0.68,27.1,32.1,27.0,36.81,,,,,,,,,,
15.32.09.566,275.8,69.0,0,18.0,,65003.5,15.38,0.01,0.69,0.59,40.2,18.3,36.0,36.81,,,,,,,,,,
15.32.09.578,334.4,83.6,0,18.0,,64571.8,15.49,0.01,0.77,0.61,52.0,6.2,34.1,36.81,,,,,,,,,,
15.32.09.586,355.6,88.9,0,18.0,,62076.6,16.11,0.01,0.83,0.56,42.8,-21.2,23.8,36.81,,,,,,,,,,
15.32.09.598,385.3,96.3,0,18.0,,60024.6,16.66,0.05,0.8,0.54,37.7,-36.8,22.5,36.81,,,,,,,,,,
15.32.09.610,410.1,102.5,0,18.0,,64983.2,15.39,0.07,0.86,0.53,34.5,-38.1,14.5,36.81,,,,,,,,,,
15.32.09.619,412.0,103.0,0,18.0,,65293.3,15.32,0.11,0.87,0.56,25.7,-23.6,3.1,36.81,,,,,,,,,,
15.32.09.631,387.6,96.9,0,18.0,,63962.7,15.63,0.12,0.85,0.56,25.4,-11.0,-7.0,36.81,,,,,,,,,,
15.32.09.643,342.1,85.5,0,18.0,,57574.7,17.37,0.11,0.83,0.55,20.4,-4.4,-13.3,36.81,,,,,,,,,,
15.32.09.651,267.7,66.9,0,18.0,,62358.5,16.04,0.11,0.82,0.56,22.2,1.3,-16.4,36.81,,,,,,,,,,
15.32.09.664,241.5,60.4,0,18.0,,64058.3,15.61,0.09,0.81,0.59,24.8,17.6,-18.1,36.81,,,,,,,,,,
15.32.09.676,119.3,29.8,0,18.0,,60388.9,16.56,0.02,0.8,0.62,27.5,37.4,-16.7,36.81,,,,,,,,,,
15.32.09.689,80.0,20.0,0,18.0,,65749.9,15.21,-0.02,0.78,0.6,28.2,44.2,-16.1,36.81,,,,,,,,,,
15.32.09.697,38.7,9.7,0,18.0,,63762.9,15.68,-0.08,0.74,0.6,29.5,40.9,-12.0,36.81,,,,,,,,,,
15.32.09.709,-2.7,0.7,0,18.0,,61302.2,16.31,-0.18,0.73,0.61,21.1,36.2,-0.3,36.81,,,,,,,,,,
15.32.09.721,73.0,18.2,0,18.0,,60384.3,16.56,-0.14,0.78,0.53,13.5,7.3,5.2,36.81,,,,,,,,,,
15.32.09.733,82.4,20.6,0,18.0,,63705.7,15.7,-0.02,0.86,0.59,14.8,15.6,-7.6,36.81,,,,,,,,,,
15.32.09.742,75.6,18.9,0,18.0,,64827.2,15.43,-0.01,0.87,0.46,20.2,-9.3,-19.5,36.81,,,,,,,,,,
15.32.09.754,78.5,19.6,0,18.0,,60429.5,16.55,0.06,0.95,0.45,23.7,-4.7,-32.6,36.81,,,,,,,,,,
15.32.09.766,81.8,20.4,0,18.0,,62826.8,15.92,0.03,0.99,0.33,22.8,-26.1,-58.7,36.81,,,,,,,,,,
15.32.09.778,43.7,10.9,0,18.0,,64662.4,15.46,0.06,0.95,0.39,26.5,-26.4,-68.0,36.81,,,,,,,,,,
15.32.09.787,37.5,9.4,0,18.0,,61004.4,16.39,0.03,0.91,0.43,26.8,3.7,-68.4,36.81,,,,,,,,,,
15.32.09.799,-18.8,4.7,0,18.0,,65725.6,15.21,0.02,0.89,0.47,32.4,31.0,-63.4,36.81,,,,,,,,,,
15.32.09.811,16.9,4.2,0,18.0,,63641.1,15.71,-0.02,0.88,0.48,40.5,38.9,-67.2,36.81,,,,,,,,,,
15.32.09.823,-65.7,16.4,0,18.0,,63288.1,15.8,-0.17,0.87,0.49,55.7,49.2,-71.8,36.81,,,,,,,,,,
15.32.09.832,-25.3,6.3,0,18.0,,65712.2,15.22,-0.18,0.89,0.43,37.3,45.3,-68.2,36.81,,,,,,,,,,
15.32.09.844,-0.1,0.0,0,18.0,,66218.3,15.1,-0.15,0.91,0.45,54.8,51.4,-79.3,36.81,,,,,,,,,,
15.32.09.857,-15.4,3.8,0,18.0,,61055.6,16.38,-0.24,0.98,0.38,69.6,32.7,-100.9,36.81,,,,,,,,,,
15.32.09.869,-39.6,9.9,0,18.0,,66143.5,15.12,-0.22,0.95,0.34,60.8,23.8,-105.3,36.81,,,,,,,,,,
15.32.09.877,-85.5,21.4,0,18.0,,66909.3,14.95,-0.21,1.0,0.37,60.5,26.6,-107.4,36.81,,,,,,,,,,
15.32.09.889,-41.0,10.2,0,18.0,,62021.9,16.12,-0.07,1.09,0.23,6.4,76.0,-104.3,36.81,,,,,,,,,,
15.32.09.902,-51.7,12.9,0,18.0,,65019.3,15.38,-0.24,1.04,0.34,49.7,58.5,-120.2,36.81,,,,,,,,,,
15.32.09.914,-87.8,22.0,0,18.0,,63125.2,15.84,-0.17,1.01,0.49,35.6,39.8,-108.9,36.81,,,,,,,,,,
15.32.09.926,-83.9,21.0,0,18.0,,63508.7,15.75,-0.18,1.05,0.56,49.3,35.3,-110.3,36.81,,,,,,,,,,
15.32.09.934,-100.2,25.0,0,18.0,,64163.5,15.59,-0.31,1.08,0.7,61.5,65.2,-112.6,36.81,,,,,,,,,,
15.32.09.946,-118.0,29.5,0,18.0,,59693.0,16.75,-0.44,1.13,0.6,34.8,88.9,-103.0,36.81,,,,,,,,,,
15.32.09.959,-118.2,29.6,0,18.0,,59523.0,16.8,-0.4,1.09,0.48,28.3,53.8,-101.6,36.81,,,,,,,,,,
15.32.09.971,-119.8,30.0,0,18.0,,59797.8,16.72,-0.43,0.99,0.42,51.2,11.6,-107.3,36.81,,,,,,,,,,
15.32.09.983,-113.0,28.2,0,18.0,,66397.3,15.06,-0.37,0.97,0.41,46.1,13.6,-103.2,36.81,,,,,,,,,,
15.32.09.991,-126.1,31.5,0,18.0,,64399.1,15.53,-0.36,0.92,0.42,42.0,19.6,-99.5,36.81,,,,,,,,,,
15.32.10.004,-175.4,43.8,0,18.0,,62783.9,15.93,-0.34,0.85,0.4,34.8,19.7,-87.2,36.81,,,,,,,,,,
15.32.10.016,-134.4,33.6,0,18.0,,66777.6,14.98,-0.3,0.87,0.48,20.9,29.8,-78.7,36.81,,,,,,,,,,
15.32.10.028,-24.9,6.2,1,19.0,122.6,64917.1,15.4,-0.34,0.88,0.54,1.4,44.2,-66.6,36.81,,,,,,,,,,
15.32.10.037,73.9,18.5,0,19.0,,65595.3,15.24,-0.39,0.83,0.45,-4.4,46.4,-66.5,36.81,,,,,,,,,,
15.32.10.049,153.5,38.4,0,19.0,,66993.9,14.93,-0.42,0.77,0.44,-20.9,43.2,-64.0,36.81,,,,,,,,,,
15.32.10.061,226.9,56.7,0,19.0,,57482.1,17.4,-0.43,0.76,0.4,-27.6,52.1,-59.6,36.81,,,,,,,,,,
15.32.10.074,317.0,79.2,0,19.0,,63124.9,15.84,-0.41,0.78,0.35,-22.7,50.7,-66.2,36.81,,,,,,,,,,
15.32.10.082,349.4,87.4,0,19.0,,66036.4,15.14,-0.54,0.76,0.29,-30.9,36.8,-54.6,36.81,,,,,,,,,,
15.32.10.094,331.1,82.8,0,19.0,,65654.5,15.23,-0.38,0.73,0.3,-17.0,24.2,-33.8,36.81,,,,,,,,,,
15.32.10.106,400.1,100.0,0,19.0,,61549.4,16.25,-0.48,0.81,0.27,11.0,26.6,-25.4,36.81,,,,,,,,,,
15.32.10.118,366.6,91.6,0,19.0,,62657.1,15.96,-0.49,0.77,0.22,11.3,25.0,-33.2,36.81,,,,,,,,,,
15.32.10.127,364.1,91.0,0,19.0,,63959.8,15.63,-0.53,0.79,0.26,16.7,20.1,-27.4,36.81,,,,,,,,,,
15.32.10.139,352.7,88.2,0,19.0,,64488.9,15.51,-0.58,0.72,0.23,18.5,-4.8,-19.5,36.81,,,,,,,,,,
15.32.10.151,378.3,94.6,0,19.0,,64635.7,15.47,-0.49,0.73,0.31,18.8,-11.3,-17.5,36.81,,,,,,,,,,
15.32.10.164,253.6,63.4,0,19.0,,63435.3,15.76,-0.55,0.73,0.26,-1.6,-26.1,-16.9,36.81,,,,,,,,,,
15.32.10.172,196.7,49.2,0,19.0,,62608.6,15.97,-0.5,0.67,0.23,-21.2,-19.7,7.4,36.81,,,,,,,,,,
15.32.10.213,14.9,3.7,0,19.0,,62970.8,15.88,-0.46,0.59,0.24,41.5,-20.6,-5.8,36.81,,,,,,,,,,
15.32.10.225,34.7,8.7,0,19.0,,68660.6,14.56,-0.57,0.75,0.36,45.7,-12.7,-16.6,36.81,,,,,,,,,,
15.32.10.237,62.6,15.6,0,19.0,,61624.3,16.23,-0.52,0.65,0.25,48.7,-15.6,-17.6,36.81,,,,,,,,,,
15.32.10.250,53.0,13.2,0,19.0,,62676.0,15.96,-0.41,0.71,0.44,75.7,-8.5,-21.0,36.81,,,,,,,,,,
15.32.10.258,66.3,16.6,0,19.0,,65935.2,15.17,-0.26,0.66,0.21,78.5,-5.3,-31.8,36.81,,,,,,,,,,
15.32.10.270,47.7,11.9,0,19.0,,63326.3,15.79,-0.44,0.72,0.31,79.1,-24.6,-35.2,36.81,,,,,,,,,,
15.32.10.282,47.4,11.8,0,19.0,,62833.4,15.92,-0.51,0.66,0.56,88.1,-2.9,-32.5,36.81,,,,,,,,,,
15.32.10.295,29.0,7.2,0,19.0,,62337.9,16.04,-0.47,0.71,0.24,84.8,-12.1,-32.7,36.81,,,,,,,,,,
15.32.10.303,-32.0,8.0,0,19.0,,65800.1,15.2,-0.51,0.79,0.29,81.3,-23.1,-34.8,36.81,,,,,,,,,,
15.32.10.315,-44.9,11.2,0,19.0,,64657.1,15.47,-0.45,0.81,0.36,100.9,-12.4,-42.1,36.81,,,,,,,,,,
15.32.10.327,-18.7,4.7,0,19.0,,66222.3,15.1,-0.49,0.85,0.28,98.1,-14.1,-42.4,36.81,,,,,,,,,,
15.32.10.340,-5.5,1.4,0,19.0,,62896.5,15.9,-0.38,0.83,0.31,107.4,0.7,-44.7,36.81,,,,,,,,,,
15.32.10.352,-31.1,7.8,0,19.0,,67935.9,14.72,-0.43,0.87,0.31,90.7,-2.6,-41.0,36.81,,,,,,,,,,
15.32.10.360,-68.1,17.0,0,19.0,,62711.6,15.95,-0.49,0.82,0.23,104.5,-26.4,-31.7,36.81,,,,,,,,,,
15.32.10.373,-59.2,14.8,0,19.0,,63246.5,15.81,-0.37,0.82,0.14,130.2,-19.4,-40.1,36.81,,,,,,,,,,
15.32.10.396,-30.2,7.6,0,19.0,,67602.1,14.79,-0.37,0.82,0.14,130.2,-19.4,-40.1,36.81,,,,,,,,,,
15.32.10.399,-50.8,12.7,0,19.0,,63929.8,15.64,-0.59,0.82,0.16,,,-12.9,36.81,,,,,,,,,,
15.32.10.797,18.1,4.5,1,20.0,117.4,63615.0,15.72,-0.53,0.78,-0.38,1.1,62.2,-12.9,36.81,118.9,,,,,,,,,
15.32.10.798,39.3,9.8,0,20.0,,60237.4,16.6,-0.53,0.78,-0.38,-2.2,70.1,-15.3,36.81,,,,,,,,,,
15.32.10.803,2.7,0.7,0,20.0,,63382.9,15.78,-0.71,0.73,-0.46,-52.7,26.7,-0.4,36.81,,,,,,,,,,
15.32.10.815,-6.3,1.6,0,20.0,,66672.4,15.0,-0.52,0.9,-0.31,16.8,89.0,-14.1,36.81,,,,,,,,,,
15.32.10.827,-36.6,9.2,0,20.0,,61674.9,16.21,-0.54,0.77,-0.4,-17.9,60.0,-0.3,36.81,,,,,,,,,,
15.32.10.839,-25.4,6.4,0,20.0,,58821.1,17.0,-0.5,0.64,-0.46,-7.6,51.1,-1.1,36.81,,,,,,,,,,
15.32.10.852,-29.9,7.5,0,20.0,,63745.7,15.69,-0.56,0.78,-0.41,-2.3,54.2,2.3,36.81,,,,,,,,,,
15.32.10.860,-33.7,8.4,0,20.0,,59416.2,16.83,-0.56,0.78,-0.4,-6.3,47.7,5.2,36.81,,,,,,,,,,
15.32.10.872,-44.3,11.1,0,20.0,,65287.5,15.32,-0.58,0.77,-0.38,-13.1,46.0,8.9,36.81,,,,,,,,,,
15.32.10.884,-51.7,12.9,0,20.0,,65381.5,15.29,-0.52,0.72,-0.33,-17.2,34.0,12.0,36.81,,,,,,,,,,
15.32.10.897,-55.4,13.8,0,20.0,,68409.3,14.62,-0.51,0.71,-0.28,-21.3,25.5,14.0,36.81,,,,,,,,,,
15.32.10.909,-46.9,11.7,0,20.0,,65258.0,15.32,-0.51,0.71,-0.24,-6.4,25.0,9.5,36.81,,,,,,,,,,
15.32.10.918,-76.0,19.0,0,20.0,,65027.9,15.38,-0.5,0.71,-0.27,2.2,20.7,6.5,36.81,,,,,,,,,,
15.32.10.930,-97.0,24.2,0,20.0,,62052.1,16.12,-0.52,0.69,-0.28,10.4,19.5,4.9,36.81,,,,,,,,,,
15.32.10.942,-99.3,24.8,0,20.0,,59832.8,16.71,-0.55,0.63,-0.34,26.2,13.8,2.1,36.81,,,,,,,,,,
15.32.10.954,-104.0,26.0,0,20.0,,62602.1,15.97,-0.57,0.69,-0.27,42.5,9.6,0.7,36.81,,,,,,,,,,
15.32.10.963,-108.8,27.2,0,20.0,,64878.9,15.41,-0.58,0.79,-0.31,36.5,10.0,5.1,36.81,,,,,,,,,,
15.32.10.975,-118.6,29.6,0,20.0,,66122.2,15.12,-0.67,0.84,-0.34,16.1,12.3,3.5,36.81,,,,,,,,,,
15.32.11.016,-165.1,41.3,0,20.0,,64845.0,15.42,-0.55,0.63,-0.4,47.6,5.5,-8.7,36.81,,,,,,,,,,
15.32.11.028,-154.8,38.7,0,20.0,,64263.2,15.56,-0.51,0.64,-0.43,60.5,7.9,-12.8,36.81,,,,,,,,,,
15.32.11.040,94.9,23.7,1,21.0,120.0,66793.5,14.97,-0.55,0.68,-0.45,67.4,13.0,-16.3,36.81,,,,,,,,,,
15.32.11.048,142.5,35.6,0,21.0,,63403.3,15.77,-0.61,0.64,-0.64,42.6,-22.3,-6.7,36.81,,,,,,,,,,
15.32.11.061,201.7,50.4,0,21.0,,65919.9,15.17,-0.58,0.69,-0.36,77.7,12.8,-14.9,36.81,,,,,,,,,,
15.32.11.073,285.4,71.4,0,21.0,,62079.2,16.11,-0.57,0.74,-0.53,59.8,3.5,-7.9,36.81,,,,,,,,,,
15.32.11.086,331.7,82.9,0,21.0,,65715.6,15.22,-0.6,0.7,-0.47,48.1,-12.1,-5.6,36.81,,,,,,,,,,
15.32.11.093,343.3,85.8,0,21.0,,62833.9,15.91,-0.58,0.71,-0.45,67.5,2.7,-6.1,36.81,,,,,,,,,,
15.32.11.106,393.2,98.3,0,21.0,,63298.2,15.8,-0.54,0.74,-0.48,57.1,3.0,-2.2,36.81,,,,,,,,,,
15.32.11.118,380.1,95.0,0,21.0,,64747.2,15.44,-0.58,0.72,-0.47,60.8,0.1,1.1,36.81,,,,,,,,,,
15.32.11.130,369.7,92.4,0,21.0,,66089.5,15.13,-0.56,0.71,-0.46,55.0,-0.8,4.6,36.81,,,,,,,,,,
15.32.11.143,356.9,89.2,0,21.0,,65117.4,15.36,-0.62,0.68,-0.46,44.5,-4.3,3.6,36.81,,,,,,,,,,
15.32.11.151,372.6,93.2,0,21.0,,64981.7,15.39,-0.55,0.75,-0.47,41.8,4.3,6.8,36.81,,,,,,,,,,
15.32.11.163,284.0,71.0,0,21.0,,63718.5,15.69,-0.57,0.71,-0.5,23.5,-3.4,13.5,36.81,,,,,,,,,,
15.32.11.175,228.3,57.1,0,21.0,,64571.9,15.49,-0.58,0.71,-0.5,19.7,1.3,13.5,36.81,,,,,,,,,,
15.32.11.188,108.6,27.2,0,21.0,,61001.2,16.39,-0.59,0.73,-0.47,10.5,1.1,18.0,36.81,,,,,,,,,,
15.32.11.200,44.4,11.1,0,21.0,,65091.3,15.36,-0.63,0.68,-0.5,10.1,4.6,20.6,36.81,,,,,,,,,,
15.32.11.208,4.1,1.0,0,21.0,,63980.2,15.63,-0.63,0.69,-0.54,10.2,6.8,24.7,36.81,,,,,,,,,,
15.32.11.220,66.8,16.7,0,21.0,,60733.4,16.47,-0.64,0.64,-0.54,9.0,7.1,26.6,36.81,,,,,,,,,,
15.32.11.233,65.7,16.4,0,21.0,,60870.0,16.43,-0.62,0.62,-0.56,7.8,5.4,24.4,36.81,,,,,,,,,,
15.32.11.245,64.3,16.1,0,21.0,,68032.6,14.7,-0.63,0.61,-0.55,11.6,4.0,24.8,36.81,,,,,,,,,,
15.32.11.257,69.5,17.4,0,21.0,,65370.8,15.3,-0.6,0.63,-0.54,20.9,4.4,26.0,36.81,,,,,,,,,,
15.32.11.270,78.2,19.6,0,21.0,,64794.4,15.43,-0.59,0.61,-0.55,12.7,1.3,24.5,36.81,,,,,,,,,,
15.32.11.278,89.3,22.3,0,21.0,,61643.8,16.22,-0.58,0.59,-0.55,12.7,7.1,25.4,36.81,,,,,,,,,,
15.32.11.290,14.9,3.7,0,21.0,,67426.5,14.83,-0.58,0.61,-0.55,8.0,5.0,23.7,36.81,,,,,,,,,,
15.32.11.298,14.3,3.6,0,21.0,,61593.5,16.24,-0.57,0.6,-0.53,3.3,-1.1,24.3,36.81,,,,,,,,,,
15.32.11.311,30.2,7.6,0,21.0,,63834.1,15.67,-0.56,0.63,-0.52,-2.4,-5.6,25.1,36.81,,,,,,,,,,
15.32.11.319,-32.4,8.1,0,21.0,,64006.8,15.62,-0.54,0.66,-0.51,-3.6,-8.1,27.8,36.81,,,,,,,,,,
15.32.11.331,-12.6,3.2,0,21.0,,57656.1,17.34,-0.51,0.73,-0.47,-14.3,-11.6,34.6,36.81,,,,,,,,,,
15.32.11.343,-36.8,9.2,0,21.0,,62998.9,15.87,-0.52,0.67,-0.49,-16.0,-7.9,33.1,36.81,,,,,,,,,,
15.32.11.352,-22.0,5.5,0,21.0,,65410.7,15.29,-0.52,0.64,-0.41,4.3,-15.9,22.3,36.81,,,,,,,,,,
15.32.11.364,-2.5,0.6,0,21.0,,65093.4,15.36,-0.49,0.79,-0.4,-4.4,-19.6,33.1,36.81,,,,,,,,,,
15.32.11.372,-84.5,21.1,0,21.0,,62868.3,15.91,-0.53,0.67,-0.41,-0.9,-21.8,30.5,36.81,,,,,,,,,,
15.32.11.384,-76.0,19.0,0,21.0,,62907.9,15.9,-0.51,0.73,-0.43,-0.2,-26.0,34.3,36.81,,,,,,,,,,
15.32.11.397,-67.6,16.9,0,21.0,,63276.0,15.8,-0.5,0.71,-0.45,-6.6,-28.2,33.5,36.81,,,,,,,,,,
15.32.11.405,-92.4,23.1,0,21.0,,63767.9,15.68,-0.5,0.75,-0.44,-13.0,-29.2,33.6,36.81,,,,,,,,,,
15.32.11.417,-71.0,17.8,0,21.0,,62668.2,15.96,-0.49,0.77,-0.46,-24.6,-29.1,34.5,36.81,,,,,,,,,,
15.32.11.430,-83.8,21.0,0,21.0,,64538.8,15.49,-0.49,0.76,-0.49,-35.9,-28.3,36.6,36.81,,,,,,,,,,
15.32.11.438,-113.4,28.4,0,21.0,,64880.8,15.41,-0.49,0.74,-0.53,-41.2,-28.6,36.6,36.81,,,,,,,,,,
15.32.11.450,-113.7,28.4,0,21.0,,65621.8,15.24,-0.48,0.73,-0.53,-46.5,-30.9,35.0,36.81,,,,,,,,,,
15.32.11.458,-99.7,24.9,0,21.0,,65330.7,15.31,-0.44,0.65,-0.63,-55.0,-34.1,35.4,36.81,,,,,,,,,,
15.32.11.470,-125.8,31.4,0,21.0,,67083.6,14.91,-0.47,0.74,-0.5,-43.3,-32.4,33.1,36.81,,,,,,,,,,
15.32.11.483,-148.5,37.1,0,21.0,,62465.4,16.01,-0.45,0.73,-0.47,-42.7,-35.1,31.4,36.81,,,,,,,,,,
15.32.11.491,-108.5,27.1,0,21.0,,64174.3,15.58,-0.48,0.64,-0.46,-31.2,-31.9,24.8,36.81,,,,,,,,,,
15.32.11.503,-112.8,28.2,0,21.0,,62103.7,16.1,-0.49,0.69,-0.37,-14.8,-31.1,20.0,36.81,,,,,,,,,,
15.32.11.515,-152.9,38.2,0,21.0,,62938.6,15.89,-0.49,0.78,-0.36,-12.7,-32.8,22.3,36.81,,,,,,,,,,
15.32.11.524,-155.2,38.8,0,21.0,,63345.5,15.79,-0.51,0.74,-0.38,-5.2,-36.3,19.2,36.81,,,,,,,,,,
15.32.11.536,43.0,10.8,1,22.0,116.1,62460.9,16.01,-0.49,0.83,-0.36,-6.8,-42.7,22.9,36.81,,,,,,,,,,
15.32.11.548,126.9,31.7,0,22.0,,66036.1,15.14,-0.5,0.75,-0.37,18.9,-37.6,20.5,36.81,,,,,,,,,,
15.32.11.557,167.2,41.8,0,22.0,,63914.1,15.65,-0.47,0.73,-0.39,7.4,-57.6,15.9,36.81,,,,,,,,,,
15.32.11.569,248.6,62.2,0,22.0,,63757.6,15.68,-0.42,0.73,-0.39,28.4,-52.2,9.1,36.81,,,,,,,,,,
15.32.11.581,318.0,79.5,0,22.0,,65068.5,15.37,-0.42,0.79,-0.4,28.7,-51.5,5.3,36.81,,,,,,,,,,
15.32.11.593,368.6,92.2,0,22.0,,64942.3,15.4,-0.42,0.79,-0.38,22.6,-52.5,2.9,36.81,,,,,,,,,,
15.32.11.601,363.6,90.9,0,22.0,,63472.1,15.75,-0.43,0.81,-0.34,30.3,-44.8,4.1,36.81,,,,,,,,,,
15.32.11.614,402.8,100.7,0,22.0,,63657.8,15.71,-0.38,0.75,-0.42,14.5,-56.5,-1.1,36.81,,,,,,,,,,
15.32.11.622,372.5,93.1,0,22.0,,68986.4,14.5,-0.39,0.72,-0.4,7.7,-53.8,-3.3,36.81,,,,,,,,,,
15.32.11.634,388.6,97.2,0,22.0,,62601.7,15.97,-0.44,0.72,-0.37,20.9,-54.2,-4.2,36.81,,,,,,,,,,
15.32.11.647,364.6,91.2,0,22.0,,63078.3,15.85,-0.4,0.77,-0.38,15.8,-54.6,-4.4,36.81,,,,,,,,,,
15.32.11.655,356.7,89.2,0,22.0,,61570.1,16.24,-0.46,0.8,-0.39,11.1,-57.1,-2.3,36.81,,,,,,,,,,
15.32.11.667,296.5,74.1,0,22.0,,66062.4,15.14,-0.42,0.8,-0.41,10.1,-47.5,-4.1,36.81,,,,,,,,,,
15.32.11.675,194.9,48.7,0,22.0,,60796.9,16.45,-0.5,0.82,-0.44,4.3,-54.7,-1.4,36.81,,,,,,,,,,
15.32.11.688,176.9,44.2,0,22.0,,64429.0,15.52,-0.45,0.79,-0.45,-0.3,-47.6,-3.5,36.81,,,,,,,,,,
15.32.11.700,55.0,13.8,0,22.0,,61100.6,16.37,-0.5,0.77,-0.46,-5.0,-52.9,1.8,36.81,,,,,,,,,,
15.32.11.708,-21.8,5.4,0,22.0,,67838.2,14.74,-0.49,0.78,-0.45,-3.6,-48.9,3.1,36.81,,,,,,,,,,
15.32.11.720,26.7,6.7,0,22.0,,59363.6,16.85,-0.5,0.78,-0.45,-5.7,-48.6,4.8,36.81,,,,,,,,,,
15.32.11.728,25.8,6.4,0,22.0,,61833.0,16.17,-0.52,0.78,-0.43,6.9,-33.1,6.5,36.81,,,,,,,,,,
15.32.11.741,74.5,18.6,0,22.0,,63180.7,15.83,-0.51,0.76,-0.46,-7.5,-39.7,3.8,36.81,,,,,,,,,,
15.32.11.753,100.3,25.1,0,22.0,,66493.3,15.04,-0.52,0.77,-0.41,-6.7,-38.4,3.3,36.81,,,,,,,,,,
15.32.11.761,56.6,14.2,0,22.0,,59663.6,16.76,-0.53,0.79,-0.42,-2.3,-34.7,3.2,36.81,,,,,,,,,,
15.32.11.774,60.7,15.2,0,22.0,,63513.1,15.74,-0.54,0.77,-0.41,3.5,-33.6,2.5,36.81,,,,,,,,,,
15.32.11.782,60.0,15.0,0,22.0,,61776.1,16.19,-0.54,0.76,-0.43,9.7,-26.9,1.7,36.81,,,,,,,,,,
15.32.11.818,7.8,2.0,0,22.0,,64444.0,15.52,-0.55,0.76,-0.42,10.4,-29.7,1.1,36.81,,,,,,,,,,
15.32.11.831,4.2,1.0,0,22.0,,63770.2,15.68,-0.55,0.77,-0.37,16.5,-20.0,1.0,36.81,,,,,,,,,,
15.32.11.839,-42.7,10.7,0,22.0,,63441.5,15.76,-0.55,0.79,-0.36,12.9,-23.2,1.9,36.81,,,,,,,,,,
15.32.11.851,-31.0,7.8,0,22.0,,63206.8,15.82,-0.54,0.79,-0.34,14.7,-16.2,1.3,36.81,,,,,,,,,,
15.32.11.864,-7.0,1.8,0,22.0,,63088.1,15.85,-0.55,0.79,-0.34,13.0,-19.6,3.3,36.81,,,,,,,,,,
15.32.11.872,-58.5,14.6,0,22.0,,61097.2,16.37,-0.55,0.8,-0.33,12.8,-17.8,3.3,36.81,,,,,,,,,,
15.32.11.884,-39.5,9.9,0,22.0,,58457.7,17.11,-0.55,0.81,-0.31,11.0,-17.7,4.1,36.81,,,,,,,,,,
15.32.11.893,-97.3,24.3,0,22.0,,62737.3,15.94,-0.56,0.81,-0.29,7.8,-16.9,4.5,36.81,,,,,,,,,,
15.32.11.905,-96.0,24.0,0,22.0,,64268.2,15.56,-0.55,0.81,-0.25,11.0,-11.3,5.7,36.81,,,,,,,,,,
15.32.11.913,-69.0,17.2,0,22.0,,65076.5,15.37,-0.56,0.8,-0.26,1.3,-14.6,6.4,36.81,,,,,,,,,,
15.32.11.925,-59.5,14.9,0,22.0,,62225.3,16.07,-0.56,0.76,-0.24,-2.2,-16.2,6.3,36.81,,,,,,,,,,
15.32.11.933,-90.3,22.6,0,22.0,,65765.7,15.21,-0.59,0.78,-0.25,-2.8,-15.4,6.7,36.81,,,,,,,,,,
15.32.11.946,-85.7,21.4,0,22.0,,60055.3,16.65,-0.58,0.8,-0.26,-3.7,-16.9,6.0,36.81,,,,,,,,,,
15.32.11.954,-111.8,28.0,0,22.0,,64571.1,15.49,-0.57,0.83,-0.28,-12.6,-18.5,4.5,36.81,,,,,,,,,,
15.32.11.966,-113.6,28.4,0,22.0,,66025.1,15.15,-0.62,0.76,-0.26,-13.0,-20.0,5.8,36.81,,,,,,,,,,
15.32.11.978,-125.5,31.4,0,22.0,,63394.9,15.77,-0.6,0.8,-0.24,-13.9,-18.9,5.2,36.81,,,,,,,,,,
15.32.11.987,-98.7,24.7,0,22.0,,63272.8,15.8,-0.63,0.73,-0.24,-12.1,-25.7,4.9,36.81,,,,,,,,,,
15.32.11.999,-101.8,25.4,0,22.0,,64052.0,15.61,-0.6,0.72,-0.24,-11.5,-23.5,2.2,36.81,,,,,,,,,,
15.32.12.007,-88.1,22.0,0,22.0,,62274.6,16.06,-0.62,0.73,-0.25,-6.0,-26.7,1.3,36.81,,,,,,,,,,
15.32.12.019,-150.3,37.6,0,22.0,,67189.5,14.88,-0.64,0.71,-0.26,-4.7,-28.1,-1.2,36.81,,,,,,,,,,
15.32.12.028,-115.9,29.0,0,22.0,,62277.0,16.06,-0.64,0.68,-0.28,-4.2,-33.5,-3.7,36.81,,,,,,,,,,
15.32.12.040,28.2,7.0,1,23.0,120.1,62416.0,16.02,-0.64,0.71,-0.25,3.2,-33.3,-6.8,36.81,,,,,,,,,,
15.32.12.052,136.8,34.2,0,23.0,,65683.1,15.22,-0.59,0.72,-0.27,1.8,-32.3,-10.6,36.81,,,,,,,,,,
15.32.12.060,180.7,45.2,0,23.0,,64023.6,15.62,-0.67,0.72,-0.25,8.3,-33.4,-8.8,36.81,,,,,,,,,,
15.32.12.073,242.3,60.6,0,23.0,,64043.3,15.61,-0.63,0.72,-0.25,7.0,-33.2,-11.1,36.81,,,,,,,,,,
15.32.12.081,328.4,82.1,0,23.0,,61993.7,16.13,-0.67,0.7,-0.27,10.7,-37.8,-11.4,36.81,,,,,,,,,,
15.32.12.096,343.8,86.0,0,23.0,,61373.3,16.29,-0.65,0.7,-0.24,15.3,-34.2,-9.8,36.81,,,,,,,,,,
15.32.12.101,398.7,99.7,0,23.0,,63515.5,15.74,-0.65,0.72,-0.3,10.5,-37.0,-12.7,36.81,,,,,,,,,,
15.32.12.114,405.5,101.4,0,23.0,,60857.1,16.43,-0.68,0.71,-0.24,14.8,-37.6,-12.9,36.81,,,,,,,,,,
15.32.12.126,407.4,101.8,0,23.0,,65071.0,15.37,-0.66,0.7,-0.25,13.1,-35.7,-15.0,36.81,,,,,,,,,,
15.32.12.134,415.8,104.0,0,23.0,,62537.9,15.99,-0.66,0.69,-0.28,14.3,-41.1,-13.7,36.81,,,,,,,,,,
15.32.12.146,364.2,91.0,0,23.0,,61926.2,16.15,-0.68,0.71,-0.24,16.0,-34.7,-16.4,36.81,,,,,,,,,,
15.32.12.155,330.2,82.6,0,23.0,,66856.0,14.96,-0.63,0.7,-0.28,16.4,-39.7,-14.4,36.81,,,,,,,,,,
15.32.12.167,280.9,70.2,0,23.0,,65220.4,15.33,-0.67,0.72,-0.26,13.1,-36.9,-16.0,36.81,,,,,,,,,,
15.32.12.179,206.1,51.5,0,23.0,,61322.5,16.31,-0.67,0.7,-0.25,17.4,-35.7,-15.2,36.81,,,,,,,,,,
15.32.12.187,152.3,38.1,0,23.0,,61177.0,16.35,-0.67,0.71,-0.25,17.6,-32.7,-15.7,36.81,,,,,,,,,,
15.32.12.200,69.7,17.4,0,23.0,,61223.6,16.33,-0.68,0.7,-0.25,18.9,-33.7,-14.6,36.81,,,,,,,,,,
15.32.12.208,17.9,4.5,0,23.0,,65474.8,15.27,-0.67,0.71,-0.26,18.0,-34.1,-14.6,36.81,,,,,,,,,,
15.32.12.220,25.6,6.4,0,23.0,,62323.5,16.05,-0.67,0.7,-0.27,18.4,-35.6,-13.8,36.81,,,,,,,,,,
15.32.12.232,65.9,16.5,0,23.0,,65433.5,15.28,-0.65,0.71,-0.24,17.0,-33.3,-14.8,36.81,,,,,,,,,,
15.32.12.241,74.2,18.6,0,23.0,,61615.7,16.23,-0.66,0.7,-0.25,18.3,-32.3,-13.0,36.81,,,,,,,,,,
15.32.12.253,55.0,13.8,0,23.0,,64865.6,15.42,-0.64,0.7,-0.26,17.5,-31.4,-13.8,36.81,,,,,,,,,,
15.32.12.261,71.8,18.0,0,23.0,,68376.3,14.62,-0.64,0.71,-0.25,17.8,-30.3,-13.3,36.81,,,,,,,,,,
15.32.12.273,59.0,14.8,0,23.0,,63466.5,15.76,-0.65,0.71,-0.23,18.1,-31.9,-12.7,36.81,,,,,,,,,,
15.32.12.286,29.4,7.4,0,23.0,,62104.2,16.1,-0.63,0.73,-0.24,19.5,-24.8,-13.2,36.81,,,,,,,,,,
15.32.12.294,74.3,18.6,0,23.0,,62332.0,16.04,-0.65,0.74,-0.24,15.5,-27.1,-11.5,36.81,,,,,,,,,,
15.32.12.306,17.2,4.3,0,23.0,,65353.0,15.3,-0.64,0.73,-0.22,16.8,-23.8,-10.9,36.81,,,,,,,,,,
15.32.12.314,4.5,1.1,0,23.0,,61529.2,16.25,-0.64,0.73,-0.22,15.8,-24.6,-9.6,36.81,,,,,,,,,,
15.32.12.327,-7.0,1.8,0,23.0,,64258.3,15.56,-0.63,0.72,-0.21,15.1,-24.2,-8.7,36.81,,,,,,,,,,
15.32.12.335,-22.1,5.5,0,23.0,,68435.9,14.61,-0.63,0.72,-0.21,14.8,-23.7,-7.5,36.81,,,,,,,,,,
15.32.12.347,-52.4,13.1,0,23.0,,67334.6,14.85,-0.64,0.72,-0.2,15.3,-21.5,-6.9,36.81,,,,,,,,,,
15.32.12.359,-64.4,16.1,0,23.0,,65959.5,15.16,-0.63,0.73,-0.21,14.5,-21.3,-6.0,36.81,,,,,,,,,,
15.32.12.368,-43.4,10.8,0,23.0,,64278.5,15.56,-0.64,0.72,-0.21,13.7,-21.1,-6.1,36.81,,,,,,,,,,
15.32.12.380,-30.4,7.6,0,23.0,,62399.0,16.03,-0.64,0.73,-0.22,14.2,-22.0,-6.4,36.81,,,,,,,,,,
15.32.12.388,-21.6,5.4,0,23.0,,63542.7,15.74,-0.64,0.73,-0.21,13.7,-23.0,-7.0,36.81,,,,,,,,,,
15.32.12.400,-80.7,20.2,0,23.0,,58847.4,16.99,-0.64,0.72,-0.22,15.6,-23.7,-7.6,36.81,,,,,,,,,,
15.32.12.413,-66.4,16.6,0,23.0,,61947.6,16.14,-0.63,0.73,-0.23,17.0,-23.1,-8.8,36.81,,,,,,,,,,
15.32.12.421,-59.1,14.8,0,23.0,,67360.2,14.85,-0.62,0.72,-0.22,16.9,-23.1,-9.0,36.81,,,,,,,,,,
15.32.12.433,-94.9,23.7,0,23.0,,69491.1,14.39,-0.62,0.73,-0.21,17.2,-21.3,-8.9,36.81,,,,,,,,,,
15.32.12.441,-83.6,20.9,0,23.0,,63317.4,15.79,-0.61,0.73,-0.21,17.9,-19.2,-9.2,36.81,,,,,,,,,,
15.32.12.454,-158.4,39.6,0,23.0,,56604.5,17.67,-0.61,0.73,-0.21,17.0,-16.4,-9.4,36.81,,,,,,,,,,
15.32.12.466,-113.6,28.4,0,23.0,,63310.4,15.8,-0.61,0.74,-0.22,16.1,-14.4,-9.3,36.81,,,,,,,,,,
15.32.12.474,-93.1,23.3,0,23.0,,67034.0,14.92,-0.62,0.75,-0.21,14.4,-12.8,-9.8,36.81,,,,,,,,,,
15.32.12.486,-101.0,25.2,0,23.0,,65801.5,15.2,-0.62,0.75,-0.21,13.2,-11.5,-9.8,36.81,,,,,,,,,,
15.32.12.495,-111.8,28.0,0,23.0,,66988.2,14.93,-0.62,0.74,-0.22,12.1,-11.2,-9.6,36.81,,,,,,,,,,
15.32.12.507,-159.8,40.0,0,23.0,,63557.7,15.73,-0.64,0.74,-0.22,11.8,-12.0,-8.7,36.81,,,,,,,,,,
15.32.12.519,-122.3,30.6,0,23.0,,63870.9,15.66,-0.63,0.75,-0.2,12.8,-11.6,-7.9,36.81,,,,,,,,,,
15.32.12.527,-179.2,44.8,0,23.0,,61885.3,16.16,-0.65,0.74,-0.23,11.3,-10.6,-6.6,36.81,,,,,,,,,,
15.32.12.540,6.8,1.7,1,24.0,123.9,65016.7,15.38,-0.65,0.74,-0.24,12.7,-12.9,-5.4,36.81,,,,,,,,,,
15.32.12.548,73.0,18.2,0,24.0,,63155.1,15.83,-0.67,0.75,-0.21,8.5,-10.6,-4.5,36.81,,,,,,,,,,
15.32.12.560,151.8,38.0,0,24.0,,64251.2,15.56,-0.68,0.75,-0.2,9.5,-10.3,-4.1,36.81,,,,,,,,,,
15.32.12.568,240.6,60.2,0,24.0,,64574.9,15.49,-0.69,0.75,-0.22,9.6,-8.8,-3.6,36.81,,,,,,,,,,
15.32.12.581,328.9,82.2,0,24.0,,63034.9,15.86,-0.71,0.75,-0.22,8.9,-7.9,-2.6,36.81,,,,,,,,,,
15.32.12.593,350.4,87.6,0,24.0,,67184.4,14.88,-0.71,0.75,-0.22,8.2,-7.0,-2.7,36.81,,,,,,,,,,
15.32.12.630,447.8,112.0,0,24.0,,65183.4,15.34,-0.73,0.75,-0.21,7.7,-8.6,-1.7,36.81,,,,,,,,,,
15.32.12.638,385.4,96.4,0,24.0,,63267.1,15.81,-0.76,0.73,-0.27,7.9,-1.9,1.1,36.81,,,,,,,,,,
15.32.12.650,397.5,99.4,0,24.0,,61940.5,16.14,-0.75,0.78,-0.16,-1.5,3.8,-1.2,36.81,,,,,,,,,,
15.32.12.658,326.1,81.5,0,24.0,,61326.7,16.31,-0.75,0.76,-0.17,5.8,3.1,-0.8,36.81,,,,,,,,,,
15.32.12.671,300.5,75.1,0,24.0,,61947.0,16.14,-0.75,0.79,-0.16,2.3,3.0,0.3,36.81,,,,,,,,,,
15.32.12.679,220.5,55.1,0,24.0,,62777.8,15.93,-0.74,0.79,-0.16,0.6,0.8,2.8,36.81,,,,,,,,,,
15.32.12.691,155.1,38.8,0,24.0,,62051.1,16.12,-0.68,0.78,-0.17,-1.0,1.5,2.7,36.81,,,,,,,,,,
15.32.12.699,98.5,24.6,0,24.0,,60820.1,16.44,-0.73,0.74,-0.13,0.9,4.1,6.0,36.81,,,,,,,,,,
15.32.12.712,7.4,1.8,0,24.0,,66445.6,15.05,-0.7,0.77,-0.14,0.3,0.4,8.0,36.81,,,,,,,,,,
15.32.12.720,3.5,0.9,0,24.0,,62990.8,15.88,-0.69,0.77,-0.12,-0.8,-0.9,9.6,36.81,,,,,,,,,,
15.32.12.732,62.4,15.6,0,24.0,,65427.4,15.28,-0.66,0.77,-0.11,-2.6,-2.0,11.1,36.81,,,,,,,,,,
15.32.12.745,87.4,21.8,0,24.0,,62933.1,15.89,-0.64,0.75,-0.11,-2.0,-2.2,12.1,36.81,,,,,,,,,,
15.32.12.753,95.6,23.9,0,24.0,,60197.8,16.61,-0.62,0.73,-0.09,0.7,-1.7,12.4,36.81,,,,,,,,,,
15.32.12.765,77.9,19.5,0,24.0,,59966.9,16.68,-0.6,0.74,-0.09,2.6,-0.8,12.6,36.81,,,,,,,,,,
15.32.12.773,,,0,24.0,,61359.7,16.3,,,,,,,,,,,,,,,,,
15.32.12.790,,,0,24.0,,65149.9,15.35,,,,,,,,,36.78,,,,,,,,
15.32.12.802,5.7,1.4,0,24.0,,63764.4,15.68,-0.57,0.69,-0.14,9.6,0.1,7.2,36.81,,,,,,,,,,
15.32.12.810,-4.6,1.2,0,24.0,,65756.3,15.21,-0.53,0.69,-0.12,8.5,-1.9,4.8,36.81,,,,,,,,,,
15.32.12.822,1.4,0.4,0,24.0,,63511.9,15.75,-0.52,0.67,-0.12,11.7,-6.0,3.9,36.81,,,,,,,,,,
15.32.12.831,-19.0,4.8,0,24.0,,62600.3,15.97,-0.51,0.67,-0.1,13.5,-4.9,1.7,36.81,,,,,,,,,,
15.32.12.843,-26.0,6.5,0,24.0,,65532.6,15.26,-0.5,0.67,-0.11,18.1,-4.3,-0.7,36.81,,,,,,,,,,
15.32.12.855,-6.1,1.5,0,24.0,,65196.1,15.34,-0.5,0.67,-0.12,16.7,-7.9,-4.4,36.81,,,,,,,,,,
15.32.12.863,-8.1,2.0,0,24.0,,64350.9,15.54,-0.49,0.67,-0.13,18.5,-8.4,-7.0,36.81,,,,,,,,,,
15.32.12.876,-59.1,14.8,0,24.0,,65444.2,15.28,-0.49,0.68,-0.13,18.7,-7.5,-11.7,36.81,,,,,,,,,,
15.32.12.884,-45.1,11.3,0,24.0,,61277.9,16.32,-0.51,0.69,-0.14,20.5,-4.4,-16.1,36.81,,,,,,,,,,
15.32.12.896,-50.8,12.7,0,24.0,,63212.0,15.82,-0.52,0.69,-0.16,16.3,-1.8,-18.3,36.81,,,,,,,,,,
15.32.12.908,-59.3,14.8,0,24.0,,65928.7,15.17,-0.54,0.69,-0.16,21.1,-3.0,-19.6,36.81,,,,,,,,,,
15.32.12.917,-22.9,5.7,0,24.0,,63731.4,15.69,-0.56,0.7,-0.17,14.3,-1.6,-20.9,36.81,,,,,,,,,,
15.32.12.929,-78.1,19.5,0,24.0,,66200.2,15.11,-0.58,0.71,-0.16,13.1,-0.9,-20.9,36.81,,,,,,,,,,
15.32.12.937,-89.9,22.5,0,24.0,,65569.1,15.25,-0.6,0.72,-0.18,6.4,-3.5,-22.0,36.81,,,,,,,,,,
15.32.12.949,-103.7,25.9,0,24.0,,66434.3,15.05,-0.61,0.71,-0.19,5.2,4.4,-22.9,36.81,,,,,,,,,,
15.32.12.957,-127.1,31.8,0,24.0,,67369.5,14.84,-0.62,0.71,-0.22,2.8,-2.0,-18.5,36.81,,,,,,,,,,
15.32.12.970,-125.7,31.4,0,24.0,,62191.8,16.08,-0.63,0.72,-0.22,7.7,3.2,-19.3,36.81,,,,,,,,,,
15.32.12.978,-122.0,30.5,0,24.0,,69575.3,14.37,-0.65,0.74,-0.2,6.3,6.7,-19.3,36.81,,,,,,,,,,
15.32.12.990,-134.5,33.6,0,24.0,,63922.1,15.64,-0.66,0.74,-0.19,4.6,12.0,-20.7,36.81,,,,,,,,,,
15.32.12.998,-128.2,32.0,0,24.0,,64502.9,15.5,-0.67,0.75,-0.21,2.6,13.1,-20.2,36.81,,,,,,,,,,
15.32.13.011,-172.5,43.1,0,24.0,,66693.1,14.99,-0.66,0.76,-0.22,1.2,16.9,-20.5,36.81,,,,,,,,,,
15.32.13.023,-151.2,37.8,0,24.0,,64342.1,15.54,-0.68,0.76,-0.21,2.4,21.2,-19.9,36.81,,,,,,,,,,
15.32.13.031,-143.6,35.9,0,24.0,,64802.9,15.43,-0.66,0.78,-0.2,2.6,28.4,-19.0,36.81,,,,,,,,,,
15.32.13.044,53.4,13.4,1,25.0,120.1,66697.0,14.99,-0.66,0.76,-0.19,2.6,33.4,-16.7,36.81,,,,,,,,,,
15.32.13.052,98.8,24.7,0,25.0,,59967.8,16.68,-0.72,0.77,-0.19,1.1,39.4,-15.7,36.81,,,,,,,,,,
15.32.13.064,131.1,32.8,0,25.0,,65921.4,15.17,-0.78,0.78,-0.22,-1.5,47.4,-17.2,36.81,,,,,,,,,,
15.32.13.072,237.1,59.3,0,25.0,,63557.7,15.73,-0.87,0.81,-0.22,-0.6,62.7,-19.9,36.81,,,,,,,,,,
15.32.13.085,320.8,80.2,0,25.0,,64565.4,15.49,-0.93,0.85,-0.24,-4.8,57.7,-21.2,36.81,,,,,,,,,,
15.32.13.097,389.5,97.4,0,25.0,,65942.6,15.16,-0.77,0.83,-0.31,-17.3,28.2,-15.4,36.81,,,,,,,,,,
15.32.13.105,354.7,88.7,0,25.0,,60548.7,16.52,-0.86,0.81,-0.26,-22.3,10.9,-14.1,36.81,,,,,,,,,,
15.32.13.117,453.7,113.4,0,25.0,,59231.7,16.88,-0.77,0.73,-0.25,-4.1,18.1,-11.4,36.81,,,,,,,,,,
15.32.13.126,446.7,111.7,0,25.0,,67978.1,14.71,-0.71,0.73,-0.23,-2.1,24.2,-8.0,36.81,,,,,,,,,,
15.32.13.138,368.7,92.2,0,25.0,,65306.6,15.31,-0.69,0.74,-0.21,0.0,34.6,-5.1,36.81,,,,,,,,,,
15.32.13.146,383.7,95.9,0,25.0,,59915.0,16.69,-0.64,0.75,-0.22,-1.9,48.6,-6.2,36.81,,,,,,,,,,
15.32.13.158,348.5,87.1,0,25.0,,69060.3,14.48,-0.75,0.73,-0.25,-6.9,47.6,-2.9,36.81,,,,,,,,,,
15.32.13.166,249.7,62.4,0,25.0,,63678.6,15.7,-0.69,0.78,-0.17,-11.8,42.2,-1.9,36.81,,,,,,,,,,
15.32.13.179,209.9,52.5,0,25.0,,64256.2,15.56,-0.75,0.7,-0.23,-14.3,33.5,3.5,36.81,,,,,,,,,,
15.32.13.191,172.7,43.2,0,25.0,,65842.8,15.19,-0.7,0.76,-0.22,-19.0,26.1,4.2,36.81,,,,,,,,,,
15.32.13.199,113.5,28.4,0,25.0,,64505.7,15.5,-0.67,0.64,-0.24,-15.1,25.7,6.3,36.81,,,,,,,,,,
15.32.13.211,19.2,4.8,0,25.0,,59374.8,16.84,-0.69,0.65,-0.21,-8.8,31.5,4.8,36.81,,,,,,,,,,
15.32.13.220,13.4,3.4,0,25.0,,58725.3,17.03,-0.72,0.65,-0.23,-1.7,31.6,5.2,36.81,,,,,,,,,,
15.32.13.232,52.2,13.0,0,25.0,,70114.4,14.26,-0.71,0.64,-0.25,3.8,28.7,5.2,36.81,,,,,,,,,,
15.32.13.244,60.3,15.1,0,25.0,,66155.6,15.12,-0.72,0.61,-0.25,6.0,25.6,4.4,36.81,,,,,,,,,,
15.32.13.252,77.6,19.4,0,25.0,,64585.8,15.48,-0.76,0.64,-0.23,0.5,25.3,1.0,36.81,,,,,,,,,,
15.32.13.265,80.5,20.1,0,25.0,,61923.8,16.15,-0.75,0.63,-0.24,4.3,26.9,-2.5,36.81,,,,,,,,,,
15.32.13.273,54.1,13.5,0,25.0,,63970.4,15.63,-0.75,0.63,-0.26,-0.9,23.9,-3.6,36.81,,,,,,,,,,
15.32.13.285,68.2,17.0,0,25.0,,60896.9,16.42,-0.75,0.63,-0.27,-7.1,20.6,-6.9,36.81,,,,,,,,,,
15.32.13.294,57.2,14.3,0,25.0,,65647.7,15.23,-0.75,0.62,-0.25,-9.5,17.3,-8.6,36.81,,,,,,,,,,
15.32.13.306,5.0,1.2,0,25.0,,61607.4,16.23,-0.74,0.63,-0.25,-10.6,15.0,-10.7,36.81,,,,,,,,,,
15.32.13.318,4.9,1.2,0,25.0,,62399.7,16.03,-0.74,0.63,-0.24,-11.8,13.8,-11.3,36.81,,,,,,,,,,
15.32.13.326,-25.9,6.5,0,25.0,,67459.8,14.82,-0.74,0.64,-0.25,-13.1,14.9,-12.3,36.81,,,,,,,,,,
15.32.13.338,-19.1,4.8,0,25.0,,62854.6,15.91,-0.74,0.63,-0.26,-15.0,15.0,-11.6,36.81,,,,,,,,,,
15.32.13.351,-6.3,1.6,0,25.0,,64374.8,15.53,-0.74,0.63,-0.27,-17.3,15.8,-11.7,36.81,,,,,,,,,,
15.32.13.359,-16.4,4.1,0,25.0,,62279.2,16.06,-0.74,0.62,-0.29,-20.1,13.6,-10.3,36.81,,,,,,,,,,
15.32.13.371,-35.8,9.0,0,25.0,,63220.5,15.82,-0.74,0.62,-0.29,-21.9,11.6,-8.7,36.81,,,,,,,,,,
15.32.13.379,-36.5,9.1,0,25.0,,61649.4,16.22,-0.73,0.61,-0.3,-23.0,11.5,-7.4,36.81,,,,,,,,,,
15.32.13.392,-60.1,15.0,0,25.0,,69348.9,14.42,-0.72,0.61,-0.3,-20.7,11.9,-6.0,36.81,,,,,,,,,,
15.32.13.429,-56.5,14.1,0,25.0,,61389.5,16.29,-0.73,0.6,-0.3,-17.7,12.8,-4.4,36.81,,,,,,,,,,
15.32.13.441,-96.0,24.0,0,25.0,,64868.4,15.42,-0.75,0.6,-0.32,-3.3,12.2,-3.3,36.81,,,,,,,,,,
15.32.13.449,-106.6,26.6,0,25.0,,65359.3,15.3,-0.75,0.6,-0.32,-1.8,10.9,-3.9,36.81,,,,,,,,,,
15.32.13.461,-126.0,31.5,0,25.0,,64668.6,15.46,-0.75,0.61,-0.32,0.7,10.8,-4.0,36.81,,,,,,,,,,
15.32.13.474,-135.0,33.8,0,25.0,,63520.9,15.74,-0.75,0.61,-0.32,1.8,10.1,-3.8,36.81,,,,,,,,,,
15.32.13.482,-111.0,27.8,0,25.0,,63986.4,15.63,-0.74,0.6,-0.32,4.3,8.9,-3.5,,,,,,,,,,,
15.32.20.168,-150.2,37.6,0,25.0,,65336.3,15.31,-0.85,0.52,0.07,-5.1,9.0,-1.5,36.75,121.7,,,,,,,,,
15.32.20.169,-111.9,28.0,0,25.0,,60420.4,16.55,-0.85,0.52,0.07,-5.1,9.0,-1.5,36.75,,,,,,,,,,
15.32.20.169,-112.6,28.2,0,25.0,,60454.4,16.54,-0.84,0.52,0.07,-4.1,9.1,-1.5,36.75,,,,,,,,,,
15.32.20.180,-121.4,30.4,0,25.0,,62376.0,16.03,-0.85,0.52,0.07,-3.5,10.3,-1.9,36.75,,,,,,,,,,
15.32.20.192,-121.6,30.4,0,25.0,,62910.4,15.9,-0.85,0.51,0.07,-5.2,5.1,-0.5,36.75,,,,,,,,,,
15.32.20.204,-146.7,36.7,0,25.0,,62467.6,16.01,-0.85,0.51,0.07,-2.8,10.9,-1.4,36.75,,,,,,,,,,
15.32.20.213,-173.8,43.4,0,25.0,,63707.3,15.7,-0.85,0.51,0.07,-3.1,7.8,-1.3,36.75,,,,,,,,,,
15.32.20.225,44.1,11.0,1,26.0,114.8,63082.7,15.85,-0.85,0.51,0.07,-2.4,9.0,-1.0,36.75,,,,,,,,,,
15.32.20.237,96.8,24.2,0,26.0,,63022.7,15.87,-0.84,0.51,0.08,-2.7,6.0,-0.5,36.75,,,,,,,,,,
15.32.20.245,178.9,44.7,0,26.0,,62215.6,16.07,-0.84,0.52,0.07,-2.4,9.3,-0.6,36.75,,,,,,,,,,
15.32.20.258,297.8,74.4,0,26.0,,64167.7,15.58,-0.84,0.52,0.07,-4.0,8.2,-0.5,36.75,,,,,,,,,,
15.32.20.266,301.2,75.3,0,26.0,,63939.8,15.64,-0.86,0.52,0.07,-2.6,9.4,-0.6,36.75,,,,,,,,,,
15.32.28.556,283.3,70.8,0,26.0,,65673.6,15.23,,,,,5.7,-0.4,,117.9,,,,,,,,,
15.32.28.556,296.9,74.2,0,26.0,,62044.1,16.12,-0.85,0.51,-0.11,0.0,5.7,-0.4,36.69,,,,,,,,,,
15.32.28.560,302.9,75.7,0,26.0,,63243.6,15.81,-0.85,0.5,-0.11,0.4,5.8,-0.7,36.69,,,,,,,,,,
15.32.28.570,330.2,82.6,0,26.0,,59878.9,16.7,-0.85,0.51,-0.12,1.4,6.5,-0.9,36.69,,,,,,,,,,
15.32.28.578,366.6,91.6,0,26.0,,66495.8,15.04,-0.86,0.52,-0.12,1.1,7.2,-1.0,36.69,,,,,,,,,,
15.32.28.591,389.0,97.2,0,26.0,,65438.7,15.28,-0.86,0.51,-0.12,-0.1,6.4,-0.9,36.69,,,,,,,,,,
15.32.28.603,416.8,104.2,0,26.0,,67308.7,14.86,-0.86,0.5,-0.11,-0.6,6.3,-0.9,36.69,,,,,,,,,,
15.32.28.611,405.4,101.4,0,26.0,,65448.0,15.28,-0.85,0.5,-0.11,-0.8,6.1,-0.8,36.69,,,,,,,,,,
15.32.28.623,378.8,94.7,0,26.0,,64431.5,15.52,-0.85,0.5,-0.11,-0.2,6.5,-1.0,36.69,,,,,,,,,,
15.32.28.631,275.0,68.8,0,26.0,,64450.2,15.52,-0.85,0.51,-0.11,-0.6,6.4,-1.1,36.69,,,,,,,,,,
15.32.28.643,260.0,65.0,0,26.0,,65756.7,15.21,-0.85,0.51,-0.12,-1.1,6.1,-0.8,36.69,,,,,,,,,,
15.32.28.652,217.3,54.3,0,26.0,,62514.0,16.0,-0.85,0.51,-0.12,-1.7,5.8,-0.7,36.69,,,,,,,,,,
15.32.28.664,151.9,38.0,0,26.0,,64900.1,15.41,-0.85,0.5,,,,,36.63,,,,,,,,,,
15.32.29.047,268.3,67.1,1,27.0,123.0,66125.8,15.12,-0.86,0.5,-0.11,-0.8,5.6,-3.1,36.63,,,,,,,,,,
15.32.29.048,244.9,61.2,0,27.0,,62928.1,15.89,-0.86,0.5,-0.11,-0.8,5.6,-3.1,36.63,,,,,,,,,,
15.32.29.049,236.6,59.2,0,27.0,,62979.3,15.88,-0.85,0.5,-0.11,-0.9,5.8,-2.9,36.63,,,,,,,,,,
15.32.29.057,318.6,79.6,0,27.0,,58650.3,17.05,-0.86,0.5,-0.11,-0.8,6.3,-3.0,36.63,,,,,,,,,,
15.32.29.069,330.5,82.6,0,27.0,,64883.4,15.41,-0.86,0.51,-0.1,-1.1,7.1,-3.2,36.63,,,,,,,,,,
15.32.29.078,352.7,88.2,0,27.0,,67354.0,14.85,-0.86,0.5,-0.1,-0.6,6.5,-2.9,36.63,,,,,,,,,,
15.32.29.090,397.0,99.2,0,27.0,,64170.0,15.58,-0.83,0.5,-0.11,0.0,2.6,-2.9,36.63,,,,,,,,,,
15.32.29.099,396.2,99.0,0,27.0,,63600.2,15.72,-0.84,0.5,-0.1,1.2,7.6,-2.2,36.63,,,,,,,,,,
15.32.29.110,428.5,107.1,0,27.0,,61335.1,16.3,-0.85,0.5,-0.13,0.8,5.0,-1.8,36.63,,,,,,,,,,
15.32.29.119,374.5,93.6,0,27.0,,66492.3,15.04,-0.86,0.51,-0.1,-3.8,7.1,-3.1,36.63,,,,,,,,,,
15.32.29.131,335.4,83.8,0,27.0,,66235.8,15.1,-0.85,0.5,-0.1,-1.9,5.1,-2.3,36.63,,,,,,,,,,
15.32.29.139,308.4,77.1,0,27.0,,66819.9,14.97,-0.86,0.5,-0.11,-1.2,5.8,-2.5,36.63,,,,,,,,,,
15.32.29.152,210.9,52.7,0,27.0,,66338.8,15.07,-0.85,0.5,-0.1,-1.1,6.9,-3.1,36.63,,,,,,,,,,
15.32.29.164,151.4,37.8,0,27.0,,65699.9,15.22,-0.86,0.5,-0.11,-1.4,6.1,-2.9,36.63,,,,,,,,,,
15.32.29.172,100.8,25.2,0,27.0,,61313.4,16.31,-0.85,0.49,-0.1,-0.4,6.0,-3.0,36.63,,,,,,,,,,
15.32.29.184,7.5,1.9,0,27.0,,60612.5,16.5,-0.86,0.49,-0.1,0.6,5.6,-2.9,36.63,,,,,,,,,,
15.32.29.192,48.7,12.2,0,27.0,,64168.7,15.58,-0.86,0.5,-0.11,1.4,6.3,-2.8,36.63,,,,,,,,,,
15.32.29.205,65.3,16.3,0,27.0,,64251.3,15.56,-0.86,0.5,-0.1,1.4,5.9,-3.0,36.63,,,,,,,,,,
15.32.29.213,48.4,12.1,0,27.0,,58865.5,16.99,-0.87,0.51,-0.11,0.7,4.9,-3.0,36.63,,,,,,,,,,
15.32.29.225,65.3,16.3,0,27.0,,65499.5,15.27,-0.86,0.5,-0.11,0.3,5.4,-3.2,36.63,,,,,,,,,,
15.32.29.233,83.3,20.8,0,27.0,,67667.9,14.78,-0.86,0.5,-0.11,0.9,4.6,-3.0,36.63,,,,,,,,,,
15.32.29.246,43.1,10.8,0,27.0,,66507.2,15.04,-0.86,0.51,-0.11,1.6,4.5,-2.8,36.63,,,,,,,,,,
15.32.29.254,95.6,23.9,0,27.0,,65180.4,15.34,-0.87,0.5,-0.1,2.6,2.6,-3.0,36.63,,,,,,,,,,
15.32.29.267,64.8,16.2,0,27.0,,62231.5,16.07,-0.86,0.51,-0.09,0.9,6.5,-2.5,36.63,,,,,,,,,,
15.32.29.274,1.7,0.4,0,27.0,,61495.1,16.26,-0.87,0.5,-0.11,3.0,3.8,-2.0,36.63,,,,,,,,,,
15.32.29.287,21.3,5.3,0,27.0,,63686.8,15.7,-0.87,0.51,-0.12,1.1,5.9,-2.4,36.63,,,,,,,,,,
15.32.29.295,-19.4,4.8,0,27.0,,67037.3,14.92,-0.86,0.5,-0.11,0.6,4.2,-1.7,36.63,,,,,,,,,,
15.32.29.307,7.4,1.8,0,27.0,,66260.9,15.09,-0.86,0.5,-0.1,1.2,5.6,-1.9,36.63,,,,,,,,,,
15.32.29.319,-24.7,6.2,0,27.0,,59714.7,16.75,-0.86,0.5,-0.11,2.2,5.2,-1.7,36.63,,,,,,,,,,
15.32.29.328,-28.6,7.2,0,27.0,,62065.1,16.11,-0.86,0.5,-0.11,3.1,5.5,-2.0,36.63,,,,,,,,,,
15.32.29.340,-48.8,12.2,0,27.0,,58143.8,17.2,-0.85,0.51,-0.11,3.2,4.6,-1.4,36.63,,,,,,,,,,
15.32.29.348,-6.8,1.7,0,27.0,,61105.0,16.37,-0.86,0.5,-0.1,2.0,5.5,-1.5,36.63,,,,,,,,,,
15.32.29.360,-24.0,6.0,0,27.0,,63056.1,15.86,-0.86,0.5,-0.11,1.4,6.5,-1.2,36.63,,,,,,,,,,
15.32.29.369,-95.0,23.8,0,27.0,,61578.0,16.24,-0.87,0.49,-0.11,1.2,5.3,-1.2,36.63,,,,,,,,,,
15.32.29.381,-48.9,12.2,0,27.0,,64844.2,15.42,-0.88,0.49,-0.12,1.3,3.7,-0.8,36.63,,,,,,,,,,
15.32.29.389,-104.3,26.1,0,27.0,,64817.1,15.43,-0.87,0.5,-0.11,2.0,4.3,-1.1,36.63,,,,,,,,,,
15.32.29.401,-89.1,22.3,0,27.0,,64600.4,15.48,-0.87,0.5,-0.11,1.6,3.5,-1.3,36.63,,,,,,,,,,
15.32.29.409,-70.0,17.5,0,27.0,,67350.9,14.85,-0.86,0.5,-0.11,3.2,5.1,-1.8,36.63,,,,,,,,,,
15.32.29.422,-103.1,25.8,0,27.0,,64770.5,15.44,-0.86,0.49,-0.1,3.9,4.8,-1.7,36.63,,,,,,,,,,
15.32.29.430,-139.1,34.8,0,27.0,,63616.8,15.72,-0.85,0.5,-0.11,4.2,5.0,-1.4,36.63,,,,,,,,,,
15.32.29.442,-94.1,23.5,0,27.0,,63551.8,15.74,-0.85,0.5,-0.1,3.2,5.4,-0.8,36.63,,,,,,,,,,
15.32.29.455,-133.9,33.5,0,27.0,,65274.6,15.32,-0.86,0.5,-0.12,1.9,5.8,-0.9,36.63,,,,,,,,,,
15.32.29.463,-122.3,30.6,0,27.0,,64871.3,15.42,-0.86,0.49,-0.12,1.1,5.6,-0.8,36.63,,,,,,,,,,
15.32.29.475,-145.3,36.3,0,27.0,,66376.5,15.07,-0.86,0.5,-0.11,0.7,4.6,-0.9,36.63,,,,,,,,,,
15.32.29.487,-137.2,34.3,0,27.0,,59429.7,16.83,-0.86,0.49,-0.11,1.3,5.3,-1.3,36.63,,,,,,,,,,
15.32.29.524,115.8,29.0,1,28.0,118.0,67083.1,14.91,-0.86,0.49,-0.11,1.8,5.8,-2.0,36.63,,,,,,,,,,
15.32.29.537,169.7,42.4,0,28.0,,60719.6,16.47,-0.86,0.48,-0.11,0.7,6.4,-1.8,36.63,,,,,,,,,,
15.32.29.549,247.3,61.8,0,28.0,,64815.9,15.43,-0.86,0.49,-0.11,1.4,5.5,-1.8,36.63,,,,,,,,,,
15.32.29.557,293.5,73.4,0,28.0,,65662.1,15.23,-0.86,0.49,-0.13,2.1,5.5,-1.3,36.63,,,,,,,,,,
15.32.29.569,381.1,95.3,0,28.0,,65029.3,15.38,-0.86,0.5,-0.11,2.1,5.1,-0.6,36.63,,,,,,,,,,
15.32.29.577,366.5,91.6,0,28.0,,64334.6,15.54,-0.86,0.49,-0.11,1.0,5.5,-0.8,36.63,,,,,,,,,,
15.32.29.590,385.4,96.4,0,28.0,,64653.3,15.47,-0.86,0.49,-0.11,0.7,5.0,-0.8,36.63,,,,,,,,,,
15.32.29.598,416.4,104.1,0,28.0,,62078.3,16.11,-0.86,0.49,-0.11,1.1,4.6,-0.9,36.63,,,,,,,,,,
15.32.29.610,418.6,104.6,0,28.0,,64297.3,15.55,-0.85,0.49,-0.1,1.4,4.7,-0.8,36.63,,,,,,,,,,
15.32.29.618,376.5,94.1,0,28.0,,65171.9,15.34,-0.85,0.49,-0.11,0.9,5.3,-1.3,36.63,,,,,,,,,,
15.32.29.631,324.2,81.0,0,28.0,,65484.1,15.27,-0.86,0.49,-0.11,1.3,6.0,-1.7,36.63,,,,,,,,,,
15.32.29.639,350.2,87.6,0,28.0,,64383.6,15.53,-0.86,0.49,-0.1,1.5,6.4,-2.2,36.63,,,,,,,,,,
15.32.29.651,199.0,49.8,0,28.0,,66095.1,15.13,-0.86,0.48,-0.1,1.3,6.8,-2.0,36.63,,,,,,,,,,
15.32.29.659,180.7,45.2,0,28.0,,66329.5,15.08,-0.86,0.48,-0.11,2.0,7.7,-2.1,36.63,,,,,,,,,,
15.32.29.672,76.7,19.2,0,28.0,,65289.0,15.32,-0.86,0.48,-0.11,0.7,6.7,-1.6,36.63,,,,,,,,,,
15.32.29.680,53.2,13.3,0,28.0,,64792.3,15.43,-0.87,0.49,-0.11,0.5,6.8,-1.8,36.63,,,,,,,,,,
15.32.29.692,-11.8,3.0,0,28.0,,60949.3,16.41,-0.86,0.49,-0.12,1.4,6.1,-1.7,36.63,,,,,,,,,,
15.32.30.107,394.8,98.7,1,29.0,118.4,61213.5,16.34,,,,,,,,,,,,,,,,,
15.32.30.111,405.6,101.4,0,29.0,,67078.1,14.91,-0.88,0.49,-0.1,0.4,5.4,-3.1,36.63,,,,,,,,,,
15.32.30.113,379.1,94.8,0,29.0,,64089.8,15.6,-0.87,0.49,-0.1,0.7,5.6,-3.0,36.63,,,,,,,,,,
15.32.30.122,377.7,94.4,0,29.0,,65958.2,15.16,-0.88,0.5,-0.11,0.5,5.5,-2.4,36.63,,,,,,,,,,
15.32.30.130,339.1,84.8,0,29.0,,67615.4,14.79,-0.87,0.49,-0.11,1.0,5.8,-2.1,36.63,,,,,,,,,,
15.32.30.143,315.0,78.8,0,29.0,,63595.3,15.72,-0.86,0.49,-0.11,0.7,5.3,-1.4,36.63,,,,,,,,,,
15.32.30.151,256.4,64.1,0,29.0,,66766.6,14.98,-0.86,0.5,-0.1,0.6,5.2,-1.5,36.63,,,,,,,,,,
15.32.30.163,194.0,48.5,0,29.0,,63228.7,15.82,-0.87,0.49,-0.11,0.3,5.3,-1.5,36.63,,,,,,,,,,
15.32.30.172,119.6,29.9,0,29.0,,60919.9,16.41,-0.87,0.49,-0.11,0.0,5.3,-1.7,36.63,,,,,,,,,,
15.32.30.184,20.7,5.2,0,29.0,,65203.9,15.34,-0.87,0.48,-0.1,0.1,5.3,-1.7,36.63,,,,,,,,,,
15.32.30.192,-19.9,5.0,0,29.0,,66753.0,14.98,-0.87,0.49,-0.11,0.4,5.3,-1.4,36.63,,,,,,,,,,
15.32.30.204,66.6,16.6,0,29.0,,67099.9,14.9,-0.87,0.48,-0.11,1.2,5.0,-1.0,36.63,,,,,,,,,,
15.32.30.213,42.8,10.7,0,29.0,,64268.3,15.56,-0.87,0.49,-0.11,0.7,5.0,-1.1,36.63,,,,,,,,,,
15.32.30.225,76.9,19.2,0,29.0,,62955.5,15.88,-0.87,0.49,-0.11,0.1,5.0,-1.2,36.63,,,,,,,,,,
15.32.30.233,47.9,12.0,0,29.0,,61763.9,16.19,-0.87,0.48,-0.11,0.3,5.2,-0.6,36.63,,,,,,,,,,
15.32.30.245,63.7,15.9,0,29.0,,61850.5,16.17,-0.87,0.48,-0.11,0.1,4.7,-0.4,36.63,,,,,,,,,,
15.32.30.253,67.1,16.8,0,29.0,,64590.5,15.48,-0.87,0.48,-0.11,0.2,4.9,-0.6,36.63,,,,,,,,,,
15.32.30.266,69.5,17.4,0,29.0,,70520.4,14.18,-0.87,0.48,-0.11,-0.3,5.3,-0.3,36.63,,,,,,,,,,
15.32.30.278,49.3,12.3,0,29.0,,65039.6,15.38,-0.87,0.48,-0.11,-0.9,5.3,-0.3,36.63,,,,,,,,,,
15.32.30.286,19.8,5.0,0,29.0,,64700.6,15.46,-0.87,0.48,-0.11,-0.3,5.5,-0.1,36.63,,,,,,,,,,
15.32.30.299,19.9,5.0,0,29.0,,65180.0,15.34,-0.86,0.49,-0.1,0.1,5.3,-0.7,36.63,,,,,,,,,,
15.32.30.336,-4.3,1.1,0,29.0,,63456.9,15.76,-0.86,0.49,-0.1,-0.5,5.8,-0.9,36.63,,,,,,,,,,
15.32.30.344,-20.8,5.2,0,29.0,,65733.7,15.21,-0.88,0.47,-0.11,-2.8,5.9,-0.8,36.63,,,,,,,,,,
15.32.30.356,-29.6,7.4,0,29.0,,63279.5,15.8,-0.88,0.47,-0.12,-2.3,5.2,-1.1,36.63,,,,,,,,,,
15.32.30.364,-90.9,22.7,0,29.0,,67341.6,14.85,-0.88,0.47,-0.11,-1.3,5.0,-1.3,36.63,,,,,,,,,,
15.32.30.376,-84.5,21.1,0,29.0,,62627.1,15.97,-0.87,0.48,-0.12,-1.0,5.8,-1.4,36.63,,,,,,,,,,
15.32.30.389,-84.4,21.1,0,29.0,,62881.6,15.9,-0.87,0.47,-0.11,-1.0,5.4,-1.4,36.63,,,,,,,,,,
15.32.30.397,-62.1,15.5,0,29.0,,64545.2,15.49,-0.87,0.47,-0.1,-0.9,5.3,-1.2,36.63,,,,,,,,,,
15.32.30.409,-74.3,18.6,0,29.0,,63607.3,15.72,-0.87,0.47,-0.1,-0.8,5.6,-0.7,36.63,,,,,,,,,,
15.32.30.417,-103.3,25.8,0,29.0,,65920.6,15.17,-0.87,0.47,-0.1,-1.4,7.0,-0.5,36.63,,,,,,,,,,
15.32.30.430,-80.1,20.0,0,29.0,,65491.5,15.27,-0.85,0.48,-0.1,-2.6,3.5,-1.1,36.63,,,,,,,,,,
15.32.30.438,-120.5,30.1,0,29.0,,64158.5,15.59,-0.86,0.47,-0.1,-4.3,8.0,0.1,36.63,,,,,,,,,,
15.32.30.450,-126.2,31.6,0,29.0,,64221.7,15.57,-0.87,0.46,-0.12,0.6,4.5,0.4,36.63,,,,,,,,,,
15.32.30.463,-139.3,34.8,0,29.0,,63683.9,15.7,-0.87,0.48,-0.1,-4.5,7.9,-1.6,36.63,,,,,,,,,,
15.32.30.471,-160.9,40.2,0,29.0,,64070.6,15.61,-0.86,0.47,-0.09,-3.0,7.1,-1.6,36.63,,,,,,,,,,
15.32.30.483,-145.1,36.3,0,29.0,,59736.9,16.74,-0.87,0.47,-0.1,-3.0,7.7,-2.0,36.63,,,,,,,,,,
15.32.30.491,-162.6,40.6,0,29.0,,59885.3,16.7,-0.88,0.48,-0.09,-2.2,8.5,-2.4,36.63,,,,,,,,,,
15.32.30.503,-158.3,39.6,0,29.0,,59321.9,16.86,-0.87,0.49,-0.09,0.1,6.9,-1.6,36.63,,,,,,,,,,
15.32.30.512,-146.8,36.7,0,29.0,,64732.0,15.45,-0.87,0.49,-0.09,-2.0,7.9,-2.5,36.63,,,,,,,,,,
15.32.30.524,82.2,20.6,1,30.0,120.2,65780.1,15.2,-0.85,0.49,-0.08,-4.0,8.5,-2.9,36.63,,,,,,,,,,
15.32.30.532,110.2,27.6,0,30.0,,61860.8,16.17,-0.87,0.49,-0.08,-5.9,7.3,-2.6,36.63,,,,,,,,,,
15.32.30.544,215.4,53.8,0,30.0,,64658.2,15.47,-0.87,0.49,-0.09,-3.9,8.0,-3.0,36.63,,,,,,,,,,
15.32.30.557,333.8,83.4,0,30.0,,67303.3,14.86,-0.87,0.49,-0.09,-4.5,6.7,-2.7,36.63,,,,,,,,,,
15.32.30.565,345.8,86.4,0,30.0,,65429.3,15.28,-0.88,0.49,-0.09,-3.8,7.1,-2.6,36.63,,,,,,,,,,
15.32.30.577,348.6,87.2,0,30.0,,62439.0,16.02,-0.86,0.49,-0.08,-3.3,6.7,-2.7,36.63,,,,,,,,,,
15.32.30.585,386.6,96.6,0,30.0,,60140.6,16.63,-0.87,0.48,-0.07,-4.6,7.0,-2.2,36.63,,,,,,,,,,
15.32.30.598,364.1,91.0,0,30.0,,64136.8,15.59,-0.87,0.49,-0.09,-3.2,6.8,-2.0,36.63,,,,,,,,,,
15.32.30.606,375.6,93.9,0,30.0,,64669.6,15.46,-0.87,0.49,-0.09,-2.8,5.6,-1.5,36.63,,,,,,,,,,
15.32.30.618,393.8,98.4,0,30.0,,63577.3,15.73,-0.87,0.49,-0.09,-1.2,6.7,-1.2,36.63,,,,,,,,,,
15.32.30.626,348.1,87.0,0,30.0,,61736.9,16.2,-0.87,0.49,-0.09,-1.7,6.2,-0.7,36.63,,,,,,,,,,
15.32.30.639,324.1,81.0,0,30.0,,66398.9,15.06,-0.88,0.49,-0.09,-2.3,5.9,-0.8,36.63,,,,,,,,,,
15.32.30.651,252.9,63.2,0,30.0,,66536.4,15.03,-0.88,0.49,-0.08,-2.1,5.8,-0.8,36.63,,,,,,,,,,
15.32.30.659,196.5,49.1,0,30.0,,65116.7,15.36,-0.88,0.48,-0.09,-1.7,5.5,-0.5,36.63,,,,,,,,,,
15.32.30.672,145.0,36.2,0,30.0,,60256.6,16.6,-0.88,0.48,-0.09,-0.8,6.0,-0.6,36.63,,,,,,,,,,
15.32.30.680,61.1,15.3,0,30.0,,62170.9,16.08,-0.88,0.48,-0.09,-0.8,5.7,-0.7,36.63,,,,,,,,,,
15.32.30.692,-11.9,3.0,0,30.0,,65817.1,15.19,-0.88,0.47,-0.09,-0.7,5.3,-0.5,36.63,,,,,,,,,,
15.32.30.700,40.6,10.2,0,30.0,,63991.7,15.63,-0.87,0.47,-0.1,0.0,5.2,-0.5,36.63,,,,,,,,,,
15.32.30.712,42.2,10.6,0,30.0,,61347.8,16.3,-0.88,0.47,-0.1,0.5,4.8,-0.2,36.63,,,,,,,,,,
15.32.30.721,48.0,12.0,0,30.0,,63599.1,15.72,-0.88,0.47,-0.09,0.8,5.1,-0.2,36.63,,,,,,,,,,
15.32.30.733,71.2,17.8,0,30.0,,65865.9,15.18,-0.88,0.47,-0.09,1.6,5.0,-0.6,36.63,,,,,,,,,,
15.32.30.741,77.8,19.4,0,30.0,,62183.8,16.08,-0.88,0.48,-0.09,2.1,4.5,-0.8,36.63,,,,,,,,,,
15.32.30.753,98.8,24.7,0,30.0,,67874.2,14.73,-0.87,0.48,-0.09,2.2,4.7,-0.9,36.63,,,,,,,,,,
15.32.30.762,59.5,14.9,0,30.0,,63325.7,15.79,-0.87,0.48,-0.09,1.6,4.5,-1.1,36.63,,,,,,,,,,
15.32.30.774,36.4,9.1,0,30.0,,63323.7,15.79,-0.87,0.48,-0.1,1.3,4.9,-1.3,36.63,,,,,,,,,,
15.32.30.786,22.2,5.6,0,30.0,,64710.4,15.45,-0.87,0.47,-0.09,0.4,4.3,-1.1,36.63,,,,,,,,,,
15.32.30.799,-36.2,9.0,0,30.0,,64754.6,15.44,-0.87,0.47,-0.09,1.4,4.5,-1.3,36.63,,,,,,,,,,
15.32.30.807,-18.1,4.5,0,30.0,,62806.4,15.92,-0.87,0.49,-0.09,1.3,4.7,-1.5,36.63,,,,,,,,,,
15.32.30.819,-3.6,0.9,0,30.0,,60729.4,16.47,-0.87,0.49,-0.09,1.4,4.3,-1.7,36.63,,,,,,,,,,
15.32.30.827,-16.1,4.0,0,30.0,,63985.6,15.63,-0.88,0.49,-0.09,0.8,4.4,-2.0,36.63,,,,,,,,,,
15.32.30.839,-4.9,1.2,0,30.0,,65261.7,15.32,-0.88,0.5,-0.09,-0.1,4.4,-1.9,36.63,,,,,,,,,,
15.32.30.847,-64.2,16.0,0,30.0,,63943.0,15.64,-0.88,0.49,-0.09,-0.6,4.5,-2.2,36.63,,,,,,,,,,
15.32.30.860,-46.3,11.6,0,30.0,,60871.3,16.43,-0.88,0.49,-0.09,-0.2,3.8,-2.3,36.63,,,,,,,,,,
15.32.30.872,-87.3,21.8,0,30.0,,62291.6,16.05,-0.88,0.5,-0.09,0.1,3.8,-1.7,36.63,,,,,,,,,,
15.32.30.880,-66.2,16.6,0,30.0,,66490.8,15.04,-0.87,0.49,-0.08,0.5,4.2,-1.5,36.63,,,,,,,,,,
15.32.30.892,-86.9,21.7,0,30.0,,63167.3,15.83,-0.86,0.49,-0.09,1.1,4.8,-0.8,36.63,,,,,,,,,,
15.32.30.901,-99.2,24.8,0,30.0,,61775.4,16.19,-0.86,0.5,-0.09,1.6,4.9,-0.5,36.63,,,,,,,,,,
15.32.30.913,-106.7,26.7,0,30.0,,63318.4,15.79,-0.87,0.5,-0.09,2.0,4.8,0.4,36.63,,,,,,,,,,
15.32.30.921,-89.6,22.4,0,30.0,,61524.2,16.25,-0.86,0.49,-0.09,1.6,5.4,0.7,36.63,,,,,,,,,,
15.32.30.933,-103.5,25.9,0,30.0,,63697.5,15.7,-0.86,0.49,-0.09,1.3,5.7,-1.6,36.56,,,,,,,,,,
15.32.40.030,-90.4,22.6,0,30.0,,63821.1,15.67,-0.88,0.5,-0.07,1.3,6.1,-1.6,36.56,119.6,,,,,,,,,
15.32.40.040,-106.6,26.6,0,30.0,,66038.4,15.14,-0.87,0.5,-0.06,0.5,5.6,-1.9,36.56,,,,,,,,,,
15.32.40.048,-91.8,23.0,0,30.0,,63255.4,15.81,-0.87,0.49,-0.06,0.8,5.5,-1.9,36.56,,,,,,,,,,
15.32.40.061,-99.1,24.8,0,30.0,,62701.7,15.95,-0.87,0.49,-0.07,1.1,5.4,-1.6,36.56,,,,,,,,,,
15.32.40.069,-159.4,39.8,0,30.0,,58905.4,16.98,-0.87,0.49,-0.07,1.3,5.3,-1.5,36.56,,,,,,,,,,
15.32.40.081,-151.0,37.8,0,30.0,,68069.1,14.69,-0.88,0.49,-0.07,1.2,6.0,-1.8,36.56,,,,,,,,,,
15.32.40.094,-146.7,36.7,0,30.0,,65553.2,15.25,-0.87,0.49,-0.08,1.2,5.4,-1.7,36.56,,,,,,,,,,
15.32.40.102,-170.1,42.5,0,30.0,,66100.9,15.13,-0.87,0.49,-0.07,0.9,5.1,-1.2,36.56,,,,,,,,,,
15.32.40.114,37.7,9.4,1,31.0,124.2,64512.0,15.5,-0.87,0.49,-0.07,0.8,5.2,-1.3,36.56,,,,,,,,,,
15.32.40.122,89.5,22.4,0,31.0,,63534.0,15.74,-0.87,0.49,-0.07,0.5,5.3,-1.6,36.56,,,,,,,,,,
15.32.40.134,186.8,46.7,0,31.0,,63106.3,15.85,-0.87,0.49,-0.07,0.7,5.9,-1.4,36.56,,,,,,,,,,
15.32.40.143,267.4,66.8,0,31.0,,60491.4,16.53,-0.88,0.49,-0.07,0.3,6.3,-1.4,36.56,,,,,,,,,,
15.32.49.037,249.0,62.2,0,31.0,,57640.3,17.35,,,-0.09,-6.3,7.0,-8.1,36.5,119.3,,,,,,,,,
15.32.49.039,253.6,63.4,0,31.0,,63725.1,15.69,-0.88,0.45,-0.09,-6.3,7.0,-8.0,,,,,,,,,,,
15.32.49.039,286.8,71.7,0,31.0,,64678.0,15.46,-0.88,0.45,-0.09,-6.3,7.0,-8.0,36.5,,,,,,,,,,
15.32.49.043,271.4,67.8,0,31.0,,62736.3,15.94,-0.88,0.45,-0.1,-6.3,7.6,-7.6,36.5,,,,,,,,,,
15.32.49.053,344.5,86.1,0,31.0,,64686.8,15.46,-0.89,0.45,-0.09,-6.1,8.0,-6.7,36.5,,,,,,,,,,
15.32.49.065,362.0,90.5,0,31.0,,62278.6,16.06,-0.89,0.45,-0.1,-6.0,8.6,-6.7,36.5,,,,,,,,,,
15.32.49.073,378.9,94.7,0,31.0,,65430.0,15.28,-0.89,0.44,-0.09,-5.4,8.4,-6.5,36.5,,,,,,,,,,
15.32.49.086,469.4,117.4,0,31.0,,63532.2,15.74,-0.9,0.44,-0.09,-4.5,7.1,-5.9,36.5,,,,,,,,,,
15.32.49.094,406.2,101.6,0,31.0,,65369.5,15.3,-0.92,0.49,-0.12,-1.2,7.1,-5.7,36.5,,,,,,,,,,
15.32.49.106,361.1,90.3,0,31.0,,64436.8,15.52,-0.89,0.42,-0.05,-4.0,9.6,-6.0,36.5,,,,,,,,,,
15.32.49.114,360.7,90.2,0,31.0,,58968.8,16.96,-0.88,0.45,-0.09,-2.1,6.0,-5.7,36.5,,,,,,,,,,
15.32.49.127,307.6,76.9,0,31.0,,62113.5,16.1,-0.88,0.44,-0.09,-4.0,7.4,-6.5,36.5,,,,,,,,,,
15.32.49.135,278.0,69.5,0,31.0,,63885.7,15.65,-0.86,0.44,-0.1,-1.8,7.1,-5.5,36.5,,,,,,,,,,
15.32.49.147,169.2,42.3,0,31.0,,62175.3,16.08,-0.87,0.44,-0.09,-2.5,5.9,-5.3,36.5,,,,,,,,,,
15.32.49.159,112.9,28.2,0,31.0,,64512.7,15.5,-0.88,0.44,-0.1,-1.4,8.2,-4.8,36.5,,,,,,,,,,
15.32.49.167,63.0,15.8,0,31.0,,62779.7,15.93,-0.89,0.43,-0.1,-2.7,6.9,-4.8,36.5,,,,,,,,,,
15.32.49.180,5.6,1.4,0,31.0,,64744.4,15.45,-0.9,0.43,-0.1,-2.1,7.0,-5.3,36.5,,,,,,,,,,
15.32.49.188,41.4,10.4,0,31.0,,62157.1,16.09,-0.9,0.43,-0.11,-1.4,6.3,-5.4,36.5,,,,,,,,,,
15.32.49.200,60.8,15.2,0,31.0,,59324.6,16.86,-0.9,0.43,-0.1,-0.7,6.7,-6.3,36.5,,,,,,,,,,
