timestamp,ppg,threshold,beat,beat_count,inst_bpm,gsr_resistance_ohm,gsr_conductance_us,accel_x,accel_y,accel_z,gyro_x,gyro_y,gyro_z,temp_c,window_bpm,window_temp_c,status_message,SpO2,bmi,age,height,weight,env_temp_c,env_humidity_pct
15.41.00.129,,,0,,,65636.9,15.24,0.42,0.66,0.61,2.5,6.3,-1.2,37.81,102.2,,,,17.9,21.0,160.02,45.76,31.44,45.0
15.41.00.137,76.4,19.1,0,,,65218.1,15.33,0.42,0.66,0.61,2.6,5.5,-0.8,37.81,,,,,,,,,,
15.41.00.145,92.2,23.0,0,,,59095.1,16.92,0.42,0.66,0.6,2.7,5.7,-1.2,37.81,,,,,,,,,,
15.41.00.157,150.3,37.6,0,,,65711.7,15.22,0.42,0.66,0.61,2.5,5.6,-1.3,37.81,,,,,,,,,,
15.41.00.170,258.9,64.7,0,,,60497.9,16.53,0.42,0.66,0.6,2.5,5.6,-1.0,37.81,,,,,,,,,,
15.41.00.178,297.0,74.2,0,,,61670.2,16.22,0.42,0.67,0.61,2.2,5.2,-0.7,37.81,,,,,,,,,,
15.41.00.190,370.8,92.7,0,,,59411.6,16.83,0.42,0.66,0.61,2.0,5.8,-0.5,37.81,,,,,,,,,,
15.41.00.202,433.1,108.3,0,,,65419.0,15.29,0.42,0.66,0.61,1.9,6.0,-1.0,37.81,,,,,,,,,,
15.41.00.210,406.8,101.7,0,,,60621.3,16.5,0.42,0.66,0.61,1.7,6.0,-1.2,37.81,,,,,,,,,,
15.41.00.223,499.9,125.0,0,,,60351.5,16.57,0.42,0.66,0.61,2.5,5.7,-1.1,37.81,,,,,,,,,,
15.41.00.235,453.4,113.4,0,,,64343.4,15.54,0.42,0.66,0.61,2.8,5.6,-1.1,37.81,,,,,,,,,,
15.41.00.243,468.7,117.2,0,,,65597.3,15.24,0.42,0.66,0.6,2.7,5.2,-1.0,37.81,,,,,,,,,,
15.41.00.255,544.6,136.2,0,,,61768.3,16.19,0.42,0.66,0.6,2.2,5.5,-0.6,37.81,,,,,,,,,,
15.41.00.268,421.0,105.2,0,,,58212.7,17.18,0.42,0.66,0.6,2.1,5.1,-0.7,37.81,,,,,,,,,,
15.41.00.276,383.5,95.9,0,,,65004.2,15.38,0.42,0.66,0.6,1.7,6.1,-1.0,37.81,,,,,,,,,,
15.41.00.288,390.6,97.6,0,,,59413.6,16.83,0.42,0.66,0.6,2.0,5.9,-1.3,37.81,,,,,,,,,,
15.41.00.301,256.5,64.1,0,,,60734.9,16.46,0.42,0.66,0.6,1.9,6.5,-1.4,37.81,,,,,,,,,,
15.41.00.309,131.6,32.9,0,,,61180.2,16.35,0.42,0.67,0.6,1.1,6.4,-1.1,37.81,,,,,,,,,,
15.41.00.321,133.2,33.3,0,,,60590.1,16.5,0.42,0.66,0.6,0.9,6.2,-0.8,37.81,,,,,,,,,,
15.41.00.333,71.7,17.9,0,,,61015.3,16.39,0.42,0.66,0.59,0.7,5.6,-0.8,37.81,,,,,,,,,,
15.41.00.342,-8.3,2.1,0,,,63004.3,15.87,0.42,0.66,0.6,1.4,5.5,-0.9,37.81,,,,,,,,,,
15.41.00.354,26.4,6.6,0,,,60197.1,16.61,0.43,0.67,0.6,1.0,5.2,-1.1,37.81,,,,,,,,,,
15.41.00.366,119.4,29.8,0,,,60077.6,16.65,0.43,0.67,0.61,1.3,5.2,-0.9,37.81,,,,,,,,,,
15.41.00.374,120.5,30.1,0,,,62354.7,16.04,0.43,0.66,0.6,1.1,5.5,-1.0,37.81,,,,,,,,,,
15.41.00.387,133.9,33.5,0,,,64341.9,15.54,0.42,0.66,0.61,1.3,5.8,-1.2,37.81,,,,,,,,,,
15.41.00.399,111.0,27.8,0,,,61039.5,16.38,0.42,0.66,0.61,1.6,6.2,-1.4,37.81,,,,,,,,,,
15.41.00.407,37.0,9.2,0,,,60943.0,16.41,0.42,0.66,0.61,1.5,6.1,-1.7,37.81,,,,,,,,,,
15.41.00.419,111.1,27.8,0,,,64212.2,15.57,0.42,0.66,0.6,0.4,6.2,-1.2,37.81,,,,,,,,,,
15.41.00.432,53.5,13.4,0,,,61694.9,16.21,0.42,0.67,0.61,1.1,6.7,-1.0,37.81,,,,,,,,,,
15.41.00.440,87.2,21.8,0,,,59103.8,16.92,0.42,0.67,0.6,0.4,6.4,-1.1,37.81,,,,,,,,,,
15.41.00.452,-18.8,4.7,0,,,56564.5,17.68,0.42,0.66,0.6,0.5,5.3,-1.3,37.81,,,,,,,,,,
15.41.00.464,22.8,5.7,0,,,59112.8,16.92,0.42,0.67,0.6,0.8,5.3,-1.3,37.81,,,,,,,,,,
15.41.00.473,7.3,1.8,0,,,59310.7,16.86,0.43,0.67,0.6,0.7,5.1,-1.2,37.81,,,,,,,,,,
15.41.00.485,-47.5,11.9,0,,,59401.3,16.83,0.43,0.66,0.59,0.3,5.6,-1.2,37.81,,,,,,,,,,
15.41.00.497,-4.2,1.0,0,,,61089.8,16.37,0.43,0.67,0.6,-0.1,6.0,-1.4,37.81,,,,,,,,,,
15.41.00.505,-58.2,14.6,0,,,54689.4,18.29,0.43,0.67,0.6,-0.4,6.5,-1.2,37.81,,,,,,,,,,
15.41.00.518,-97.5,24.4,0,,,62388.3,16.03,0.42,0.65,0.61,-0.3,6.3,-1.6,37.81,,,,,,,,,,
15.41.00.530,-39.2,9.8,0,,,60196.1,16.61,0.42,0.66,0.61,-0.2,6.2,-1.4,37.81,,,,,,,,,,
15.41.00.542,-35.3,8.8,0,,,63386.1,15.78,0.42,0.66,0.61,0.9,5.9,-1.4,37.81,,,,,,,,,,
15.41.00.550,-43.4,10.8,0,,,64574.8,15.49,0.42,0.66,0.61,1.1,5.4,-1.5,37.81,,,,,,,,,,
15.41.00.563,-91.1,22.8,0,,,58538.1,17.08,0.43,0.67,0.6,0.3,4.9,-1.1,37.81,,,,,,,,,,
15.41.00.575,-123.9,31.0,0,,,59549.0,16.79,0.43,0.67,0.6,-0.2,5.0,-0.7,37.81,,,,,,,,,,
15.41.00.583,-86.0,21.5,0,,,61851.6,16.17,0.43,0.67,0.6,-0.3,6.4,-0.7,37.81,,,,,,,,,,
15.41.00.596,-128.7,32.2,0,,,61134.2,16.36,0.43,0.66,0.6,-0.6,6.4,-0.9,37.81,,,,,,,,,,
15.41.00.608,-158.2,39.6,0,,,58110.6,17.21,0.42,0.65,0.61,0.3,7.0,-1.5,37.81,,,,,,,,,,
15.41.00.616,-146.9,36.7,0,,,60441.8,16.54,0.42,0.66,0.61,1.0,7.2,-1.7,37.81,,,,,,,,,,
15.41.00.628,-54.1,13.5,0,,,62117.8,16.1,0.42,0.66,0.6,0.7,6.8,-1.7,37.81,,,,,,,,,,
15.41.00.669,-121.6,30.4,0,,,57820.6,17.29,0.43,0.67,0.6,0.5,5.0,-1.2,37.81,,,,,,,,,,
15.41.00.682,-142.9,35.7,0,,,57384.2,17.43,0.43,0.66,0.61,0.3,5.0,-1.0,37.81,,,,,,,,,,
15.41.00.690,-158.4,39.6,0,,,57235.9,17.47,0.43,0.66,0.59,0.1,5.7,-0.9,37.81,,,,,,,,,,
15.41.00.702,-192.7,48.2,0,,,55684.8,17.96,0.43,0.67,0.6,0.2,6.2,-1.1,37.81,,,,,,,,,,
15.41.00.714,-154.2,38.6,0,,,59494.8,16.81,0.43,0.66,0.61,-0.5,6.1,-1.0,37.81,,,,,,,,,,
15.41.00.723,-197.6,49.4,0,,,61925.1,16.15,0.42,0.66,0.61,-0.1,5.9,-1.2,37.81,,,,,,,,,,
15.41.00.735,58.2,14.6,1,1.0,102.1,60984.7,16.4,0.42,0.65,0.61,-0.2,5.8,-1.3,37.81,,,,,,,,,,
15.41.00.747,125.2,31.3,0,1.0,,54810.9,18.24,0.42,0.65,0.61,1.2,5.2,-1.7,37.81,,,,,,,,,,
15.41.00.755,170.4,42.6,0,1.0,,55496.6,18.02,0.42,0.67,0.61,0.9,4.7,-1.6,37.81,,,,,,,,,,
15.41.00.768,275.2,68.8,0,1.0,,57255.4,17.47,0.42,0.66,0.6,0.8,4.9,-1.0,37.81,,,,,,,,,,
15.41.00.780,355.2,88.8,0,1.0,,59975.6,16.67,0.43,0.67,0.59,0.6,5.5,-1.1,37.81,,,,,,,,,,
15.41.00.788,302.2,75.6,0,1.0,,58088.5,17.22,0.42,0.67,0.6,0.7,6.5,-0.9,37.81,,,,,,,,,,
15.41.00.800,425.5,106.4,0,1.0,,55361.6,18.06,0.43,0.66,0.61,-0.1,6.1,-0.6,37.81,,,,,,,,,,
15.41.00.813,467.0,116.8,0,1.0,,57604.6,17.36,0.42,0.65,0.61,0.5,5.8,-0.9,37.81,,,,,,,,,,
15.41.00.821,495.7,123.9,0,1.0,,59075.8,16.93,0.42,0.66,0.62,0.9,5.4,-0.9,37.81,,,,,,,,,,
15.41.00.833,481.7,120.4,0,1.0,,60333.7,16.57,0.42,0.66,0.6,1.0,5.2,-1.4,37.81,,,,,,,,,,
15.41.00.845,533.7,133.4,0,1.0,,53954.2,18.53,0.43,0.66,0.61,1.3,4.6,-1.4,37.81,,,,,,,,,,
15.41.00.854,473.6,118.4,0,1.0,,63672.4,15.71,0.43,0.67,0.6,0.8,4.9,-1.1,37.81,,,,,,,,,,
15.41.00.866,409.8,102.4,0,1.0,,57870.9,17.28,0.43,0.66,0.59,0.1,5.1,-1.0,37.81,,,,,,,,,,
15.41.00.878,375.4,93.8,0,1.0,,64619.2,15.48,0.43,0.67,0.6,0.6,6.2,-0.9,37.81,,,,,,,,,,
15.41.00.891,328.8,82.2,0,1.0,,63758.4,15.68,0.43,0.66,0.6,0.3,6.4,-0.6,37.81,,,,,,,,,,
15.41.00.899,313.6,78.4,0,1.0,,57539.7,17.38,0.41,0.65,0.6,1.9,7.2,-1.5,37.81,,,,,,,,,,
15.41.00.911,201.8,50.4,0,1.0,,63120.1,15.84,0.41,0.66,0.6,2.0,6.8,-1.4,37.81,,,,,,,,,,
15.41.00.923,126.2,31.6,0,1.0,,62927.0,15.89,0.42,0.65,0.6,2.1,5.9,-1.7,37.81,,,,,,,,,,
15.41.00.931,77.1,19.3,0,1.0,,59082.5,16.93,0.43,0.67,0.61,3.6,5.0,-2.2,37.81,,,,,,,,,,
15.41.00.944,25.7,6.4,0,1.0,,61330.4,16.31,0.43,0.68,0.6,4.5,5.8,-2.2,37.81,,,,,,,,,,
15.41.00.956,57.9,14.5,0,1.0,,62105.7,16.1,0.42,0.68,0.58,2.2,7.5,-2.1,37.81,,,,,,,,,,
15.41.00.964,57.5,14.4,0,1.0,,62200.5,16.08,0.41,0.67,0.6,2.5,8.2,-1.3,37.81,,,,,,,,,,
15.41.00.977,69.0,17.2,0,1.0,,58247.5,17.17,0.41,0.66,0.59,0.6,7.3,-0.8,37.81,,,,,,,,,,
15.41.00.989,57.9,14.5,0,1.0,,63197.3,15.82,0.42,0.65,0.61,1.4,5.3,-0.7,37.81,,,,,,,,,,
15.41.01.001,103.5,25.9,0,1.0,,61050.2,16.38,0.43,0.64,0.62,1.1,4.9,-1.0,37.81,,,,,,,,,,
15.41.01.009,115.0,28.8,0,1.0,,60743.3,16.46,0.42,0.66,0.62,1.5,4.1,-1.5,37.81,,,,,,,,,,
15.41.01.022,44.5,11.1,0,1.0,,50428.6,19.83,0.43,0.68,0.61,4.7,5.6,-3.0,37.81,,,,,,,,,,
15.41.01.034,27.8,7.0,0,1.0,,66077.6,15.13,0.42,0.68,0.6,2.6,5.3,-2.2,37.81,,,,,,,,,,
15.41.01.042,77.1,19.3,0,1.0,,56298.7,17.76,0.42,0.69,0.59,1.7,7.4,-1.3,37.81,,,,,,,,,,
15.41.01.054,21.9,5.5,0,1.0,,62900.8,15.9,0.41,0.68,0.59,-0.6,6.3,-0.2,37.81,,,,,,,,,,
15.41.01.067,28.8,7.2,0,1.0,,62927.2,15.89,0.42,0.66,0.6,-2.0,6.4,0.4,37.81,,,,,,,,,,
15.41.01.075,37.4,9.4,0,1.0,,59984.8,16.67,0.42,0.66,0.6,-2.3,6.0,0.3,37.81,,,,,,,,,,
15.41.01.087,3.0,0.8,0,1.0,,60910.6,16.42,0.41,0.64,0.61,-1.2,5.1,-0.5,37.81,,,,,,,,,,
15.41.01.099,-2.5,0.6,0,1.0,,58591.6,17.07,0.43,0.65,0.61,-0.5,4.0,-0.5,37.81,,,,,,,,,,
15.41.01.112,-48.8,12.2,0,1.0,,61498.1,16.26,0.43,0.67,0.61,-0.1,3.0,-1.0,37.81,,,,,,,,,,
15.41.01.120,-36.4,9.1,0,1.0,,60701.9,16.47,0.43,0.67,0.61,0.4,3.6,-0.8,37.81,,,,,,,,,,
15.41.01.132,-109.1,27.3,0,1.0,,55300.5,18.08,0.43,0.67,0.59,0.1,4.0,-0.3,37.81,,,,,,,,,,
15.41.01.140,6.3,1.6,0,1.0,,59708.5,16.75,0.43,0.68,0.6,-1.2,3.8,0.4,37.81,,,,,,,,,,
15.41.01.153,-51.6,12.9,0,1.0,,58564.1,17.08,0.43,0.66,0.6,-2.0,5.2,0.3,37.81,,,,,,,,,,
15.41.01.165,-116.2,29.0,0,1.0,,61073.8,16.37,0.43,0.67,0.61,-2.2,5.4,0.7,37.81,,,,,,,,,,
15.41.01.177,-50.8,12.7,0,1.0,,65273.9,15.32,0.42,0.65,0.61,-2.1,4.1,0.2,37.81,,,,,,,,,,
15.41.01.185,-86.4,21.6,0,1.0,,62614.0,15.97,0.42,0.64,0.59,-1.8,5.9,-1.4,37.81,,,,,,,,,,
15.41.01.198,-83.0,20.8,0,1.0,,58391.3,17.13,0.42,0.64,0.6,0.3,5.2,-1.3,37.81,,,,,,,,,,
15.41.01.210,-85.5,21.4,0,1.0,,60594.1,16.5,0.43,0.67,0.61,0.5,4.7,-0.7,37.81,,,,,,,,,,
15.41.01.218,-141.6,35.4,0,1.0,,55131.3,18.14,0.44,0.67,0.6,-1.0,4.5,-0.4,37.81,,,,,,,,,,
15.41.01.231,-174.9,43.7,0,1.0,,61806.5,16.18,0.4,0.67,0.59,1.2,7.7,-2.0,37.81,,,,,,,,,,
15.41.01.243,-118.8,29.7,0,1.0,,59958.7,16.68,0.39,0.59,0.61,0.7,9.4,-2.9,37.81,,,,,,,,,,
15.41.01.251,-135.5,33.9,0,1.0,,55136.8,18.14,0.44,0.68,0.65,-1.2,2.6,0.2,37.81,,,,,,,,,,
15.41.01.263,-107.2,26.8,0,1.0,,68507.1,14.6,0.43,0.67,0.6,0.4,2.5,-0.6,37.81,,,,,,,,,,
15.41.01.276,-156.2,39.0,0,1.0,,65391.2,15.29,0.42,0.62,0.56,4.6,8.3,-2.8,37.81,,,,,,,,,,
15.41.01.284,-146.1,36.5,0,1.0,,56639.5,17.66,0.46,0.67,0.59,2.3,4.6,-1.7,37.81,,,,,,,,,,
15.41.01.297,-133.9,33.5,0,1.0,,59133.1,16.91,0.47,0.73,0.61,0.1,2.6,0.1,37.81,,,,,,,,,,
15.41.01.308,-233.8,58.4,0,1.0,,59652.2,16.76,0.42,0.65,0.58,0.4,9.1,-1.1,37.81,,,,,,,,,,
15.41.01.321,-89.2,22.3,0,1.0,,66883.5,14.95,0.41,0.62,0.59,0.5,10.6,-2.2,37.81,,,,,,,,,,
15.41.01.329,-182.3,45.6,0,1.0,,61870.9,16.16,0.42,0.67,0.64,-0.3,3.6,-1.4,37.81,,,,,,,,,,
15.41.01.341,123.1,30.8,1,2.0,102.8,57308.7,17.45,0.4,0.66,0.62,1.3,4.7,-2.0,37.81,,,,,,,,,,
15.41.01.353,155.8,39.0,0,2.0,,59826.6,16.71,0.39,0.61,0.59,3.3,6.9,-3.1,37.81,,,,,,,,,,
15.41.01.362,230.9,57.7,0,2.0,,61376.0,16.29,0.43,0.67,0.59,2.8,2.2,-2.0,37.81,,,,,,,,,,
15.41.01.374,292.3,73.1,0,2.0,,56989.1,17.55,0.45,0.71,0.6,1.0,1.4,-0.7,37.81,,,,,,,,,,
15.41.01.386,388.2,97.0,0,2.0,,64824.2,15.43,0.43,0.66,0.58,1.3,7.1,-1.0,37.81,,,,,,,,,,
15.41.01.394,424.1,106.0,0,2.0,,59941.4,16.68,0.43,0.64,0.59,0.7,8.3,-1.0,37.81,,,,,,,,,,
15.41.01.407,422.3,105.6,0,2.0,,60326.5,16.58,0.44,0.68,0.61,-0.1,5.1,-0.8,37.81,,,,,,,,,,
15.41.01.419,467.3,116.8,0,2.0,,62257.6,16.06,0.43,0.67,0.62,0.0,5.7,-1.5,37.81,,,,,,,,,,
15.41.01.427,464.7,116.2,0,2.0,,55915.7,17.88,0.42,0.63,0.59,0.8,7.4,-2.3,37.81,,,,,,,,,,
15.41.01.468,433.3,108.3,0,2.0,,54909.8,18.21,0.43,0.67,0.6,1.0,5.2,-1.8,37.81,,,,,,,,,,
15.41.01.480,339.5,84.9,0,2.0,,60738.5,16.46,0.43,0.66,0.6,0.8,6.0,-1.3,37.81,,,,,,,,,,
15.41.01.489,404.1,101.0,0,2.0,,60372.3,16.56,0.43,0.68,0.61,0.4,5.7,-1.3,37.81,,,,,,,,,,
15.41.01.501,290.3,72.6,0,2.0,,60837.6,16.44,0.42,0.65,0.6,0.6,5.8,-1.6,37.81,,,,,,,,,,
15.41.01.509,254.5,63.6,0,2.0,,59759.5,16.73,0.42,0.65,0.59,1.3,5.9,-1.6,37.81,,,,,,,,,,
15.41.01.521,215.8,54.0,0,2.0,,61850.1,16.17,0.43,0.67,0.61,1.5,4.8,-1.9,37.81,,,,,,,,,,
15.41.01.530,57.5,14.4,0,2.0,,57139.5,17.5,0.43,0.67,0.6,0.5,5.8,-1.4,37.81,,,,,,,,,,
15.41.01.542,26.3,6.6,0,2.0,,61262.2,16.32,0.43,0.66,0.59,0.5,6.5,-1.4,37.81,,,,,,,,,,
15.41.01.550,-24.4,6.1,0,2.0,,58300.6,17.15,0.43,0.66,0.6,0.7,5.9,-1.5,37.81,,,,,,,,,,
15.41.01.563,4.4,1.1,0,2.0,,58410.7,17.12,0.42,0.66,0.6,0.5,6.0,-1.2,37.81,,,,,,,,,,
15.41.01.571,15.7,3.9,0,2.0,,58682.4,17.04,0.43,0.66,0.6,1.2,5.8,-1.4,37.81,,,,,,,,,,
15.41.01.583,68.5,17.1,0,2.0,,59198.3,16.89,0.43,0.66,0.6,1.1,5.4,-1.3,37.81,,,,,,,,,,
15.41.01.591,71.1,17.8,0,2.0,,55512.2,18.01,0.43,0.66,0.6,1.2,5.5,-1.8,37.81,,,,,,,,,,
15.41.01.603,64.2,16.0,0,2.0,,59116.4,16.92,0.42,0.67,0.61,0.9,5.4,-1.8,37.81,,,,,,,,,,
15.41.01.612,51.4,12.8,0,2.0,,61750.0,16.19,0.43,0.66,0.6,1.3,5.7,-1.4,37.81,,,,,,,,,,
15.41.01.624,89.6,22.4,0,2.0,,58756.1,17.02,0.42,0.66,0.6,1.5,5.5,-1.8,37.81,,,,,,,,,,
15.41.01.632,98.0,24.5,0,2.0,,57313.7,17.45,0.42,0.66,0.59,1.6,5.3,-1.7,37.81,,,,,,,,,,
15.41.01.644,44.4,11.1,0,2.0,,59727.6,16.74,0.43,0.66,0.59,1.6,5.6,-1.9,37.81,,,,,,,,,,
15.41.01.657,-48.3,12.1,0,2.0,,56606.5,17.67,0.42,0.66,0.6,1.9,4.6,-1.3,37.81,,,,,,,,,,
15.41.01.665,-4.2,1.0,0,2.0,,59932.2,16.69,0.42,0.66,0.6,1.7,4.9,-1.7,37.81,,,,,,,,,,
15.41.01.677,-13.8,3.4,0,2.0,,63674.1,15.7,0.42,0.67,0.6,1.1,4.7,-1.5,37.81,,,,,,,,,,
15.41.01.689,-7.7,1.9,0,2.0,,62923.2,15.89,0.42,0.66,0.6,0.7,4.9,-1.5,37.81,,,,,,,,,,
15.41.01.698,11.1,2.8,0,2.0,,65345.7,15.3,0.43,0.67,0.6,1.0,4.9,-1.3,37.81,,,,,,,,,,
15.41.01.710,-64.3,16.1,0,2.0,,59001.5,16.95,0.43,0.66,0.59,0.8,5.4,-1.3,37.81,,,,,,,,,,
15.41.01.722,-19.5,4.9,0,2.0,,60539.5,16.52,0.43,0.66,0.59,0.3,5.9,-1.2,37.81,,,,,,,,,,
15.41.01.730,-38.1,9.5,0,2.0,,60792.9,16.45,0.43,0.66,0.59,0.3,5.9,-0.7,37.81,,,,,,,,,,
15.41.01.743,-67.7,16.9,0,2.0,,57904.7,17.27,0.42,0.66,0.6,1.8,5.4,-1.7,37.81,,,,,,,,,,
15.41.01.755,-42.6,10.6,0,2.0,,56508.9,17.7,0.44,0.68,0.6,0.6,5.6,-0.4,37.81,,,,,,,,,,
15.41.01.763,-75.8,19.0,0,2.0,,57919.1,17.27,0.43,0.65,0.59,1.0,5.9,-1.4,37.81,,,,,,,,,,
15.41.01.775,-72.9,18.2,0,2.0,,67594.8,14.79,0.43,0.66,0.6,0.3,5.0,-1.0,37.81,,,,,,,,,,
15.41.01.788,-102.2,25.6,0,2.0,,64593.5,15.48,0.42,0.65,0.6,1.3,4.8,-1.3,37.81,,,,,,,,,,
15.41.01.796,-112.9,28.2,0,2.0,,57147.9,17.5,0.43,0.66,0.6,1.8,4.9,-1.3,37.81,,,,,,,,,,
15.41.01.808,-115.3,28.8,0,2.0,,60712.0,16.47,0.43,0.66,0.59,1.6,5.0,-1.5,37.81,,,,,,,,,,
15.41.01.820,-110.6,27.6,0,2.0,,59712.9,16.75,0.43,0.68,0.6,1.2,6.1,-1.4,37.81,,,,,,,,,,
15.41.01.829,-82.0,20.5,0,2.0,,58497.2,17.09,0.43,0.67,0.59,0.4,6.1,-1.1,37.81,,,,,,,,,,
15.41.01.841,-157.3,39.3,0,2.0,,60166.8,16.62,0.43,0.66,0.6,0.1,6.1,-0.8,37.81,,,,,,,,,,
15.41.01.853,-59.5,14.9,0,2.0,,60699.9,16.47,0.43,0.66,0.59,0.3,6.5,-1.0,37.81,,,,,,,,,,
15.41.01.861,,,0,2.0,,67344.8,14.85,,,,,,,,,,,,,,,,,
15.41.01.878,,,0,2.0,,62282.2,16.06,,,,,,,,,37.81,,,,,,,,
15.41.01.890,-138.9,34.7,0,2.0,,62164.4,16.09,0.43,0.67,0.6,1.7,5.3,-1.5,37.81,,,,,,,,,,
15.41.01.898,-177.4,44.4,0,2.0,,61555.1,16.25,0.43,0.67,0.6,1.6,5.7,-1.4,37.81,,,,,,,,,,
15.41.01.911,-170.8,42.7,0,2.0,,64595.4,15.48,0.42,0.66,0.59,0.5,5.7,-1.1,37.81,,,,,,,,,,
15.41.01.919,-206.4,51.6,0,2.0,,58583.9,17.07,0.43,0.67,0.6,0.0,5.4,-0.5,37.81,,,,,,,,,,
15.41.01.931,-150.7,37.7,0,2.0,,58920.8,16.97,0.43,0.65,0.6,0.9,6.2,-1.5,37.81,,,,,,,,,,
15.41.01.939,-7.8,2.0,1,3.0,101.5,59895.2,16.7,0.43,0.66,0.6,1.2,5.9,-1.1,37.81,,,,,,,,,,
15.41.01.952,101.2,25.3,0,3.0,,63785.7,15.68,0.42,0.66,0.6,1.2,5.8,-1.4,37.81,,,,,,,,,,
15.41.01.960,210.8,52.7,0,3.0,,59612.0,16.78,0.43,0.67,0.6,1.5,5.9,-1.5,37.81,,,,,,,,,,
15.41.01.972,211.1,52.8,0,3.0,,56285.7,17.77,0.43,0.66,0.6,0.6,5.9,-1.6,37.81,,,,,,,,,,
15.41.01.981,334.5,83.6,0,3.0,,61630.8,16.23,0.43,0.66,0.6,0.7,5.4,-1.2,37.81,,,,,,,,,,
15.41.01.992,334.9,83.7,0,3.0,,63026.2,15.87,0.43,0.67,0.6,0.5,5.4,-1.3,37.81,,,,,,,,,,
15.41.02.005,372.8,93.2,0,3.0,,56537.4,17.69,0.43,0.66,0.6,0.3,6.3,-1.0,37.81,,,,,,,,,,
15.41.02.013,375.0,93.8,0,3.0,,62001.0,16.13,0.43,0.66,0.6,0.5,6.2,-1.2,37.81,,,,,,,,,,
15.41.02.025,449.1,112.3,0,3.0,,62369.5,16.03,0.43,0.66,0.6,0.6,6.1,-0.8,37.81,,,,,,,,,,
15.41.02.038,413.4,103.4,0,3.0,,60517.4,16.52,0.43,0.66,0.59,1.0,6.2,-1.6,37.81,,,,,,,,,,
15.41.02.046,427.9,107.0,0,3.0,,62802.5,15.92,0.43,0.66,0.59,1.7,6.6,-1.5,37.81,,,,,,,,,,
15.41.02.058,454.3,113.6,0,3.0,,63884.1,15.65,0.43,0.66,0.6,1.4,6.0,-1.7,37.81,,,,,,,,,,
15.41.02.070,402.0,100.5,0,3.0,,61235.3,16.33,0.43,0.67,0.6,1.1,5.6,-1.4,37.81,,,,,,,,,,
15.41.02.079,494.5,123.6,0,3.0,,63263.0,15.81,0.43,0.67,0.59,0.8,6.4,-1.3,37.81,,,,,,,,,,
15.41.02.091,358.4,89.6,0,3.0,,58511.8,17.09,0.43,0.66,0.6,0.3,6.8,-1.4,37.81,,,,,,,,,,
15.41.02.103,301.3,75.3,0,3.0,,56836.9,17.59,0.43,0.66,0.6,0.4,6.4,-1.3,37.81,,,,,,,,,,
15.41.02.111,315.0,78.8,0,3.0,,64904.5,15.41,0.43,0.66,0.6,1.3,6.3,-1.1,37.81,,,,,,,,,,
15.41.02.124,232.5,58.1,0,3.0,,58740.6,17.02,0.43,0.66,0.6,0.9,6.5,-1.4,37.81,,,,,,,,,,
15.41.02.132,88.0,22.0,0,3.0,,60215.1,16.61,0.43,0.66,0.6,0.7,6.5,-1.1,37.81,,,,,,,,,,
15.41.02.144,73.3,18.3,0,3.0,,57770.6,17.31,0.43,0.67,0.59,0.6,6.2,-1.1,37.81,,,,,,,,,,
15.41.02.156,-26.6,6.6,0,3.0,,57383.2,17.43,0.43,0.67,0.6,0.8,6.3,-1.0,37.81,,,,,,,,,,
15.41.02.165,53.7,13.4,0,3.0,,61212.2,16.34,0.43,0.66,0.59,0.9,5.9,-1.2,37.81,,,,,,,,,,
15.41.02.177,48.6,12.2,0,3.0,,60102.5,16.64,0.43,0.66,0.6,0.9,6.0,-1.3,37.81,,,,,,,,,,
15.41.02.189,129.5,32.4,0,3.0,,60448.8,16.54,0.43,0.66,0.59,0.8,5.7,-1.4,37.81,,,,,,,,,,
15.41.02.197,94.5,23.6,0,3.0,,60555.1,16.51,0.43,0.67,0.6,0.9,6.0,-1.4,37.81,,,,,,,,,,
15.41.02.210,125.1,31.3,0,3.0,,66304.4,15.08,0.43,0.66,0.59,0.7,6.0,-1.5,37.81,,,,,,,,,,
15.41.02.222,97.3,24.3,0,3.0,,64525.4,15.5,0.42,0.66,0.6,0.5,5.8,-1.1,37.81,,,,,,,,,,
15.41.02.230,82.4,20.6,0,3.0,,64847.6,15.42,0.42,0.66,0.6,0.3,6.0,-0.9,37.81,,,,,,,,,,
15.41.02.271,-45.2,11.3,0,3.0,,54775.4,18.26,0.43,0.67,0.6,0.1,6.5,-1.1,37.81,,,,,,,,,,
15.41.02.279,12.5,3.1,0,3.0,,62553.0,15.99,0.43,0.66,0.59,0.9,6.1,-1.4,37.81,,,,,,,,,,
15.41.02.292,39.9,10.0,0,3.0,,55471.5,18.03,0.43,0.67,0.59,1.0,5.9,-1.5,37.81,,,,,,,,,,
15.41.02.304,11.2,2.8,0,3.0,,58379.5,17.13,0.43,0.67,0.6,0.1,5.3,-1.6,37.81,,,,,,,,,,
15.41.02.312,-11.4,2.8,0,3.0,,65479.9,15.27,0.43,0.68,0.6,-0.4,5.5,-1.0,37.81,,,,,,,,,,
15.41.02.324,-20.2,5.0,0,3.0,,64825.5,15.43,0.42,0.67,0.6,-1.1,5.5,-0.8,37.81,,,,,,,,,,
15.41.02.337,-69.7,17.4,0,3.0,,63335.1,15.79,0.42,0.66,0.6,-1.0,6.1,-0.8,37.81,,,,,,,,,,
15.41.02.345,-41.8,10.4,0,3.0,,62582.6,15.98,0.43,0.65,0.6,-1.1,5.2,-0.7,37.81,,,,,,,,,,
15.41.02.357,-99.4,24.8,0,3.0,,61413.1,16.28,0.43,0.66,0.61,-0.5,4.8,-0.8,37.81,,,,,,,,,,
15.41.02.369,-68.5,17.1,0,3.0,,61831.6,16.17,0.43,0.66,0.6,1.2,4.9,-2.0,37.81,,,,,,,,,,
15.41.02.378,-57.3,14.3,0,3.0,,63751.8,15.69,0.43,0.66,0.6,1.2,4.2,-2.1,37.81,,,,,,,,,,
15.41.02.390,-109.1,27.3,0,3.0,,56075.2,17.83,0.44,0.67,0.59,0.7,4.5,-1.4,37.81,,,,,,,,,,
15.41.02.402,-111.4,27.8,0,3.0,,61378.8,16.29,0.44,0.66,0.6,0.9,5.0,-1.3,37.81,,,,,,,,,,
15.41.02.410,-82.3,20.6,0,3.0,,58221.1,17.18,0.43,0.66,0.6,0.5,5.6,-1.3,37.81,,,,,,,,,,
15.41.02.423,-108.9,27.2,0,3.0,,59379.1,16.84,0.43,0.65,0.6,0.6,5.4,-1.0,37.81,,,,,,,,,,
15.41.02.435,-181.8,45.4,0,3.0,,59893.6,16.7,0.42,0.66,0.6,1.0,5.8,-1.1,37.81,,,,,,,,,,
15.41.02.443,-135.3,33.8,0,3.0,,60644.4,16.49,0.43,0.66,0.61,1.8,5.3,-1.7,37.81,,,,,,,,,,
15.41.02.455,-100.2,25.0,0,3.0,,58743.8,17.02,0.43,0.65,0.6,2.6,5.0,-1.9,37.81,,,,,,,,,,
15.41.02.468,-147.8,37.0,0,3.0,,53547.8,18.67,0.43,0.66,0.6,2.3,5.7,-1.7,37.81,,,,,,,,,,
15.41.02.476,-216.5,54.1,0,3.0,,60755.3,16.46,0.43,0.67,0.6,1.7,5.6,-1.6,37.81,,,,,,,,,,
15.41.02.488,-129.0,32.2,0,3.0,,59088.0,16.92,0.43,0.67,0.6,1.4,6.1,-1.5,37.81,,,,,,,,,,
15.41.02.501,-159.2,39.8,0,3.0,,59535.6,16.8,0.43,0.66,0.59,1.2,5.9,-1.1,37.81,,,,,,,,,,
15.41.02.509,-141.0,35.2,0,3.0,,62530.0,15.99,0.43,0.66,0.59,1.5,5.9,-1.0,37.81,,,,,,,,,,
15.41.02.521,-122.2,30.6,0,3.0,,61120.9,16.36,0.43,0.66,0.6,2.0,5.4,-1.0,37.81,,,,,,,,,,
15.41.02.533,-191.8,48.0,0,3.0,,60837.8,16.44,0.43,0.66,0.6,2.1,5.3,-1.1,37.81,,,,,,,,,,
15.41.02.541,63.7,15.9,1,4.0,99.6,60013.7,16.66,0.43,0.66,0.61,2.8,5.2,-1.5,37.81,,,,,,,,,,
15.41.02.554,118.7,29.7,0,4.0,,60324.5,16.58,0.43,0.66,0.59,2.2,4.5,-0.5,37.81,,,,,,,,,,
15.41.02.566,145.5,36.4,0,4.0,,57340.0,17.44,0.43,0.66,0.59,2.5,4.9,-1.4,37.81,,,,,,,,,,
15.41.02.574,259.3,64.8,0,4.0,,60854.7,16.43,0.43,0.67,0.59,2.7,4.4,-1.4,37.81,,,,,,,,,,
15.41.02.587,425.6,106.4,0,4.0,,57706.7,17.33,0.43,0.67,0.59,1.9,4.4,-0.6,37.81,,,,,,,,,,
15.41.02.599,387.8,97.0,0,4.0,,58721.6,17.03,0.43,0.66,0.59,2.2,4.5,-0.3,37.81,,,,,,,,,,
15.41.02.607,447.6,111.9,0,4.0,,56463.0,17.71,0.43,0.66,0.59,2.7,5.2,-0.7,37.81,,,,,,,,,,
15.41.02.619,465.7,116.4,0,4.0,,62005.3,16.13,0.43,0.66,0.6,3.0,4.5,-0.6,37.81,,,,,,,,,,
15.41.02.632,520.0,130.0,0,4.0,,66327.2,15.08,0.43,0.67,0.6,2.9,5.2,-1.0,37.81,,,,,,,,,,
15.41.02.640,472.4,118.1,0,4.0,,62041.6,16.12,0.43,0.67,0.59,2.6,4.6,-1.1,37.81,,,,,,,,,,
15.41.02.652,427.3,106.8,0,4.0,,52237.0,19.14,0.43,0.67,0.6,2.5,4.1,-0.2,37.81,,,,,,,,,,
15.41.02.664,478.0,119.5,0,4.0,,61368.2,16.3,0.43,0.67,0.6,2.0,4.7,-0.3,37.81,,,,,,,,,,
15.41.02.673,479.0,119.8,0,4.0,,59549.8,16.79,0.43,0.66,0.58,3.3,3.8,-0.3,37.81,,,,,,,,,,
15.41.02.685,394.3,98.6,0,4.0,,61099.7,16.37,0.43,0.67,0.59,2.4,4.9,-0.9,37.81,,,,,,,,,,
15.41.02.697,405.8,101.4,0,4.0,,64253.3,15.56,0.43,0.66,0.6,2.8,4.4,-0.5,37.81,,,,,,,,,,
15.41.02.705,316.7,79.2,0,4.0,,61222.0,16.33,0.43,0.67,0.6,3.4,4.5,0.0,37.81,,,,,,,,,,
15.41.02.718,266.7,66.7,0,4.0,,63059.0,15.86,0.43,0.67,0.59,2.2,4.7,0.6,37.81,,,,,,,,,,
15.41.02.730,77.4,19.4,0,4.0,,61694.4,16.21,0.43,0.67,0.58,2.5,4.8,0.4,37.81,,,,,,,,,,
15.41.02.738,61.2,15.3,0,4.0,,56940.3,17.56,0.43,0.67,0.59,2.6,5.2,0.4,37.81,,,,,,,,,,
15.41.02.750,-42.5,10.6,0,4.0,,63085.4,15.85,0.43,0.67,0.59,2.2,4.7,0.8,37.81,,,,,,,,,,
15.41.02.763,52.4,13.1,0,4.0,,62898.1,15.9,0.43,0.66,0.59,2.6,3.4,1.5,37.81,,,,,,,,,,
15.41.02.771,5.8,1.4,0,4.0,,60563.6,16.51,0.44,0.67,0.6,3.2,3.5,1.5,37.81,,,,,,,,,,
15.41.02.783,124.6,31.2,0,4.0,,63294.2,15.8,0.44,0.67,0.59,3.3,4.6,1.4,37.81,,,,,,,,,,
15.41.02.796,15.6,3.9,0,4.0,,62932.2,15.89,0.43,0.66,0.59,3.7,3.6,2.4,37.81,,,,,,,,,,
15.41.02.804,42.9,10.7,0,4.0,,60129.8,16.63,0.44,0.67,0.59,4.2,5.1,1.4,37.81,,,,,,,,,,
15.41.02.816,58.3,14.6,0,4.0,,58157.6,17.19,0.43,0.66,0.58,4.8,3.8,1.2,37.81,,,,,,,,,,
15.41.02.824,53.5,13.4,0,4.0,,58697.0,17.04,0.44,0.66,0.59,6.0,3.9,1.7,37.81,,,,,,,,,,
15.41.02.836,56.6,14.2,0,4.0,,64265.6,15.56,0.44,0.68,0.59,5.2,3.9,1.0,37.81,,,,,,,,,,
15.41.02.849,137.5,34.4,0,4.0,,59372.4,16.84,0.44,0.66,0.58,6.7,3.1,1.7,37.81,,,,,,,,,,
15.41.02.857,30.1,7.5,0,4.0,,62343.9,16.04,0.43,0.67,0.6,5.4,4.5,1.3,37.81,,,,,,,,,,
15.41.02.869,-11.7,2.9,0,4.0,,58758.0,17.02,0.44,0.67,0.59,5.5,3.4,2.3,37.81,,,,,,,,,,
15.41.02.881,-23.7,5.9,0,4.0,,59747.8,16.74,0.45,0.69,0.58,6.8,5.2,2.0,37.81,,,,,,,,,,
15.41.02.890,-68.3,17.1,0,4.0,,63067.1,15.86,0.44,0.66,0.59,6.3,1.5,4.0,37.81,,,,,,,,,,
15.41.02.902,-71.5,17.9,0,4.0,,62678.6,15.95,0.45,0.68,0.59,7.9,4.3,4.0,37.81,,,,,,,,,,
15.41.02.914,-18.7,4.7,0,4.0,,59991.9,16.67,0.44,0.68,0.58,7.2,1.3,4.1,37.81,,,,,,,,,,
15.41.02.922,6.5,1.6,0,4.0,,64730.5,15.45,0.45,0.68,0.59,7.2,2.5,5.5,37.81,,,,,,,,,,
15.41.02.935,-46.9,11.7,0,4.0,,58347.7,17.14,0.45,0.68,0.59,6.1,-0.8,7.7,37.81,,,,,,,,,,
15.41.02.947,-104.3,26.1,0,4.0,,58084.0,17.22,0.45,0.69,0.59,5.5,-0.6,8.3,37.81,,,,,,,,,,
15.41.02.955,17.8,4.4,0,4.0,,60414.3,16.55,0.42,0.71,0.59,1.5,-3.8,12.3,37.81,,,,,,,,,,
15.41.02.967,-36.3,9.1,0,4.0,,63064.0,15.86,0.41,0.62,0.54,-3.0,-1.3,9.1,37.81,,,,,,,,,,
15.41.02.980,-14.2,3.6,0,4.0,,67182.3,14.88,0.45,0.66,0.59,-2.7,-8.0,13.4,37.81,,,,,,,,,,
15.41.02.988,-113.6,28.4,0,4.0,,55909.8,17.89,0.46,0.62,0.58,3.2,-2.1,10.6,37.81,,,,,,,,,,
15.41.03.000,-73.9,18.5,0,4.0,,60763.4,16.46,0.46,0.63,0.57,6.2,-3.1,7.9,37.81,,,,,,,,,,
15.41.03.013,-102.4,25.6,0,4.0,,64520.8,15.5,0.46,0.65,0.56,8.8,0.0,5.7,37.81,,,,,,,,,,
15.41.03.021,-114.7,28.7,0,4.0,,61183.5,16.34,0.47,0.65,0.54,11.7,-0.2,3.4,37.81,,,,,,,,,,
15.41.03.033,-91.1,22.8,0,4.0,,58552.7,17.08,0.47,0.66,0.57,10.8,0.5,1.5,37.81,,,,,,,,,,
15.41.03.074,-243.7,60.9,0,4.0,,60028.1,16.66,0.47,0.67,0.56,12.4,1.2,1.4,37.81,,,,,,,,,,
15.41.03.082,-144.8,36.2,0,4.0,,60252.4,16.6,0.46,0.66,0.55,7.6,0.8,4.2,37.81,,,,,,,,,,
15.41.03.095,-140.0,35.0,0,4.0,,64999.4,15.38,0.47,0.64,0.56,11.3,2.1,3.4,37.81,,,,,,,,,,
15.41.03.103,-187.5,46.9,0,4.0,,65010.9,15.38,0.48,0.67,0.56,11.7,0.5,1.8,37.81,,,,,,,,,,
15.41.03.115,-215.7,53.9,0,4.0,,58291.2,17.16,0.48,0.66,0.55,12.1,0.5,1.6,37.81,,,,,,,,,,
15.41.03.127,-141.9,35.5,0,4.0,,66244.1,15.1,0.48,0.69,0.56,12.4,2.2,0.1,37.81,,,,,,,,,,
15.41.03.136,-169.5,42.4,0,4.0,,59145.2,16.91,0.47,0.69,0.54,10.7,3.0,0.6,37.81,,,,,,,,,,
15.41.03.148,18.4,4.6,1,5.0,97.0,61679.0,16.21,0.48,0.69,0.54,6.3,3.2,1.5,37.81,,,,,,,,,,
15.41.03.160,140.5,35.1,0,5.0,,61821.2,16.18,0.47,0.68,0.55,5.0,3.2,1.9,37.81,,,,,,,,,,
15.41.03.168,201.9,50.5,0,5.0,,58662.5,17.05,0.48,0.67,0.54,7.4,3.6,2.1,37.81,,,,,,,,,,
15.41.03.181,260.5,65.1,0,5.0,,63312.8,15.79,0.48,0.68,0.54,6.7,5.6,0.3,37.81,,,,,,,,,,
15.41.03.193,328.4,82.1,0,5.0,,56253.4,17.78,0.47,0.66,0.54,7.0,5.6,0.6,37.81,,,,,,,,,,
15.41.03.201,353.0,88.2,0,5.0,,61992.5,16.13,0.48,0.67,0.54,7.9,5.4,1.8,37.81,,,,,,,,,,
15.41.03.213,498.8,124.7,0,5.0,,63007.6,15.87,0.49,0.68,0.55,7.9,4.8,2.4,37.81,,,,,,,,,,
15.41.03.221,454.7,113.7,0,5.0,,62621.0,15.97,0.49,0.68,0.54,7.7,6.4,2.1,37.81,,,,,,,,,,
15.41.03.234,476.3,119.1,0,5.0,,65122.9,15.36,0.49,0.68,0.53,6.9,5.3,3.5,37.81,,,,,,,,,,
15.41.03.246,530.1,132.5,0,5.0,,60482.9,16.53,0.49,0.67,0.54,6.2,5.0,3.9,37.81,,,,,,,,,,
15.41.03.254,421.2,105.3,0,5.0,,54315.0,18.41,0.49,0.67,0.54,7.5,4.9,3.4,37.81,,,,,,,,,,
15.41.03.267,508.7,127.2,0,5.0,,65599.6,15.24,0.48,0.69,0.55,7.3,5.5,1.8,37.81,,,,,,,,,,
15.41.03.279,528.7,132.2,0,5.0,,59826.9,16.71,0.47,0.66,0.53,8.9,4.0,2.5,37.81,,,,,,,,,,
15.41.03.287,387.5,96.9,0,5.0,,59313.4,16.86,0.48,0.68,0.54,7.8,3.9,3.8,37.81,,,,,,,,,,
15.41.03.299,389.6,97.4,0,5.0,,57880.8,17.28,0.48,0.67,0.53,9.2,5.7,1.8,37.81,,,,,,,,,,
15.41.03.312,229.8,57.4,0,5.0,,56506.3,17.7,0.46,0.65,0.51,11.2,4.1,1.9,37.81,,,,,,,,,,
15.41.03.320,290.4,72.6,0,5.0,,55439.7,18.04,0.48,0.67,0.53,11.4,5.4,1.1,37.81,,,,,,,,,,
15.41.03.332,128.8,32.2,0,5.0,,61179.5,16.35,0.49,0.67,0.53,7.6,2.9,2.8,37.81,,,,,,,,,,
15.41.03.344,72.5,18.1,0,5.0,,63958.5,15.64,0.49,0.69,0.53,9.5,7.1,0.6,37.81,,,,,,,,,,
15.41.03.353,-32.4,8.1,0,5.0,,59220.4,16.89,0.48,0.68,0.53,7.4,6.4,1.0,37.81,,,,,,,,,,
15.41.03.365,-3.7,0.9,0,5.0,,61799.2,16.18,0.48,0.69,0.53,7.1,4.9,1.9,37.81,,,,,,,,,,
15.41.03.377,50.0,12.5,0,5.0,,65719.0,15.22,0.48,0.68,0.53,9.1,4.8,0.9,37.81,,,,,,,,,,
15.41.03.385,94.9,23.7,0,5.0,,61013.4,16.39,0.49,0.68,0.54,10.4,3.2,0.9,37.81,,,,,,,,,,
15.41.03.398,61.0,15.2,0,5.0,,57649.0,17.35,0.49,0.68,0.54,13.3,2.3,1.4,37.81,,,,,,,,,,
15.41.03.410,85.4,21.4,0,5.0,,61335.7,16.3,0.48,0.69,0.53,15.3,0.1,1.9,37.81,,,,,,,,,,
15.41.03.418,130.4,32.6,0,5.0,,58402.0,17.12,0.47,0.67,0.54,18.6,-1.0,1.7,37.81,,,,,,,,,,
15.41.03.430,131.1,32.8,0,5.0,,62174.5,16.08,0.48,0.68,0.53,19.9,-3.2,3.5,37.81,,,,,,,,,,
15.41.03.443,36.7,9.2,0,5.0,,57902.8,17.27,0.47,0.69,0.53,23.3,-3.4,1.7,37.81,,,,,,,,,,
15.41.03.455,74.0,18.5,0,5.0,,55919.3,17.88,0.49,0.66,0.53,27.4,-6.7,2.3,37.81,,,,,,,,,,
15.41.03.463,38.9,9.7,0,5.0,,63729.8,15.69,0.48,0.69,0.53,29.4,-6.2,1.2,37.81,,,,,,,,,,
15.41.03.475,-9.4,2.4,0,5.0,,61251.8,16.33,0.5,0.67,0.53,30.3,-7.1,0.3,37.81,,,,,,,,,,
15.41.03.488,-2.0,0.5,0,5.0,,62504.2,16.0,0.48,0.66,0.52,32.7,-10.1,-0.2,37.81,,,,,,,,,,
15.41.03.496,-3.0,0.8,0,5.0,,58459.9,17.11,0.51,0.73,0.5,33.3,-11.4,0.2,37.81,,,,,,,,,,
15.41.03.508,-50.6,12.6,0,5.0,,56013.7,17.85,0.5,0.72,0.49,28.2,-8.5,-1.1,37.81,,,,,,,,,,
15.41.03.521,-83.0,20.8,0,5.0,,63430.4,15.77,0.5,0.72,0.47,24.7,-7.8,0.1,37.81,,,,,,,,,,
15.41.03.529,-9.2,2.3,0,5.0,,63742.1,15.69,0.51,0.72,0.44,22.1,-7.5,1.7,37.81,,,,,,,,,,
15.41.03.541,-93.4,23.4,0,5.0,,57945.7,17.26,0.5,0.72,0.42,19.4,-6.2,1.9,37.81,,,,,,,,,,
15.41.03.553,-41.2,10.3,0,5.0,,64083.7,15.6,0.53,0.76,0.42,19.4,-2.1,2.0,37.81,,,,,,,,,,
15.41.03.566,-125.1,31.3,0,5.0,,61052.1,16.38,0.53,0.75,0.4,13.8,0.7,2.8,37.81,,,,,,,,,,
15.41.03.578,-74.6,18.6,0,5.0,,60113.7,16.64,0.53,0.75,0.4,10.8,4.4,4.3,37.81,,,,,,,,,,
15.41.03.586,-156.5,39.1,0,5.0,,58079.4,17.22,0.54,0.73,0.41,7.6,6.5,6.2,37.81,,,,,,,,,,
15.41.03.598,-157.4,39.4,0,5.0,,62522.1,15.99,0.53,0.71,0.41,6.2,8.0,6.7,37.81,,,,,,,,,,
15.41.03.607,-93.2,23.3,0,5.0,,62259.2,16.06,0.54,0.7,0.43,5.8,9.9,5.7,37.81,,,,,,,,,,
15.41.03.615,-96.4,24.1,0,5.0,,62079.2,16.11,0.53,0.7,0.43,5.5,11.8,5.2,37.81,,,,,,,,,,
15.41.03.627,-116.8,29.2,0,5.0,,53882.5,18.56,0.53,0.7,0.43,5.1,13.6,5.0,37.81,,,,,,,,,,
15.41.03.635,-154.6,38.6,0,5.0,,59270.7,16.87,0.51,0.71,0.43,3.4,14.4,5.5,37.81,,,,,,,,,,
15.41.03.648,-146.7,36.7,0,5.0,,61030.2,16.39,0.54,0.73,0.46,7.5,16.4,8.5,37.81,,,,,,,,,,
15.41.03.660,-147.7,36.9,0,5.0,,60973.1,16.4,0.5,0.74,0.46,-7.7,18.4,5.4,37.81,,,,,,,,,,
15.41.03.669,-145.8,36.4,0,5.0,,56055.4,17.84,0.49,0.71,0.46,-4.1,17.7,7.3,37.81,,,,,,,,,,
15.41.03.681,-180.6,45.2,0,5.0,,62052.0,16.12,0.48,0.75,0.46,-6.0,16.3,6.1,37.81,,,,,,,,,,
15.41.03.693,-143.2,35.8,0,5.0,,63729.0,15.69,0.51,0.71,0.48,-13.0,19.5,7.6,37.81,,,,,,,,,,
15.41.03.705,-198.2,49.6,0,5.0,,55172.7,18.12,0.51,0.69,0.48,-11.3,18.7,7.8,37.81,,,,,,,,,,
15.41.03.713,-131.4,32.8,0,5.0,,61011.4,16.39,0.51,0.69,0.48,-12.9,17.6,7.3,37.81,,,,,,,,,,
15.41.03.725,-150.9,37.7,0,5.0,,57516.5,17.39,0.52,0.67,0.48,-10.8,17.5,5.7,37.81,,,,,,,,,,
15.41.03.738,-153.9,38.5,0,5.0,,60995.2,16.39,0.5,0.68,0.48,-8.9,18.0,3.4,37.81,,,,,,,,,,
15.41.03.746,-146.6,36.6,0,5.0,,57262.5,17.46,0.51,0.69,0.47,-7.0,16.9,2.1,37.81,,,,,,,,,,
15.41.03.758,102.1,25.5,1,6.0,97.9,60663.7,16.48,0.5,0.69,0.47,-7.2,15.2,1.5,37.81,,,,,,,,,,
15.41.03.770,184.1,46.0,0,6.0,,60547.1,16.52,0.51,0.71,0.49,-5.8,15.7,0.8,37.81,,,,,,,,,,
15.41.03.779,270.3,67.6,0,6.0,,65971.4,15.16,0.51,0.71,0.47,-7.8,16.0,1.0,37.81,,,,,,,,,,
15.41.03.791,272.4,68.1,0,6.0,,64003.9,15.62,0.51,0.71,0.47,-7.2,15.8,1.7,37.81,,,,,,,,,,
15.41.03.803,280.9,70.2,0,6.0,,65626.9,15.24,0.53,0.7,0.47,-7.5,16.9,1.3,37.81,,,,,,,,,,
15.41.03.811,415.7,103.9,0,6.0,,58062.3,17.22,0.51,0.68,0.48,-6.5,16.9,1.5,37.81,,,,,,,,,,
15.41.03.824,455.5,113.9,0,6.0,,54741.9,18.27,0.51,0.69,0.48,-4.5,17.7,0.4,37.81,,,,,,,,,,
15.41.03.836,494.6,123.6,0,6.0,,56420.6,17.72,0.51,0.69,0.48,-6.4,18.2,0.2,37.81,,,,,,,,,,
15.41.03.877,509.9,127.5,0,6.0,,57726.9,17.32,0.51,0.67,0.49,-6.0,18.3,-0.6,37.81,,,,,,,,,,
15.41.03.885,419.3,104.8,0,6.0,,60828.0,16.44,0.5,0.68,0.51,-3.2,17.2,-2.1,37.81,,,,,,,,,,
15.41.03.898,417.0,104.2,0,6.0,,65635.1,15.24,0.49,0.68,0.51,-1.9,15.9,-2.5,37.81,,,,,,,,,,
15.41.03.910,386.3,96.6,0,6.0,,60389.3,16.56,0.5,0.67,0.5,0.0,15.6,-3.7,37.81,,,,,,,,,,
15.41.03.918,292.0,73.0,0,6.0,,61882.4,16.16,0.5,0.68,0.51,0.1,16.6,-4.5,37.81,,,,,,,,,,
15.41.03.930,177.6,44.4,0,6.0,,63271.5,15.8,0.5,0.69,0.51,-2.2,16.9,-4.6,37.81,,,,,,,,,,
15.41.03.943,84.7,21.2,0,6.0,,59145.1,16.91,0.5,0.68,0.51,-3.0,17.5,-4.3,37.81,,,,,,,,,,
15.41.03.951,15.0,3.8,0,6.0,,60973.5,16.4,0.49,0.68,0.51,-3.5,17.3,-4.6,37.81,,,,,,,,,,
15.41.03.963,6.8,1.7,0,6.0,,57262.7,17.46,0.49,0.68,0.52,-1.3,16.6,-6.2,37.81,,,,,,,,,,
15.41.03.975,51.1,12.8,0,6.0,,54359.1,18.4,0.49,0.67,0.51,-1.0,16.8,-7.5,37.81,,,,,,,,,,
15.41.03.988,54.3,13.6,0,6.0,,61344.7,16.3,0.49,0.68,0.52,1.9,17.7,-9.6,37.81,,,,,,,,,,
15.41.03.996,65.1,16.3,0,6.0,,60751.6,16.46,0.48,0.68,0.52,3.0,17.5,-11.1,37.81,,,,,,,,,,
15.41.04.008,77.1,19.3,0,6.0,,61125.0,16.36,0.48,0.69,0.53,4.1,14.8,-10.8,37.81,,,,,,,,,,
15.41.04.021,41.0,10.2,0,6.0,,63700.1,15.7,0.48,0.69,0.53,4.4,13.5,-10.7,37.81,,,,,,,,,,
15.41.04.029,37.1,9.3,0,6.0,,64896.1,15.41,0.47,0.69,0.53,5.2,12.5,-10.8,37.81,,,,,,,,,,
15.41.04.041,101.9,25.5,0,6.0,,60355.8,16.57,0.47,0.69,0.52,7.4,12.1,-11.2,37.81,,,,,,,,,,
15.41.04.053,78.0,19.5,0,6.0,,57751.7,17.32,0.47,0.71,0.52,6.5,11.3,-10.3,37.81,,,,,,,,,,
15.41.04.061,28.0,7.0,0,6.0,,58254.1,17.17,0.47,0.71,0.52,5.3,10.8,-9.5,37.81,,,,,,,,,,
15.41.04.074,29.2,7.3,0,6.0,,55724.9,17.95,0.47,0.71,0.52,4.4,10.6,-8.6,37.81,,,,,,,,,,
15.41.04.086,15.8,4.0,0,6.0,,65582.6,15.25,0.48,0.7,0.52,4.6,9.8,-7.9,37.81,,,,,,,,,,
15.41.04.094,-17.0,4.2,0,6.0,,57254.8,17.47,0.48,0.7,0.52,4.5,9.8,-7.5,37.81,,,,,,,,,,
15.41.04.106,-2.5,0.6,0,6.0,,61009.1,16.39,0.48,0.7,0.52,4.6,9.7,-7.3,37.81,,,,,,,,,,
15.41.04.115,-24.9,6.2,0,6.0,,55604.4,17.98,0.47,0.7,0.51,4.1,9.4,-8.1,37.81,,,,,,,,,,
15.41.04.127,-27.4,6.8,0,6.0,,61207.3,16.34,0.47,0.7,0.52,4.4,9.4,-8.0,37.81,,,,,,,,,,
15.41.04.139,-54.1,13.5,0,6.0,,59673.3,16.76,0.47,0.69,0.51,4.1,10.1,-8.1,37.81,,,,,,,,,,
15.41.04.147,-10.1,2.5,0,6.0,,55744.8,17.94,0.47,0.75,0.53,1.4,9.1,-6.1,37.81,,,,,,,,,,
15.41.04.160,-39.9,10.0,0,6.0,,57624.3,17.35,0.47,0.73,0.51,-1.0,9.4,-5.1,37.81,,,,,,,,,,
15.41.04.172,-38.4,9.6,0,6.0,,57865.5,17.28,0.47,0.71,0.51,-1.8,9.9,-4.0,37.81,,,,,,,,,,
15.41.04.180,-88.3,22.1,0,6.0,,61594.2,16.24,0.46,0.71,0.52,-0.5,10.1,-3.5,37.81,,,,,,,,,,
15.41.04.192,-96.6,24.2,0,6.0,,62610.3,15.97,0.46,0.72,0.53,-1.8,8.4,-1.8,37.81,,,,,,,,,,
15.41.04.205,-111.8,28.0,0,6.0,,61489.2,16.26,0.46,0.71,0.52,-2.2,7.2,-1.3,37.81,,,,,,,,,,
15.41.04.213,-105.1,26.3,0,6.0,,60460.2,16.54,0.45,0.7,0.52,-0.1,6.5,-1.7,37.81,,,,,,,,,,
15.41.04.225,-95.0,23.8,0,6.0,,61439.1,16.28,0.45,0.69,0.52,1.6,6.4,-2.8,37.81,,,,,,,,,,
15.41.04.238,-146.8,36.7,0,6.0,,57834.4,17.29,0.46,0.7,0.52,2.9,4.9,-3.5,37.81,,,,,,,,,,
15.41.04.246,-151.2,37.8,0,6.0,,61000.2,16.39,0.46,0.71,0.52,3.5,5.1,-3.6,37.81,,,,,,,,,,
15.41.04.258,-155.1,38.8,0,6.0,,60015.5,16.66,0.46,0.72,0.52,2.9,5.4,-4.0,37.81,,,,,,,,,,
15.41.04.270,-99.4,24.8,0,6.0,,59906.5,16.69,0.46,0.72,0.51,1.4,6.6,-3.0,37.81,,,,,,,,,,
15.41.04.278,-160.5,40.1,0,6.0,,61079.8,16.37,0.45,0.72,0.52,0.1,6.5,-2.6,37.81,,,,,,,,,,
15.41.04.291,-153.9,38.5,0,6.0,,56537.9,17.69,0.45,0.72,0.52,-1.0,6.6,-2.0,37.81,,,,,,,,,,
15.41.04.303,-208.4,52.1,0,6.0,,56236.8,17.78,0.46,0.71,0.52,-1.6,6.6,-2.3,37.81,,,,,,,,,,
15.41.04.311,-190.2,47.6,0,6.0,,62838.5,15.91,0.46,0.71,0.52,-1.0,6.0,-2.4,37.81,,,,,,,,,,
15.41.04.324,-109.1,27.3,0,6.0,,58853.2,16.99,0.46,0.69,0.52,0.0,5.2,-2.9,37.81,,,,,,,,,,
15.41.04.336,-197.2,49.3,0,6.0,,62691.9,15.95,0.46,0.7,0.52,1.4,4.2,-3.5,37.81,,,,,,,,,,
15.41.04.348,-157.2,39.3,0,6.0,,60135.1,16.63,0.45,0.7,0.52,1.9,3.0,-4.1,37.81,,,,,,,,,,
15.41.04.356,41.9,10.5,1,7.0,105.6,60347.3,16.57,0.45,0.7,0.51,1.3,2.9,-4.0,37.81,,,,,,,,,,
15.41.04.369,140.6,35.2,0,7.0,,64423.6,15.52,0.46,0.71,0.52,1.0,2.8,-4.0,37.81,,,,,,,,,,
15.41.04.381,224.2,56.0,0,7.0,,60672.0,16.48,0.45,0.71,0.51,0.4,3.5,-4.3,37.81,,,,,,,,,,
15.41.04.389,249.1,62.3,0,7.0,,58778.6,17.01,0.46,0.72,0.52,0.4,3.8,-4.7,37.81,,,,,,,,,,
15.41.04.401,259.8,65.0,0,7.0,,59124.5,16.91,0.46,0.71,0.51,-0.2,4.6,-3.9,37.81,,,,,,,,,,
15.41.04.414,394.2,98.6,0,7.0,,62308.1,16.05,0.46,0.71,0.52,1.7,4.8,-4.3,37.81,,,,,,,,,,
15.41.04.422,417.7,104.4,0,7.0,,56238.6,17.78,0.46,0.71,0.5,0.1,4.7,-3.9,37.81,,,,,,,,,,
15.41.04.434,433.1,108.3,0,7.0,,58155.4,17.2,0.46,0.72,0.53,1.5,4.5,-4.3,37.81,,,,,,,,,,
15.41.04.446,447.7,111.9,0,7.0,,56322.0,17.76,0.45,0.71,0.51,-0.1,4.6,-3.6,37.81,,,,,,,,,,
15.41.04.459,484.4,121.1,0,7.0,,58413.7,17.12,0.46,0.71,0.52,1.3,5.6,-4.2,37.81,,,,,,,,,,
15.41.04.467,511.9,128.0,0,7.0,,59878.5,16.7,0.45,0.71,0.51,-0.9,5.4,-4.2,37.81,,,,,,,,,,
15.41.04.479,444.8,111.2,0,7.0,,59284.8,16.87,0.46,0.72,0.52,-0.6,5.4,-3.8,37.81,,,,,,,,,,
15.41.04.487,510.8,127.7,0,7.0,,56497.8,17.7,0.45,0.71,0.52,-1.4,6.0,-3.0,37.81,,,,,,,,,,
15.41.04.500,409.0,102.2,0,7.0,,60663.8,16.48,0.45,0.72,0.52,0.8,5.5,-3.4,37.81,,,,,,,,,,
15.41.04.508,343.2,85.8,0,7.0,,61473.3,16.27,0.45,0.72,0.51,0.5,4.4,-3.3,37.81,,,,,,,,,,
15.41.04.521,288.8,72.2,0,7.0,,60948.0,16.41,0.46,0.71,0.52,1.2,2.2,-2.9,37.81,,,,,,,,,,
15.41.04.528,298.1,74.5,0,7.0,,64605.1,15.48,0.46,0.71,0.51,1.4,3.4,-2.7,37.81,,,,,,,,,,
15.41.04.541,160.0,40.0,0,7.0,,62448.7,16.01,0.47,0.71,0.52,1.3,4.2,-3.0,37.81,,,,,,,,,,
15.41.04.549,71.2,17.8,0,7.0,,59405.5,16.83,0.47,0.72,0.51,0.3,5.2,-3.0,37.81,,,,,,,,,,
15.41.04.561,58.2,14.6,0,7.0,,70007.5,14.28,0.46,0.71,0.52,0.6,5.7,-3.4,37.81,,,,,,,,,,
15.41.04.569,20.2,5.0,0,7.0,,56414.4,17.73,0.46,0.72,0.51,-0.9,7.4,-3.1,37.81,,,,,,,,,,
15.41.04.582,15.9,4.0,0,7.0,,57729.8,17.32,0.45,0.71,0.52,-0.1,8.3,-3.9,37.81,,,,,,,,,,
15.41.04.590,63.5,15.9,0,7.0,,59370.6,16.84,0.44,0.72,0.51,-1.3,8.3,-3.2,37.81,,,,,,,,,,
15.41.04.602,62.4,15.6,0,7.0,,55077.1,18.16,0.44,0.71,0.51,-0.5,6.4,-2.9,37.81,,,,,,,,,,
15.41.04.610,188.8,47.2,0,7.0,,64997.1,15.39,0.44,0.72,0.52,-0.7,5.4,-2.8,37.81,,,,,,,,,,
15.41.04.623,129.3,32.3,0,7.0,,57118.6,17.51,0.45,0.71,0.52,-0.8,4.9,-2.9,37.81,,,,,,,,,,
15.41.04.631,52.6,13.2,0,7.0,,57881.4,17.28,0.45,0.71,0.52,-0.7,4.8,-2.7,37.81,,,,,,,,,,
15.41.04.643,95.7,23.9,0,7.0,,60409.9,16.55,0.45,0.71,0.52,-0.5,4.4,-2.7,37.81,,,,,,,,,,
15.41.04.680,-36.8,9.2,0,7.0,,61480.9,16.27,0.45,0.71,0.51,-0.3,4.6,-2.8,37.81,,,,,,,,,,
15.41.04.689,19.2,4.8,0,7.0,,56964.6,17.55,0.46,0.72,0.52,0.2,5.2,-2.6,37.81,,,,,,,,,,
15.41.04.701,25.0,6.2,0,7.0,,57336.7,17.44,0.45,0.71,0.52,0.6,5.9,-2.9,37.81,,,,,,,,,,
15.41.04.709,-42.8,10.7,0,7.0,,60767.9,16.46,0.45,0.72,0.51,0.9,6.3,-2.3,37.81,,,,,,,,,,
15.41.04.721,3.9,1.0,0,7.0,,60552.0,16.51,0.45,0.71,0.51,0.1,6.0,-2.5,37.81,,,,,,,,,,
15.41.04.729,-34.3,8.6,0,7.0,,64350.6,15.54,0.46,0.72,0.52,-0.1,5.9,-2.5,37.81,,,,,,,,,,
15.41.04.741,-55.8,14.0,0,7.0,,61355.8,16.3,0.45,0.71,0.52,0.0,5.5,-2.6,37.81,,,,,,,,,,
15.41.04.750,-7.2,1.8,0,7.0,,61426.6,16.28,0.45,0.71,0.53,0.1,5.9,-2.5,37.81,,,,,,,,,,
15.41.04.762,-16.5,4.1,0,7.0,,61609.6,16.23,0.45,0.72,0.52,0.0,6.1,-2.2,37.81,,,,,,,,,,
15.41.04.774,-59.1,14.8,0,7.0,,60758.6,16.46,0.45,0.72,0.52,0.3,6.4,-2.4,37.81,,,,,,,,,,
15.41.04.782,-86.6,21.6,0,7.0,,57067.9,17.52,0.45,0.72,0.51,0.0,6.6,-2.0,37.81,,,,,,,,,,
15.41.04.795,-44.8,11.2,0,7.0,,60744.8,16.46,0.45,0.71,0.52,0.5,6.3,-2.0,37.81,,,,,,,,,,
15.41.04.803,-100.9,25.2,0,7.0,,59342.0,16.85,0.45,0.71,0.52,0.2,6.2,-1.8,37.81,,,,,,,,,,
15.41.04.815,-65.2,16.3,0,7.0,,56409.2,17.73,0.45,0.71,0.52,0.2,6.2,-1.4,37.81,,,,,,,,,,
15.41.04.823,-69.6,17.4,0,7.0,,60747.4,16.46,0.46,0.72,0.52,0.2,5.9,-2.0,37.81,,,,,,,,,,
15.41.04.836,-151.4,37.8,0,7.0,,57348.6,17.44,0.45,0.71,0.51,-0.3,6.5,-1.9,37.81,,,,,,,,,,
15.41.04.848,-104.9,26.2,0,7.0,,63098.2,15.85,0.44,0.71,0.52,-0.8,6.6,-1.9,37.81,,,,,,,,,,
15.41.04.856,-89.0,22.2,0,7.0,,59062.7,16.93,0.45,0.71,0.52,-0.7,6.3,-2.3,37.81,,,,,,,,,,
15.41.04.868,-128.7,32.2,0,7.0,,63537.6,15.74,0.44,0.71,0.52,-0.4,5.9,-2.2,37.81,,,,,,,,,,
15.41.04.881,-157.5,39.4,0,7.0,,58450.9,17.11,0.45,0.71,0.52,-0.4,5.5,-2.0,37.81,,,,,,,,,,
15.41.04.889,-160.4,40.1,0,7.0,,61360.4,16.3,0.45,0.71,0.52,-0.4,5.7,-2.0,37.81,,,,,,,,,,
15.41.04.901,-161.5,40.4,0,7.0,,60079.0,16.64,0.44,0.71,0.52,-0.1,6.4,-1.9,37.81,,,,,,,,,,
15.41.04.913,-161.3,40.3,0,7.0,,58095.8,17.21,0.45,0.72,0.52,-0.3,6.0,-2.1,37.81,,,,,,,,,,
15.41.04.922,-136.1,34.0,0,7.0,,59814.6,16.72,0.45,0.72,0.52,-0.4,5.6,-1.7,37.81,,,,,,,,,,
15.41.04.934,-213.5,53.4,0,7.0,,60579.7,16.51,0.45,0.71,0.53,-0.1,5.4,-1.9,37.81,,,,,,,,,,
15.41.04.946,-182.0,45.5,0,7.0,,61120.4,16.36,0.45,0.72,0.52,-0.2,5.6,-1.6,37.81,,,,,,,,,,
15.41.04.954,0.7,0.2,1,8.0,97.9,56272.3,17.77,0.44,0.7,0.5,-1.2,5.8,-1.7,37.81,,,,,,,,,,
15.41.04.967,85.3,21.3,0,8.0,,61945.6,16.14,0.46,0.74,0.53,1.4,4.9,-1.8,37.81,,,,,,,,,,
15.41.04.979,213.3,53.3,0,8.0,,60407.9,16.55,0.45,0.7,0.52,0.3,4.7,-2.2,37.81,,,,,,,,,,
15.41.04.987,261.7,65.4,0,8.0,,61084.3,16.37,0.44,0.7,0.51,1.6,5.6,-2.2,37.81,,,,,,,,,,
15.41.04.999,264.4,66.1,0,8.0,,58060.4,17.22,0.46,0.73,0.52,-0.4,5.3,-1.5,37.81,,,,,,,,,,
15.41.05.008,386.3,96.6,0,8.0,,56449.7,17.71,0.46,0.73,0.52,-1.0,5.3,-1.3,37.81,,,,,,,,,,
15.41.05.020,425.7,106.4,0,8.0,,57869.5,17.28,0.45,0.7,0.52,-0.1,5.8,-1.6,37.81,,,,,,,,,,
15.41.05.032,491.1,122.8,0,8.0,,62871.5,15.91,0.44,0.72,0.52,-0.5,6.2,-1.7,37.81,,,,,,,,,,
15.41.05.040,512.4,128.1,0,8.0,,53544.7,18.68,0.45,0.72,0.53,-1.1,5.7,-1.4,37.81,,,,,,,,,,
15.41.05.053,474.1,118.5,0,8.0,,59347.7,16.85,0.44,0.7,0.51,-0.6,5.4,-1.6,37.81,,,,,,,,,,
15.41.05.065,468.5,117.1,0,8.0,,63944.8,15.64,0.45,0.71,0.51,-0.3,5.1,-1.4,37.81,,,,,,,,,,
15.41.05.073,546.0,136.5,0,8.0,,59566.1,16.79,0.45,0.71,0.51,-1.0,4.6,-1.8,37.81,,,,,,,,,,
15.41.05.086,453.0,113.2,0,8.0,,60283.3,16.59,0.45,0.71,0.53,-0.4,4.1,-1.7,37.81,,,,,,,,,,
15.41.05.098,342.6,85.6,0,8.0,,56738.6,17.62,0.45,0.71,0.52,0.1,4.4,-2.1,37.81,,,,,,,,,,
15.41.05.110,374.1,93.5,0,8.0,,61838.4,16.17,0.45,0.71,0.52,0.4,4.2,-2.5,37.81,,,,,,,,,,
15.41.05.118,386.9,96.7,0,8.0,,61600.8,16.23,0.45,0.71,0.52,0.8,4.1,-2.5,37.81,,,,,,,,,,
15.41.05.131,230.3,57.6,0,8.0,,58828.0,17.0,0.45,0.72,0.52,1.1,4.7,-3.0,37.81,98.7,,,,,,,,,
15.41.05.139,179.1,44.8,0,8.0,,59126.5,16.91,0.44,0.72,0.51,-0.5,5.1,-2.6,37.81,,,,,,,,,,
15.41.05.151,66.2,16.6,0,8.0,,58258.7,17.16,0.44,0.71,0.52,-0.5,4.5,-1.8,37.81,,,,,,,,,,
15.41.05.163,-21.6,5.4,0,8.0,,64387.6,15.53,0.44,0.72,0.52,-0.1,4.0,-1.7,37.81,,,,,,,,,,
15.41.05.176,0.1,0.0,0,8.0,,65002.5,15.38,0.44,0.71,0.52,-0.4,3.7,-1.5,37.81,,,,,,,,,,
15.41.05.184,70.6,17.6,0,8.0,,62300.2,16.05,0.45,0.7,0.52,-0.7,3.5,-1.5,37.81,,,,,,,,,,
15.41.05.197,71.0,17.8,0,8.0,,62601.8,15.97,0.45,0.7,0.52,0.8,3.8,-1.8,37.81,,,,,,,,,,
15.41.05.208,72.5,18.1,0,8.0,,59984.6,16.67,0.46,0.71,0.51,0.8,3.6,-2.4,37.81,,,,,,,,,,
15.41.05.217,89.1,22.3,0,8.0,,60701.3,16.47,0.45,0.71,0.52,0.4,5.0,-2.7,37.81,,,,,,,,,,
15.41.05.229,126.6,31.6,0,8.0,,64147.5,15.59,0.45,0.71,0.52,0.6,6.1,-3.1,37.81,,,,,,,,,,
15.41.05.241,73.8,18.4,0,8.0,,55189.3,18.12,0.45,0.72,0.52,-0.4,5.4,-2.8,37.81,,,,,,,,,,
15.41.05.249,37.1,9.3,0,8.0,,58529.0,17.09,0.44,0.72,0.52,-0.7,5.2,-2.4,37.81,,,,,,,,,,
15.41.05.262,81.8,20.4,0,8.0,,58890.4,16.98,0.44,0.71,0.52,-0.6,5.1,-1.7,37.81,,,,,,,,,,
15.41.05.274,53.1,13.3,0,8.0,,59382.1,16.84,0.45,0.71,0.52,-0.1,4.8,-1.9,37.81,,,,,,,,,,
15.41.05.286,6.9,1.7,0,8.0,,62818.9,15.92,0.45,0.71,0.52,-0.2,3.2,-1.6,37.81,,,,,,,,,,
15.41.05.294,-4.7,1.2,0,8.0,,61589.3,16.24,0.45,0.71,0.53,0.7,2.8,-1.9,37.81,,,,,,,,,,
15.41.05.307,-38.2,9.6,0,8.0,,61691.2,16.21,0.45,0.7,0.52,1.7,3.7,-2.1,37.81,,,,,,,,,,
15.41.05.319,-18.0,4.5,0,8.0,,62584.9,15.98,0.45,0.71,0.52,1.2,3.9,-2.3,37.81,,,,,,,,,,
15.41.05.327,7.2,1.8,0,8.0,,61841.8,16.17,0.45,0.71,0.51,0.9,4.5,-2.4,37.81,,,,,,,,,,
15.41.05.339,-82.8,20.7,0,8.0,,57655.1,17.34,0.46,0.71,0.52,0.9,5.0,-2.2,37.81,,,,,,,,,,
15.41.05.352,-14.6,3.6,0,8.0,,61755.0,16.19,0.45,0.71,0.52,1.2,5.8,-2.2,37.81,,,,,,,,,,
15.41.05.360,-27.7,6.9,0,8.0,,55762.4,17.93,0.45,0.72,0.52,0.3,5.9,-1.8,37.81,,,,,,,,,,
15.41.05.372,-26.0,6.5,0,8.0,,61317.4,16.31,0.44,0.72,0.52,-0.1,5.7,-1.8,37.81,,,,,,,,,,
15.41.05.385,-29.0,7.2,0,8.0,,60856.1,16.43,0.45,0.71,0.52,-0.2,5.9,-1.4,37.81,,,,,,,,,,
15.41.05.397,-142.2,35.6,0,8.0,,58897.0,16.98,0.45,0.72,0.52,0.2,5.5,-1.6,37.81,,,,,,,,,,
15.41.05.405,-35.5,8.9,0,8.0,,60691.1,16.48,0.45,0.71,0.53,0.3,4.8,-1.5,37.81,,,,,,,,,,
15.41.05.417,-89.3,22.3,0,8.0,,55296.5,18.08,0.45,0.71,0.52,1.1,4.9,-1.6,37.81,,,,,,,,,,
15.41.05.430,-102.8,25.7,0,8.0,,63873.1,15.66,0.45,0.71,0.52,1.0,5.0,-1.8,37.81,,,,,,,,,,
15.41.05.438,-139.1,34.8,0,8.0,,60774.3,16.45,0.45,0.72,0.52,1.6,5.0,-1.5,37.81,,,,,,,,,,
15.41.05.450,-139.5,34.9,0,8.0,,63669.8,15.71,0.45,0.71,0.52,1.2,5.1,-1.5,37.81,,,,,,,,,,
15.41.05.491,-183.8,46.0,0,8.0,,54087.9,18.49,0.45,0.72,0.52,0.9,6.0,-1.3,37.81,,,,,,,,,,
15.41.05.503,-173.5,43.4,0,8.0,,57288.6,17.46,0.45,0.72,0.52,0.7,5.8,-0.9,37.81,,,,,,,,,,
15.41.05.512,-147.0,36.8,0,8.0,,61004.4,16.39,0.45,0.72,0.52,-0.2,6.3,-0.7,37.81,,,,,,,,,,
15.41.05.524,-151.4,37.8,0,8.0,,60769.8,16.46,0.45,0.72,0.52,-0.5,6.7,-0.3,37.81,,,,,,,,,,
15.41.05.536,-188.0,47.0,0,8.0,,54569.9,18.33,0.45,0.72,0.52,-0.8,6.5,-0.4,37.81,,,,,,,,,,
15.41.05.544,-171.7,42.9,0,8.0,,59420.0,16.83,0.45,0.72,0.53,-0.7,5.6,-0.1,37.81,,,,,,,,,,
15.41.05.557,-197.3,49.3,0,8.0,,58040.2,17.23,0.44,0.71,0.52,-0.3,5.3,-0.1,37.81,,,,,,,,,,
15.41.05.569,134.7,33.7,1,9.0,97.9,63177.5,15.83,0.46,0.71,0.52,0.4,5.5,-0.6,37.81,,,,,,,,,,
15.41.05.581,142.5,35.6,0,9.0,,64033.2,15.62,0.45,0.71,0.53,1.4,5.0,-1.2,37.81,,,,,,,,,,
15.41.05.589,205.4,51.4,0,9.0,,65628.6,15.24,0.44,0.7,0.52,0.5,4.4,-1.1,37.81,,,,,,,,,,
15.41.05.602,295.2,73.8,0,9.0,,59746.8,16.74,0.45,0.71,0.52,0.8,4.4,-2.0,37.81,,,,,,,,,,
15.41.05.614,271.0,67.8,0,9.0,,60062.3,16.65,0.44,0.71,0.51,1.0,4.5,-2.3,37.81,,,,,,,,,,
15.41.05.626,502.8,125.7,0,9.0,,56732.8,17.63,0.44,0.72,0.52,0.9,3.8,-3.1,37.81,,,,,,,,,,
15.41.05.634,418.1,104.5,0,9.0,,67097.1,14.9,0.45,0.71,0.52,0.9,2.8,-2.7,37.81,,,,,,,,,,
15.41.05.647,508.1,127.0,0,9.0,,64916.8,15.4,0.45,0.7,0.52,1.7,2.5,-2.5,37.81,,,,,,,,,,
15.41.05.659,477.7,119.4,0,9.0,,57362.6,17.43,0.45,0.71,0.53,3.3,2.9,-3.0,37.81,,,,,,,,,,
15.41.05.667,411.3,102.8,0,9.0,,62731.2,15.94,0.45,0.71,0.52,3.9,2.6,-3.7,37.81,,,,,,,,,,
15.41.05.680,526.5,131.6,0,9.0,,66732.9,14.99,0.45,0.7,0.52,4.3,2.0,-3.6,37.81,,,,,,,,,,
15.41.05.692,459.9,115.0,0,9.0,,57018.7,17.54,0.45,0.71,0.52,4.1,2.9,-4.0,37.81,,,,,,,,,,
15.41.05.704,368.9,92.2,0,9.0,,57363.3,17.43,0.45,0.71,0.52,4.2,3.2,-4.0,37.81,,,,,,,,,,
15.41.05.713,356.1,89.0,0,9.0,,60924.8,16.41,0.45,0.72,0.52,3.4,3.6,-3.7,37.81,,,,,,,,,,
15.41.05.725,337.6,84.4,0,9.0,,60233.2,16.6,0.45,0.72,0.51,2.9,3.0,-3.4,37.81,,,,,,,,,,
15.41.05.737,224.3,56.1,0,9.0,,61105.4,16.37,0.45,0.72,0.51,3.3,4.1,-2.9,37.81,,,,,,,,,,
15.41.05.745,154.6,38.6,0,9.0,,65785.0,15.2,0.46,0.73,0.51,2.1,4.3,-2.8,37.81,,,,,,,,,,
15.41.05.757,67.9,17.0,0,9.0,,60953.4,16.41,0.46,0.72,0.51,1.7,4.4,-2.5,37.81,,,,,,,,,,
15.41.05.770,14.7,3.7,0,9.0,,59420.4,16.83,0.45,0.72,0.51,1.9,4.3,-2.5,37.81,,,,,,,,,,
15.41.05.782,45.9,11.5,0,9.0,,60746.2,16.46,0.45,0.72,0.51,2.2,2.7,-2.6,37.81,,,,,,,,,,
15.41.05.790,28.3,7.1,0,9.0,,60581.5,16.51,0.45,0.71,0.51,2.6,2.6,-2.5,37.81,,,,,,,,,,
15.41.05.802,100.2,25.0,0,9.0,,60463.4,16.54,0.45,0.71,0.51,3.3,2.7,-3.2,37.81,,,,,,,,,,
15.41.05.815,100.1,25.0,0,9.0,,58900.0,16.98,0.45,0.71,0.51,4.3,2.8,-3.3,37.81,,,,,,,,,,
15.41.05.823,85.5,21.4,0,9.0,,59171.7,16.9,0.45,0.71,0.51,4.4,2.0,-3.2,37.81,,,,,,,,,,
15.41.05.835,137.8,34.4,0,9.0,,59261.0,16.87,0.46,0.72,0.52,3.9,2.7,-3.6,37.81,,,,,,,,,,
15.41.05.847,117.0,29.2,0,9.0,,59185.8,16.9,0.46,0.72,0.51,3.5,3.8,-3.7,37.81,,,,,,,,,,
15.41.05.856,42.5,10.6,0,9.0,,62738.5,15.94,0.46,0.72,0.5,2.6,4.4,-3.8,37.81,,,,,,,,,,
15.41.05.868,17.7,4.4,0,9.0,,58128.0,17.2,0.46,0.73,0.5,2.0,4.4,-4.1,37.81,,,,,,,,,,
15.41.05.880,16.9,4.2,0,9.0,,58429.2,17.11,0.45,0.73,0.5,2.0,5.8,-3.7,37.81,,,,,,,,,,
15.41.05.888,-26.1,6.5,0,9.0,,63003.1,15.87,0.45,0.73,0.51,1.6,5.7,-3.4,37.81,,,,,,,,,,
15.41.05.901,-17.5,4.4,0,9.0,,59982.0,16.67,0.44,0.73,0.51,1.4,5.5,-3.2,37.81,,,,,,,,,,
15.41.05.913,-47.0,11.8,0,9.0,,58398.9,17.12,0.44,0.73,0.51,0.8,5.0,-2.2,37.81,,,,,,,,,,
15.41.05.921,23.1,5.8,0,9.0,,62260.6,16.06,0.45,0.73,0.51,0.7,4.4,-1.8,37.81,,,,,,,,,,
15.41.05.933,-77.2,19.3,0,9.0,,70029.1,14.28,0.45,0.73,0.51,0.9,4.7,-1.9,37.81,,,,,,,,,,
15.41.05.946,-35.2,8.8,0,9.0,,62349.6,16.04,0.45,0.72,0.5,0.9,4.5,-1.3,37.81,,,,,,,,,,
15.41.05.954,-86.2,21.6,0,9.0,,59790.9,16.72,0.45,0.72,0.5,1.5,4.1,-1.6,37.81,,,,,,,,,,
15.41.05.966,-69.9,17.5,0,9.0,,63044.2,15.86,0.46,0.72,0.5,2.2,4.1,-1.6,37.81,,,,,,,,,,
15.41.05.979,-62.2,15.6,0,9.0,,65184.9,15.34,0.45,0.72,0.51,2.8,4.4,-2.2,37.81,,,,,,,,,,
15.41.05.991,-125.5,31.4,0,9.0,,56327.8,17.75,0.45,0.72,0.5,2.7,4.8,-2.2,37.81,,,,,,,,,,
15.41.05.999,-38.7,9.7,0,9.0,,62321.3,16.05,0.45,0.72,0.5,2.3,5.0,-2.2,37.81,,,,,,,,,,
15.41.06.011,-72.9,18.2,0,9.0,,61724.7,16.2,0.45,0.73,0.5,2.1,4.8,-1.8,37.81,,,,,,,,,,
15.41.06.020,-107.0,26.8,0,9.0,,63276.5,15.8,0.44,0.72,0.5,1.6,5.1,-1.9,37.81,,,,,,,,,,
15.41.06.032,-152.2,38.0,0,9.0,,56265.4,17.77,0.45,0.73,0.5,1.2,4.7,-1.2,37.81,,,,,,,,,,
15.41.06.040,-91.7,22.9,0,9.0,,58566.5,17.07,0.45,0.72,0.5,1.7,4.4,-1.2,37.81,,,,,,,,,,
15.41.06.052,-134.7,33.7,0,9.0,,60506.3,16.53,0.45,0.72,0.5,1.5,4.5,-0.7,37.81,,,,,,,,,,
15.41.06.061,-147.2,36.8,0,9.0,,62166.4,16.09,0.45,0.73,0.5,1.9,4.7,-0.7,37.81,,,,,,,,,,
15.41.06.073,-164.1,41.0,0,9.0,,57714.6,17.33,0.45,0.74,0.51,1.7,5.1,-0.7,37.81,,,,,,,,,,
15.41.06.081,-186.1,46.5,0,9.0,,62440.4,16.02,0.46,0.73,0.5,1.7,5.4,-0.7,37.81,,,,,,,,,,
15.41.06.089,-161.8,40.4,0,9.0,,59802.2,16.72,0.45,0.72,0.51,1.8,5.3,-0.2,37.81,,,,,,,,,,
15.41.06.102,-123.8,31.0,0,9.0,,57433.7,17.41,0.45,0.73,0.5,2.1,6.5,0.0,37.81,,,,,,,,,,
15.41.06.110,-146.5,36.6,0,9.0,,65250.2,15.33,0.46,0.73,0.5,1.9,6.4,-0.2,37.81,,,,,,,,,,
15.41.06.122,-199.0,49.8,0,9.0,,61333.1,16.3,0.46,0.73,0.49,1.5,6.9,0.1,37.81,,,,,,,,,,
15.41.06.134,-167.1,41.8,0,9.0,,62294.5,16.05,0.45,0.72,0.5,2.2,6.4,0.6,37.81,,,,,,,,,,
15.41.06.142,-199.2,49.8,0,9.0,,64520.8,15.5,0.45,0.75,0.5,1.6,8.3,-0.1,37.81,,,,,,,,,,
15.41.06.155,-188.0,47.0,0,9.0,,60616.1,16.5,0.44,0.72,0.49,2.1,7.1,0.2,37.81,,,,,,,,,,
15.41.06.163,-18.4,4.6,1,10.0,97.5,60401.5,16.56,0.44,0.73,0.49,1.8,6.3,0.8,37.81,,,,,,,,,,
15.41.06.175,143.6,35.9,0,10.0,,62284.4,16.06,0.44,0.72,0.5,1.3,5.0,0.8,37.81,,,,,,,,,,
15.41.06.187,222.0,55.5,0,10.0,,60503.9,16.53,0.45,0.72,0.51,2.2,5.0,0.5,37.81,,,,,,,,,,
15.41.06.196,234.9,58.7,0,10.0,,60708.1,16.47,0.45,0.72,0.5,2.0,4.7,-0.2,37.81,,,,,,,,,,
15.41.06.208,270.3,67.6,0,10.0,,62978.7,15.88,0.46,0.72,0.5,3.3,5.1,-0.4,37.81,,,,,,,,,,
15.41.06.220,298.0,74.5,0,10.0,,61218.0,16.34,0.45,0.72,0.51,4.0,5.8,-0.9,37.81,,,,,,,,,,
15.41.06.229,382.9,95.7,0,10.0,,59021.6,16.94,0.46,0.72,0.5,3.8,6.0,-1.1,37.81,,,,,,,,,,
15.41.06.241,521.6,130.4,0,10.0,,57164.7,17.49,0.46,0.72,0.5,4.5,5.5,-0.9,37.81,,,,,,,,,,
15.41.06.253,555.7,138.9,0,10.0,,56657.7,17.65,0.46,0.73,0.5,4.0,5.5,-1.4,37.81,,,,,,,,,,
15.41.06.290,458.7,114.7,0,10.0,,60375.1,16.56,0.46,0.73,0.5,1.9,5.7,-0.5,37.81,,,,,,,,,,
15.41.06.302,399.0,99.8,0,10.0,,59353.4,16.85,0.46,0.73,0.5,1.8,5.8,-0.8,37.81,,,,,,,,,,
15.41.06.314,328.8,82.2,0,10.0,,55318.2,18.08,0.46,0.72,0.5,2.2,5.6,-0.9,37.81,,,,,,,,,,
15.41.06.323,401.0,100.2,0,10.0,,60168.2,16.62,0.46,0.73,0.5,2.9,4.8,-0.6,37.81,,,,,,,,,,
15.41.06.335,305.9,76.5,0,10.0,,64477.6,15.51,0.46,0.73,0.5,3.4,5.4,-1.8,37.81,,,,,,,,,,
15.41.06.347,193.0,48.2,0,10.0,,59397.0,16.84,0.45,0.72,0.5,3.4,6.1,-1.8,37.81,,,,,,,,,,
15.41.06.355,131.2,32.8,0,10.0,,60110.9,16.64,0.46,0.73,0.5,3.9,5.3,-1.5,37.81,,,,,,,,,,
15.41.06.368,83.7,20.9,0,10.0,,59701.2,16.75,0.46,0.73,0.5,4.0,4.4,-1.5,37.81,,,,,,,,,,
15.41.06.381,-24.8,6.2,0,10.0,,66027.4,15.15,0.45,0.73,0.5,4.3,4.5,-1.2,37.81,,,,,,,,,,
15.41.06.389,29.6,7.4,0,10.0,,61020.0,16.39,0.45,0.72,0.5,3.7,4.5,-0.8,37.81,,,,,,,,,,
15.41.06.401,23.6,5.9,0,10.0,,58976.3,16.96,0.46,0.73,0.49,3.1,4.5,-0.6,37.81,,,,,,,,,,
15.41.06.413,42.4,10.6,0,10.0,,61381.4,16.29,0.45,0.73,0.49,1.5,5.5,-0.8,37.81,,,,,,,,,,
15.41.06.421,51.9,13.0,0,10.0,,59823.8,16.72,0.46,0.73,0.49,0.6,5.6,-0.5,37.81,,,,,,,,,,
15.41.06.433,56.5,14.1,0,10.0,,54289.8,18.42,0.46,0.72,0.49,1.5,4.9,-0.7,37.81,,,,,,,,,,
15.41.06.446,64.0,16.0,0,10.0,,59160.0,16.9,0.46,0.73,0.5,1.7,4.8,-1.2,37.81,,,,,,,,,,
15.41.06.454,94.0,23.5,0,10.0,,59746.4,16.74,0.46,0.73,0.5,2.2,4.2,-2.0,37.81,,,,,,,,,,
15.41.06.466,54.5,13.6,0,10.0,,56857.3,17.59,0.45,0.73,0.5,2.9,4.7,-1.9,37.81,,,,,,,,,,
15.41.06.474,-14.8,3.7,0,10.0,,59556.0,16.79,0.45,0.73,0.49,2.8,4.7,-1.3,37.81,,,,,,,,,,
15.41.06.487,-38.7,9.7,0,10.0,,58251.8,17.17,0.46,0.73,0.49,1.9,5.4,-0.8,37.81,,,,,,,,,,
15.41.06.499,-13.6,3.4,0,10.0,,57438.8,17.41,0.46,0.73,0.48,1.4,6.1,-0.8,37.81,,,,,,,,,,
15.41.06.507,-24.7,6.2,0,10.0,,59871.2,16.7,0.45,0.72,0.49,0.7,5.7,-0.7,37.81,,,,,,,,,,
15.41.06.519,-49.6,12.4,0,10.0,,61219.9,16.33,0.45,0.73,0.49,1.3,6.1,-0.6,37.81,,,,,,,,,,
15.41.06.532,-29.0,7.2,0,10.0,,63493.7,15.75,0.45,0.73,0.49,1.7,6.3,-0.7,37.81,,,,,,,,,,
15.41.06.540,-16.1,4.0,0,10.0,,59459.6,16.82,0.45,0.72,0.49,2.4,5.8,-0.6,37.81,,,,,,,,,,
15.41.06.553,-44.0,11.0,0,10.0,,63538.3,15.74,0.45,0.73,0.48,2.3,5.4,-0.3,37.81,,,,,,,,,,
15.41.06.565,9.0,2.2,0,10.0,,58991.7,16.95,0.46,0.73,0.49,1.8,5.6,-0.5,37.81,,,,,,,,,,
15.41.06.573,-102.2,25.6,0,10.0,,51599.5,19.38,0.45,0.8,0.48,-4.5,12.4,-0.4,37.81,,,,,,,,,,
15.41.06.585,-46.2,11.6,0,10.0,,64444.4,15.52,0.45,0.72,0.51,2.9,5.7,-0.5,37.81,,,,,,,,,,
15.41.06.597,-63.9,16.0,0,10.0,,63990.7,15.63,0.46,0.73,0.49,1.3,5.8,-0.3,37.81,,,,,,,,,,
15.41.06.610,-49.9,12.5,0,10.0,,56584.2,17.67,0.46,0.72,0.49,0.9,7.0,-0.4,37.81,,,,,,,,,,
15.41.06.618,-99.8,25.0,0,10.0,,62712.6,15.95,0.46,0.73,0.5,1.4,7.0,-0.9,37.81,,,,,,,,,,
15.41.06.630,-38.1,9.5,0,10.0,,61840.0,16.17,0.46,0.73,0.49,2.1,6.5,-1.0,37.81,,,,,,,,,,
15.41.06.642,-118.1,29.5,0,10.0,,59499.2,16.81,0.46,0.73,0.48,1.6,6.3,-0.9,37.81,,,,,,,,,,
15.41.06.650,-91.9,23.0,0,10.0,,63024.8,15.87,0.46,0.73,0.49,1.0,6.5,-0.9,37.81,,,,,,,,,,
15.41.06.663,-125.1,31.3,0,10.0,,59707.6,16.75,0.46,0.73,0.49,0.8,6.3,-0.6,37.81,,,,,,,,,,
15.41.06.675,-73.6,18.4,0,10.0,,62015.7,16.12,0.45,0.73,0.49,0.1,6.3,-0.4,37.81,,,,,,,,,,
15.41.06.683,-101.9,25.5,0,10.0,,60762.9,16.46,0.46,0.73,0.49,0.2,5.9,-1.1,37.81,,,,,,,,,,
15.41.06.695,-87.2,21.8,0,10.0,,62635.2,15.97,0.46,0.72,0.49,0.8,5.3,-1.6,37.81,,,,,,,,,,
15.41.06.708,-182.4,45.6,0,10.0,,58077.1,17.22,0.46,0.72,0.5,1.4,5.3,-1.8,37.81,,,,,,,,,,
15.41.06.716,-130.7,32.7,0,10.0,,63427.8,15.77,0.46,0.73,0.49,1.7,5.4,-2.2,37.81,,,,,,,,,,
15.41.06.728,-178.1,44.5,0,10.0,,62313.5,16.05,0.46,0.73,0.49,1.1,5.9,-2.2,37.81,,,,,,,,,,
15.41.06.741,-160.2,40.0,0,10.0,,64136.2,15.59,0.45,0.74,0.48,1.1,5.7,-1.9,37.81,,,,,,,,,,
15.41.06.749,-154.9,38.7,0,10.0,,59932.5,16.69,0.46,0.74,0.49,0.5,6.3,-1.8,37.81,,,,,,,,,,
15.41.06.761,-220.9,55.2,0,10.0,,63917.3,15.65,0.46,0.73,0.49,-0.4,7.3,-1.7,37.81,,,,,,,,,,
15.41.06.773,32.9,8.2,1,11.0,104.8,59765.7,16.73,0.45,0.72,0.49,-0.6,7.4,-1.9,37.81,,,,,,,,,,
15.41.06.786,143.3,35.8,0,11.0,,58832.2,17.0,0.45,0.73,0.49,-0.6,6.2,-1.6,37.81,,,,,,,,,,
15.41.06.794,163.2,40.8,0,11.0,,57769.5,17.31,0.45,0.73,0.49,-0.2,6.0,-1.9,37.81,,,,,,,,,,
15.41.06.806,224.0,56.0,0,11.0,,61537.1,16.25,0.46,0.72,0.48,0.2,5.7,-2.1,37.81,,,,,,,,,,
15.41.06.818,369.8,92.4,0,11.0,,62331.6,16.04,0.46,0.73,0.49,1.1,5.3,-2.3,37.81,,,,,,,,,,
15.41.06.827,396.9,99.2,0,11.0,,52285.0,19.13,0.46,0.73,0.49,0.7,5.5,-2.4,37.81,,,,,,,,,,
15.41.06.839,357.9,89.5,0,11.0,,65474.9,15.27,0.46,0.73,0.49,0.6,6.0,-2.5,37.81,,,,,,,,,,
15.41.06.851,422.8,105.7,0,11.0,,61342.5,16.3,0.46,0.74,0.49,-0.1,6.2,-2.7,37.81,,,,,,,,,,
15.41.06.859,400.6,100.2,0,11.0,,62488.1,16.0,0.45,0.74,0.49,-0.9,6.3,-2.5,37.81,,,,,,,,,,
15.41.06.872,490.6,122.6,0,11.0,,57665.5,17.34,0.44,0.73,0.49,-0.5,6.0,-2.6,37.81,,,,,,,,,,
15.41.06.884,563.6,140.9,0,11.0,,60729.4,16.47,0.45,0.72,0.5,0.1,5.5,-2.5,37.81,,,,,,,,,,
15.41.06.893,443.1,110.8,0,11.0,,61589.8,16.24,0.45,0.73,0.49,0.7,4.6,-2.7,37.81,,,,,,,,,,
15.41.06.905,424.1,106.0,0,11.0,,57564.1,17.37,0.45,0.73,0.5,1.0,4.0,-2.9,37.81,,,,,,,,,,
15.41.06.917,421.1,105.3,0,11.0,,67418.3,14.83,0.46,0.73,0.49,1.5,4.3,-2.9,37.81,,,,,,,,,,
15.41.06.925,347.1,86.8,0,11.0,,58145.6,17.2,0.46,0.73,0.49,1.1,4.4,-2.7,37.81,,,,,,,,,,
15.41.06.937,276.1,69.0,0,11.0,,60614.1,16.5,0.46,0.73,0.49,0.9,4.8,-2.6,37.81,,,,,,,,,,
15.41.06.952,173.3,43.3,0,11.0,,62902.3,15.9,0.46,0.73,0.49,0.8,5.5,-2.4,37.81,,,,,,,,,,
15.41.06.958,143.1,35.8,0,11.0,,59783.7,16.73,0.45,0.73,0.48,0.8,5.2,-2.5,37.81,,,,,,,,,,
15.41.06.970,72.6,18.2,0,11.0,,57538.0,17.38,0.46,0.73,0.49,0.2,4.4,-2.3,37.81,,,,,,,,,,
15.41.06.982,1.7,0.4,0,11.0,,59228.5,16.88,0.46,0.74,0.49,0.5,5.0,-2.3,37.81,,,,,,,,,,
15.41.06.990,44.9,11.2,0,11.0,,58752.1,17.02,0.46,0.73,0.49,0.2,5.9,-2.4,37.81,,,,,,,,,,
15.41.07.003,15.2,3.8,0,11.0,,58786.0,17.01,0.45,0.73,0.49,0.9,6.0,-2.5,37.81,,,,,,,,,,
15.41.07.015,55.9,14.0,0,11.0,,60558.3,16.51,0.46,0.73,0.49,0.4,6.2,-2.3,37.81,,,,,,,,,,
15.41.07.023,101.0,25.2,0,11.0,,62172.8,16.08,0.45,0.73,0.49,0.4,7.1,-1.8,37.81,,,,,,,,,,
15.41.07.036,67.5,16.9,0,11.0,,61697.5,16.21,0.45,0.73,0.5,-0.2,7.3,-2.1,37.81,,,,,,,,,,
15.41.07.048,72.0,18.0,0,11.0,,58100.4,17.21,0.45,0.73,0.49,-0.3,6.7,-1.7,37.81,,,,,,,,,,
15.41.07.056,89.0,22.2,0,11.0,,61348.2,16.3,0.45,0.73,0.48,-1.3,6.6,-1.0,37.81,,,,,,,,,,
15.41.07.097,-81.9,20.5,0,11.0,,58083.6,17.22,0.46,0.74,0.49,-2.5,9.2,0.1,37.81,,,,,,,,,,
15.41.07.109,-50.2,12.6,0,11.0,,63946.3,15.64,0.46,0.73,0.5,-2.7,9.4,0.4,37.81,,,,,,,,,,
15.41.07.118,-71.9,18.0,0,11.0,,62262.7,16.06,0.46,0.74,0.49,-3.7,10.5,1.1,37.81,,,,,,,,,,
15.41.07.130,-10.4,2.6,0,11.0,,62033.3,16.12,0.46,0.73,0.5,-4.8,10.9,1.4,37.81,,,,,,,,,,
15.41.07.142,-3.6,0.9,0,11.0,,57588.3,17.36,0.45,0.73,0.5,-5.2,11.6,1.6,37.81,,,,,,,,,,
15.41.07.150,9.2,2.3,0,11.0,,63135.8,15.84,0.44,0.73,0.5,-5.8,11.4,1.5,37.81,,,,,,,,,,
15.41.07.163,-30.4,7.6,0,11.0,,63410.5,15.77,0.43,0.74,0.49,-7.3,10.7,1.8,37.81,,,,,,,,,,
15.41.07.175,-73.3,18.3,0,11.0,,58867.9,16.99,0.43,0.74,0.5,-5.5,11.9,1.9,37.81,,,,,,,,,,
15.41.07.183,-126.0,31.5,0,11.0,,58377.6,17.13,0.43,0.73,0.5,-5.3,10.7,1.9,37.81,,,,,,,,,,
15.41.07.195,-55.4,13.8,0,11.0,,60698.9,16.47,0.43,0.75,0.5,-5.8,9.2,2.7,37.81,,,,,,,,,,
15.41.07.208,-103.0,25.8,0,11.0,,59160.0,16.9,0.44,0.74,0.49,-7.0,10.0,2.4,37.81,,,,,,,,,,
15.41.07.216,-63.4,15.8,0,11.0,,61020.6,16.39,0.44,0.73,0.5,-8.0,10.1,3.0,37.81,,,,,,,,,,
15.41.07.228,-119.4,29.8,0,11.0,,59191.3,16.89,0.46,0.72,0.5,-8.8,11.7,2.8,37.81,,,,,,,,,,
15.41.07.240,-166.8,41.7,0,11.0,,60566.4,16.51,0.45,0.71,0.51,-9.5,11.5,3.3,37.81,,,,,,,,,,
15.41.07.249,-141.8,35.4,0,11.0,,56434.6,17.72,0.45,0.7,0.51,-6.9,11.0,3.0,37.81,,,,,,,,,,
15.41.07.261,-110.3,27.6,0,11.0,,59999.9,16.67,0.46,0.71,0.52,-6.0,11.3,1.3,37.81,,,,,,,,,,
15.41.07.273,-76.6,19.2,0,11.0,,58885.6,16.98,0.45,0.69,0.51,-5.6,11.2,1.6,37.81,,,,,,,,,,
15.41.07.281,-154.9,38.7,0,11.0,,59603.1,16.78,0.44,0.71,0.52,-4.4,11.0,0.1,37.81,,,,,,,,,,
15.41.07.294,-160.8,40.2,0,11.0,,61785.2,16.19,0.43,0.72,0.51,-3.9,11.3,-0.9,37.81,,,,,,,,,,
15.41.07.306,-203.5,50.9,0,11.0,,58394.6,17.12,0.43,0.72,0.51,-4.7,9.7,-0.4,37.81,,,,,,,,,,
15.41.07.314,-85.7,21.4,0,11.0,,67210.8,14.88,0.43,0.7,0.51,-5.0,8.5,0.1,37.81,,,,,,,,,,
15.41.07.326,-233.0,58.2,0,11.0,,65591.4,15.25,0.43,0.71,0.51,-3.8,7.1,-0.4,37.81,,,,,,,,,,
15.41.07.335,-132.6,33.2,0,11.0,,65210.7,15.33,0.44,0.71,0.51,-3.8,7.6,-1.2,37.81,,,,,,,,,,
15.41.07.347,-133.8,33.4,0,11.0,,56153.2,17.81,0.44,0.69,0.52,-4.3,6.6,-0.5,37.81,,,,,,,,,,
15.41.07.359,-231.1,57.8,0,11.0,,61243.7,16.33,0.45,0.7,0.52,-2.6,7.5,-0.9,37.81,,,,,,,,,,
15.41.07.367,-173.9,43.5,0,11.0,,55372.3,18.06,0.46,0.71,0.52,-2.4,7.6,-2.2,37.81,,,,,,,,,,
15.41.07.380,30.3,7.6,1,12.0,104.5,56319.4,17.76,0.45,0.71,0.53,-2.6,8.0,-1.6,37.81,,,,,,,,,,
15.41.07.392,166.3,41.6,0,12.0,,55994.2,17.86,0.46,0.71,0.53,-2.7,9.3,-2.0,37.81,,,,,,,,,,
15.41.07.401,230.3,57.6,0,12.0,,62303.8,16.05,0.46,0.71,0.53,-1.2,9.1,-2.9,37.81,,,,,,,,,,
15.41.07.413,262.9,65.7,0,12.0,,57845.3,17.29,0.45,0.7,0.53,-1.7,10.0,-2.8,37.81,,,,,,,,,,
15.41.07.425,398.3,99.6,0,12.0,,56958.7,17.56,0.44,0.71,0.53,-1.4,10.9,-3.2,37.81,,,,,,,,,,
15.41.07.433,349.7,87.4,0,12.0,,58519.6,17.09,0.44,0.71,0.53,-1.7,9.3,-3.2,37.81,,,,,,,,,,
15.41.07.445,445.5,111.4,0,12.0,,61918.9,16.15,0.43,0.7,0.53,-0.3,8.2,-3.5,37.81,,,,,,,,,,
15.41.07.458,455.7,113.9,0,12.0,,59524.7,16.8,0.44,0.71,0.53,0.5,6.3,-3.8,37.81,,,,,,,,,,
15.41.07.466,413.4,103.4,0,12.0,,64057.6,15.61,0.45,0.7,0.54,1.0,5.1,-4.0,37.81,,,,,,,,,,
15.41.07.478,454.1,113.5,0,12.0,,62542.0,15.99,0.45,0.71,0.53,0.8,3.9,-4.1,37.81,,,,,,,,,,
15.41.07.490,525.5,131.4,0,12.0,,61802.4,16.18,0.46,0.7,0.53,1.3,4.2,-3.9,37.81,,,,,,,,,,
15.41.07.498,456.7,114.2,0,12.0,,65602.2,15.24,0.46,0.7,0.53,1.2,4.5,-4.2,37.81,,,,,,,,,,
15.41.07.511,403.9,101.0,0,12.0,,62488.7,16.0,0.46,0.7,0.54,1.0,3.4,-4.4,37.81,,,,,,,,,,
15.41.07.523,351.3,87.8,0,12.0,,57010.1,17.54,0.46,0.7,0.54,1.3,3.7,-4.7,37.81,,,,,,,,,,
15.41.07.531,339.6,84.9,0,12.0,,59913.9,16.69,0.45,0.71,0.53,1.3,3.9,-4.8,37.81,,,,,,,,,,
15.41.07.543,310.9,77.7,0,12.0,,64069.6,15.61,0.45,0.72,0.53,0.3,3.0,-4.6,37.81,,,,,,,,,,
15.41.07.556,255.8,64.0,0,12.0,,65477.3,15.27,0.45,0.72,0.52,0.6,3.9,-4.2,37.81,,,,,,,,,,
15.41.07.564,89.3,22.3,0,12.0,,57559.6,17.37,0.45,0.72,0.52,-0.4,4.2,-3.3,37.81,,,,,,,,,,
15.41.07.577,30.9,7.7,0,12.0,,60736.0,16.46,0.45,0.72,0.53,-0.5,5.2,-2.8,37.81,,,,,,,,,,
15.41.07.589,54.2,13.6,0,12.0,,67715.0,14.77,0.44,0.72,0.52,-0.8,5.7,-2.3,37.81,,,,,,,,,,
15.41.07.597,26.2,6.6,0,12.0,,54009.5,18.52,0.44,0.7,0.53,-0.3,6.2,-1.9,37.81,,,,,,,,,,
15.41.07.609,83.4,20.8,0,12.0,,57144.0,17.5,0.43,0.71,0.54,0.6,4.9,-2.1,37.81,,,,,,,,,,
15.41.07.621,93.6,23.4,0,12.0,,54583.9,18.32,0.43,0.7,0.53,2.1,3.6,-2.1,37.81,,,,,,,,,,
15.41.07.634,51.2,12.8,0,12.0,,63093.7,15.85,0.44,0.71,0.53,3.2,3.5,-2.3,37.81,,,,,,,,,,
15.41.07.642,129.3,32.3,0,12.0,,56369.8,17.74,0.44,0.71,0.53,3.3,2.9,-2.3,37.81,,,,,,,,,,
15.41.07.654,88.4,22.1,0,12.0,,60045.7,16.65,0.44,0.71,0.52,3.1,3.8,-2.6,37.81,,,,,,,,,,
15.41.07.666,60.0,15.0,0,12.0,,65681.9,15.22,0.45,0.72,0.53,2.4,3.5,-2.5,37.81,,,,,,,,,,
15.41.07.675,74.4,18.6,0,12.0,,59430.7,16.83,0.45,0.71,0.53,1.3,4.3,-2.1,37.81,,,,,,,,,,
15.41.07.687,46.2,11.6,0,12.0,,58613.9,17.06,0.45,0.71,0.53,1.4,4.8,-2.4,37.81,,,,,,,,,,
15.41.07.699,-38.2,9.6,0,12.0,,62226.0,16.07,0.45,0.72,0.53,1.6,4.8,-2.2,37.81,,,,,,,,,,
15.41.07.707,10.8,2.7,0,12.0,,60733.5,16.47,0.45,0.73,0.52,1.7,4.9,-2.1,37.81,,,,,,,,,,
15.41.07.720,0.8,0.2,0,12.0,,63603.1,15.72,0.46,0.72,0.52,2.5,5.4,-1.8,37.81,,,,,,,,,,
15.41.07.732,-38.0,9.5,0,12.0,,67999.6,14.71,0.45,0.72,0.52,2.1,7.1,-1.4,37.81,,,,,,,,,,
15.41.07.740,-36.8,9.2,0,12.0,,60081.6,16.64,0.45,0.72,0.52,1.5,7.9,-0.7,37.81,,,,,,,,,,
15.41.07.753,16.3,4.1,0,12.0,,58341.2,17.14,0.45,0.72,0.53,1.0,7.7,0.0,37.81,,,,,,,,,,
15.41.07.765,-74.7,18.7,0,12.0,,68805.4,14.53,0.44,0.72,0.52,1.3,8.3,-0.1,37.81,,,,,,,,,,
15.41.07.773,3.3,0.8,0,12.0,,64066.1,15.61,0.44,0.72,0.53,1.2,9.0,0.9,37.81,,,,,,,,,,
15.41.07.785,-63.8,16.0,0,12.0,,65531.8,15.26,0.43,0.73,0.52,1.4,9.2,1.2,37.81,,,,,,,,,,
15.41.07.798,-73.1,18.3,0,12.0,,61750.5,16.19,0.44,0.72,0.52,0.6,9.0,0.7,37.81,,,,,,,,,,
15.41.07.806,-79.5,19.9,0,12.0,,55218.3,18.11,0.44,0.71,0.52,0.8,8.5,1.3,37.81,,,,,,,,,,
15.41.07.818,-154.1,38.5,0,12.0,,58585.7,17.07,0.44,0.7,0.53,0.7,8.5,1.4,37.81,,,,,,,,,,
15.41.07.830,-134.3,33.6,0,12.0,,58994.4,16.95,0.44,0.7,0.54,1.6,8.5,0.6,37.81,,,,,,,,,,
15.41.07.839,-117.7,29.4,0,12.0,,65218.4,15.33,0.44,0.71,0.52,2.5,7.4,-0.4,37.81,,,,,,,,,,
15.41.07.851,-97.6,24.4,0,12.0,,59980.2,16.67,0.44,0.72,0.52,2.2,6.0,-1.4,37.81,,,,,,,,,,
15.41.07.863,-150.5,37.6,0,12.0,,61216.4,16.34,0.44,0.72,0.52,2.1,5.5,-1.3,37.81,,,,,,,,,,
15.41.07.900,-167.4,41.8,0,12.0,,57279.6,17.46,0.45,0.71,0.53,-1.1,6.7,-0.2,37.81,,,,,,,,,,
15.41.07.912,-173.5,43.4,0,12.0,,63520.1,15.74,0.45,0.7,0.53,-0.6,6.9,-0.8,37.81,,,,,,,,,,
15.41.07.925,-135.9,34.0,0,12.0,,64495.6,15.5,0.44,0.71,0.53,1.0,6.4,-1.3,37.81,,,,,,,,,,
15.41.07.933,-161.4,40.4,0,12.0,,60795.2,16.45,0.44,0.71,0.53,2.2,6.0,-1.8,37.81,,,,,,,,,,
15.41.07.945,-167.5,41.9,0,12.0,,60759.9,16.46,0.44,0.71,0.53,2.5,5.4,-1.8,37.81,,,,,,,,,,
15.41.07.957,-179.0,44.8,0,12.0,,61875.8,16.16,0.44,0.72,0.52,3.5,4.6,-1.8,37.81,,,,,,,,,,
15.41.07.966,-170.9,42.7,0,12.0,,60858.1,16.43,0.43,0.72,0.52,2.6,4.0,-1.6,37.81,,,,,,,,,,
15.41.07.978,-1.8,0.4,1,13.0,99.4,63282.1,15.8,0.44,0.72,0.52,1.6,3.7,-1.3,37.81,,,,,,,,,,
15.41.07.990,70.9,17.7,0,13.0,,61705.8,16.21,0.44,0.72,0.52,1.3,3.6,-0.7,37.81,,,,,,,,,,
15.41.07.998,219.8,55.0,0,13.0,,61335.9,16.3,0.44,0.71,0.52,1.3,4.0,-0.9,37.81,,,,,,,,,,
15.41.08.011,192.4,48.1,0,13.0,,60045.4,16.65,0.44,0.71,0.53,1.3,4.1,-1.6,37.81,,,,,,,,,,
15.41.08.023,316.1,79.0,0,13.0,,61231.3,16.33,0.44,0.71,0.52,2.0,3.6,-2.0,37.81,,,,,,,,,,
15.41.08.031,327.9,82.0,0,13.0,,59804.2,16.72,0.44,0.71,0.52,2.5,3.5,-2.2,37.81,,,,,,,,,,
15.41.08.043,428.4,107.1,0,13.0,,61541.9,16.25,0.45,0.71,0.52,2.6,3.2,-2.3,37.81,,,,,,,,,,
15.41.08.056,421.8,105.4,0,13.0,,59207.3,16.89,0.44,0.72,0.52,2.5,3.6,-2.4,37.81,,,,,,,,,,
15.41.08.064,480.5,120.1,0,13.0,,59194.8,16.89,0.44,0.72,0.51,1.6,4.0,-2.1,37.81,,,,,,,,,,
15.41.08.076,500.5,125.1,0,13.0,,61467.5,16.27,0.44,0.73,0.51,1.4,4.7,-2.1,37.81,,,,,,,,,,
15.41.08.088,460.2,115.0,0,13.0,,62901.3,15.9,0.45,0.72,0.51,0.6,4.4,-1.3,37.81,,,,,,,,,,
15.41.08.097,505.0,126.2,0,13.0,,53557.6,18.67,0.45,0.72,0.52,0.4,4.5,-1.2,37.81,,,,,,,,,,
15.41.08.109,412.7,103.2,0,13.0,,59288.7,16.87,0.44,0.71,0.52,0.5,4.5,-1.4,37.81,,,,,,,,,,
15.41.08.121,318.8,79.7,0,13.0,,59298.1,16.86,0.45,0.72,0.52,-0.2,5.7,-1.0,37.81,,,,,,,,,,
15.41.08.129,427.2,106.8,0,13.0,,61455.4,16.27,0.44,0.71,0.52,-0.3,6.2,-1.2,37.81,,,,,,,,,,
15.41.08.142,222.4,55.6,0,13.0,,61990.4,16.13,0.44,0.71,0.52,-0.1,6.0,-1.3,37.81,,,,,,,,,,
15.41.08.154,193.3,48.3,0,13.0,,66499.3,15.04,0.44,0.71,0.52,-0.1,6.0,-1.5,37.81,,,,,,,,,,
15.41.08.162,171.4,42.8,0,13.0,,58472.6,17.1,0.44,0.71,0.52,0.0,5.5,-1.6,37.81,,,,,,,,,,
15.41.08.174,91.6,22.9,0,13.0,,65875.7,15.18,0.44,0.71,0.52,0.3,4.9,-1.9,37.81,,,,,,,,,,
15.41.08.187,7.4,1.8,0,13.0,,54315.9,18.41,0.45,0.71,0.52,0.1,5.4,-2.1,37.81,,,,,,,,,,
15.41.08.195,-0.2,0.0,0,13.0,,55764.2,17.93,0.44,0.72,0.52,0.4,5.7,-2.2,37.81,,,,,,,,,,
15.41.08.207,72.3,18.1,0,13.0,,56761.5,17.62,0.45,0.72,0.52,-0.2,5.8,-2.2,37.81,,,,,,,,,,
15.41.08.219,81.6,20.4,0,13.0,,64505.0,15.5,0.44,0.72,0.52,-0.1,5.1,-2.5,37.81,,,,,,,,,,
15.41.08.228,108.5,27.1,0,13.0,,61830.1,16.17,0.44,0.71,0.52,-0.3,5.2,-2.3,37.81,,,,,,,,,,
15.41.08.240,111.1,27.8,0,13.0,,64305.3,15.55,0.44,0.72,0.53,-0.2,5.2,-2.1,37.81,,,,,,,,,,
15.41.08.252,11.1,2.8,0,13.0,,65480.7,15.27,0.44,0.7,0.52,0.2,5.3,-2.1,37.81,,,,,,,,,,
15.41.08.260,99.6,24.9,0,13.0,,60179.3,16.62,0.44,0.71,0.53,0.1,4.7,-2.1,37.81,,,,,,,,,,
15.41.08.273,20.5,5.1,0,13.0,,60806.2,16.45,0.45,0.71,0.52,0.7,4.9,-1.8,37.81,,,,,,,,,,
15.41.08.285,37.9,9.5,0,13.0,,60498.2,16.53,0.45,0.72,0.52,0.9,4.9,-2.1,37.81,,,,,,,,,,
15.41.08.293,70.7,17.7,0,13.0,,61666.7,16.22,0.45,0.72,0.51,0.9,4.6,-2.4,37.81,,,,,,,,,,
15.41.08.305,-14.4,3.6,0,13.0,,63832.6,15.67,0.45,0.72,0.52,1.1,4.7,-1.6,37.81,,,,,,,,,,
15.41.08.318,-58.5,14.6,0,13.0,,60161.6,16.62,0.45,0.72,0.52,0.7,4.7,-1.6,37.81,,,,,,,,,,
15.41.08.326,-1.2,0.3,0,13.0,,63224.0,15.82,0.44,0.72,0.53,0.9,5.6,-1.3,37.81,,,,,,,,,,
15.41.08.338,-20.3,5.1,0,13.0,,61595.3,16.24,0.44,0.71,0.51,1.1,5.7,-1.5,37.81,,,,,,,,,,
15.41.08.351,-69.4,17.4,0,13.0,,64985.6,15.39,0.44,0.72,0.52,1.6,5.2,-1.4,37.81,,,,,,,,,,
15.41.08.359,-14.3,3.6,0,13.0,,57391.2,17.42,0.44,0.72,0.53,1.8,5.3,-1.1,37.81,,,,,,,,,,
15.41.08.371,-40.8,10.2,0,13.0,,62445.1,16.01,0.44,0.72,0.52,1.6,6.4,-0.3,37.81,,,,,,,,,,
15.41.08.383,-41.6,10.4,0,13.0,,54797.3,18.25,0.44,0.72,0.52,1.4,5.7,-0.5,37.81,,,,,,,,,,
15.41.08.392,-110.9,27.7,0,13.0,,57902.0,17.27,0.44,0.72,0.52,1.3,5.7,-0.2,37.81,,,,,,,,,,
15.41.08.404,-74.4,18.6,0,13.0,,58697.1,17.04,0.44,0.71,0.52,1.8,5.3,-0.1,37.81,,,,,,,,,,
15.41.08.416,-49.9,12.5,0,13.0,,60407.4,16.55,0.45,0.71,0.52,2.3,5.8,-0.5,37.81,,,,,,,,,,
15.41.08.424,-90.7,22.7,0,13.0,,64720.1,15.45,0.44,0.71,0.52,2.4,6.6,-1.1,37.81,,,,,,,,,,
15.41.08.437,-136.4,34.1,0,13.0,,59847.2,16.71,0.44,0.71,0.52,2.2,6.4,-1.2,37.81,,,,,,,,,,
15.41.08.449,-149.3,37.3,0,13.0,,56840.3,17.59,0.44,0.72,0.51,2.0,5.6,-1.1,37.81,,,,,,,,,,
15.41.08.457,-94.9,23.7,0,13.0,,64998.9,15.38,0.44,0.72,0.52,2.0,5.2,-1.3,37.81,,,,,,,,,,
15.41.08.469,-119.4,29.8,0,13.0,,57133.7,17.5,0.44,0.72,0.51,1.0,5.2,-1.1,37.81,,,,,,,,,,
15.41.08.482,-83.9,21.0,0,13.0,,63500.1,15.75,0.45,0.72,0.51,0.7,5.8,-1.1,37.81,,,,,,,,,,
15.41.08.490,-167.5,41.9,0,13.0,,55105.4,18.15,0.44,0.72,0.52,0.4,6.2,-1.3,37.81,,,,,,,,,,
15.41.08.502,-165.0,41.2,0,13.0,,58125.4,17.2,0.45,0.72,0.52,0.4,6.9,-1.4,37.81,,,,,,,,,,
15.41.08.514,-129.1,32.3,0,13.0,,59290.6,16.87,0.45,0.71,0.52,1.0,6.6,-1.5,37.81,,,,,,,,,,
15.41.08.527,-142.3,35.6,0,13.0,,58010.9,17.24,0.44,0.72,0.52,0.6,6.7,-1.2,37.81,,,,,,,,,,
15.41.08.535,-156.9,39.2,0,13.0,,63113.0,15.84,0.45,0.72,0.52,0.4,6.6,-1.1,37.81,,,,,,,,,,
15.41.08.547,-128.4,32.1,0,13.0,,55047.2,18.17,0.45,0.72,0.52,0.2,6.9,-0.6,37.81,,,,,,,,,,
15.41.08.559,-172.6,43.2,0,13.0,,60516.5,16.52,0.45,0.72,0.52,-0.4,6.9,-0.7,37.81,,,,,,,,,,
15.41.08.568,-175.1,43.8,0,13.0,,59754.7,16.74,0.45,0.72,0.52,0.1,7.2,-1.3,37.81,,,,,,,,,,
15.41.08.580,27.8,7.0,1,14.0,97.6,60874.6,16.43,0.45,0.72,0.52,0.6,7.1,-0.9,37.81,,,,,,,,,,
15.41.08.592,89.9,22.5,0,14.0,,59686.0,16.75,0.45,0.71,0.52,0.2,6.3,-0.8,37.81,,,,,,,,,,
15.41.08.600,114.0,28.5,0,14.0,,60778.7,16.45,0.44,0.72,0.52,-0.5,6.8,-0.5,37.81,,,,,,,,,,
15.41.08.613,216.2,54.0,0,14.0,,57854.8,17.28,0.44,0.72,0.52,-1.2,7.0,-0.6,37.81,,,,,,,,,,
15.41.08.625,345.6,86.4,0,14.0,,59756.2,16.73,0.44,0.71,0.51,-2.1,7.9,-0.5,37.81,,,,,,,,,,
15.41.08.633,360.2,90.0,0,14.0,,60760.0,16.46,0.44,0.71,0.52,-2.9,8.0,-0.1,37.81,,,,,,,,,,
15.41.08.645,467.7,116.9,0,14.0,,61968.8,16.14,0.44,0.71,0.53,-2.5,8.5,-0.1,37.81,,,,,,,,,,
15.41.08.658,407.6,101.9,0,14.0,,66188.7,15.11,0.44,0.7,0.52,-1.5,8.0,-0.7,37.81,,,,,,,,,,
15.41.08.670,459.8,115.0,0,14.0,,61233.4,16.33,0.44,0.71,0.52,-0.7,7.1,-1.1,37.81,,,,,,,,,,
15.41.08.707,526.6,131.6,0,14.0,,65884.2,15.18,0.44,0.71,0.52,-0.5,4.8,-0.5,37.81,,,,,,,,,,
15.41.08.719,431.9,108.0,0,14.0,,59518.0,16.8,0.45,0.72,0.53,-0.4,5.0,-0.5,37.81,,,,,,,,,,
15.41.08.732,261.9,65.5,0,14.0,,58805.8,17.01,0.45,0.71,0.52,-0.3,6.0,-0.6,37.81,,,,,,,,,,
15.41.08.740,320.6,80.2,0,14.0,,57909.0,17.27,0.45,0.71,0.53,0.1,6.1,-0.9,37.81,,,,,,,,,,
15.41.08.752,265.5,66.4,0,14.0,,58719.5,17.03,0.45,0.71,0.52,-0.2,5.7,-0.9,37.81,,,,,,,,,,
15.41.08.765,161.4,40.4,0,14.0,,57026.4,17.54,0.45,0.71,0.52,0.2,5.7,-0.9,37.81,,,,,,,,,,
15.41.08.773,144.4,36.1,0,14.0,,52818.4,18.93,0.45,0.71,0.53,-0.2,5.8,-1.4,37.81,,,,,,,,,,
15.41.08.785,43.2,10.8,0,14.0,,59289.5,16.87,0.45,0.71,0.53,0.4,5.8,-1.3,37.81,,,,,,,,,,
15.41.08.797,75.5,18.9,0,14.0,,63659.8,15.71,0.44,0.71,0.53,0.4,6.1,-1.1,37.81,,,,,,,,,,
15.41.08.805,42.2,10.6,0,14.0,,65214.6,15.33,0.45,0.71,0.53,0.7,6.5,-1.4,37.81,,,,,,,,,,
15.41.08.818,123.9,31.0,0,14.0,,62154.5,16.09,0.45,0.71,0.52,1.4,6.0,-1.7,37.81,,,,,,,,,,
15.41.08.830,72.6,18.2,0,14.0,,57162.9,17.49,0.45,0.71,0.52,1.6,5.8,-2.3,37.81,,,,,,,,,,
15.41.08.838,58.4,14.6,0,14.0,,57395.2,17.42,0.44,0.71,0.52,1.5,6.0,-2.2,37.81,,,,,,,,,,
15.41.08.850,98.1,24.5,0,14.0,,60247.0,16.6,0.44,0.71,0.52,0.9,5.6,-1.9,37.81,,,,,,,,,,
15.41.08.863,114.4,28.6,0,14.0,,60777.1,16.45,0.44,0.72,0.52,0.7,5.0,-1.2,37.81,,,,,,,,,,
15.41.08.871,40.1,10.0,0,14.0,,61741.3,16.2,0.44,0.71,0.52,0.9,5.2,-1.2,37.81,,,,,,,,,,
15.41.08.883,96.6,24.2,0,14.0,,56591.4,17.67,0.44,0.71,0.52,1.3,4.7,-1.4,37.81,,,,,,,,,,
15.41.08.895,37.9,9.5,0,14.0,,58902.8,16.98,0.45,0.71,0.52,1.3,4.7,-0.9,37.81,,,,,,,,,,
15.41.08.904,-15.6,3.9,0,14.0,,59263.3,16.87,0.45,0.71,0.53,1.8,4.9,-1.4,37.81,,,,,,,,,,
15.41.08.916,-14.9,3.7,0,14.0,,61254.4,16.33,0.45,0.72,0.52,1.8,4.8,-1.4,37.81,,,,,,,,,,
15.41.08.928,-21.3,5.3,0,14.0,,62174.3,16.08,0.44,0.71,0.53,1.4,4.7,-1.5,37.81,,,,,,,,,,
15.41.08.936,-8.1,2.0,0,14.0,,62931.2,15.89,0.45,0.71,0.52,1.2,4.5,-1.7,37.81,,,,,,,,,,
15.41.08.949,-21.4,5.4,0,14.0,,63225.2,15.82,0.45,0.71,0.52,0.9,5.1,-1.9,37.81,,,,,,,,,,
15.41.08.961,-43.6,10.9,0,14.0,,60386.4,16.56,0.44,0.71,0.52,0.3,5.9,-1.8,37.81,,,,,,,,,,
15.41.08.969,-64.3,16.1,0,14.0,,58944.1,16.97,0.44,0.72,0.52,0.3,6.1,-1.6,37.81,,,,,,,,,,
15.41.08.981,-57.9,14.5,0,14.0,,63549.1,15.74,0.44,0.71,0.52,0.0,6.1,-1.5,37.81,,,,,,,,,,
15.41.08.994,-121.1,30.3,0,14.0,,61085.5,16.37,0.43,0.72,0.52,0.2,5.6,-1.5,37.81,,,,,,,,,,
15.41.09.002,-39.8,10.0,0,14.0,,58273.7,17.16,0.44,0.72,0.53,-0.6,5.0,-0.7,37.81,,,,,,,,,,
15.41.09.014,-28.6,7.2,0,14.0,,65501.0,15.27,0.44,0.71,0.52,-0.4,4.9,-0.9,37.81,,,,,,,,,,
15.41.09.027,-79.5,19.9,0,14.0,,61958.5,16.14,0.44,0.71,0.53,-0.7,5.7,-0.5,37.81,,,,,,,,,,
15.41.09.035,-99.0,24.8,0,14.0,,57348.5,17.44,0.45,0.71,0.53,-0.6,5.7,-0.4,37.81,,,,,,,,,,
15.41.09.047,-72.3,18.1,0,14.0,,63813.8,15.67,0.45,0.7,0.52,-0.2,5.3,-0.3,37.81,,,,,,,,,,
15.41.09.059,-136.5,34.1,0,14.0,,59848.3,16.71,0.45,0.71,0.53,0.5,5.1,-0.5,37.81,,,,,,,,,,
15.41.09.067,-84.1,21.0,0,14.0,,60455.9,16.54,0.45,0.71,0.52,1.0,5.2,-0.7,37.81,,,,,,,,,,
15.41.09.080,-121.5,30.4,0,14.0,,58588.8,17.07,0.45,0.7,0.53,1.3,5.5,-1.3,37.81,,,,,,,,,,
15.41.09.092,-80.9,20.2,0,14.0,,64342.0,15.54,0.45,0.71,0.52,1.1,5.6,-1.6,37.81,,,,,,,,,,
15.41.09.101,-103.5,25.9,0,14.0,,60063.7,16.65,0.45,0.72,0.52,0.6,5.3,-1.1,37.81,,,,,,,,,,
15.41.09.113,-170.5,42.6,0,14.0,,60879.2,16.43,0.45,0.72,0.51,0.5,6.4,-1.2,37.81,,,,,,,,,,
15.41.09.125,-174.3,43.6,0,14.0,,62689.5,15.95,0.45,0.71,0.52,0.5,6.7,-1.3,37.81,,,,,,,,,,
15.41.09.133,-124.2,31.0,0,14.0,,57974.5,17.25,0.45,0.72,0.52,0.1,7.0,-0.7,37.81,,,,,,,,,,
15.41.09.146,-126.8,31.7,0,14.0,,58907.3,16.98,0.45,0.71,0.52,0.7,7.5,-1.3,37.81,,,,,,,,,,
15.41.09.158,-193.6,48.4,0,14.0,,60076.3,16.65,0.45,0.71,0.52,0.7,7.9,-1.5,37.81,,,,,,,,,,
15.41.09.166,-241.3,60.3,0,14.0,,55064.8,18.16,0.45,0.71,0.52,0.4,7.9,-1.7,37.81,,,,,,,,,,
15.41.09.178,-249.0,62.2,0,14.0,,68262.8,14.65,0.45,0.71,0.53,1.0,7.6,-1.7,37.81,,,,,,,,,,
15.41.09.190,26.7,6.7,1,15.0,100.4,59103.8,16.92,0.44,0.71,0.53,0.9,7.4,-1.3,37.81,,,,,,,,,,
15.41.09.199,122.7,30.7,0,15.0,,58612.2,17.06,0.44,0.72,0.53,0.9,6.2,-1.3,37.81,,,,,,,,,,
15.41.09.211,232.6,58.2,0,15.0,,60901.0,16.42,0.44,0.72,0.52,0.7,6.5,-1.2,37.81,,,,,,,,,,
15.41.09.223,252.9,63.2,0,15.0,,62208.3,16.08,0.44,0.7,0.51,0.6,7.0,-0.9,37.81,,,,,,,,,,
15.41.09.231,299.7,74.9,0,15.0,,59969.9,16.68,0.43,0.7,0.51,-0.4,5.9,-0.7,37.81,,,,,,,,,,
15.41.09.244,338.3,84.6,0,15.0,,61087.6,16.37,0.44,0.72,0.54,-0.6,6.0,0.1,37.81,,,,,,,,,,
15.41.09.256,474.0,118.5,0,15.0,,60855.2,16.43,0.44,0.71,0.53,-1.3,6.0,-0.2,37.81,,,,,,,,,,
15.41.09.265,421.2,105.3,0,15.0,,61070.3,16.37,0.44,0.7,0.53,0.7,6.1,-1.0,37.81,,,,,,,,,,
15.41.09.277,543.0,135.8,0,15.0,,62014.0,16.13,0.44,0.72,0.54,0.9,5.5,-1.0,37.81,,,,,,,,,,
15.41.09.289,488.6,122.2,0,15.0,,68145.6,14.67,0.44,0.71,0.52,2.2,4.9,-1.5,37.81,,,,,,,,,,
15.41.09.297,536.6,134.2,0,15.0,,65841.1,15.19,0.44,0.72,0.51,2.0,4.4,-1.2,37.81,,,,,,,,,,
15.41.09.309,441.9,110.5,0,15.0,,62354.9,16.04,0.45,0.72,0.52,0.8,5.0,-0.9,37.81,,,,,,,,,,
15.41.09.317,482.8,120.7,0,15.0,,61766.5,16.19,0.45,0.71,0.52,0.5,4.6,-0.5,37.81,,,,,,,,,,
15.41.09.330,364.0,91.0,0,15.0,,58364.6,17.13,0.45,0.71,0.52,0.3,5.8,-0.4,37.81,,,,,,,,,,
15.41.09.342,301.7,75.4,0,15.0,,55566.9,18.0,0.45,0.71,0.53,0.1,6.5,-0.5,37.81,,,,,,,,,,
15.41.09.350,304.6,76.2,0,15.0,,62329.0,16.04,0.44,0.71,0.52,0.6,6.1,-1.1,37.81,,,,,,,,,,
15.41.09.362,207.2,51.8,0,15.0,,62752.4,15.94,0.45,0.71,0.52,0.6,5.5,-0.7,37.81,,,,,,,,,,
15.41.09.375,141.7,35.4,0,15.0,,60938.5,16.41,0.45,0.71,0.52,0.3,6.0,-0.6,37.81,,,,,,,,,,
15.41.09.383,78.2,19.6,0,15.0,,52227.9,19.15,0.45,0.71,0.53,0.4,5.9,-0.5,37.81,,,,,,,,,,
15.41.09.395,-19.8,5.0,0,15.0,,58751.8,17.02,0.45,0.71,0.53,0.2,6.7,-0.6,37.81,,,,,,,,,,
15.41.09.408,16.1,4.0,0,15.0,,61070.3,16.37,0.46,0.72,0.53,0.3,7.3,-0.7,37.81,,,,,,,,,,
15.41.09.416,82.9,20.7,0,15.0,,56067.0,17.84,0.45,0.72,0.52,-0.4,7.8,-0.3,37.81,,,,,,,,,,
15.41.09.428,68.9,17.2,0,15.0,,63378.0,15.78,0.44,0.7,0.53,-0.4,7.2,-0.9,37.81,,,,,,,,,,
15.41.09.440,100.4,25.1,0,15.0,,60668.9,16.48,0.46,0.71,0.54,1.9,7.0,-1.0,37.81,,,,,,,,,,
15.41.09.448,89.8,22.4,0,15.0,,57313.8,17.45,0.44,0.7,0.51,-0.5,6.8,-1.3,37.81,,,,,,,,,,
15.41.09.461,92.9,23.2,0,15.0,,56062.8,17.84,0.44,0.72,0.53,-0.2,7.3,-1.4,37.81,,,,,,,,,,
15.41.09.469,127.7,31.9,0,15.0,,60592.3,16.5,0.44,0.71,0.52,-0.2,7.8,-1.7,37.81,,,,,,,,,,
15.41.09.510,55.4,13.8,0,15.0,,62123.1,16.1,0.44,0.71,0.53,1.7,6.3,-1.9,37.81,,,,,,,,,,
15.41.09.522,4.9,1.2,0,15.0,,56126.9,17.82,0.44,0.72,0.53,1.2,5.4,-1.3,37.81,,,,,,,,,,
15.41.09.534,54.8,13.7,0,15.0,,59396.4,16.84,0.44,0.71,0.52,1.1,5.4,-1.0,37.81,,,,,,,,,,
15.41.09.547,-15.4,3.8,0,15.0,,61900.0,16.16,0.45,0.72,0.53,0.5,6.4,-1.0,37.81,,,,,,,,,,
15.41.09.555,-22.5,5.6,0,15.0,,56912.3,17.57,0.44,0.72,0.52,0.1,5.9,-1.0,37.81,,,,,,,,,,
15.41.09.567,-93.9,23.5,0,15.0,,63350.7,15.79,0.45,0.71,0.53,0.0,5.9,-0.8,37.81,,,,,,,,,,
15.41.09.575,-58.6,14.6,0,15.0,,60508.6,16.53,0.44,0.71,0.53,-0.2,6.3,-0.6,37.81,,,,,,,,,,
15.41.09.588,-46.1,11.5,0,15.0,,60027.9,16.66,0.45,0.71,0.52,0.5,6.3,-1.0,37.81,,,,,,,,,,
15.41.09.601,-45.4,11.4,0,15.0,,63334.0,15.79,0.44,0.71,0.53,0.8,5.8,-1.1,37.81,,,,,,,,,,
15.41.09.609,-20.5,5.1,0,15.0,,64024.5,15.62,0.44,0.71,0.52,0.8,5.0,-1.0,37.81,,,,,,,,,,
15.41.09.621,-39.6,9.9,0,15.0,,56985.0,17.55,0.45,0.71,0.53,0.9,5.1,-1.0,37.81,,,,,,,,,,
15.41.09.633,-126.4,31.6,0,15.0,,63923.6,15.64,0.45,0.71,0.53,0.3,5.7,-1.0,37.81,,,,,,,,,,
15.41.09.641,-129.4,32.4,0,15.0,,64968.2,15.39,0.45,0.71,0.53,0.6,6.4,-1.4,37.81,,,,,,,,,,
15.41.09.653,-156.0,39.0,0,15.0,,58304.1,17.15,0.45,0.71,0.53,0.8,5.6,-1.3,37.81,,,,,,,,,,
15.41.09.661,-77.2,19.3,0,15.0,,62391.8,16.03,0.45,0.7,0.52,0.7,5.6,-1.5,37.81,,,,,,,,,,
15.41.09.674,-143.5,35.9,0,15.0,,59809.6,16.72,0.45,0.71,0.52,0.8,5.8,-1.6,37.81,,,,,,,,,,
15.41.09.686,-173.7,43.4,0,15.0,,60333.1,16.57,0.45,0.71,0.53,0.6,5.7,-1.7,37.81,,,,,,,,,,
15.41.09.694,-147.7,36.9,0,15.0,,61226.3,16.33,0.44,0.71,0.52,0.6,5.9,-1.5,37.81,,,,,,,,,,
15.41.09.707,-96.9,24.2,0,15.0,,55130.8,18.14,0.44,0.72,0.53,0.1,5.4,-1.1,37.81,,,,,,,,,,
15.41.09.719,-155.4,38.8,0,15.0,,54899.5,18.22,0.45,0.71,0.53,-0.3,5.9,-1.5,37.81,,,,,,,,,,
15.41.09.727,-124.9,31.2,0,15.0,,55274.6,18.09,0.45,0.71,0.52,0.7,5.9,-1.3,37.81,,,,,,,,,,
15.41.09.739,-176.2,44.0,0,15.0,,64274.5,15.56,0.45,0.71,0.52,0.8,5.4,-1.3,37.81,,,,,,,,,,
15.41.09.752,-189.8,47.4,0,15.0,,61550.2,16.25,0.45,0.71,0.53,0.9,5.6,-1.1,37.81,,,,,,,,,,
15.41.09.760,-151.4,37.8,0,15.0,,59348.1,16.85,0.44,0.71,0.52,0.9,5.6,-1.4,37.81,,,,,,,,,,
15.41.09.772,-117.7,29.4,0,15.0,,64794.5,15.43,0.45,0.71,0.52,0.8,5.7,-1.3,37.81,,,,,,,,,,
15.41.09.785,-190.3,47.6,0,15.0,,62258.0,16.06,0.45,0.7,0.53,0.4,5.7,-1.4,37.81,,,,,,,,,,
15.41.09.793,43.9,11.0,1,16.0,99.0,63183.2,15.83,0.44,0.71,0.53,0.8,6.1,-1.4,37.81,,,,,,,,,,
15.41.09.805,130.7,32.7,0,16.0,,65090.9,15.36,0.44,0.71,0.53,0.3,6.6,-1.7,37.81,,,,,,,,,,
15.41.09.813,150.2,37.6,0,16.0,,52120.6,19.19,0.44,0.71,0.53,0.4,6.4,-1.6,37.81,,,,,,,,,,
15.41.09.825,187.5,46.9,0,16.0,,59816.0,16.72,0.45,0.71,0.53,0.6,6.0,-1.3,37.81,,,,,,,,,,
15.41.09.838,359.9,90.0,0,16.0,,63786.7,15.68,0.44,0.71,0.52,0.6,5.5,-1.1,37.81,,,,,,,,,,
15.41.09.846,400.2,100.0,0,16.0,,63266.3,15.81,0.44,0.72,0.52,0.5,5.8,-0.9,37.81,,,,,,,,,,
15.41.09.858,361.2,90.3,0,16.0,,57669.0,17.34,0.45,0.71,0.53,0.6,6.0,-1.1,37.81,,,,,,,,,,
15.41.09.870,462.7,115.7,0,16.0,,59180.0,16.9,0.45,0.7,0.52,1.2,5.8,-1.5,37.81,,,,,,,,,,
15.41.09.879,476.7,119.2,0,16.0,,60956.8,16.41,0.45,0.71,0.54,1.0,5.8,-1.4,37.81,,,,,,,,,,
15.41.09.891,372.2,93.0,0,16.0,,61678.8,16.21,0.45,0.71,0.52,0.7,5.7,-1.2,37.81,,,,,,,,,,
15.41.09.903,456.1,114.0,0,16.0,,61879.5,16.16,0.44,0.71,0.53,0.8,6.3,-1.3,37.81,,,,,,,,,,
15.41.09.911,467.2,116.8,0,16.0,,60243.0,16.6,0.45,0.72,0.53,0.9,5.5,-1.2,37.81,,,,,,,,,,
15.41.09.924,460.8,115.2,0,16.0,,59116.2,16.92,0.45,0.71,0.53,0.8,5.7,-1.2,37.81,,,,,,,,,,
15.41.09.932,414.4,103.6,0,16.0,,59610.8,16.78,0.44,0.71,0.52,1.8,6.1,-1.3,37.81,,,,,,,,,,
15.41.09.945,376.7,94.2,0,16.0,,67370.1,14.84,0.44,0.71,0.53,1.4,5.7,-1.1,37.81,,,,,,,,,,
15.41.09.956,302.5,75.6,0,16.0,,57775.7,17.31,0.45,0.71,0.53,0.8,5.3,-0.8,37.81,,,,,,,,,,
15.41.09.965,196.4,49.1,0,16.0,,59210.3,16.89,0.44,0.71,0.52,0.8,5.4,-0.5,37.81,,,,,,,,,,
15.41.09.977,250.3,62.6,0,16.0,,63655.1,15.71,0.45,0.71,0.53,-0.1,5.7,-0.7,37.81,,,,,,,,,,
15.41.09.989,52.8,13.2,0,16.0,,60098.1,16.64,0.44,0.71,0.53,0.6,5.5,-1.3,37.81,,,,,,,,,,
15.41.09.997,-2.6,0.6,0,16.0,,59426.3,16.83,0.44,0.71,0.53,0.8,6.3,-1.4,37.81,,,,,,,,,,
15.41.10.010,19.3,4.8,0,16.0,,58751.2,17.02,0.44,0.72,0.53,1.2,6.2,-1.7,37.81,,,,,,,,,,
15.41.10.022,-7.9,2.0,0,16.0,,63472.9,15.75,0.45,0.71,0.52,1.1,5.8,-1.6,37.81,,,,,,,,,,
15.41.10.030,-9.2,2.3,0,16.0,,61914.6,16.15,0.45,0.71,0.53,1.0,5.8,-1.2,37.81,,,,,,,,,,
15.41.10.042,74.8,18.7,0,16.0,,64049.5,15.61,0.45,0.72,0.52,0.6,5.9,-1.3,37.81,,,,,,,,,,
15.41.10.051,108.8,27.2,0,16.0,,59514.7,16.8,0.44,0.72,0.53,0.4,5.9,-0.9,37.81,,,,,,,,,,
15.41.10.063,68.5,17.1,0,16.0,,66387.3,15.06,0.45,0.71,0.52,0.5,6.3,-1.0,37.81,,,,,,,,,,
15.41.10.075,79.4,19.8,0,16.0,,59263.7,16.87,0.45,0.71,0.53,0.5,5.8,-1.1,37.81,,,,,,,,,,
15.41.10.083,82.1,20.5,0,16.0,,59993.4,16.67,0.45,0.71,0.54,1.0,6.0,-1.1,37.81,,,,,,,,,,
15.41.10.096,16.0,4.0,0,16.0,,65933.7,15.17,0.44,0.71,0.53,1.7,6.0,-1.4,37.81,,,,,,,,,,
15.41.10.104,23.9,6.0,0,16.0,,60926.3,16.41,0.44,0.71,0.52,1.2,5.5,-1.5,37.81,,,,,,,,,,
15.41.10.120,-17.3,4.3,0,16.0,,60500.6,16.53,0.45,0.72,0.52,0.8,5.2,-0.9,37.81,,,,,,,,,,
15.41.10.129,24.3,6.1,0,16.0,,55895.1,17.89,0.44,0.72,0.53,0.7,5.5,-0.8,37.81,,,,,,,,,,
15.41.10.137,-7.3,1.8,0,16.0,,60184.8,16.62,0.45,0.71,0.53,-0.2,5.9,-0.5,37.81,95.6,,,,,,,,,
15.41.10.149,-4.2,1.0,0,16.0,,64671.0,15.46,0.45,0.71,0.53,0.2,6.0,-0.6,37.81,,,,,,,,,,
15.41.10.157,28.9,7.2,0,16.0,,57856.5,17.28,0.45,0.71,0.53,0.5,5.9,-0.9,37.81,,,,,,,,,,
15.41.10.170,-45.2,11.3,0,16.0,,53965.5,18.53,0.45,0.71,0.53,0.5,6.0,-1.3,37.81,,,,,,,,,,
15.41.10.178,-26.1,6.5,0,16.0,,60681.3,16.48,0.45,0.71,0.52,1.0,6.0,-1.6,37.81,,,,,,,,,,
15.41.10.190,-106.1,26.5,0,16.0,,54778.0,18.26,0.44,0.71,0.52,1.2,6.0,-2.0,37.81,,,,,,,,,,
15.41.10.198,-76.3,19.1,0,16.0,,62784.7,15.93,0.44,0.71,0.52,1.2,5.5,-1.6,37.81,,,,,,,,,,
15.41.10.210,-129.2,32.3,0,16.0,,62913.3,15.89,0.44,0.72,0.52,0.5,4.9,-1.2,37.81,,,,,,,,,,
15.41.10.223,-23.5,5.9,0,16.0,,67042.7,14.92,0.44,0.71,0.53,0.4,6.0,-0.9,37.81,,,,,,,,,,
15.41.10.231,-37.8,9.4,0,16.0,,62745.9,15.94,0.45,0.71,0.53,0.5,6.0,-0.8,37.81,,,,,,,,,,
15.41.10.243,-105.4,26.4,0,16.0,,62432.7,16.02,0.44,0.71,0.53,0.1,5.6,-0.8,37.81,,,,,,,,,,
15.41.10.256,-81.7,20.4,0,16.0,,58375.4,17.13,0.45,0.7,0.53,0.7,5.6,-1.3,37.81,,,,,,,,,,
15.41.10.264,-123.2,30.8,0,16.0,,55349.4,18.07,0.44,0.71,0.53,1.1,5.9,-1.4,37.81,,,,,,,,,,
15.41.10.276,-62.1,15.5,0,16.0,,59126.2,16.91,0.44,0.71,0.53,1.3,5.7,-1.7,37.81,,,,,,,,,,
15.41.10.317,-110.7,27.7,0,16.0,,62232.6,16.07,0.44,0.72,0.52,0.6,5.7,-1.3,37.81,,,,,,,,,,
15.41.10.325,-105.6,26.4,0,16.0,,63928.3,15.64,0.44,0.71,0.52,0.4,5.3,-1.2,37.81,,,,,,,,,,
15.41.10.338,-265.4,66.4,0,16.0,,62187.5,16.08,0.45,0.71,0.53,1.0,5.5,-1.0,37.81,,,,,,,,,,
15.41.10.350,-161.3,40.3,0,16.0,,61394.7,16.29,0.44,0.71,0.53,1.3,5.5,-1.5,37.81,,,,,,,,,,
15.41.10.358,-169.4,42.4,0,16.0,,64845.4,15.42,0.45,0.71,0.53,1.4,5.6,-1.6,37.81,,,,,,,,,,
15.41.10.370,-194.6,48.6,0,16.0,,60222.9,16.6,0.45,0.71,0.53,1.5,5.9,-1.6,37.81,,,,,,,,,,
15.41.10.378,-183.9,46.0,0,16.0,,63655.1,15.71,0.45,0.71,0.52,1.4,6.1,-1.5,37.81,,,,,,,,,,
15.41.10.391,-193.7,48.4,0,16.0,,58418.3,17.12,0.45,0.71,0.52,1.0,5.6,-1.4,37.81,,,,,,,,,,
15.41.10.403,97.3,24.3,1,17.0,100.4,63377.5,15.78,0.44,0.71,0.52,1.6,5.9,-1.7,37.81,,,,,,,,,,
15.41.10.411,145.9,36.5,0,17.0,,59448.4,16.82,0.44,0.71,0.52,1.4,5.7,-1.4,37.81,,,,,,,,,,
15.41.10.423,168.9,42.2,0,17.0,,60082.1,16.64,0.44,0.71,0.53,0.5,5.7,-1.2,37.81,,,,,,,,,,
15.41.10.436,266.6,66.6,0,17.0,,62058.4,16.11,0.44,0.71,0.52,0.9,5.9,-1.0,37.81,,,,,,,,,,
15.41.10.444,361.8,90.4,0,17.0,,63889.3,15.65,0.44,0.71,0.52,0.8,5.9,-1.0,37.81,,,,,,,,,,
15.41.10.456,305.8,76.4,0,17.0,,62564.3,15.98,0.44,0.71,0.53,0.6,6.0,-1.0,37.81,,,,,,,,,,
15.41.10.469,460.2,115.0,0,17.0,,62379.8,16.03,0.44,0.71,0.53,0.6,6.0,-0.9,37.81,,,,,,,,,,
15.41.10.477,503.5,125.9,0,17.0,,60657.6,16.49,0.45,0.71,0.52,0.6,5.8,-1.0,37.81,,,,,,,,,,
15.41.10.489,456.8,114.2,0,17.0,,61821.8,16.18,0.44,0.72,0.52,0.7,5.5,-0.9,37.81,,,,,,,,,,
15.41.10.501,443.2,110.8,0,17.0,,56953.2,17.56,0.45,0.72,0.53,0.6,5.9,-0.8,37.81,,,,,,,,,,
15.41.10.510,613.7,153.4,0,17.0,,62531.1,15.99,0.45,0.71,0.52,0.3,6.6,-1.1,37.81,,,,,,,,,,
15.41.10.522,484.4,121.1,0,17.0,,61016.4,16.39,0.44,0.72,0.53,0.4,6.8,-1.3,37.81,,,,,,,,,,
15.41.10.530,442.2,110.6,0,17.0,,56589.4,17.67,0.45,0.71,0.52,0.6,5.7,-1.0,37.81,,,,,,,,,,
15.41.10.542,354.3,88.6,0,17.0,,56776.2,17.61,0.45,0.71,0.53,0.4,6.1,-1.1,37.81,,,,,,,,,,
15.41.10.555,305.6,76.4,0,17.0,,66543.9,15.03,0.44,0.71,0.52,0.3,5.3,-0.8,37.81,,,,,,,,,,
15.41.10.563,287.1,71.8,0,17.0,,62914.7,15.89,0.45,0.71,0.53,0.1,5.2,-0.4,37.81,,,,,,,,,,
15.41.10.575,212.6,53.2,0,17.0,,62129.1,16.1,0.45,0.71,0.52,0.2,5.8,-0.9,37.81,,,,,,,,,,
15.41.10.587,178.1,44.5,0,17.0,,57833.3,17.29,0.45,0.71,0.52,0.5,6.6,-0.8,37.81,,,,,,,,,,
15.41.10.596,65.3,16.3,0,17.0,,65719.3,15.22,0.45,0.7,0.52,0.3,5.9,-0.9,37.81,,,,,,,,,,
15.41.10.608,7.3,1.8,0,17.0,,57765.6,17.31,0.45,0.7,0.52,0.6,6.1,-1.4,37.81,,,,,,,,,,
15.41.10.620,51.4,12.8,0,17.0,,60821.5,16.44,0.45,0.71,0.53,0.2,6.3,-1.7,37.81,,,,,,,,,,
15.41.10.629,36.1,9.0,0,17.0,,61057.4,16.38,0.44,0.71,0.53,0.7,6.3,-1.5,37.81,,,,,,,,,,
15.41.10.641,45.8,11.4,0,17.0,,52397.9,19.08,0.44,0.71,0.53,0.8,6.2,-1.7,37.81,,,,,,,,,,
15.41.10.649,130.0,32.5,0,17.0,,59684.1,16.75,0.44,0.71,0.52,0.1,5.7,-1.3,37.81,,,,,,,,,,
15.41.10.661,89.6,22.4,0,17.0,,62973.3,15.88,0.44,0.71,0.53,-0.2,5.7,-1.4,37.81,,,,,,,,,,
15.41.10.673,88.6,22.2,0,17.0,,62541.1,15.99,0.44,0.71,0.52,-0.1,6.0,-1.5,37.81,,,,,,,,,,
15.41.10.682,61.9,15.5,0,17.0,,59507.3,16.8,0.44,0.71,0.53,-0.2,5.7,-0.9,37.81,,,,,,,,,,
15.41.10.694,92.8,23.2,0,17.0,,59561.9,16.79,0.44,0.71,0.53,-0.1,5.3,-1.0,37.81,,,,,,,,,,
15.41.10.706,26.6,6.6,0,17.0,,60064.3,16.65,0.45,0.7,0.53,0.0,5.4,-1.0,37.81,,,,,,,,,,
15.41.10.714,21.9,5.5,0,17.0,,60735.5,16.46,0.45,0.7,0.53,0.7,5.5,-1.3,37.81,,,,,,,,,,
15.41.10.727,2.3,0.6,0,17.0,,59236.4,16.88,0.45,0.71,0.53,0.5,5.1,-1.7,37.81,,,,,,,,,,
15.41.10.735,-14.7,3.7,0,17.0,,61787.6,16.18,0.45,0.71,0.53,1.0,5.0,-2.0,37.81,,,,,,,,,,
15.41.10.747,4.8,1.2,0,17.0,,62254.6,16.06,0.44,0.71,0.52,1.3,5.0,-2.0,37.81,,,,,,,,,,
15.41.10.759,-43.1,10.8,0,17.0,,63265.6,15.81,0.45,0.71,0.52,0.9,5.4,-2.2,37.81,,,,,,,,,,
15.41.10.768,17.0,4.2,0,17.0,,62869.0,15.91,0.45,0.71,0.52,0.3,5.6,-1.8,37.81,,,,,,,,,,
15.41.10.780,-66.5,16.6,0,17.0,,65259.8,15.32,0.45,0.71,0.52,-0.6,5.7,-1.5,37.81,,,,,,,,,,
15.41.10.793,-54.8,13.7,0,17.0,,58962.8,16.96,0.45,0.71,0.53,-0.7,5.3,-1.2,37.81,,,,,,,,,,
15.41.10.801,-53.9,13.5,0,17.0,,61293.5,16.31,0.45,0.71,0.52,-0.6,5.7,-1.5,37.81,,,,,,,,,,
15.41.10.813,-68.5,17.1,0,17.0,,58470.6,17.1,0.45,0.71,0.53,-0.2,5.7,-1.6,37.81,,,,,,,,,,
15.41.10.821,-75.7,18.9,0,17.0,,59609.4,16.78,0.45,0.71,0.54,0.3,6.1,-1.5,37.81,,,,,,,,,,
15.41.10.833,-116.0,29.0,0,17.0,,60164.7,16.62,0.45,0.71,0.53,0.7,5.3,-1.4,37.81,,,,,,,,,,
15.41.10.845,-90.6,22.6,0,17.0,,58959.1,16.96,0.45,0.71,0.53,0.8,5.1,-1.7,37.81,,,,,,,,,,
15.41.10.854,-133.4,33.4,0,17.0,,63834.7,15.67,0.45,0.71,0.52,0.7,5.3,-1.5,37.81,,,,,,,,,,
15.41.10.866,-119.0,29.8,0,17.0,,60941.6,16.41,0.44,0.71,0.53,0.8,5.5,-1.5,37.81,,,,,,,,,,
15.41.10.878,-116.7,29.2,0,17.0,,60728.8,16.47,0.44,0.71,0.53,0.4,5.3,-1.2,37.81,,,,,,,,,,
15.41.10.886,-76.5,19.1,0,17.0,,62516.7,16.0,0.44,0.71,0.53,0.2,5.1,-1.0,37.81,,,,,,,,,,
15.41.10.899,-152.6,38.2,0,17.0,,62345.2,16.04,0.45,0.7,0.53,0.3,5.6,-1.3,37.81,,,,,,,,,,
15.41.10.907,-118.1,29.5,0,17.0,,60340.7,16.57,0.45,0.71,0.52,0.0,6.0,-1.1,37.81,,,,,,,,,,
15.41.10.919,-116.9,29.2,0,17.0,,60594.5,16.5,0.45,0.71,0.52,0.1,5.9,-1.0,37.81,,,,,,,,,,
15.41.10.931,-189.9,47.5,0,17.0,,67861.2,14.74,0.45,0.72,0.53,-0.1,5.6,-1.1,37.81,,,,,,,,,,
15.41.10.940,-112.7,28.2,0,17.0,,59155.3,16.9,0.45,0.71,0.52,0.3,5.6,-0.9,37.81,,,,,,,,,,
15.41.10.952,-155.6,38.9,0,17.0,,59805.7,16.72,0.44,0.71,0.52,0.1,6.3,-0.6,37.81,,,,,,,,,,
15.41.10.964,-180.9,45.2,0,17.0,,57749.6,17.32,0.45,0.71,0.52,-0.4,6.3,-0.6,37.81,,,,,,,,,,
15.41.10.972,-137.7,34.4,0,17.0,,63875.9,15.66,0.45,0.71,0.53,-0.4,5.9,-0.4,37.81,,,,,,,,,,
15.41.10.985,-148.7,37.2,0,17.0,,56696.1,17.64,0.45,0.7,0.53,0.2,6.3,-0.3,37.81,,,,,,,,,,
15.41.10.997,-219.4,54.8,0,17.0,,61649.6,16.22,0.45,0.7,0.53,0.0,6.3,-0.6,37.81,,,,,,,,,,
15.41.11.005,21.8,5.4,1,18.0,99.7,57111.2,17.51,0.45,0.71,0.53,-0.1,6.3,-0.9,37.81,,,,,,,,,,
15.41.11.017,163.2,40.8,0,18.0,,66299.4,15.08,0.45,0.71,0.53,-0.4,6.2,-1.1,37.81,,,,,,,,,,
15.41.11.030,224.1,56.0,0,18.0,,54743.7,18.27,0.45,0.72,0.53,-0.6,6.1,-0.7,37.81,,,,,,,,,,
15.41.11.038,248.8,62.2,0,18.0,,58111.3,17.21,0.45,0.71,0.52,-0.2,5.3,-0.7,37.81,,,,,,,,,,
15.41.11.050,360.6,90.2,0,18.0,,59949.7,16.68,0.44,0.71,0.53,-0.3,5.6,-0.2,37.81,,,,,,,,,,
15.41.11.063,402.9,100.7,0,18.0,,64467.5,15.51,0.45,0.71,0.53,-1.1,5.6,-0.1,37.81,,,,,,,,,,
15.41.11.071,449.8,112.4,0,18.0,,55154.5,18.13,0.45,0.71,0.53,-1.0,6.1,-0.2,37.81,,,,,,,,,,
15.41.11.083,463.0,115.8,0,18.0,,60404.4,16.56,0.45,0.71,0.53,-1.2,6.5,-0.2,37.81,,,,,,,,,,
15.41.11.125,516.9,129.2,0,18.0,,58037.4,17.23,0.44,0.7,0.53,0.3,6.1,-0.5,37.81,,,,,,,,,,
15.41.11.132,431.5,107.9,0,18.0,,61676.0,16.21,0.45,0.7,0.52,0.8,5.8,-0.7,37.81,,,,,,,,,,
15.41.11.145,410.4,102.6,0,18.0,,60757.7,16.46,0.44,0.71,0.52,0.6,5.8,-0.6,37.81,,,,,,,,,,
15.41.11.153,361.9,90.5,0,18.0,,60309.9,16.58,0.44,0.71,0.53,0.2,5.5,-0.2,37.81,,,,,,,,,,
15.41.11.165,294.7,73.7,0,18.0,,59990.3,16.67,0.45,0.71,0.53,-0.4,5.5,0.2,37.81,,,,,,,,,,
15.41.11.177,157.6,39.4,0,18.0,,59828.9,16.71,0.44,0.7,0.53,-1.1,6.4,0.1,37.81,,,,,,,,,,
15.41.11.185,227.7,56.9,0,18.0,,57114.5,17.51,0.45,0.7,0.54,-0.9,6.5,0.4,37.81,,,,,,,,,,
15.41.11.198,176.6,44.2,0,18.0,,53515.7,18.69,0.46,0.71,0.55,-1.5,6.1,0.7,37.81,,,,,,,,,,
15.41.11.210,10.1,2.5,0,18.0,,59352.1,16.85,0.45,0.69,0.53,-1.3,5.9,0.5,37.81,,,,,,,,,,
15.41.11.218,-48.1,12.0,0,18.0,,61440.0,16.28,0.45,0.71,0.53,-1.2,5.0,1.0,37.81,,,,,,,,,,
15.41.11.231,-14.4,3.6,0,18.0,,62542.8,15.99,0.46,0.71,0.54,-2.4,4.0,2.2,37.81,,,,,,,,,,
15.41.11.239,59.4,14.8,0,18.0,,58655.2,17.05,0.46,0.72,0.53,-2.6,4.7,2.9,37.81,,,,,,,,,,
15.41.11.251,86.5,21.6,0,18.0,,63483.5,15.75,0.45,0.71,0.54,-3.4,4.9,3.9,37.81,,,,,,,,,,
15.41.11.263,67.7,16.9,0,18.0,,55697.1,17.95,0.45,0.71,0.53,-3.5,4.6,3.7,37.81,,,,,,,,,,
15.41.11.276,92.3,23.1,0,18.0,,61855.6,16.17,0.45,0.7,0.53,-3.3,4.8,3.8,37.81,,,,,,,,,,
15.41.11.284,29.6,7.4,0,18.0,,63838.7,15.66,0.45,0.7,0.53,-2.8,5.2,3.6,37.81,,,,,,,,,,
15.41.11.296,64.4,16.1,0,18.0,,60252.6,16.6,0.45,0.69,0.53,-3.5,5.0,3.4,37.81,,,,,,,,,,
15.41.11.304,60.6,15.2,0,18.0,,60086.4,16.64,0.46,0.69,0.52,-2.6,5.5,3.1,37.81,,,,,,,,,,
15.41.11.317,62.1,15.5,0,18.0,,61149.6,16.35,0.45,0.7,0.53,-2.5,4.8,2.5,37.81,,,,,,,,,,
15.41.11.325,23.3,5.8,0,18.0,,58726.1,17.03,0.46,0.7,0.53,-3.0,5.5,2.1,37.81,,,,,,,,,,
15.41.11.333,38.9,9.7,0,18.0,,65428.7,15.28,0.45,0.7,0.53,-2.7,6.0,2.1,37.81,,,,,,,,,,
15.41.11.345,-61.3,15.3,0,18.0,,58730.4,17.03,0.45,0.71,0.54,-4.9,6.6,3.7,37.81,,,,,,,,,,
15.41.11.358,-10.2,2.6,0,18.0,,58920.5,16.97,0.46,0.72,0.55,-8.4,5.9,6.5,37.81,,,,,,,,,,
15.41.11.366,21.5,5.4,0,18.0,,63376.0,15.78,0.46,0.72,0.54,-11.3,6.0,8.9,37.81,,,,,,,,,,
15.41.11.378,-12.3,3.1,0,18.0,,61113.5,16.36,0.46,0.7,0.55,-14.3,5.8,12.4,37.81,,,,,,,,,,
15.41.11.390,-62.2,15.6,0,18.0,,61141.0,16.36,0.46,0.7,0.55,-15.5,4.4,14.4,37.81,,,,,,,,,,
15.41.11.398,-47.4,11.8,0,18.0,,58346.5,17.14,0.46,0.68,0.55,-14.8,2.9,14.7,37.81,,,,,,,,,,
15.41.11.411,-53.9,13.5,0,18.0,,57501.0,17.39,0.46,0.67,0.56,-11.5,2.4,13.2,37.81,,,,,,,,,,
15.41.11.423,-86.3,21.6,0,18.0,,60422.6,16.55,0.46,0.66,0.55,-7.9,2.3,11.2,37.81,,,,,,,,,,
15.41.11.435,-50.0,12.5,0,18.0,,56798.1,17.61,0.48,0.65,0.55,-6.6,3.3,9.3,37.81,,,,,,,,,,
15.41.11.444,-100.9,25.2,0,18.0,,62544.7,15.99,0.49,0.68,0.58,-8.4,4.3,7.7,37.81,,,,,,,,,,
15.41.11.456,-122.2,30.6,0,18.0,,59091.1,16.92,0.45,0.67,0.52,-3.5,5.9,4.8,37.81,,,,,,,,,,
15.41.11.468,-146.9,36.7,0,18.0,,58257.4,17.17,0.48,0.67,0.53,-4.1,6.4,6.5,37.81,,,,,,,,,,
15.41.11.476,-162.1,40.5,0,18.0,,64980.3,15.39,0.49,0.69,0.57,-6.1,6.8,3.6,37.81,,,,,,,,,,
15.41.11.489,-86.7,21.7,0,18.0,,62750.5,15.94,0.47,0.65,0.54,-6.7,7.3,3.5,37.81,,,,,,,,,,
15.41.11.501,-142.5,35.6,0,18.0,,57435.6,17.41,0.48,0.66,0.56,-5.0,6.4,2.0,37.81,,,,,,,,,,
15.41.11.509,-163.7,40.9,0,18.0,,57237.6,17.47,0.48,0.66,0.57,-5.1,7.2,1.6,37.81,,,,,,,,,,
15.41.11.521,-147.3,36.8,0,18.0,,57301.7,17.45,0.48,0.66,0.56,-4.8,7.0,1.6,37.81,,,,,,,,,,
15.41.11.534,-149.4,37.4,0,18.0,,63099.4,15.85,0.5,0.68,0.54,-10.3,11.1,2.2,37.81,,,,,,,,,,
15.41.11.542,-197.2,49.3,0,18.0,,58802.4,17.01,0.48,0.67,0.55,-6.0,7.1,1.1,37.81,,,,,,,,,,
15.41.11.554,-161.3,40.3,0,18.0,,63043.9,15.86,0.48,0.67,0.55,-4.9,7.5,1.6,37.81,,,,,,,,,,
15.41.11.566,-214.7,53.7,0,18.0,,57838.3,17.29,0.48,0.68,0.56,-5.8,9.0,2.2,37.81,,,,,,,,,,
15.41.11.575,-244.3,61.1,0,18.0,,62270.4,16.06,0.48,0.67,0.57,-9.2,9.4,2.9,37.81,,,,,,,,,,
15.41.11.587,-168.6,42.2,0,18.0,,67058.2,14.91,0.46,0.68,0.57,-14.9,6.5,5.3,37.81,,,,,,,,,,
15.41.11.599,-220.2,55.0,0,18.0,,60363.6,16.57,0.48,0.68,0.56,-14.2,9.1,5.0,37.81,,,,,,,,,,
15.41.11.607,36.6,9.2,1,19.0,98.5,58506.3,17.09,0.48,0.68,0.57,-20.5,9.7,7.1,37.81,,,,,,,,,,
15.41.11.620,155.1,38.8,0,19.0,,58817.5,17.0,0.48,0.68,0.58,-27.7,12.7,9.0,37.81,,,,,,,,,,
15.41.11.632,214.4,53.6,0,19.0,,62937.5,15.89,0.49,0.66,0.58,-29.2,10.1,10.6,37.81,,,,,,,,,,
15.41.11.640,287.8,72.0,0,19.0,,57723.7,17.32,0.49,0.67,0.58,-32.9,11.3,12.0,37.81,,,,,,,,,,
15.41.11.652,331.2,82.8,0,19.0,,61445.6,16.27,0.48,0.66,0.59,-32.3,11.0,13.5,37.81,,,,,,,,,,
15.41.11.665,337.3,84.3,0,19.0,,67143.0,14.89,0.49,0.61,0.58,-32.7,11.3,13.7,37.81,,,,,,,,,,
15.41.11.673,423.0,105.8,0,19.0,,65641.5,15.23,0.5,0.64,0.58,-27.6,10.4,13.2,37.81,,,,,,,,,,
15.41.11.685,374.9,93.7,0,19.0,,63767.0,15.68,0.49,0.61,0.57,-24.0,13.6,11.7,37.81,,,,,,,,,,
15.41.11.698,474.9,118.7,0,19.0,,61475.3,16.27,0.5,0.63,0.58,-26.7,14.7,9.5,37.81,,,,,,,,,,
15.41.11.710,473.5,118.4,0,19.0,,58912.8,16.97,0.51,0.69,0.62,-34.4,15.9,11.7,37.81,,,,,,,,,,
15.41.11.722,504.4,126.1,0,19.0,,60472.9,16.54,0.51,0.68,0.62,-42.1,13.6,16.0,37.81,,,,,,,,,,
15.41.11.730,394.0,98.5,0,19.0,,54070.5,18.49,0.5,0.63,0.64,-49.7,14.2,18.5,37.81,,,,,,,,,,
15.41.11.743,452.8,113.2,0,19.0,,58298.7,17.15,0.49,0.59,0.6,-44.7,17.5,17.5,37.81,,,,,,,,,,
15.41.11.751,401.1,100.3,0,19.0,,65680.0,15.23,0.48,0.56,0.6,-39.3,17.4,15.1,37.81,,,,,,,,,,
15.41.11.763,361.6,90.4,0,19.0,,68586.2,14.58,0.49,0.6,0.61,-37.6,15.8,15.4,37.81,,,,,,,,,,
15.41.11.771,276.9,69.2,0,19.0,,60167.9,16.62,0.49,0.61,0.63,-39.2,14.2,17.5,37.81,,,,,,,,,,
15.41.11.784,369.0,92.2,0,19.0,,51014.5,19.6,0.41,0.43,0.64,-22.8,-7.1,37.6,37.81,,,,,,,,,,
15.41.11.792,211.9,53.0,0,19.0,,60159.3,16.62,0.62,0.55,0.62,-28.4,14.3,22.1,37.81,,,,,,,,,,
15.41.11.804,69.8,17.4,0,19.0,,65237.5,15.33,0.5,0.55,0.66,-46.0,21.5,22.7,37.81,,,,,,,,,,
15.41.11.817,-12.8,3.2,0,19.0,,63557.3,15.73,0.51,0.52,0.64,-38.2,16.3,23.7,37.81,,,,,,,,,,
15.41.11.825,13.5,3.4,0,19.0,,65175.9,15.34,0.51,0.54,0.66,-39.6,18.8,23.0,37.81,,,,,,,,,,
15.41.11.837,77.7,19.4,0,19.0,,60498.5,16.53,0.51,0.55,0.65,-40.5,17.8,23.1,37.81,,,,,,,,,,
15.41.11.845,65.4,16.4,0,19.0,,60925.9,16.41,0.51,0.56,0.67,-44.5,18.9,23.3,37.81,,,,,,,,,,
15.41.11.857,20.0,5.0,0,19.0,,58218.8,17.18,0.5,0.54,0.66,-48.7,18.8,22.9,37.81,,,,,,,,,,
15.41.11.866,58.6,14.6,0,19.0,,62489.3,16.0,0.48,0.5,0.68,-47.6,18.4,22.3,37.81,,,,,,,,,,
15.41.11.878,,,0,19.0,,59951.3,16.68,,,,,,,,,,,,,,,,,
15.41.11.894,,,0,19.0,,61446.6,16.27,,,,,,,,,37.81,,,,,,,,
15.41.11.931,-17.3,4.3,0,19.0,,61889.6,16.16,0.49,0.46,0.72,-33.5,14.9,19.8,37.81,,,,,,,,,,
15.41.11.943,16.8,4.2,0,19.0,,59790.0,16.73,0.5,0.42,0.71,-23.9,9.9,14.5,37.81,,,,,,,,,,
15.41.11.952,-36.7,9.2,0,19.0,,65448.9,15.28,0.51,0.42,0.72,-19.1,9.0,11.5,37.81,,,,,,,,,,
15.41.11.964,-14.9,3.7,0,19.0,,62721.0,15.94,0.51,0.45,0.73,-18.1,9.0,9.8,37.81,,,,,,,,,,
15.41.11.972,-65.4,16.4,0,19.0,,60108.2,16.64,0.51,0.44,0.71,-17.1,10.8,8.0,37.81,,,,,,,,,,
15.41.11.985,-48.2,12.0,0,19.0,,58299.7,17.15,0.5,0.46,0.74,-17.9,9.7,7.0,37.81,,,,,,,,,,
15.41.11.993,-67.4,16.8,0,19.0,,57463.0,17.4,0.5,0.46,0.75,-19.5,8.8,7.0,37.81,,,,,,,,,,
15.41.12.005,-28.3,7.1,0,19.0,,58309.5,17.15,0.5,0.44,0.74,-19.7,9.2,7.9,37.81,,,,,,,,,,
15.41.12.013,-53.1,13.3,0,19.0,,59442.8,16.82,0.49,0.42,0.72,-15.8,8.6,6.3,37.81,,,,,,,,,,
15.41.12.025,-87.1,21.8,0,19.0,,58452.4,17.11,0.5,0.43,0.73,-14.1,8.6,8.2,37.81,,,,,,,,,,
15.41.12.034,-18.5,4.6,0,19.0,,56774.1,17.61,0.5,0.44,0.73,-15.1,7.3,8.6,37.81,,,,,,,,,,
15.41.12.046,-78.1,19.5,0,19.0,,64445.7,15.52,0.5,0.42,0.73,-14.3,6.2,9.1,37.81,,,,,,,,,,
15.41.12.054,-66.0,16.5,0,19.0,,59735.0,16.74,0.49,0.39,0.73,-9.4,5.0,7.5,37.81,,,,,,,,,,
15.41.12.066,-98.2,24.6,0,19.0,,63058.1,15.86,0.5,0.4,0.72,-5.8,4.7,6.6,37.81,,,,,,,,,,
15.41.12.075,-43.2,10.8,0,19.0,,59657.4,16.76,0.52,0.43,0.75,-7.1,3.2,5.8,37.81,,,,,,,,,,
15.41.12.087,-62.3,15.6,0,19.0,,55927.8,17.88,0.52,0.42,0.74,-8.4,3.9,5.9,37.81,,,,,,,,,,
15.41.12.095,-71.8,18.0,0,19.0,,55613.3,17.98,0.51,0.41,0.72,-8.2,6.7,5.2,37.81,,,,,,,,,,
15.41.12.107,-94.1,23.5,0,19.0,,57513.2,17.39,0.51,0.41,0.73,-8.2,6.6,4.5,37.81,,,,,,,,,,
15.41.12.115,-86.5,21.6,0,19.0,,62682.0,15.95,0.51,0.41,0.73,-6.4,5.6,3.4,37.81,,,,,,,,,,
15.41.12.128,-174.4,43.6,0,19.0,,60793.2,16.45,0.51,0.4,0.75,-4.7,4.7,3.4,37.81,,,,,,,,,,
15.41.12.136,-135.8,34.0,0,19.0,,63509.8,15.75,0.51,0.4,0.74,-3.1,4.7,2.3,37.81,,,,,,,,,,
15.41.12.149,-108.3,27.1,0,19.0,,60449.9,16.54,0.52,0.41,0.74,-2.7,4.1,1.7,37.81,,,,,,,,,,
15.41.12.156,-194.6,48.6,0,19.0,,59207.1,16.89,0.51,0.42,0.74,-2.5,3.5,2.0,37.81,,,,,,,,,,
15.41.12.169,-193.8,48.4,0,19.0,,63206.2,15.82,0.52,0.42,0.73,-3.3,3.7,1.8,37.81,,,,,,,,,,
15.41.12.177,-141.4,35.4,0,19.0,,62747.8,15.94,0.51,0.41,0.73,-3.6,3.1,1.6,37.81,,,,,,,,,,
15.41.12.189,-147.6,36.9,0,19.0,,61595.7,16.23,0.52,0.41,0.72,-1.9,3.5,1.2,37.81,,,,,,,,,,
15.41.12.197,-255.5,63.9,0,19.0,,63087.0,15.85,0.53,0.41,0.74,-1.7,3.0,1.1,37.81,,,,,,,,,,
15.41.12.210,-9.1,2.3,1,20.0,100.1,57406.2,17.42,0.53,0.42,0.74,-3.2,4.7,0.9,37.81,,,,,,,,,,
15.41.12.218,78.2,19.6,0,20.0,,60044.0,16.65,0.52,0.41,0.73,-1.8,5.8,0.4,37.81,,,,,,,,,,
15.41.12.230,48.0,12.0,0,20.0,,63749.2,15.69,0.52,0.41,0.72,-0.2,8.2,0.0,37.81,,,,,,,,,,
15.41.12.238,214.5,53.6,0,20.0,,60753.2,16.46,0.52,0.42,0.74,-0.9,7.7,-0.5,37.81,,,,,,,,,,
15.41.12.251,253.8,63.4,0,20.0,,64120.3,15.6,0.51,0.4,0.73,0.1,8.1,-1.5,37.81,,,,,,,,,,
15.41.12.263,348.2,87.0,0,20.0,,63260.2,15.81,0.51,0.39,0.73,3.1,8.1,-2.3,37.81,,,,,,,,,,
15.41.12.271,376.5,94.1,0,20.0,,64440.4,15.52,0.51,0.41,0.74,4.0,8.6,-2.6,37.81,,,,,,,,,,
15.41.12.283,411.8,103.0,0,20.0,,65716.2,15.22,0.52,0.42,0.76,1.7,7.5,-2.5,37.81,,,,,,,,,,
15.41.12.292,493.7,123.4,0,20.0,,58656.1,17.05,0.52,0.42,0.75,-0.4,8.2,-1.1,37.81,,,,,,,,,,
15.41.12.304,502.9,125.7,0,20.0,,68725.0,14.55,0.52,0.42,0.75,-1.7,8.0,-0.8,37.81,,,,,,,,,,
15.41.12.312,545.9,136.5,0,20.0,,61016.6,16.39,0.52,0.42,0.75,-2.5,6.9,0.3,37.81,,,,,,,,,,
15.41.12.325,533.6,133.4,0,20.0,,61809.0,16.18,0.52,0.42,0.75,-2.9,5.4,1.1,37.81,,,,,,,,,,
15.41.12.333,476.4,119.1,0,20.0,,64796.1,15.43,0.52,0.42,0.74,-3.2,5.1,1.5,37.81,,,,,,,,,,
15.41.12.345,474.2,118.6,0,20.0,,61590.7,16.24,0.52,0.41,0.75,-2.8,5.4,1.1,37.81,,,,,,,,,,
15.41.12.353,387.1,96.8,0,20.0,,62219.4,16.07,0.51,0.41,0.74,-1.1,6.2,1.0,37.81,,,,,,,,,,
15.41.12.365,381.9,95.5,0,20.0,,64802.8,15.43,0.52,0.41,0.74,-2.1,5.1,1.5,37.81,,,,,,,,,,
15.41.12.374,280.1,70.0,0,20.0,,55627.0,17.98,0.51,0.41,0.73,-1.6,4.5,1.4,37.81,,,,,,,,,,
15.41.12.386,249.3,62.3,0,20.0,,63746.1,15.69,0.51,0.4,0.74,-1.3,3.1,1.4,37.81,,,,,,,,,,
15.41.12.394,200.0,50.0,0,20.0,,60523.3,16.52,0.51,0.39,0.73,0.0,3.2,0.8,37.81,,,,,,,,,,
15.41.12.406,70.8,17.7,0,20.0,,61897.9,16.16,0.52,0.39,0.75,2.1,2.2,-0.7,37.81,,,,,,,,,,
15.41.12.419,-6.2,1.6,0,20.0,,63776.5,15.68,0.52,0.4,0.75,3.0,2.0,-1.5,37.81,,,,,,,,,,
15.41.12.427,12.9,3.2,0,20.0,,56421.6,17.72,0.52,0.4,0.73,4.4,2.2,-2.6,37.81,,,,,,,,,,
15.41.12.439,58.3,14.6,0,20.0,,54626.2,18.31,0.52,0.4,0.75,6.3,2.5,-3.7,37.81,,,,,,,,,,
15.41.12.447,27.4,6.8,0,20.0,,66553.4,15.03,0.51,0.39,0.72,8.5,3.4,-5.7,37.81,,,,,,,,,,
15.41.12.460,70.8,17.7,0,20.0,,62911.0,15.9,0.52,0.38,0.72,11.8,4.1,-7.1,37.81,,,,,,,,,,
15.41.12.468,46.9,11.7,0,20.0,,55559.2,18.0,0.52,0.39,0.72,13.7,4.5,-9.4,37.81,,,,,,,,,,
15.41.12.480,11.3,2.8,0,20.0,,68030.6,14.7,0.52,0.38,0.71,17.0,6.4,-11.7,37.81,,,,,,,,,,
15.41.12.488,67.6,16.9,0,20.0,,60692.2,16.48,0.52,0.4,0.72,17.3,6.5,-11.4,37.81,,,,,,,,,,
15.41.12.501,17.3,4.3,0,20.0,,61480.5,16.27,0.53,0.44,0.74,14.2,9.3,-12.7,37.81,,,,,,,,,,
15.41.12.509,54.7,13.7,0,20.0,,63644.3,15.71,0.52,0.44,0.73,11.3,9.3,-11.1,37.81,,,,,,,,,,
15.41.12.525,71.4,17.8,0,20.0,,61821.8,16.18,0.52,0.45,0.74,9.9,9.4,-9.7,37.81,,,,,,,,,,
15.41.12.533,15.0,3.8,0,20.0,,54825.5,18.24,0.52,0.45,0.74,7.1,8.4,-7.4,37.81,,,,,,,,,,
15.41.12.546,2.8,0.7,0,20.0,,53940.4,18.54,0.51,0.46,0.74,4.5,8.6,-5.5,37.81,,,,,,,,,,
15.41.12.554,-44.1,11.0,0,20.0,,69471.3,14.39,0.51,0.45,0.74,3.8,6.8,-3.4,37.81,,,,,,,,,,
15.41.12.566,-15.4,3.8,0,20.0,,64073.4,15.61,0.51,0.44,0.73,3.2,4.9,-1.8,37.81,,,,,,,,,,
15.41.12.574,-2.5,0.6,0,20.0,,61933.2,16.15,0.51,0.44,0.75,2.4,4.4,-0.7,37.81,,,,,,,,,,
15.41.12.587,6.6,1.6,0,20.0,,58303.7,17.15,0.51,0.44,0.74,1.1,4.2,0.0,37.81,,,,,,,,,,
15.41.12.595,-33.6,8.4,0,20.0,,61095.0,16.37,0.51,0.43,0.73,-0.2,4.1,0.5,37.81,,,,,,,,,,
15.41.12.607,-77.6,19.4,0,20.0,,56904.3,17.57,0.51,0.42,0.73,0.8,3.6,-0.6,37.81,,,,,,,,,,
15.41.12.615,-114.1,28.5,0,20.0,,63383.1,15.78,0.51,0.42,0.72,1.7,4.0,-1.5,37.81,,,,,,,,,,
15.41.12.628,-58.0,14.5,0,20.0,,57874.2,17.28,0.51,0.41,0.72,1.7,5.3,-2.3,37.81,,,,,,,,,,
15.41.12.636,10.0,2.5,0,20.0,,58954.9,16.96,0.52,0.42,0.73,2.8,5.9,-3.3,37.81,,,,,,,,,,
15.41.12.648,-84.8,21.2,0,20.0,,65855.6,15.18,0.51,0.42,0.71,4.0,6.1,-4.3,37.81,,,,,,,,,,
15.41.12.657,-67.6,16.9,0,20.0,,59576.1,16.79,0.52,0.43,0.73,5.2,6.1,-5.1,37.81,,,,,,,,,,
15.41.12.669,-77.7,19.4,0,20.0,,61649.7,16.22,0.51,0.43,0.73,5.4,6.6,-5.4,37.81,,,,,,,,,,
15.41.12.677,-104.1,26.0,0,20.0,,58792.4,17.01,0.52,0.44,0.74,4.7,6.7,-5.3,37.81,,,,,,,,,,
15.41.12.689,-92.0,23.0,0,20.0,,60076.5,16.65,0.51,0.44,0.73,4.5,6.3,-4.8,37.81,,,,,,,,,,
15.41.12.701,-137.2,34.3,0,20.0,,57934.6,17.26,0.51,0.43,0.73,4.4,6.7,-4.5,37.81,,,,,,,,,,
15.41.12.738,-134.4,33.6,0,20.0,,68435.4,14.61,0.51,0.44,0.73,4.2,6.1,-4.2,37.81,,,,,,,,,,
15.41.12.746,-167.3,41.8,0,20.0,,57582.2,17.37,0.52,0.44,0.72,6.3,6.4,-4.7,37.81,,,,,,,,,,
15.41.12.759,-176.4,44.1,0,20.0,,62326.7,16.04,0.51,0.44,0.72,6.4,5.7,-5.4,37.81,,,,,,,,,,
15.41.12.767,-170.8,42.7,0,20.0,,62996.5,15.87,0.51,0.45,0.73,6.6,6.3,-5.5,37.81,,,,,,,,,,
15.41.12.779,-190.5,47.6,0,20.0,,62055.2,16.11,0.51,0.44,0.73,6.4,6.6,-5.6,37.81,,,,,,,,,,
15.41.12.787,-180.8,45.2,0,20.0,,60490.6,16.53,0.51,0.46,0.73,6.0,6.1,-5.0,37.81,,,,,,,,,,
15.41.12.800,-209.9,52.5,0,20.0,,61125.8,16.36,0.51,0.45,0.73,5.1,6.2,-4.5,37.81,,,,,,,,,,
15.41.12.808,-197.2,49.3,0,20.0,,63017.1,15.87,0.51,0.45,0.73,4.4,6.0,-3.9,37.81,,,,,,,,,,
15.41.12.820,17.9,4.5,1,21.0,95.7,56314.0,17.76,0.51,0.45,0.74,4.1,5.5,-2.8,37.81,,,,,,,,,,
15.41.12.832,143.4,35.8,0,21.0,,56360.8,17.74,0.51,0.45,0.73,3.8,4.9,-2.8,37.81,,,,,,,,,,
15.41.12.841,173.2,43.3,0,21.0,,58981.6,16.95,0.51,0.45,0.73,3.4,4.0,-2.5,37.81,,,,,,,,,,
15.41.12.853,235.0,58.8,0,21.0,,59710.8,16.75,0.51,0.45,0.72,3.7,4.2,-3.0,37.81,,,,,,,,,,
15.41.12.861,276.4,69.1,0,21.0,,59107.5,16.92,0.5,0.45,0.71,4.8,3.7,-3.4,37.81,,,,,,,,,,
15.41.12.873,396.2,99.0,0,21.0,,60798.4,16.45,0.5,0.45,0.72,5.8,3.7,-4.3,37.81,,,,,,,,,,
15.41.12.882,385.7,96.4,0,21.0,,59947.2,16.68,0.51,0.45,0.71,6.7,4.6,-4.9,37.81,,,,,,,,,,
15.41.12.894,462.7,115.7,0,21.0,,59865.8,16.7,0.5,0.46,0.71,7.3,4.9,-5.4,37.81,,,,,,,,,,
15.41.12.902,484.1,121.0,0,21.0,,58765.6,17.02,0.51,0.45,0.72,7.0,5.9,-5.8,37.81,,,,,,,,,,
15.41.12.914,486.9,121.7,0,21.0,,61428.1,16.28,0.51,0.45,0.73,6.5,6.9,-5.9,37.81,,,,,,,,,,
15.41.12.923,462.1,115.5,0,21.0,,61117.7,16.36,0.51,0.46,0.73,5.2,7.1,-5.1,37.81,,,,,,,,,,
15.41.12.935,485.3,121.3,0,21.0,,63544.6,15.74,0.51,0.46,0.73,5.6,6.1,-4.4,37.81,,,,,,,,,,
15.41.12.943,468.1,117.0,0,21.0,,58595.6,17.07,0.51,0.47,0.73,4.7,4.6,-3.6,37.81,,,,,,,,,,
15.41.12.955,511.1,127.8,0,21.0,,60231.7,16.6,0.52,0.47,0.73,3.2,5.6,-3.5,37.81,,,,,,,,,,
15.41.12.963,351.3,87.8,0,21.0,,55643.9,17.97,0.51,0.47,0.73,2.5,5.4,-2.6,37.81,,,,,,,,,,
15.41.12.976,298.6,74.6,0,21.0,,64667.4,15.46,0.5,0.47,0.72,2.0,4.6,-2.2,37.81,,,,,,,,,,
15.41.12.984,227.2,56.8,0,21.0,,63226.4,15.82,0.5,0.45,0.71,2.2,4.1,-2.0,37.81,,,,,,,,,,
15.41.12.997,221.8,55.4,0,21.0,,65777.0,15.2,0.5,0.45,0.71,3.4,4.6,-2.7,37.81,,,,,,,,,,
15.41.13.009,160.0,40.0,0,21.0,,63240.1,15.81,0.49,0.44,0.71,5.1,5.0,-3.9,37.81,,,,,,,,,,
15.41.13.017,25.2,6.3,0,21.0,,61854.3,16.17,0.5,0.44,0.71,7.0,5.5,-4.9,37.81,,,,,,,,,,
15.41.13.029,-3.9,1.0,0,21.0,,61880.4,16.16,0.51,0.46,0.72,7.5,6.3,-4.9,37.81,,,,,,,,,,
15.41.13.037,-29.0,7.2,0,21.0,,63662.4,15.71,0.51,0.48,0.72,6.0,6.1,-4.4,37.81,,,,,,,,,,
15.41.13.049,120.4,30.1,0,21.0,,59241.0,16.88,0.51,0.47,0.72,5.0,5.0,-3.7,37.81,,,,,,,,,,
15.41.13.058,29.8,7.4,0,21.0,,62495.1,16.0,0.51,0.47,0.72,4.3,4.7,-3.4,37.81,,,,,,,,,,
15.41.13.070,1.0,0.2,0,21.0,,64169.9,15.58,0.51,0.47,0.71,4.1,4.4,-3.0,37.81,,,,,,,,,,
15.41.13.078,108.2,27.0,0,21.0,,59809.7,16.72,0.51,0.47,0.72,4.9,4.4,-3.4,37.81,,,,,,,,,,
15.41.13.090,84.9,21.2,0,21.0,,59880.0,16.7,0.5,0.47,0.72,4.6,4.1,-3.7,37.81,,,,,,,,,,
15.41.13.099,87.8,22.0,0,21.0,,53977.2,18.53,0.5,0.47,0.73,4.2,4.0,-3.4,37.81,,,,,,,,,,
15.41.13.111,99.7,24.9,0,21.0,,62477.3,16.01,0.5,0.48,0.72,4.1,3.6,-3.0,37.81,,,,,,,,,,
15.41.13.119,-16.3,4.1,0,21.0,,65846.8,15.19,0.5,0.49,0.69,1.2,4.1,-1.2,37.81,,,,,,,,,,
15.41.13.131,105.3,26.3,0,21.0,,61505.4,16.26,0.51,0.49,0.7,0.3,3.8,-0.4,37.81,,,,,,,,,,
15.41.13.140,48.9,12.2,0,21.0,,60728.9,16.47,0.51,0.49,0.71,-0.3,3.9,0.5,37.81,,,,,,,,,,
15.41.13.152,-14.4,3.6,0,21.0,,57640.7,17.35,0.51,0.47,0.7,-1.0,4.0,0.6,37.81,,,,,,,,,,
15.41.13.160,-47.2,11.8,0,21.0,,64673.5,15.46,0.51,0.47,0.72,0.2,3.1,1.1,37.81,,,,,,,,,,
15.41.13.172,-67.5,16.9,0,21.0,,64324.3,15.55,0.51,0.46,0.71,0.1,3.6,0.6,37.81,,,,,,,,,,
15.41.13.181,-53.9,13.5,0,21.0,,65121.1,15.36,0.51,0.44,0.71,2.4,3.2,-1.1,37.81,,,,,,,,,,
15.41.13.193,-56.9,14.2,0,21.0,,64465.6,15.51,0.51,0.47,0.71,2.7,3.4,-1.6,37.81,,,,,,,,,,
15.41.13.205,-26.3,6.6,0,21.0,,63595.0,15.72,0.5,0.45,0.7,3.7,4.3,-3.3,37.81,,,,,,,,,,
15.41.13.213,-70.2,17.6,0,21.0,,57613.7,17.36,0.51,0.46,0.71,4.1,4.5,-3.8,37.81,,,,,,,,,,
15.41.13.226,-99.7,24.9,0,21.0,,56658.6,17.65,0.5,0.46,0.71,4.7,3.8,-4.9,37.81,,,,,,,,,,
15.41.13.238,-64.9,16.2,0,21.0,,61508.4,16.26,0.51,0.46,0.71,7.5,4.2,-5.9,37.81,,,,,,,,,,
15.41.13.246,-65.0,16.2,0,21.0,,61621.4,16.23,0.5,0.45,0.7,9.7,4.8,-7.8,37.81,,,,,,,,,,
15.41.13.258,-20.2,5.0,0,21.0,,54277.7,18.42,0.51,0.47,0.71,12.9,4.7,-8.3,37.81,,,,,,,,,,
15.41.13.271,-132.7,33.2,0,21.0,,63324.5,15.79,0.51,0.48,0.71,10.8,3.8,-7.9,37.81,,,,,,,,,,
15.41.13.279,-132.7,33.2,0,21.0,,66281.9,15.09,0.52,0.49,0.72,9.6,3.5,-6.5,37.81,,,,,,,,,,
15.41.13.291,-119.1,29.8,0,21.0,,64699.6,15.46,0.51,0.49,0.71,7.2,3.2,-5.6,37.81,,,,,,,,,,
15.41.13.303,-103.1,25.8,0,21.0,,62890.8,15.9,0.51,0.46,0.7,8.0,2.2,-5.6,37.81,,,,,,,,,,
15.41.13.312,-109.4,27.4,0,21.0,,58870.1,16.99,0.51,0.47,0.7,10.9,2.1,-6.1,37.81,,,,,,,,,,
15.41.13.324,-66.8,16.7,0,21.0,,57866.4,17.28,0.5,0.45,0.68,14.2,2.1,-7.9,37.81,,,,,,,,,,
15.41.13.336,-118.2,29.6,0,21.0,,60855.6,16.43,0.5,0.46,0.68,15.9,2.8,-9.1,37.81,,,,,,,,,,
15.41.13.349,-126.8,31.7,0,21.0,,65424.9,15.28,0.5,0.48,0.67,16.7,4.9,-9.8,37.81,,,,,,,,,,
15.41.13.357,-141.8,35.4,0,21.0,,64366.6,15.54,0.51,0.53,0.7,14.6,5.5,-9.1,37.81,,,,,,,,,,
15.41.13.369,-157.2,39.3,0,21.0,,55440.6,18.04,0.52,0.54,0.72,8.6,6.4,-7.4,37.81,,,,,,,,,,
15.41.13.381,-202.1,50.5,0,21.0,,58646.1,17.05,0.51,0.52,0.71,6.3,5.8,-5.5,37.81,,,,,,,,,,
15.41.13.389,-101.3,25.3,0,21.0,,53299.3,18.76,0.51,0.52,0.7,5.1,5.2,-3.7,37.81,,,,,,,,,,
15.41.13.402,-194.8,48.7,0,21.0,,57337.8,17.44,0.5,0.48,0.7,6.3,4.3,-4.6,37.81,,,,,,,,,,
15.41.13.414,-233.9,58.5,0,21.0,,59998.9,16.67,0.5,0.49,0.7,7.6,3.4,-5.0,37.81,,,,,,,,,,
15.41.13.422,49.1,12.3,1,22.0,100.0,57983.7,17.25,0.5,0.49,0.68,7.4,3.8,-5.5,37.81,,,,,,,,,,
15.41.13.435,60.6,15.2,0,22.0,,62438.2,16.02,0.5,0.5,0.67,8.1,4.8,-6.0,37.81,,,,,,,,,,
15.41.13.447,206.0,51.5,0,22.0,,62401.8,16.03,0.51,0.52,0.69,6.3,5.2,-6.3,37.81,,,,,,,,,,
15.41.13.455,232.2,58.0,0,22.0,,62106.6,16.1,0.5,0.49,0.68,7.3,5.5,-7.2,37.81,,,,,,,,,,
15.41.13.467,318.1,79.5,0,22.0,,65857.8,15.18,0.5,0.5,0.68,9.4,5.7,-7.3,37.81,,,,,,,,,,
15.41.13.480,362.8,90.7,0,22.0,,62339.6,16.04,0.51,0.5,0.69,8.2,4.9,-6.9,37.81,,,,,,,,,,
15.41.13.488,368.8,92.2,0,22.0,,60766.9,16.46,0.5,0.5,0.69,8.9,6.2,-7.7,37.81,,,,,,,,,,
15.41.13.500,513.3,128.3,0,22.0,,60678.8,16.48,0.5,0.51,0.69,9.9,5.1,-8.4,37.81,,,,,,,,,,
15.41.13.541,437.8,109.4,0,22.0,,63029.6,15.87,0.5,0.52,0.67,7.1,4.9,-5.6,37.81,,,,,,,,,,
15.41.13.549,397.6,99.4,0,22.0,,62480.0,16.01,0.5,0.52,0.67,6.7,4.4,-4.5,37.81,,,,,,,,,,
15.41.13.562,422.4,105.6,0,22.0,,64533.0,15.5,0.49,0.5,0.65,7.4,5.7,-5.9,37.81,,,,,,,,,,
15.41.13.574,376.4,94.1,0,22.0,,55060.7,18.16,0.5,0.51,0.68,8.4,7.4,-6.6,37.81,,,,,,,,,,
15.41.13.582,291.4,72.8,0,22.0,,65497.8,15.27,0.5,0.52,0.68,7.9,7.6,-6.9,37.81,,,,,,,,,,
15.41.13.594,287.0,71.8,0,22.0,,56820.8,17.6,0.5,0.53,0.69,6.3,8.7,-6.5,37.81,,,,,,,,,,
15.41.13.607,158.1,39.5,0,22.0,,62407.3,16.02,0.49,0.52,0.67,4.9,9.9,-6.6,37.81,,,,,,,,,,
15.41.13.619,125.6,31.4,0,22.0,,63561.6,15.73,0.49,0.53,0.69,4.2,10.3,-6.6,37.81,,,,,,,,,,
15.41.13.627,29.9,7.5,0,22.0,,62699.1,15.95,0.49,0.53,0.69,2.3,9.2,-6.3,37.81,,,,,,,,,,
15.41.13.639,-2.5,0.6,0,22.0,,61752.3,16.19,0.49,0.55,0.68,0.4,8.2,-3.7,37.81,,,,,,,,,,
15.41.13.652,65.7,16.4,0,22.0,,62187.4,16.08,0.5,0.55,0.68,-1.6,5.9,-1.1,37.81,,,,,,,,,,
15.41.13.660,70.6,17.6,0,22.0,,58676.5,17.04,0.5,0.53,0.69,0.5,5.9,-1.5,37.81,,,,,,,,,,
15.41.13.672,50.3,12.6,0,22.0,,61702.9,16.21,0.5,0.53,0.69,1.5,6.4,-1.8,37.81,,,,,,,,,,
15.41.13.684,74.2,18.6,0,22.0,,62896.0,15.9,0.5,0.52,0.67,1.4,6.0,-2.3,37.81,,,,,,,,,,
15.41.13.693,92.0,23.0,0,22.0,,63322.2,15.79,0.49,0.52,0.67,2.9,7.1,-3.4,37.81,,,,,,,,,,
15.41.13.705,114.9,28.7,0,22.0,,61821.9,16.18,0.49,0.51,0.67,4.3,8.1,-4.7,37.81,,,,,,,,,,
15.41.13.717,11.1,2.8,0,22.0,,64156.4,15.59,0.5,0.52,0.68,5.2,8.2,-6.2,37.81,,,,,,,,,,
15.41.13.725,51.8,13.0,0,22.0,,64476.4,15.51,0.49,0.51,0.68,5.8,8.2,-6.8,37.81,,,,,,,,,,
15.41.13.738,15.8,4.0,0,22.0,,63058.1,15.86,0.48,0.52,0.67,6.7,8.3,-8.3,37.81,,,,,,,,,,
15.41.13.750,-16.2,4.0,0,22.0,,62381.3,16.03,0.48,0.53,0.68,8.8,8.0,-8.6,37.81,,,,,,,,,,
15.41.13.758,-4.5,1.1,0,22.0,,57141.2,17.5,0.48,0.54,0.68,8.8,7.4,-9.0,37.81,,,,,,,,,,
15.41.13.770,30.7,7.7,0,22.0,,57505.0,17.39,0.48,0.55,0.68,8.0,7.3,-8.6,37.81,,,,,,,,,,
15.41.13.783,-11.9,3.0,0,22.0,,65502.7,15.27,0.49,0.55,0.68,7.8,7.1,-8.2,37.81,,,,,,,,,,
15.41.13.791,-17.6,4.4,0,22.0,,61428.1,16.28,0.49,0.54,0.67,7.0,6.8,-7.8,37.81,,,,,,,,,,
15.41.13.803,-2.8,0.7,0,22.0,,63976.4,15.63,0.48,0.54,0.67,7.5,6.9,-7.5,37.81,,,,,,,,,,
15.41.13.816,-109.8,27.4,0,22.0,,66236.8,15.1,0.48,0.54,0.67,8.1,5.9,-7.3,37.81,,,,,,,,,,
15.41.13.824,-38.2,9.6,0,22.0,,60755.2,16.46,0.48,0.54,0.66,8.5,5.9,-7.6,37.81,,,,,,,,,,
15.41.13.836,-16.7,4.2,0,22.0,,65080.2,15.37,0.48,0.54,0.67,8.9,6.8,-8.4,37.81,,,,,,,,,,
15.41.13.849,-95.7,23.9,0,22.0,,60256.4,16.6,0.48,0.55,0.67,8.7,7.5,-8.9,37.81,,,,,,,,,,
15.41.13.857,-43.3,10.8,0,22.0,,57108.4,17.51,0.48,0.55,0.67,8.0,7.9,-8.4,37.81,,,,,,,,,,
15.41.13.869,-76.4,19.1,0,22.0,,62950.7,15.89,0.48,0.56,0.67,6.2,7.8,-7.9,37.81,,,,,,,,,,
15.41.13.881,-102.4,25.6,0,22.0,,65063.6,15.37,0.48,0.55,0.66,6.6,8.0,-8.1,37.81,,,,,,,,,,
15.41.13.889,-74.8,18.7,0,22.0,,65537.1,15.26,0.48,0.55,0.67,7.6,8.1,-8.2,37.81,,,,,,,,,,
15.41.13.902,-73.4,18.4,0,22.0,,61676.3,16.21,0.48,0.56,0.67,7.7,7.5,-7.5,37.81,,,,,,,,,,
15.41.13.914,-73.3,18.3,0,22.0,,59886.6,16.7,0.48,0.57,0.67,7.4,6.3,-7.4,37.81,,,,,,,,,,
15.41.13.922,-162.0,40.5,0,22.0,,58262.2,17.16,0.48,0.56,0.66,7.7,6.1,-7.1,37.81,,,,,,,,,,
15.41.13.934,-89.5,22.4,0,22.0,,58380.8,17.13,0.48,0.56,0.67,7.5,6.7,-7.1,37.81,,,,,,,,,,
15.41.13.947,-175.5,43.9,0,22.0,,62117.7,16.1,0.48,0.57,0.66,6.6,7.6,-7.3,37.81,,,,,,,,,,
15.41.13.955,-123.6,30.9,0,22.0,,70204.2,14.24,0.47,0.57,0.66,5.4,8.0,-7.3,37.81,,,,,,,,,,
15.41.13.967,-140.5,35.1,0,22.0,,62731.0,15.94,0.47,0.54,0.64,5.6,8.7,-7.6,37.81,,,,,,,,,,
15.41.13.979,-144.1,36.0,0,22.0,,62269.2,16.06,0.48,0.59,0.67,0.5,8.7,-5.9,37.81,,,,,,,,,,
15.41.13.988,-209.2,52.3,0,22.0,,62923.4,15.89,0.46,0.58,0.63,1.0,11.5,-4.5,37.81,,,,,,,,,,
15.41.14.000,-162.6,40.6,0,22.0,,60574.4,16.51,0.49,0.69,0.74,-15.5,7.0,3.9,37.81,,,,,,,,,,
15.41.14.013,-204.3,51.1,0,22.0,,63679.7,15.7,0.46,0.51,0.67,-11.6,9.3,4.1,37.81,,,,,,,,,,
15.41.14.025,-203.3,50.8,0,22.0,,60333.5,16.57,0.46,0.56,0.69,-7.7,8.5,4.7,37.81,,,,,,,,,,
15.41.14.033,122.3,30.6,1,23.0,99.6,65873.2,15.18,0.46,0.53,0.67,-8.7,5.5,2.6,37.81,,,,,,,,,,
15.41.14.045,182.3,45.6,0,23.0,,59444.8,16.82,0.46,0.51,0.67,-2.7,7.3,-0.8,37.81,,,,,,,,,,
15.41.14.057,251.1,62.8,0,23.0,,59792.5,16.72,0.46,0.55,0.68,-0.2,5.8,-2.1,37.81,,,,,,,,,,
15.41.14.065,271.3,67.8,0,23.0,,62061.3,16.11,0.46,0.56,0.68,1.2,2.9,-1.4,37.81,,,,,,,,,,
15.41.14.078,304.2,76.0,0,23.0,,60783.0,16.45,0.47,0.57,0.68,0.5,1.8,-1.2,37.81,,,,,,,,,,
15.41.14.090,378.4,94.6,0,23.0,,63937.9,15.64,0.47,0.57,0.66,-0.9,2.9,-0.2,37.81,,,,,,,,,,
15.41.14.098,364.1,91.0,0,23.0,,63353.2,15.78,0.47,0.56,0.66,-1.5,4.2,-0.3,37.81,,,,,,,,,,
15.41.14.110,460.4,115.1,0,23.0,,61535.9,16.25,0.48,0.56,0.67,-1.3,3.8,-0.3,37.81,,,,,,,,,,
15.41.14.123,493.9,123.5,0,23.0,,61622.7,16.23,0.48,0.56,0.68,-1.5,3.4,-0.2,37.81,,,,,,,,,,
15.41.14.131,485.8,121.4,0,23.0,,60889.7,16.42,0.47,0.54,0.67,-0.2,3.9,-0.9,37.81,,,,,,,,,,
15.41.14.143,464.5,116.1,0,23.0,,61417.5,16.28,0.47,0.55,0.68,3.0,4.3,-2.0,37.81,,,,,,,,,,
15.41.14.156,462.2,115.6,0,23.0,,55508.5,18.02,0.47,0.55,0.67,2.9,3.5,-2.3,37.81,,,,,,,,,,
15.41.14.164,517.6,129.4,0,23.0,,55711.2,17.95,0.47,0.55,0.67,4.7,2.8,-3.1,37.81,,,,,,,,,,
15.41.14.177,411.5,102.9,0,23.0,,54943.6,18.2,0.48,0.56,0.66,5.1,2.0,-2.9,37.81,,,,,,,,,,
15.41.14.188,352.1,88.0,0,23.0,,62321.5,16.05,0.48,0.56,0.67,4.4,3.3,-2.8,37.81,,,,,,,,,,
15.41.14.197,235.3,58.8,0,23.0,,63751.0,15.69,0.48,0.56,0.66,2.5,3.3,-2.3,37.81,,,,,,,,,,
15.41.14.209,187.2,46.8,0,23.0,,58407.1,17.12,0.48,0.56,0.66,1.9,3.7,-1.8,37.81,,,,,,,,,,
15.41.14.221,147.1,36.8,0,23.0,,62222.3,16.07,0.47,0.56,0.66,2.1,4.0,-1.4,37.81,,,,,,,,,,
15.41.14.229,57.6,14.4,0,23.0,,65829.6,15.19,0.47,0.56,0.67,2.4,3.8,-0.5,37.81,,,,,,,,,,
15.41.14.242,1.1,0.3,0,23.0,,63274.7,15.8,0.47,0.55,0.66,2.1,2.2,0.6,37.81,,,,,,,,,,
15.41.14.254,47.4,11.8,0,23.0,,59197.6,16.89,0.47,0.56,0.69,2.4,0.8,1.8,37.81,,,,,,,,,,
15.41.14.262,33.9,8.5,0,23.0,,56063.7,17.84,0.47,0.55,0.67,2.6,1.2,2.2,37.81,,,,,,,,,,
15.41.14.274,40.0,10.0,0,23.0,,61513.6,16.26,0.48,0.57,0.66,2.6,2.2,0.4,37.81,,,,,,,,,,
15.41.14.283,145.7,36.4,0,23.0,,62240.5,16.07,0.48,0.56,0.66,1.4,2.6,0.7,37.81,,,,,,,,,,
15.41.14.295,139.3,34.8,0,23.0,,60751.5,16.46,0.48,0.55,0.65,1.8,3.0,0.4,37.81,,,,,,,,,,
15.41.14.307,106.2,26.6,0,23.0,,58242.4,17.17,0.48,0.55,0.65,1.8,4.7,-0.6,37.81,,,,,,,,,,
15.41.14.344,-7.1,1.8,0,23.0,,64601.1,15.48,0.48,0.57,0.66,3.9,5.1,-2.6,37.81,,,,,,,,,,
15.41.14.356,51.5,12.9,0,23.0,,64789.3,15.43,0.48,0.57,0.67,3.2,5.5,-3.1,37.81,,,,,,,,,,
15.41.14.369,-34.8,8.7,0,23.0,,62853.8,15.91,0.47,0.56,0.65,3.4,5.2,-3.2,37.81,,,,,,,,,,
15.41.14.377,-1.6,0.4,0,23.0,,56226.8,17.79,0.48,0.56,0.65,3.7,5.2,-3.2,37.81,,,,,,,,,,
15.41.14.389,-102.3,25.6,0,23.0,,58837.7,17.0,0.47,0.57,0.66,3.7,5.1,-3.0,37.81,,,,,,,,,,
15.41.14.401,-47.2,11.8,0,23.0,,63810.3,15.67,0.47,0.56,0.66,3.0,5.8,-2.6,37.81,,,,,,,,,,
15.41.14.410,-10.3,2.6,0,23.0,,61321.5,16.31,0.48,0.56,0.66,3.4,5.6,-2.6,37.81,,,,,,,,,,
15.41.14.422,-59.2,14.8,0,23.0,,57716.8,17.33,0.48,0.55,0.66,4.3,4.7,-2.9,37.81,,,,,,,,,,
15.41.14.434,-70.6,17.6,0,23.0,,60787.2,16.45,0.48,0.56,0.66,5.2,4.5,-3.9,37.81,,,,,,,,,,
15.41.14.442,-100.8,25.2,0,23.0,,63878.7,15.65,0.49,0.57,0.66,5.9,4.5,-3.8,37.81,,,,,,,,,,
15.41.14.455,-59.2,14.8,0,23.0,,58858.2,16.99,0.48,0.57,0.66,5.3,4.8,-4.1,37.81,,,,,,,,,,
15.41.14.467,-37.0,9.2,0,23.0,,66618.3,15.01,0.48,0.57,0.66,3.2,5.4,-3.2,37.81,,,,,,,,,,
15.41.14.475,-76.0,19.0,0,23.0,,60416.2,16.55,0.48,0.57,0.65,2.3,5.7,-2.9,37.81,,,,,,,,,,
15.41.14.487,-128.0,32.0,0,23.0,,60414.0,16.55,0.48,0.57,0.66,1.6,6.4,-2.2,37.81,,,,,,,,,,
15.41.14.500,-96.6,24.2,0,23.0,,62305.6,16.05,0.47,0.57,0.66,1.6,6.1,-2.0,37.81,,,,,,,,,,
15.41.14.508,-77.9,19.5,0,23.0,,62366.2,16.03,0.47,0.57,0.65,1.5,6.1,-1.6,37.81,,,,,,,,,,
15.41.14.520,-50.6,12.6,0,23.0,,59710.0,16.75,0.48,0.56,0.67,2.2,6.4,-2.2,37.81,,,,,,,,,,
15.41.14.529,-188.6,47.2,0,23.0,,56878.3,17.58,0.47,0.57,0.66,2.6,6.3,-2.4,37.81,,,,,,,,,,
15.41.14.541,-117.3,29.3,0,23.0,,61319.0,16.31,0.48,0.57,0.66,2.3,5.9,-2.3,37.81,,,,,,,,,,
15.41.14.553,-104.3,26.1,0,23.0,,63059.6,15.86,0.48,0.57,0.65,2.0,5.7,-1.9,37.81,,,,,,,,,,
15.41.14.561,-136.9,34.2,0,23.0,,61261.8,16.32,0.48,0.58,0.65,1.6,5.8,-2.2,37.81,,,,,,,,,,
15.41.14.573,-139.1,34.8,0,23.0,,57073.7,17.52,0.48,0.58,0.66,0.9,6.1,-1.8,37.81,,,,,,,,,,
15.41.14.586,-146.1,36.5,0,23.0,,59011.0,16.95,0.48,0.57,0.66,0.5,6.3,-1.5,37.81,,,,,,,,,,
15.41.14.594,-123.5,30.9,0,23.0,,64737.5,15.45,0.47,0.57,0.65,0.1,6.4,-1.4,37.81,,,,,,,,,,
15.41.14.606,-202.4,50.6,0,23.0,,60206.0,16.61,0.47,0.57,0.65,0.4,6.5,-1.1,37.81,,,,,,,,,,
15.41.14.618,-200.8,50.2,0,23.0,,58308.5,17.15,0.48,0.56,0.65,0.9,5.8,-1.5,37.81,,,,,,,,,,
15.41.14.627,-238.0,59.5,0,23.0,,60413.0,16.55,0.48,0.57,0.65,0.7,5.9,-1.6,37.81,,,,,,,,,,
15.41.14.639,10.9,2.7,1,24.0,95.0,57966.8,17.25,0.48,0.57,0.66,1.2,5.2,-1.8,37.81,,,,,,,,,,
15.41.14.651,79.2,19.8,0,24.0,,60931.0,16.41,0.47,0.57,0.65,1.6,5.2,-1.6,37.81,,,,,,,,,,
15.41.14.659,217.3,54.3,0,24.0,,61168.0,16.35,0.48,0.57,0.65,0.8,5.0,-1.1,37.81,,,,,,,,,,
15.41.14.672,302.3,75.6,0,24.0,,64192.2,15.58,0.48,0.57,0.65,0.3,5.3,-1.1,37.81,,,,,,,,,,
15.41.14.684,360.3,90.1,0,24.0,,60397.7,16.56,0.47,0.58,0.65,-0.1,6.3,-1.0,37.81,,,,,,,,,,
15.41.14.693,428.8,107.2,0,24.0,,59643.1,16.77,0.48,0.57,0.66,-0.4,6.4,-0.9,37.81,,,,,,,,,,
15.41.14.705,426.5,106.6,0,24.0,,54466.8,18.36,0.48,0.57,0.66,-0.2,6.2,-0.7,37.81,,,,,,,,,,
15.41.14.717,483.6,120.9,0,24.0,,66963.3,14.93,0.48,0.57,0.65,-0.5,6.3,-0.8,37.81,,,,,,,,,,
15.41.14.725,448.0,112.0,0,24.0,,63532.8,15.74,0.48,0.57,0.66,-0.8,6.1,-1.1,37.81,,,,,,,,,,
15.41.14.737,532.2,133.0,0,24.0,,64280.3,15.56,0.48,0.56,0.65,0.5,6.1,-1.3,37.81,,,,,,,,,,
15.41.14.750,546.5,136.6,0,24.0,,62114.2,16.1,0.47,0.56,0.67,0.3,6.1,-1.5,37.81,,,,,,,,,,
15.41.14.758,394.6,98.6,0,24.0,,60780.8,16.45,0.48,0.57,0.66,0.2,5.5,-1.5,37.81,,,,,,,,,,
15.41.14.770,420.4,105.1,0,24.0,,60198.1,16.61,0.48,0.57,0.66,0.8,5.5,-1.7,37.81,,,,,,,,,,
15.41.14.782,490.4,122.6,0,24.0,,56633.0,17.66,0.48,0.57,0.66,0.4,5.8,-1.1,37.81,,,,,,,,,,
15.41.14.791,293.8,73.4,0,24.0,,52812.1,18.94,0.48,0.57,0.66,0.3,6.1,-0.8,37.81,,,,,,,,,,
15.41.14.803,335.7,83.9,0,24.0,,61110.1,16.36,0.48,0.57,0.66,-0.2,6.3,-0.9,37.81,,,,,,,,,,
15.41.14.815,194.4,48.6,0,24.0,,62409.8,16.02,0.47,0.57,0.66,0.1,6.5,-0.8,37.81,,,,,,,,,,
15.41.14.823,239.0,59.8,0,24.0,,59762.3,16.73,0.48,0.56,0.66,0.1,6.0,-0.9,37.81,,,,,,,,,,
15.41.14.836,101.7,25.4,0,24.0,,62422.7,16.02,0.47,0.56,0.66,0.3,5.8,-1.2,37.81,,,,,,,,,,
15.41.14.848,22.0,5.5,0,24.0,,59139.3,16.91,0.48,0.56,0.66,1.1,5.5,-1.7,37.81,,,,,,,,,,
15.41.14.856,-18.0,4.5,0,24.0,,63437.0,15.76,0.48,0.57,0.66,1.6,5.3,-2.0,37.81,,,,,,,,,,
15.41.14.868,32.1,8.0,0,24.0,,60849.7,16.43,0.48,0.57,0.66,1.6,4.3,-1.3,37.81,,,,,,,,,,
15.41.14.881,60.7,15.2,0,24.0,,63355.6,15.78,0.48,0.58,0.65,1.1,4.7,-1.3,37.81,,,,,,,,,,
15.41.14.889,111.8,28.0,0,24.0,,62084.1,16.11,0.47,0.58,0.65,-0.5,5.8,-1.0,37.81,,,,,,,,,,
15.41.14.901,49.8,12.4,0,24.0,,54628.3,18.31,0.48,0.57,0.66,0.2,5.9,-1.0,37.81,,,,,,,,,,
15.41.14.913,72.0,18.0,0,24.0,,58917.0,16.97,0.48,0.58,0.67,0.3,5.9,-0.8,37.81,,,,,,,,,,
15.41.14.922,102.2,25.6,0,24.0,,61334.1,16.3,0.48,0.56,0.65,0.2,6.2,-1.0,37.81,,,,,,,,,,
15.41.14.934,74.2,18.6,0,24.0,,59002.3,16.95,0.48,0.56,0.66,1.5,6.3,-1.5,37.81,,,,,,,,,,
15.41.14.946,47.2,11.8,0,24.0,,62190.1,16.08,0.48,0.57,0.66,1.8,5.9,-1.7,37.81,,,,,,,,,,
15.41.14.954,14.0,3.5,0,24.0,,59827.3,16.71,0.48,0.56,0.66,1.9,5.4,-1.8,37.81,,,,,,,,,,
15.41.14.967,-19.9,5.0,0,24.0,,62507.0,16.0,0.48,0.57,0.66,1.9,5.7,-2.0,37.81,,,,,,,,,,
15.41.14.979,-65.3,16.3,0,24.0,,58979.5,16.96,0.48,0.57,0.66,0.6,5.9,-1.6,37.81,,,,,,,,,,
15.41.14.991,-25.3,6.3,0,24.0,,55117.5,18.14,0.48,0.58,0.65,0.9,5.9,-1.3,37.81,,,,,,,,,,
15.41.14.999,-52.2,13.0,0,24.0,,59971.6,16.67,0.47,0.58,0.65,0.2,6.0,-1.1,37.81,,,,,,,,,,
15.41.15.012,-24.7,6.2,0,24.0,,59537.7,16.8,0.48,0.57,0.66,-0.2,6.0,-0.6,37.81,,,,,,,,,,
15.41.15.020,-33.4,8.4,0,24.0,,66697.7,14.99,0.47,0.57,0.65,-1.0,6.8,-0.4,37.81,,,,,,,,,,
15.41.15.033,-54.5,13.6,0,24.0,,61408.2,16.28,0.48,0.57,0.65,-1.4,7.4,-0.5,37.81,,,,,,,,,,
15.41.15.045,-87.6,21.9,0,24.0,,60613.8,16.5,0.48,0.57,0.66,-2.4,6.2,-0.7,37.81,,,,,,,,,,
15.41.15.053,-61.7,15.4,0,24.0,,58753.3,17.02,0.49,0.57,0.68,5.4,5.9,-2.0,37.81,,,,,,,,,,
15.41.15.065,-34.7,8.7,0,24.0,,60766.6,16.46,0.48,0.58,0.66,-3.5,4.3,-1.2,37.81,,,,,,,,,,
15.41.15.077,-44.3,11.1,0,24.0,,65599.7,15.24,0.48,0.56,0.62,0.8,6.2,-0.9,37.81,,,,,,,,,,
15.41.15.090,-109.9,27.5,0,24.0,,64601.6,15.48,0.47,0.58,0.65,1.2,5.2,-2.8,37.81,,,,,,,,,,
15.41.15.098,-109.7,27.4,0,24.0,,63474.4,15.75,0.49,0.59,0.67,0.3,5.3,-1.2,37.81,,,,,,,,,,
15.41.15.110,-110.4,27.6,0,24.0,,57738.0,17.32,0.47,0.57,0.66,-0.2,5.5,-0.9,37.81,,,,,,,,,,
15.41.15.151,-59.1,14.8,0,24.0,,64043.5,15.61,0.48,0.57,0.66,0.2,6.7,-1.4,37.81,97.8,,,,,,,,,
15.41.15.159,-141.7,35.4,0,24.0,,58788.8,17.01,0.48,0.56,0.66,0.0,7.0,-1.5,37.81,,,,,,,,,,
15.41.15.172,-210.0,52.5,0,24.0,,61809.0,16.18,0.48,0.57,0.65,0.1,7.0,-1.9,37.81,,,,,,,,,,
15.41.15.184,-116.0,29.0,0,24.0,,57994.1,17.24,0.48,0.57,0.66,-0.6,6.0,-1.5,37.81,,,,,,,,,,
15.41.15.192,-200.1,50.0,0,24.0,,61684.0,16.21,0.48,0.57,0.66,0.5,6.0,-2.1,37.81,,,,,,,,,,
