timestamp,ppg,threshold,beat,beat_count,inst_bpm,gsr_resistance_ohm,gsr_conductance_us,accel_x,accel_y,accel_z,gyro_x,gyro_y,gyro_z,temp_c,window_bpm,window_temp_c,status_message,SpO2,bmi,age,height,weight,env_temp_c,env_humidity_pct
13.35.03.670,,,0,,,,,-0.21,0.65,0.72,0.5,6.2,-1.1,31.12,102.4,,,99.0,17.9,21.0,160.02,45.76,31.44,45.0
13.35.03.674,18.2,4.6,0,,,93499.5,10.7,-0.21,0.65,0.72,0.4,6.8,-1.7,31.12,,,,,,,,,,
13.35.03.686,75.6,18.9,0,,,91866.6,10.89,-0.21,0.65,0.71,-0.2,4.1,-1.4,31.12,,,,,,,,,,
13.35.03.694,113.6,28.4,0,,,93630.9,10.68,-0.21,0.65,0.71,0.3,5.5,-1.7,31.12,,,,,,,,,,
13.35.03.731,262.7,65.7,0,,,92240.4,10.84,-0.21,0.65,0.72,-0.1,4.9,-1.2,31.12,,,,,,,,,,
13.35.03.744,252.4,63.1,0,,,92553.0,10.8,-0.21,0.65,0.72,0.4,5.1,-1.5,31.12,,,,,,,,,,
13.35.03.752,291.7,72.9,0,,,91950.6,10.88,-0.21,0.65,0.73,0.9,5.4,-0.9,31.12,,,,,,,,,,
13.35.03.764,316.4,79.1,0,,,93552.4,10.69,-0.22,0.65,0.72,0.8,6.0,-1.2,31.12,,,,,,,,,,
13.35.03.772,326.9,81.7,0,,,92273.0,10.84,-0.2,0.65,0.71,0.3,5.2,-1.2,31.12,,,,,,,,,,
13.35.03.785,317.3,79.3,0,,,92200.9,10.85,-0.2,0.64,0.72,0.5,5.5,-1.1,31.12,,,,,,,,,,
13.35.03.793,304.3,76.1,0,,,93265.3,10.72,-0.21,0.65,0.72,0.4,6.8,-1.8,31.12,,,,,,,,,,
13.35.03.805,324.2,81.0,0,,,93599.6,10.68,-0.2,0.64,0.71,0.3,6.6,-1.4,31.12,,,,,,,,,,
13.35.03.817,267.1,66.8,0,,,92578.4,10.8,-0.21,0.65,0.72,0.5,5.2,-1.1,31.12,,,,,,,,,,
13.35.03.826,233.5,58.4,0,,,91630.1,10.91,-0.21,0.65,0.72,0.1,6.0,-1.7,31.12,,,,,,,,,,
13.35.03.839,186.6,46.6,0,,,93441.1,10.7,-0.2,0.65,0.72,0.6,5.6,-1.4,31.12,,,,,,,,,,
13.35.03.846,171.9,43.0,0,,,91950.1,10.88,-0.21,0.65,0.72,1.1,5.4,-1.1,31.12,,,,,,,,,,
13.35.03.858,107.4,26.8,0,,,92302.4,10.83,-0.21,0.65,0.72,0.9,6.4,-0.8,31.12,,,,,,,,,,
13.35.03.866,64.5,16.1,0,,,92421.0,10.82,-0.21,0.64,0.72,0.6,5.4,-1.3,31.12,,,,,,,,,,
13.35.03.879,1.9,0.5,0,,,92263.5,10.84,-0.22,0.65,0.72,0.1,5.6,-1.3,31.12,,,,,,,,,,
13.35.03.887,12.0,3.0,0,,,92376.8,10.83,-0.21,0.65,0.72,0.7,5.7,-1.3,31.12,,,,,,,,,,
13.35.03.899,27.2,6.8,0,,,92907.1,10.76,-0.21,0.65,0.72,0.2,5.7,-1.3,31.12,,,,,,,,,,
13.35.03.907,39.5,9.9,0,,,92158.4,10.85,-0.21,0.65,0.72,-0.5,5.2,-1.4,31.12,,,,,,,,,,
13.35.03.920,49.0,12.2,0,,,92126.4,10.85,-0.21,0.65,0.72,0.7,6.0,-1.4,31.12,,,,,,,,,,
13.35.03.928,46.2,11.6,0,,,92733.6,10.78,-0.2,0.65,0.72,1.1,6.7,-0.8,31.12,,,,,,,,,,
13.35.03.940,54.8,13.7,0,,,93263.4,10.72,-0.21,0.65,0.72,0.4,4.5,-1.0,31.12,,,,,,,,,,
13.35.03.948,49.2,12.3,0,,,92382.6,10.82,-0.21,0.65,0.72,0.0,7.4,-1.8,31.12,,,,,,,,,,
13.35.03.961,48.4,12.1,0,,,92356.8,10.83,-0.21,0.65,0.72,0.4,3.9,-0.7,31.12,,,,,,,,,,
13.35.03.969,40.8,10.2,0,,,93228.5,10.73,-0.22,0.65,0.73,0.0,6.2,-1.4,31.12,,,,,,,,,,
13.35.03.981,22.5,5.6,0,,,92557.1,10.8,-0.22,0.65,0.72,0.3,5.6,-1.4,31.12,,,,,,,,,,
13.35.03.989,14.9,3.7,0,,,91866.0,10.89,-0.21,0.65,0.73,0.2,5.7,-1.4,31.12,,,,,,,,,,
13.35.04.002,2.4,0.6,0,,,91188.8,10.97,-0.21,0.65,0.72,0.1,4.8,-1.2,31.12,,,,,,,,,,
13.35.04.010,-7.0,1.8,0,,,91868.2,10.89,-0.21,0.65,0.72,0.1,5.5,-1.2,31.12,,,,,,,,,,
13.35.04.022,-11.7,2.9,0,,,91920.9,10.88,-0.21,0.65,0.72,0.6,6.3,-0.9,31.12,,,,,,,,,,
13.35.04.030,2.9,0.7,0,,,91944.9,10.88,-0.21,0.65,0.71,0.6,5.3,-0.9,31.12,,,,,,,,,,
13.35.04.043,-26.1,6.5,0,,,92395.1,10.82,-0.21,0.64,0.72,0.1,6.0,-1.1,31.12,,,,,,,,,,
13.35.04.051,-31.2,7.8,0,,,90688.2,11.03,-0.21,0.64,0.72,0.9,5.8,-0.9,31.12,,,,,,,,,,
13.35.04.063,-34.1,8.5,0,,,92741.1,10.78,-0.21,0.65,0.73,1.3,6.5,-0.9,31.12,,,,,,,,,,
13.35.04.071,-16.6,4.2,0,,,92156.4,10.85,-0.21,0.65,0.72,0.7,5.9,-1.2,31.12,,,,,,,,,,
13.35.04.084,-38.8,9.7,0,,,93007.0,10.75,-0.21,0.65,0.72,1.2,6.8,-1.0,31.12,,,,,,,,,,
13.35.04.094,-51.7,12.9,0,,,93323.9,10.72,-0.21,0.65,0.72,1.3,5.4,-0.5,31.12,,,,,,,,,,
13.35.04.104,-48.2,12.0,0,,,91714.0,10.9,-0.21,0.65,0.72,0.4,5.7,-1.4,31.12,,,,,,,,,,
13.35.04.113,-49.6,12.4,0,,,91983.4,10.87,-0.21,0.65,0.72,0.1,5.3,-1.0,31.12,,,,,,,,,,
13.35.04.125,-68.1,17.0,0,,,92597.4,10.8,-0.21,0.64,0.72,0.6,6.0,-1.1,31.12,,,,,,,,,,
13.35.04.137,-65.1,16.3,0,,,92405.9,10.82,-0.21,0.65,0.72,0.5,6.1,-1.0,31.12,,,,,,,,,,
13.35.04.150,-51.1,12.8,0,,,91599.5,10.92,-0.21,0.65,0.72,0.5,5.6,-1.0,31.12,,,,,,,,,,
13.35.04.157,-69.5,17.4,0,,,92221.1,10.84,-0.21,0.65,0.72,0.8,5.7,-1.0,31.12,,,,,,,,,,
13.35.04.170,-81.5,20.4,0,,,92667.9,10.79,-0.21,0.65,0.72,0.9,5.6,-0.6,31.12,,,,,,,,,,
13.35.04.180,-82.7,20.7,0,,,91521.6,10.93,-0.21,0.65,0.72,0.7,5.6,-0.8,31.12,,,,,,,,,,
13.35.04.190,-82.4,20.6,0,,,91405.1,10.94,-0.2,0.65,0.72,0.9,6.1,-0.8,31.12,,,,,,,,,,
13.35.04.198,-101.2,25.3,0,,,91365.5,10.95,-0.21,0.64,0.72,1.0,5.5,-1.1,31.12,,,,,,,,,,
13.35.04.211,-110.1,27.5,0,,,90951.7,10.99,-0.21,0.65,0.72,0.7,6.0,-1.6,31.12,,,,,,,,,,
13.35.04.219,-98.3,24.6,0,,,91967.6,10.87,-0.21,0.66,0.72,0.9,6.3,-1.0,31.12,,,,,,,,,,
13.35.04.231,-100.7,25.2,0,,,92615.6,10.8,-0.21,0.66,0.72,0.5,5.3,-1.3,31.12,,,,,,,,,,
13.35.04.239,-98.8,24.7,0,,,92364.7,10.83,-0.21,0.65,0.71,0.1,6.1,-1.5,31.12,,,,,,,,,,
13.35.04.252,-120.1,30.0,0,,,90718.2,11.02,-0.22,0.65,0.72,0.5,6.1,-1.4,31.12,,,,,,,,,,
13.35.04.260,-121.0,30.2,0,,,90901.0,11.0,-0.21,0.65,0.72,0.4,5.2,-1.2,31.12,,,,,,,,,,
13.35.04.272,11.7,2.9,1,1.0,103.1,91369.9,10.94,-0.21,0.64,0.72,0.1,6.0,-1.4,31.12,,,,,,,,,,
13.35.04.280,49.1,12.3,0,1.0,,92095.2,10.86,-0.21,0.64,0.72,0.6,6.1,-1.1,31.12,,,,,,,,,,
13.35.04.293,110.4,27.6,0,1.0,,91591.9,10.92,-0.2,0.65,0.72,1.0,6.5,-1.1,31.12,,,,,,,,,,
13.35.04.301,145.8,36.4,0,1.0,,90864.6,11.01,-0.21,0.65,0.72,1.1,6.0,-1.1,31.12,,,,,,,,,,
13.35.04.313,174.1,43.5,0,1.0,,91462.6,10.93,-0.21,0.65,0.72,0.3,5.8,-1.2,31.12,,,,,,,,,,
13.35.04.322,241.0,60.2,0,1.0,,91854.8,10.89,-0.21,0.65,0.72,0.2,6.4,-1.3,31.12,,,,,,,,,,
13.35.04.333,271.6,67.9,0,1.0,,92190.1,10.85,-0.21,0.65,0.71,0.5,6.1,-1.4,31.12,,,,,,,,,,
13.35.04.342,269.7,67.4,0,1.0,,90488.8,11.05,-0.21,0.65,0.72,0.4,5.7,-1.3,31.12,,,,,,,,,,
13.35.04.354,303.0,75.8,0,1.0,,93080.3,10.74,-0.21,0.65,0.72,0.4,5.3,-1.6,31.12,,,,,,,,,,
13.35.04.362,319.2,79.8,0,1.0,,91533.1,10.93,-0.21,0.65,0.72,0.3,5.9,-0.9,31.12,,,,,,,,,,
13.35.04.374,314.8,78.7,0,1.0,,93332.5,10.71,-0.21,0.65,0.71,1.0,6.6,-1.2,31.12,,,,,,,,,,
13.35.04.383,316.3,79.1,0,1.0,,93102.8,10.74,-0.21,0.65,0.72,1.5,6.2,-0.5,31.12,,,,,,,,,,
13.35.04.395,329.8,82.4,0,1.0,,91444.4,10.94,-0.21,0.65,0.72,0.6,4.5,-1.0,31.12,,,,,,,,,,
13.35.04.403,272.5,68.1,0,1.0,,92932.4,10.76,-0.22,0.65,0.72,0.6,7.1,-1.1,31.12,,,,,,,,,,
13.35.04.415,251.6,62.9,0,1.0,,92880.8,10.77,-0.21,0.65,0.7,0.6,4.8,-0.8,31.12,,,,,,,,,,
13.35.04.424,236.0,59.0,0,1.0,,91855.5,10.89,-0.21,0.65,0.72,0.2,6.4,-1.4,31.12,,,,,,,,,,
13.35.04.436,212.3,53.1,0,1.0,,92454.8,10.82,-0.21,0.65,0.72,0.4,5.3,-1.2,31.12,,,,,,,,,,
13.35.04.444,151.6,37.9,0,1.0,,92661.5,10.79,-0.21,0.65,0.72,0.5,5.8,-1.4,31.12,,,,,,,,,,
13.35.04.456,138.7,34.7,0,1.0,,92686.7,10.79,-0.21,0.65,0.72,0.0,4.8,-1.4,31.12,,,,,,,,,,
13.35.04.465,81.0,20.2,0,1.0,,91632.4,10.91,-0.21,0.64,0.72,0.6,5.2,-1.3,31.12,,,,,,,,,,
13.35.04.477,22.8,5.7,0,1.0,,92952.2,10.76,-0.21,0.64,0.71,0.5,6.8,-1.3,31.12,,,,,,,,,,
13.35.04.485,0.2,0.0,0,1.0,,92379.6,10.82,-0.22,0.65,0.72,0.7,5.0,-1.3,31.12,,,,,,,,,,
13.35.04.497,14.5,3.6,0,1.0,,92297.6,10.83,-0.21,0.65,0.72,-0.3,6.3,-1.5,31.12,,,,,,,,,,
13.35.04.535,53.5,13.4,0,1.0,,89546.9,11.17,-0.21,0.65,0.72,0.5,5.6,-1.2,31.12,,,,,,,,,,
13.35.04.543,63.2,15.8,0,1.0,,93719.9,10.67,-0.21,0.65,0.72,2.0,6.6,-1.0,31.12,,,,,,,,,,
13.35.04.556,49.9,12.5,0,1.0,,91112.1,10.98,-0.21,0.65,0.71,0.8,5.5,-1.3,31.12,,,,,,,,,,
13.35.04.563,56.7,14.2,0,1.0,,92872.5,10.77,-0.21,0.65,0.72,-0.2,5.4,-1.8,31.12,,,,,,,,,,
13.35.04.575,32.7,8.2,0,1.0,,92879.5,10.77,-0.21,0.65,0.72,0.5,6.6,-1.7,31.12,,,,,,,,,,
13.35.04.588,14.2,3.6,0,1.0,,92094.7,10.86,-0.21,0.65,0.73,0.2,5.1,-1.4,31.12,,,,,,,,,,
13.35.04.596,7.2,1.8,0,1.0,,92341.5,10.83,-0.2,0.65,0.72,-0.8,4.6,-1.6,31.12,,,,,,,,,,
13.35.04.609,-12.7,3.2,0,1.0,,91723.0,10.9,-0.21,0.65,0.72,0.4,5.4,-1.4,31.12,,,,,,,,,,
13.35.04.616,-2.1,0.5,0,1.0,,92497.9,10.81,-0.21,0.64,0.71,0.7,6.1,-1.1,31.12,,,,,,,,,,
13.35.04.628,-10.8,2.7,0,1.0,,92285.5,10.84,-0.21,0.64,0.72,0.4,5.4,-1.1,31.12,,,,,,,,,,
13.35.04.638,-13.8,3.4,0,1.0,,90845.0,11.01,-0.21,0.64,0.72,0.5,6.5,-1.2,31.12,,,,,,,,,,
13.35.04.649,-23.8,6.0,0,1.0,,92020.4,10.87,-0.21,0.65,0.72,1.4,6.9,-0.6,31.12,,,,,,,,,,
13.35.04.657,-29.0,7.2,0,1.0,,91715.1,10.9,-0.2,0.65,0.72,1.0,5.9,-1.1,31.12,,,,,,,,,,
13.35.04.670,-30.3,7.6,0,1.0,,92384.2,10.82,-0.21,0.66,0.71,0.5,6.8,-1.5,31.12,,,,,,,,,,
13.35.04.678,-34.8,8.7,0,1.0,,93504.2,10.69,-0.21,0.65,0.72,0.8,5.0,-0.8,31.12,,,,,,,,,,
13.35.04.690,-37.6,9.4,0,1.0,,92794.8,10.78,-0.21,0.65,0.72,0.1,5.7,-1.2,31.12,,,,,,,,,,
13.35.04.698,-49.7,12.4,0,1.0,,91668.6,10.91,-0.21,0.65,0.72,0.3,5.1,-1.3,31.12,,,,,,,,,,
13.35.04.710,-47.6,11.9,0,1.0,,92255.9,10.84,-0.21,0.65,0.72,0.6,6.2,-0.9,31.12,,,,,,,,,,
13.35.04.719,-61.5,15.4,0,1.0,,90799.0,11.01,-0.21,0.65,0.71,0.6,4.7,-0.8,31.12,,,,,,,,,,
13.35.04.732,-72.3,18.1,0,1.0,,92579.0,10.8,-0.21,0.65,0.72,0.5,7.1,-1.3,31.12,,,,,,,,,,
13.35.04.743,-64.4,16.1,0,1.0,,92086.1,10.86,-0.21,0.65,0.71,1.6,5.1,-0.6,31.12,,,,,,,,,,
13.35.04.751,-69.8,17.4,0,1.0,,90800.2,11.01,-0.21,0.65,0.72,0.7,6.5,-1.5,31.12,,,,,,,,,,
13.35.04.764,-81.1,20.3,0,1.0,,94365.5,10.6,-0.21,0.65,0.72,0.4,5.0,-1.1,31.12,,,,,,,,,,
13.35.04.772,-88.0,22.0,0,1.0,,93534.5,10.69,-0.21,0.65,0.72,0.6,5.8,-1.3,31.12,,,,,,,,,,
13.35.04.784,-87.2,21.8,0,1.0,,91200.6,10.96,-0.21,0.66,0.72,0.3,5.7,-1.3,31.12,,,,,,,,,,
13.35.04.792,-89.8,22.4,0,1.0,,91865.4,10.89,-0.21,0.65,0.71,-0.1,5.4,-1.6,31.12,,,,,,,,,,
13.35.04.805,-104.6,26.2,0,1.0,,92003.7,10.87,-0.21,0.65,0.72,0.5,5.7,-1.6,31.12,,,,,,,,,,
13.35.04.813,-114.9,28.7,0,1.0,,93931.9,10.65,-0.21,0.65,0.72,0.5,5.9,-1.5,31.12,,,,,,,,,,
13.35.04.825,-114.9,28.7,0,1.0,,92595.2,10.8,-0.21,0.65,0.72,0.1,4.4,-1.8,31.12,,,,,,,,,,
13.35.04.833,-124.9,31.2,0,1.0,,91378.5,10.94,-0.21,0.64,0.72,-0.2,4.8,-1.7,31.12,,,,,,,,,,
13.35.04.846,-135.2,33.8,0,1.0,,92049.8,10.86,-0.21,0.65,0.72,1.0,5.8,-1.4,31.12,,,,,,,,,,
13.35.04.854,-109.8,27.4,0,1.0,,92462.9,10.82,-0.21,0.65,0.71,0.7,5.5,-1.7,31.12,,,,,,,,,,
13.35.04.866,-104.5,26.1,0,1.0,,91292.9,10.95,-0.21,0.65,0.71,-0.1,5.4,-1.7,31.12,,,,,,,,,,
13.35.04.874,23.2,5.8,1,2.0,98.9,93382.2,10.71,-0.21,0.65,0.72,0.1,5.0,-1.5,31.12,,,,,,,,,,
13.35.04.887,72.4,18.1,0,2.0,,92080.0,10.86,-0.21,0.65,0.72,0.4,5.2,-1.5,31.12,,,,,,,,,,
13.35.04.895,115.1,28.8,0,2.0,,92182.6,10.85,-0.21,0.65,0.72,0.7,6.5,-1.4,31.12,,,,,,,,,,
13.35.04.907,186.5,46.6,0,2.0,,92697.4,10.79,-0.21,0.65,0.72,0.9,5.4,-1.2,31.12,,,,,,,,,,
13.35.04.915,168.8,42.2,0,2.0,,91006.2,10.99,-0.21,0.65,0.73,0.5,5.7,-1.5,31.12,,,,,,,,,,
13.35.04.927,229.3,57.3,0,2.0,,90737.5,11.02,-0.21,0.65,0.72,0.9,6.6,-1.4,31.12,,,,,,,,,,
13.35.04.936,272.3,68.1,0,2.0,,92291.7,10.84,-0.21,0.65,0.72,0.8,5.5,-0.9,31.12,,,,,,,,,,
13.35.04.948,305.2,76.3,0,2.0,,92194.0,10.85,-0.2,0.65,0.72,0.4,5.5,-1.3,31.12,,,,,,,,,,
13.35.04.956,307.1,76.8,0,2.0,,92318.0,10.83,-0.21,0.64,0.72,0.4,5.4,-0.9,31.12,,,,,,,,,,
13.35.04.968,332.6,83.2,0,2.0,,92030.4,10.87,-0.21,0.65,0.71,0.8,5.3,-1.0,31.12,,,,,,,,,,
13.35.04.978,350.0,87.5,0,2.0,,92587.7,10.8,-0.21,0.65,0.72,0.5,6.2,-1.2,31.12,,,,,,,,,,
13.35.04.989,314.1,78.5,0,2.0,,91331.5,10.95,-0.22,0.65,0.72,-0.2,4.8,-1.2,31.12,,,,,,,,,,
13.35.04.997,308.1,77.0,0,2.0,,92430.8,10.82,-0.21,0.65,0.73,0.5,6.1,-1.2,31.12,,,,,,,,,,
13.35.05.009,262.8,65.7,0,2.0,,91640.9,10.91,-0.22,0.65,0.71,1.0,6.6,-1.4,31.12,,,,,,,,,,
13.35.05.018,245.1,61.3,0,2.0,,91670.2,10.91,-0.21,0.64,0.71,0.2,5.6,-1.6,31.12,,,,,,,,,,
13.35.05.030,220.3,55.1,0,2.0,,91742.6,10.9,-0.21,0.65,0.72,0.5,6.2,-1.5,31.12,,,,,,,,,,
13.35.05.038,185.8,46.4,0,2.0,,91880.0,10.88,-0.21,0.65,0.71,0.7,5.3,-0.9,31.12,,,,,,,,,,
13.35.05.050,147.2,36.8,0,2.0,,90897.0,11.0,-0.2,0.65,0.72,0.1,5.6,-1.7,31.12,,,,,,,,,,
13.35.05.059,101.7,25.4,0,2.0,,91858.0,10.89,-0.21,0.65,0.72,0.5,6.4,-1.6,31.12,,,,,,,,,,
13.35.05.071,44.9,11.2,0,2.0,,92560.2,10.8,-0.21,0.65,0.71,0.7,5.8,-1.3,31.12,,,,,,,,,,
13.35.05.079,7.6,1.9,0,2.0,,91761.7,10.9,-0.21,0.65,0.72,0.2,5.4,-1.4,31.12,,,,,,,,,,
13.35.05.091,17.9,4.5,0,2.0,,91377.0,10.94,-0.2,0.64,0.72,0.1,4.5,-1.4,31.12,,,,,,,,,,
13.35.05.100,28.1,7.0,0,2.0,,92020.5,10.87,-0.2,0.63,0.71,0.8,5.8,-1.6,31.12,,,,,,,,,,
13.35.05.113,54.0,13.5,0,2.0,,91188.1,10.97,-0.2,0.62,0.72,1.2,5.5,-1.6,31.12,,,,,,,,,,
13.35.05.120,40.0,10.0,0,2.0,,92074.9,10.86,-0.25,0.67,0.72,2.9,5.8,-2.0,31.12,,,,,,,,,,
13.35.05.133,60.3,15.1,0,2.0,,93072.6,10.74,-0.27,0.67,0.73,-5.3,9.2,-0.7,31.12,,,,,,,,,,
13.35.05.141,56.3,14.1,0,2.0,,92872.3,10.77,-0.21,0.66,0.65,0.1,5.5,-3.5,31.12,,,,,,,,,,
13.35.05.153,53.4,13.4,0,2.0,,93518.2,10.69,-0.21,0.67,0.71,0.3,1.9,-0.1,31.12,,,,,,,,,,
13.35.05.165,54.7,13.7,0,2.0,,91826.3,10.89,-0.21,0.67,0.73,0.2,12.4,-1.7,31.12,,,,,,,,,,
13.35.05.173,31.5,7.9,0,2.0,,92236.3,10.84,-0.22,0.65,0.72,-0.8,0.9,-1.2,31.12,,,,,,,,,,
13.35.05.186,14.5,3.6,0,2.0,,92303.8,10.83,-0.2,0.64,0.73,-1.6,3.8,-1.6,31.12,,,,,,,,,,
13.35.05.194,15.6,3.9,0,2.0,,91533.5,10.92,-0.2,0.64,0.72,1.7,8.0,-1.2,31.12,,,,,,,,,,
13.35.05.206,-5.2,1.3,0,2.0,,91161.1,10.97,-0.21,0.65,0.72,2.4,4.4,-0.6,31.12,,,,,,,,,,
13.35.05.214,-5.6,1.4,0,2.0,,91537.1,10.92,-0.22,0.65,0.72,-0.3,7.1,-2.1,31.12,,,,,,,,,,
13.35.05.227,-20.1,5.0,0,2.0,,94117.2,10.63,-0.21,0.65,0.72,0.5,5.2,-1.3,31.12,,,,,,,,,,
13.35.05.235,-15.1,3.8,0,2.0,,93316.7,10.72,-0.21,0.65,0.72,1.0,6.3,-0.9,31.12,,,,,,,,,,
13.35.05.247,-16.2,4.0,0,2.0,,91331.1,10.95,-0.21,0.65,0.72,0.3,6.5,-1.8,31.12,,,,,,,,,,
13.35.05.255,-27.5,6.9,0,2.0,,92281.4,10.84,-0.21,0.65,0.72,0.2,5.5,-1.3,31.12,,,,,,,,,,
13.35.05.268,-27.6,6.9,0,2.0,,92014.9,10.87,-0.21,0.64,0.73,0.9,6.1,-1.0,31.12,,,,,,,,,,
13.35.05.276,-34.1,8.5,0,2.0,,91690.6,10.91,-0.21,0.64,0.73,0.9,5.5,-1.2,31.12,,,,,,,,,,
13.35.05.288,-45.9,11.5,0,2.0,,92135.7,10.85,-0.2,0.65,0.72,1.2,5.7,-1.3,31.12,,,,,,,,,,
13.35.05.296,-46.1,11.5,0,2.0,,92277.8,10.84,-0.21,0.66,0.71,1.0,5.1,-0.9,31.12,,,,,,,,,,
13.35.05.338,-50.3,12.6,0,2.0,,94049.7,10.63,-0.21,0.65,0.72,0.0,5.5,-1.3,31.06,,,,,,,,,,
13.35.05.346,-62.6,15.6,0,2.0,,92699.5,10.79,-0.21,0.64,0.72,0.5,4.9,-1.1,31.06,,,,,,,,,,
13.35.05.359,-79.2,19.8,0,2.0,,92667.9,10.79,-0.21,0.64,0.72,1.0,6.2,-1.2,31.06,,,,,,,,,,
13.35.05.366,-69.8,17.4,0,2.0,,92505.4,10.81,-0.21,0.64,0.72,1.6,6.0,-1.0,31.06,,,,,,,,,,
13.35.05.378,-68.3,17.1,0,2.0,,93316.0,10.72,-0.22,0.65,0.72,0.8,6.1,-1.7,31.06,,,,,,,,,,
13.35.05.387,-94.3,23.6,0,2.0,,91712.9,10.9,-0.21,0.66,0.72,0.6,5.5,-1.7,31.06,,,,,,,,,,
13.35.05.399,-94.6,23.6,0,2.0,,91802.6,10.89,-0.21,0.65,0.71,0.0,5.4,-1.6,31.06,,,,,,,,,,
13.35.05.407,-96.5,24.1,0,2.0,,92062.4,10.86,-0.21,0.66,0.72,-0.2,6.0,-1.7,31.06,,,,,,,,,,
13.35.05.419,-110.7,27.7,0,2.0,,93099.7,10.74,-0.21,0.65,0.72,-0.8,4.7,-1.6,31.06,,,,,,,,,,
13.35.05.427,-104.6,26.2,0,2.0,,91986.6,10.87,-0.21,0.64,0.73,0.4,5.5,-1.0,31.06,,,,,,,,,,
13.35.05.440,-124.8,31.2,0,2.0,,91099.5,10.98,-0.21,0.64,0.72,0.9,6.5,-1.3,31.06,,,,,,,,,,
13.35.05.448,-101.6,25.4,0,2.0,,92524.8,10.81,-0.21,0.65,0.72,1.5,6.7,-1.0,31.06,,,,,,,,,,
13.35.05.460,-114.3,28.6,0,2.0,,92896.7,10.76,-0.21,0.65,0.71,1.0,5.8,-0.8,31.06,,,,,,,,,,
13.35.05.469,-132.0,33.0,0,2.0,,91166.3,10.97,-0.21,0.65,0.71,-0.3,5.7,-1.7,31.06,,,,,,,,,,
13.35.05.481,59.9,15.0,1,3.0,99.6,92623.2,10.8,-0.21,0.65,0.72,0.4,5.7,-1.0,31.06,,,,,,,,,,
13.35.05.490,97.7,24.4,0,3.0,,92721.3,10.79,-0.21,0.65,0.72,0.4,5.6,-1.3,31.06,,,,,,,,,,
13.35.05.501,137.8,34.4,0,3.0,,92227.3,10.84,-0.21,0.65,0.72,-0.3,4.7,-1.5,31.06,,,,,,,,,,
13.35.05.509,171.7,42.9,0,3.0,,92836.6,10.77,-0.21,0.65,0.72,0.4,6.2,-1.2,31.06,,,,,,,,,,
13.35.05.522,230.1,57.5,0,3.0,,93124.9,10.74,-0.21,0.64,0.71,0.9,6.2,-0.9,31.06,,,,,,,,,,
13.35.05.531,261.0,65.2,0,3.0,,92418.4,10.82,-0.21,0.65,0.71,0.6,5.4,-1.3,31.06,,,,,,,,,,
13.35.05.542,288.6,72.2,0,3.0,,92959.0,10.76,-0.21,0.65,0.72,1.0,5.4,-1.0,31.06,,,,,,,,,,
13.35.05.551,304.2,76.0,0,3.0,,91691.9,10.91,-0.21,0.66,0.72,1.0,6.3,-0.9,31.06,,,,,,,,,,
13.35.05.562,318.4,79.6,0,3.0,,91245.2,10.96,-0.21,0.65,0.71,0.0,5.1,-1.3,31.06,,,,,,,,,,
13.35.05.572,325.2,81.3,0,3.0,,93396.5,10.71,-0.21,0.65,0.72,0.3,5.7,-1.1,31.06,,,,,,,,,,
13.35.05.583,323.6,80.9,0,3.0,,91752.6,10.9,-0.21,0.65,0.72,0.8,5.5,-0.9,31.06,,,,,,,,,,
13.35.05.591,303.6,75.9,0,3.0,,92145.8,10.85,-0.21,0.65,0.73,0.0,5.4,-1.6,31.06,,,,,,,,,,
13.35.05.604,279.8,70.0,0,3.0,,91493.8,10.93,-0.21,0.65,0.72,0.3,5.9,-1.9,31.06,,,,,,,,,,
13.35.05.613,279.2,69.8,0,3.0,,91390.3,10.94,-0.21,0.65,0.71,0.6,5.9,-1.2,31.06,,,,,,,,,,
13.35.05.624,220.9,55.2,0,3.0,,92411.3,10.82,-0.21,0.65,0.72,1.4,5.8,-1.3,31.06,,,,,,,,,,
13.35.05.632,183.5,45.9,0,3.0,,92115.3,10.86,-0.21,0.66,0.72,0.5,6.4,-1.5,31.06,,,,,,,,,,
13.35.05.644,171.4,42.8,0,3.0,,92207.5,10.85,-0.21,0.65,0.71,0.1,5.1,-1.5,31.06,,,,,,,,,,
13.35.05.653,129.6,32.4,0,3.0,,92235.8,10.84,-0.2,0.65,0.72,0.1,5.3,-1.7,31.06,,,,,,,,,,
13.35.05.665,66.7,16.7,0,3.0,,93768.8,10.66,-0.21,0.66,0.71,0.3,5.9,-1.3,31.06,,,,,,,,,,
13.35.05.673,32.3,8.1,0,3.0,,93294.3,10.72,-0.21,0.65,0.72,0.7,5.0,-1.3,31.06,,,,,,,,,,
13.35.05.686,10.0,2.5,0,3.0,,93380.1,10.71,-0.21,0.65,0.72,-0.5,5.2,-1.7,31.06,,,,,,,,,,
13.35.05.694,10.6,2.6,0,3.0,,90693.8,11.03,-0.21,0.65,0.72,0.4,6.2,-1.6,31.06,,,,,,,,,,
13.35.05.707,38.6,9.6,0,3.0,,92767.8,10.78,-0.21,0.64,0.71,0.5,6.2,-0.9,31.06,,,,,,,,,,
13.35.05.714,48.7,12.2,0,3.0,,90879.2,11.0,-0.21,0.64,0.71,0.1,5.5,-1.5,31.06,,,,,,,,,,
13.35.05.726,60.1,15.0,0,3.0,,91654.6,10.91,-0.21,0.64,0.72,0.2,5.9,-1.7,31.06,,,,,,,,,,
13.35.05.735,58.6,14.6,0,3.0,,93547.9,10.69,-0.21,0.65,0.72,1.2,6.4,-1.3,31.06,,,,,,,,,,
13.35.05.747,44.8,11.2,0,3.0,,93373.3,10.71,-0.21,0.66,0.72,0.0,5.2,-1.3,31.06,,,,,,,,,,
13.35.05.759,56.9,14.2,0,3.0,,92975.7,10.76,-0.21,0.65,0.72,-0.5,4.9,-1.7,31.06,,,,,,,,,,
13.35.05.768,47.4,11.8,0,3.0,,92775.0,10.78,-0.21,0.65,0.72,0.3,6.0,-1.2,31.06,,,,,,,,,,
13.35.05.780,28.9,7.2,0,3.0,,92463.0,10.82,-0.21,0.65,0.72,0.4,5.5,-1.1,31.06,,,,,,,,,,
13.35.05.788,16.1,4.0,0,3.0,,92574.5,10.8,-0.21,0.64,0.72,-0.1,5.2,-1.5,31.06,,,,,,,,,,
13.35.05.800,-2.2,0.6,0,3.0,,93086.5,10.74,-0.2,0.64,0.72,1.1,6.6,-1.2,31.06,,,,,,,,,,
13.35.05.808,-3.0,0.8,0,3.0,,91039.2,10.98,-0.21,0.65,0.72,1.3,6.4,-1.2,31.06,,,,,,,,,,
13.35.05.821,-1.6,0.4,0,3.0,,92453.4,10.82,-0.21,0.65,0.72,0.2,5.7,-1.6,31.06,,,,,,,,,,
13.35.05.830,-19.5,4.9,0,3.0,,91611.3,10.92,-0.21,0.65,0.72,0.3,5.9,-1.3,31.06,,,,,,,,,,
13.35.05.842,-18.9,4.7,0,3.0,,91920.0,10.88,-0.21,0.65,0.72,0.0,5.6,-1.3,31.06,,,,,,,,,,
13.35.05.849,-19.9,5.0,0,3.0,,92057.0,10.86,-0.21,0.65,0.72,0.0,5.3,-1.3,31.06,,,,,,,,,,
13.35.05.862,-24.8,6.2,0,3.0,,92257.2,10.84,-0.21,0.65,0.72,0.8,5.8,-1.2,31.06,,,,,,,,,,
13.35.05.870,-29.5,7.4,0,3.0,,91750.2,10.9,-0.21,0.65,0.72,0.0,6.2,-1.5,31.06,,,,,,,,,,
13.35.05.883,-33.7,8.4,0,3.0,,90364.5,11.07,-0.2,0.65,0.71,0.2,4.8,-1.2,31.06,,,,,,,,,,
13.35.05.894,-42.9,10.7,0,3.0,,92286.4,10.84,-0.21,0.64,0.72,0.6,6.5,-1.2,31.06,,,,,,,,,,
13.35.05.903,-48.3,12.1,0,3.0,,91841.7,10.89,-0.21,0.65,0.72,0.8,5.5,-1.4,31.06,,,,,,,,,,
13.35.05.915,-51.9,13.0,0,3.0,,91960.9,10.87,-0.21,0.65,0.72,0.4,5.3,-1.5,31.06,,,,,,,,,,
13.35.05.924,-65.9,16.5,0,3.0,,92759.3,10.78,-0.21,0.65,0.72,-0.2,5.4,-1.4,31.06,,,,,,,,,,
13.35.05.936,-69.2,17.3,0,3.0,,92383.5,10.82,-0.21,0.65,0.72,-0.1,5.0,-1.6,31.06,,,,,,,,,,
13.35.05.944,-71.5,17.9,0,3.0,,92307.9,10.83,-0.21,0.65,0.72,0.3,5.7,-1.5,31.06,,,,,,,,,,
13.35.05.957,-65.4,16.4,0,3.0,,92088.0,10.86,-0.21,0.64,0.72,0.1,5.3,-1.3,31.06,,,,,,,,,,
13.35.05.965,-69.7,17.4,0,3.0,,92170.8,10.85,-0.21,0.64,0.72,0.4,5.7,-1.5,31.06,,,,,,,,,,
13.35.05.976,-90.5,22.6,0,3.0,,91374.8,10.94,-0.21,0.65,0.72,1.3,6.2,-1.2,31.06,,,,,,,,,,
13.35.05.985,-87.2,21.8,0,3.0,,92312.0,10.83,-0.21,0.65,0.71,1.3,5.9,-1.2,31.06,,,,,,,,,,
13.35.05.998,-94.8,23.7,0,3.0,,91472.4,10.93,-0.21,0.65,0.71,0.9,5.7,-1.2,31.06,,,,,,,,,,
13.35.06.006,-95.2,23.8,0,3.0,,91742.9,10.9,-0.21,0.65,0.72,0.3,5.2,-1.5,31.06,,,,,,,,,,
13.35.06.018,-98.0,24.5,0,3.0,,91140.5,10.97,-0.21,0.65,0.71,0.3,5.7,-1.4,31.06,,,,,,,,,,
13.35.06.025,-104.2,26.0,0,3.0,,92618.4,10.8,-0.21,0.64,0.71,0.2,5.5,-1.3,31.06,,,,,,,,,,
13.35.06.038,-115.0,28.8,0,3.0,,93770.7,10.66,-0.22,0.65,0.73,0.5,5.5,-1.5,31.06,,,,,,,,,,
13.35.06.046,-122.0,30.5,0,3.0,,92627.8,10.8,-0.21,0.64,0.72,0.6,6.7,-1.2,31.06,,,,,,,,,,
13.35.06.058,-112.0,28.0,0,3.0,,90013.2,11.11,-0.21,0.65,0.72,0.9,5.8,-0.9,31.06,,,,,,,,,,
13.35.06.071,10.7,2.7,1,4.0,98.2,92448.0,10.82,-0.21,0.65,0.72,0.4,6.3,-1.2,31.06,,,,,,,,,,
13.35.06.079,44.3,11.1,0,4.0,,91963.0,10.87,-0.21,0.65,0.71,0.5,6.1,-1.2,31.06,,,,,,,,,,
13.35.06.092,106.0,26.5,0,4.0,,92376.2,10.83,-0.21,0.65,0.72,0.4,5.4,-1.3,31.06,,,,,,,,,,
13.35.06.099,132.1,33.0,0,4.0,,93217.1,10.73,-0.21,0.65,0.72,0.2,5.5,-1.5,31.06,,,,,,,,,,
13.35.06.137,273.3,68.3,0,4.0,,92408.6,10.82,-0.21,0.65,0.73,0.7,5.8,-1.2,31.12,,,,,,,,,,
13.35.06.148,282.4,70.6,0,4.0,,92898.4,10.76,-0.21,0.64,0.72,0.4,6.1,-1.2,31.12,,,,,,,,,,
13.35.06.157,293.2,73.3,0,4.0,,92534.4,10.81,-0.21,0.65,0.72,0.5,5.5,-1.0,31.12,,,,,,,,,,
13.35.06.170,361.9,90.5,0,4.0,,91266.5,10.96,-0.21,0.65,0.72,0.4,5.6,-1.2,31.12,,,,,,,,,,
13.35.06.178,317.0,79.2,0,4.0,,92905.1,10.76,-0.21,0.65,0.72,0.5,5.6,-1.2,31.12,,,,,,,,,,
13.35.06.190,345.4,86.4,0,4.0,,92855.0,10.77,-0.21,0.65,0.72,0.6,6.2,-1.5,31.12,,,,,,,,,,
13.35.06.198,296.6,74.2,0,4.0,,92232.4,10.84,-0.21,0.65,0.72,0.3,5.8,-1.4,31.12,,,,,,,,,,
13.35.06.210,270.7,67.7,0,4.0,,92960.4,10.76,-0.21,0.65,0.72,0.3,5.4,-1.1,31.12,,,,,,,,,,
13.35.06.219,262.3,65.6,0,4.0,,92863.8,10.77,-0.21,0.65,0.72,0.2,5.9,-1.4,31.12,,,,,,,,,,
13.35.06.230,219.6,54.9,0,4.0,,92116.4,10.86,-0.21,0.64,0.72,0.1,6.2,-1.2,31.12,,,,,,,,,,
13.35.06.239,198.7,49.7,0,4.0,,91590.4,10.92,-0.21,0.64,0.72,0.7,6.1,-1.3,31.12,,,,,,,,,,
13.35.06.252,130.7,32.7,0,4.0,,91734.1,10.9,-0.21,0.65,0.72,0.4,5.8,-1.2,31.12,,,,,,,,,,
13.35.06.259,93.4,23.4,0,4.0,,93219.0,10.73,-0.21,0.65,0.72,0.6,5.7,-1.4,31.12,,,,,,,,,,
13.35.06.272,37.8,9.4,0,4.0,,91914.0,10.88,-0.21,0.64,0.72,-0.2,5.6,-1.2,31.12,,,,,,,,,,
13.35.06.280,-1.2,0.3,0,4.0,,92706.3,10.79,-0.21,0.64,0.72,0.2,5.1,-1.2,31.12,,,,,,,,,,
13.35.06.293,22.6,5.6,0,4.0,,91750.0,10.9,-0.21,0.65,0.72,0.8,6.4,-1.5,31.12,,,,,,,,,,
13.35.06.300,32.4,8.1,0,4.0,,92013.8,10.87,-0.21,0.65,0.71,0.4,6.2,-1.4,31.12,,,,,,,,,,
13.35.06.312,43.9,11.0,0,4.0,,92898.8,10.76,-0.21,0.65,0.71,0.1,5.4,-1.4,31.12,,,,,,,,,,
13.35.06.320,50.6,12.6,0,4.0,,92795.1,10.78,-0.21,0.65,0.72,0.2,6.1,-1.4,31.12,,,,,,,,,,
13.35.06.333,52.5,13.1,0,4.0,,92078.5,10.86,-0.21,0.65,0.73,0.4,5.8,-1.7,31.12,,,,,,,,,,
13.35.06.342,59.1,14.8,0,4.0,,93342.1,10.71,-0.21,0.65,0.72,-0.3,4.5,-1.6,31.12,,,,,,,,,,
13.35.06.354,46.5,11.6,0,4.0,,91639.9,10.91,-0.21,0.65,0.72,0.3,5.5,-1.6,31.12,,,,,,,,,,
13.35.06.362,49.6,12.4,0,4.0,,91569.4,10.92,-0.21,0.64,0.71,0.8,6.0,-1.1,31.12,,,,,,,,,,
13.35.06.375,32.5,8.1,0,4.0,,92190.8,10.85,-0.21,0.64,0.72,0.5,5.0,-0.7,31.12,,,,,,,,,,
13.35.06.383,24.7,6.2,0,4.0,,92897.3,10.76,-0.21,0.64,0.72,0.1,6.1,-1.3,31.12,,,,,,,,,,
13.35.06.394,2.5,0.6,0,4.0,,93995.4,10.64,-0.21,0.65,0.72,0.9,6.8,-1.4,31.12,,,,,,,,,,
13.35.06.403,-11.1,2.8,0,4.0,,90989.3,10.99,-0.21,0.65,0.72,0.6,6.3,-1.6,31.12,,,,,,,,,,
13.35.06.415,-7.0,1.8,0,4.0,,92283.4,10.84,-0.21,0.65,0.72,0.1,6.3,-1.4,31.12,,,,,,,,,,
13.35.06.428,-12.5,3.1,0,4.0,,93285.3,10.72,-0.21,0.65,0.72,0.6,5.7,-1.4,31.12,,,,,,,,,,
13.35.06.436,-20.4,5.1,0,4.0,,92395.3,10.82,-0.21,0.65,0.73,0.6,5.6,-1.2,31.12,,,,,,,,,,
13.35.06.448,-23.7,5.9,0,4.0,,91693.6,10.91,-0.21,0.65,0.72,0.1,5.2,-1.3,31.12,,,,,,,,,,
13.35.06.456,-28.2,7.0,0,4.0,,92086.6,10.86,-0.21,0.65,0.72,0.7,5.7,-1.2,31.12,,,,,,,,,,
13.35.06.469,-32.5,8.1,0,4.0,,92146.4,10.85,-0.21,0.64,0.72,1.4,6.3,-1.0,31.12,,,,,,,,,,
13.35.06.477,-46.5,11.6,0,4.0,,93412.1,10.71,-0.22,0.65,0.72,1.1,6.0,-0.7,31.12,,,,,,,,,,
13.35.06.488,-37.0,9.2,0,4.0,,93415.1,10.7,-0.22,0.65,0.71,0.7,6.0,-1.9,31.12,,,,,,,,,,
13.35.06.501,-56.3,14.1,0,4.0,,91623.1,10.91,-0.21,0.65,0.72,0.8,6.3,-1.4,31.12,,,,,,,,,,
13.35.06.509,-43.5,10.9,0,4.0,,93743.7,10.67,-0.21,0.65,0.72,0.5,5.7,-1.3,31.12,,,,,,,,,,
13.35.06.521,-45.7,11.4,0,4.0,,91850.6,10.89,-0.21,0.65,0.72,-0.3,5.3,-1.3,31.12,,,,,,,,,,
13.35.06.529,-71.6,17.9,0,4.0,,92526.1,10.81,-0.21,0.65,0.73,0.3,5.0,-1.6,31.12,,,,,,,,,,
13.35.06.543,-65.9,16.5,0,4.0,,92563.9,10.8,-0.21,0.65,0.72,0.4,5.1,-1.2,31.12,,,,,,,,,,
13.35.06.550,-55.6,13.9,0,4.0,,91721.6,10.9,-0.2,0.65,0.72,0.1,7.0,-1.2,31.12,,,,,,,,,,
13.35.06.562,-83.9,21.0,0,4.0,,92961.5,10.76,-0.21,0.65,0.72,1.4,6.9,-0.8,31.12,,,,,,,,,,
13.35.06.571,-86.6,21.6,0,4.0,,91078.9,10.98,-0.21,0.65,0.73,1.1,8.1,-1.5,31.12,,,,,,,,,,
13.35.06.583,-82.7,20.7,0,4.0,,92609.2,10.8,-0.2,0.65,0.72,0.0,5.5,-1.4,31.12,,,,,,,,,,
13.35.06.592,-89.1,22.3,0,4.0,,92879.8,10.77,-0.21,0.65,0.72,-0.1,4.5,-1.5,31.12,,,,,,,,,,
13.35.06.603,-101.3,25.3,0,4.0,,92776.6,10.78,-0.21,0.65,0.72,0.2,5.9,-1.4,31.12,,,,,,,,,,
13.35.06.611,-99.8,25.0,0,4.0,,93443.7,10.7,-0.21,0.65,0.72,0.6,5.7,-0.9,31.12,,,,,,,,,,
13.35.06.624,-109.2,27.3,0,4.0,,92206.2,10.85,-0.21,0.64,0.72,0.1,6.3,-1.5,31.12,,,,,,,,,,
13.35.06.632,-103.6,25.9,0,4.0,,90561.4,11.04,-0.21,0.64,0.73,0.4,5.6,-1.2,31.12,,,,,,,,,,
13.35.06.644,-114.2,28.6,0,4.0,,93570.5,10.69,-0.21,0.65,0.72,1.1,6.5,-1.0,31.12,,,,,,,,,,
13.35.06.652,-134.2,33.6,0,4.0,,92031.0,10.87,-0.21,0.65,0.72,0.9,6.4,-1.4,31.12,,,,,,,,,,
13.35.06.664,-120.7,30.2,0,4.0,,91894.0,10.88,-0.21,0.66,0.71,0.2,5.5,-1.3,31.12,,,,,,,,,,
13.35.06.673,16.6,4.2,1,5.0,101.3,91511.8,10.93,-0.21,0.65,0.72,1.1,6.1,-1.3,31.12,,,,,,,,,,
13.35.06.685,72.2,18.0,0,5.0,,91145.1,10.97,-0.21,0.65,0.73,-0.1,4.9,-1.0,31.12,,,,,,,,,,
13.35.06.693,110.0,27.5,0,5.0,,90860.6,11.01,-0.21,0.65,0.73,-0.1,6.4,-1.7,31.12,,,,,,,,,,
13.35.06.705,153.7,38.4,0,5.0,,92391.1,10.82,-0.22,0.65,0.73,0.6,4.8,-0.5,31.12,,,,,,,,,,
13.35.06.714,179.5,44.9,0,5.0,,93132.1,10.74,-0.22,0.65,0.73,1.2,5.7,-0.5,31.12,,,,,,,,,,
13.35.06.726,229.6,57.4,0,5.0,,91868.5,10.89,-0.21,0.64,0.72,1.2,6.5,-1.0,31.12,,,,,,,,,,
13.35.06.734,269.4,67.4,0,5.0,,92556.1,10.8,-0.22,0.65,0.72,1.1,5.5,-1.0,31.12,,,,,,,,,,
13.35.06.746,277.6,69.4,0,5.0,,93601.2,10.68,-0.21,0.65,0.72,0.3,5.7,-1.2,31.12,,,,,,,,,,
13.35.06.755,277.0,69.2,0,5.0,,92346.3,10.83,-0.21,0.65,0.71,1.0,5.8,-1.2,31.12,,,,,,,,,,
13.35.06.767,342.5,85.6,0,5.0,,91449.0,10.94,-0.21,0.65,0.72,0.2,6.1,-1.7,31.12,,,,,,,,,,
13.35.06.775,337.4,84.4,0,5.0,,92432.0,10.82,-0.21,0.65,0.71,0.1,5.8,-1.6,31.12,,,,,,,,,,
13.35.06.787,319.6,79.9,0,5.0,,91649.6,10.91,-0.21,0.65,0.72,0.3,5.6,-1.1,31.12,,,,,,,,,,
13.35.06.800,290.6,72.6,0,5.0,,92655.5,10.79,-0.21,0.64,0.71,-0.4,5.8,-1.4,31.12,,,,,,,,,,
13.35.06.808,285.7,71.4,0,5.0,,91516.3,10.93,-0.21,0.64,0.72,0.9,6.5,-1.1,31.12,,,,,,,,,,
13.35.06.820,263.6,65.9,0,5.0,,90987.2,10.99,-0.21,0.64,0.72,1.7,6.6,-0.8,31.12,,,,,,,,,,
13.35.06.828,225.9,56.5,0,5.0,,93069.9,10.74,-0.21,0.65,0.72,0.5,6.3,-1.4,31.12,,,,,,,,,,
13.35.06.841,178.1,44.5,0,5.0,,92409.0,10.82,-0.21,0.65,0.72,0.9,5.6,-1.2,31.12,,,,,,,,,,
13.35.06.849,140.9,35.2,0,5.0,,92742.9,10.78,-0.22,0.65,0.73,0.5,5.3,-1.1,31.12,,,,,,,,,,
13.35.06.861,91.8,23.0,0,5.0,,91664.3,10.91,-0.22,0.65,0.71,-0.2,4.8,-1.5,31.12,,,,,,,,,,
13.35.06.869,55.0,13.8,0,5.0,,91011.9,10.99,-0.2,0.65,0.72,-0.7,5.1,-1.7,31.12,,,,,,,,,,
13.35.06.882,3.5,0.9,0,5.0,,92989.5,10.75,-0.21,0.65,0.73,0.6,6.4,-1.4,31.12,,,,,,,,,,
13.35.06.890,15.0,3.8,0,5.0,,93072.6,10.74,-0.21,0.65,0.72,0.6,6.0,-1.1,31.12,,,,,,,,,,
13.35.06.902,41.4,10.4,0,5.0,,91526.8,10.93,-0.22,0.64,0.72,-0.3,5.6,-1.3,31.12,,,,,,,,,,
13.35.06.939,59.7,14.9,0,5.0,,93163.4,10.73,-0.21,0.64,0.71,0.3,6.2,-1.4,31.12,,,,,,,,,,
13.35.06.947,62.4,15.6,0,5.0,,92354.9,10.83,-0.21,0.65,0.72,1.0,5.9,-1.1,31.12,,,,,,,,,,
13.35.06.959,56.6,14.2,0,5.0,,92104.5,10.86,-0.21,0.65,0.72,-0.8,3.9,-1.4,31.12,,,,,,,,,,
13.35.06.969,36.0,9.0,0,5.0,,91561.9,10.92,-0.21,0.65,0.71,-1.4,4.1,-1.8,31.12,,,,,,,,,,
13.35.06.981,21.8,5.4,0,5.0,,92746.6,10.78,-0.2,0.64,0.72,0.7,6.6,-1.3,31.12,,,,,,,,,,
13.35.06.988,15.8,4.0,0,5.0,,92676.4,10.79,-0.21,0.64,0.72,1.1,6.8,-1.2,31.12,,,,,,,,,,
13.35.07.000,-1.5,0.4,0,5.0,,92628.3,10.8,-0.21,0.64,0.72,-0.4,5.6,-1.3,31.12,,,,,,,,,,
13.35.07.009,4.2,1.0,0,5.0,,90442.4,11.06,-0.21,0.64,0.72,0.6,6.9,-1.3,31.12,,,,,,,,,,
13.35.07.021,-18.7,4.7,0,5.0,,91879.2,10.88,-0.21,0.64,0.73,1.7,6.4,-0.6,31.12,,,,,,,,,,
13.35.07.029,-10.2,2.6,0,5.0,,92348.2,10.83,-0.21,0.65,0.71,0.9,6.4,-1.2,31.12,,,,,,,,,,
13.35.07.041,-21.4,5.4,0,5.0,,92332.9,10.83,-0.21,0.65,0.72,-0.3,4.7,-0.8,31.12,,,,,,,,,,
13.35.07.050,-27.5,6.9,0,5.0,,91021.4,10.99,-0.22,0.65,0.72,0.4,6.9,-1.3,31.12,,,,,,,,,,
13.35.07.062,-22.0,5.5,0,5.0,,92620.4,10.8,-0.21,0.65,0.72,0.2,5.4,-1.2,31.12,,,,,,,,,,
13.35.07.071,-31.0,7.8,0,5.0,,93067.5,10.74,-0.21,0.65,0.72,-0.1,5.4,-1.3,31.12,,,,,,,,,,
13.35.07.082,-41.6,10.4,0,5.0,,90785.7,11.01,-0.21,0.65,0.72,0.2,5.4,-1.4,31.12,,,,,,,,,,
13.35.07.095,-47.8,12.0,0,5.0,,92342.6,10.83,-0.21,0.65,0.73,0.5,5.7,-1.4,31.12,,,,,,,,,,
13.35.07.107,-45.7,11.4,0,5.0,,91410.5,10.94,-0.21,0.65,0.72,0.0,5.4,-1.4,31.12,,,,,,,,,,
13.35.07.115,-64.1,16.0,0,5.0,,92338.0,10.83,-0.22,0.65,0.71,0.6,5.3,-1.3,31.12,,,,,,,,,,
13.35.07.127,-49.5,12.4,0,5.0,,91342.5,10.95,-0.21,0.65,0.72,1.5,5.4,-0.8,31.12,,,,,,,,,,
13.35.07.136,-69.3,17.3,0,5.0,,92249.4,10.84,-0.21,0.65,0.71,0.5,5.5,-1.5,31.12,,,,,,,,,,
13.35.07.148,-67.8,17.0,0,5.0,,92218.2,10.84,-0.21,0.65,0.72,0.6,5.6,-1.1,31.12,,,,,,,,,,
13.35.07.156,-77.3,19.3,0,5.0,,93664.6,10.68,-0.21,0.65,0.72,0.0,6.4,-1.7,31.12,,,,,,,,,,
13.35.07.169,-80.1,20.0,0,5.0,,93139.8,10.74,-0.21,0.65,0.72,0.0,5.4,-1.7,31.12,,,,,,,,,,
13.35.07.177,-89.7,22.4,0,5.0,,93572.5,10.69,-0.21,0.65,0.72,0.9,6.0,-1.3,31.12,,,,,,,,,,
13.35.07.189,-82.5,20.6,0,5.0,,91555.2,10.92,-0.21,0.65,0.72,0.4,5.9,-1.4,31.12,,,,,,,,,,
13.35.07.197,-90.4,22.6,0,5.0,,90669.6,11.03,-0.21,0.65,0.72,0.4,5.3,-1.6,31.12,,,,,,,,,,
13.35.07.209,-106.5,26.6,0,5.0,,91117.2,10.97,-0.21,0.65,0.72,0.6,6.3,-1.2,31.12,,,,,,,,,,
13.35.07.218,-113.9,28.5,0,5.0,,91465.1,10.93,-0.21,0.64,0.72,0.3,5.5,-1.6,31.12,,,,,,,,,,
13.35.07.230,-109.9,27.5,0,5.0,,92292.0,10.84,-0.21,0.65,0.72,0.2,5.6,-1.4,31.12,,,,,,,,,,
13.35.07.238,-104.7,26.2,0,5.0,,93573.7,10.69,-0.21,0.64,0.71,0.4,5.8,-1.5,31.12,,,,,,,,,,
13.35.07.250,-125.8,31.4,0,5.0,,92174.7,10.85,-0.21,0.64,0.72,0.8,5.7,-1.4,31.12,,,,,,,,,,
13.35.07.259,-128.2,32.0,0,5.0,,92572.8,10.8,-0.21,0.65,0.72,1.1,6.4,-1.3,31.12,,,,,,,,,,
13.35.07.271,6.9,1.7,1,6.0,99.4,92943.1,10.76,-0.21,0.65,0.72,0.9,5.9,-1.1,31.12,,,,,,,,,,
13.35.07.279,42.6,10.6,0,6.0,,91842.6,10.89,-0.21,0.65,0.72,0.4,5.7,-1.5,31.12,,,,,,,,,,
13.35.07.291,103.1,25.8,0,6.0,,92330.1,10.83,-0.21,0.65,0.73,0.1,5.5,-1.3,31.12,,,,,,,,,,
13.35.07.300,139.6,34.9,0,6.0,,91340.5,10.95,-0.21,0.64,0.72,0.2,5.7,-0.6,31.12,,,,,,,,,,
13.35.07.312,178.8,44.7,0,6.0,,90566.1,11.04,-0.2,0.63,0.71,0.3,5.3,-1.3,31.12,,,,,,,,,,
13.35.07.321,228.4,57.1,0,6.0,,92428.7,10.82,-0.21,0.65,0.71,0.2,5.9,-1.2,31.12,,,,,,,,,,
13.35.07.332,244.4,61.1,0,6.0,,92270.5,10.84,-0.21,0.65,0.72,0.8,6.3,-0.9,31.12,,,,,,,,,,
13.35.07.341,288.9,72.2,0,6.0,,92370.0,10.83,-0.21,0.64,0.72,0.3,5.3,-1.1,31.12,,,,,,,,,,
13.35.07.353,294.8,73.7,0,6.0,,93056.5,10.75,-0.21,0.64,0.72,-0.5,5.1,-1.6,31.12,,,,,,,,,,
13.35.07.361,297.0,74.2,0,6.0,,93375.4,10.71,-0.21,0.64,0.72,0.7,5.7,-1.4,31.12,,,,,,,,,,
13.35.07.374,343.9,86.0,0,6.0,,92164.5,10.85,-0.21,0.65,0.72,1.6,6.6,-1.1,31.12,,,,,,,,,,
13.35.07.381,314.3,78.6,0,6.0,,91470.0,10.93,-0.21,0.65,0.72,0.0,5.5,-1.5,31.12,,,,,,,,,,
13.35.07.395,328.8,82.2,0,6.0,,91603.9,10.92,-0.21,0.65,0.72,-0.3,5.0,-1.3,31.12,,,,,,,,,,
13.35.07.402,260.0,65.0,0,6.0,,90929.3,11.0,-0.21,0.65,0.72,0.3,5.5,-1.4,31.12,,,,,,,,,,
13.35.07.415,259.9,65.0,0,6.0,,93557.9,10.69,-0.21,0.65,0.72,0.5,5.9,-1.4,31.12,,,,,,,,,,
13.35.07.422,251.0,62.8,0,6.0,,91337.1,10.95,-0.21,0.65,0.72,0.1,5.4,-1.5,31.12,,,,,,,,,,
13.35.07.435,186.0,46.5,0,6.0,,92338.1,10.83,-0.21,0.65,0.72,0.6,5.6,-1.4,31.12,,,,,,,,,,
13.35.07.444,177.3,44.3,0,6.0,,90896.8,11.0,-0.21,0.65,0.71,0.9,6.1,-1.2,31.12,,,,,,,,,,
13.35.07.456,101.1,25.3,0,6.0,,92390.7,10.82,-0.21,0.65,0.72,0.6,5.4,-0.9,31.12,,,,,,,,,,
13.35.07.464,75.5,18.9,0,6.0,,91981.6,10.87,-0.21,0.66,0.72,0.3,5.3,-1.3,31.12,,,,,,,,,,
13.35.07.477,11.5,2.9,0,6.0,,90933.9,11.0,-0.21,0.64,0.72,-0.3,5.2,-1.3,31.12,,,,,,,,,,
13.35.07.489,5.0,1.2,0,6.0,,91434.9,10.94,-0.21,0.64,0.72,0.6,5.8,-1.3,31.12,,,,,,,,,,
13.35.07.496,20.1,5.0,0,6.0,,91499.2,10.93,-0.21,0.64,0.71,1.2,6.0,-1.1,31.12,,,,,,,,,,
13.35.07.509,39.5,9.9,0,6.0,,92493.4,10.81,-0.21,0.65,0.72,0.4,6.3,-1.5,31.12,,,,,,,,,,
13.35.07.517,47.7,11.9,0,6.0,,92764.2,10.78,-0.21,0.66,0.72,0.6,5.3,-1.4,31.12,,,,,,,,,,
13.35.07.529,60.5,15.1,0,6.0,,92465.2,10.81,-0.21,0.65,0.72,0.5,6.1,-1.4,31.12,,,,,,,,,,
13.35.07.537,62.7,15.7,0,6.0,,92190.7,10.85,-0.21,0.65,0.72,-0.2,4.5,-1.5,31.12,,,,,,,,,,
13.35.07.550,52.3,13.1,0,6.0,,92451.6,10.82,-0.21,0.64,0.72,0.0,5.0,-1.5,31.12,,,,,,,,,,
13.35.07.558,45.5,11.4,0,6.0,,91490.2,10.93,-0.21,0.65,0.72,1.1,5.8,-1.0,31.12,,,,,,,,,,
13.35.07.571,43.4,10.8,0,6.0,,92334.3,10.83,-0.21,0.65,0.72,0.3,5.3,-1.1,31.12,,,,,,,,,,
13.35.07.578,24.2,6.0,0,6.0,,92071.7,10.86,-0.21,0.65,0.72,0.0,5.7,-1.3,31.12,,,,,,,,,,
13.35.07.591,19.0,4.8,0,6.0,,92042.5,10.86,-0.21,0.64,0.72,1.2,6.7,-1.0,31.12,,,,,,,,,,
13.35.07.599,5.1,1.3,0,6.0,,92355.3,10.83,-0.21,0.65,0.71,0.8,6.2,-1.4,31.12,,,,,,,,,,
13.35.07.612,-11.0,2.8,0,6.0,,91144.0,10.97,-0.21,0.66,0.72,1.0,5.5,-1.1,31.12,,,,,,,,,,
13.35.07.620,-9.1,2.3,0,6.0,,91063.6,10.98,-0.21,0.65,0.72,0.4,6.3,-1.2,31.12,,,,,,,,,,
13.35.07.631,-15.2,3.8,0,6.0,,92823.9,10.77,-0.21,0.65,0.72,0.7,5.4,-1.1,31.12,,,,,,,,,,
13.35.07.640,-16.7,4.2,0,6.0,,91761.1,10.9,-0.21,0.65,0.72,0.6,5.9,-1.1,31.12,,,,,,,,,,
13.35.07.652,-23.1,5.8,0,6.0,,92784.6,10.78,-0.21,0.65,0.71,0.3,5.8,-1.4,31.12,,,,,,,,,,
13.35.07.661,-30.0,7.5,0,6.0,,92102.6,10.86,-0.21,0.65,0.72,0.2,4.9,-1.1,31.12,,,,,,,,,,
13.35.07.673,-35.5,8.9,0,6.0,,92159.2,10.85,-0.21,0.65,0.72,0.5,6.5,-1.2,31.12,,,,,,,,,,
13.35.07.685,-41.9,10.5,0,6.0,,93246.0,10.72,-0.22,0.65,0.72,0.6,5.9,-1.3,31.12,,,,,,,,,,
13.35.07.694,-44.5,11.1,0,6.0,,92245.5,10.84,-0.21,0.63,0.72,-0.2,5.2,-1.6,31.12,,,,,,,,,,
13.35.07.706,-53.5,13.4,0,6.0,,91740.5,10.9,-0.21,0.64,0.72,-0.2,5.5,-1.4,31.12,,,,,,,,,,
13.35.07.743,-63.5,15.9,0,6.0,,91832.6,10.89,-0.21,0.65,0.72,1.4,5.5,-1.2,31.12,,,,,,,,,,
13.35.07.750,-63.1,15.8,0,6.0,,92681.5,10.79,-0.21,0.64,0.72,0.5,6.0,-1.5,31.12,,,,,,,,,,
13.35.07.762,-68.9,17.2,0,6.0,,91062.9,10.98,-0.21,0.65,0.72,0.8,5.7,-1.4,31.12,,,,,,,,,,
13.35.07.771,-86.0,21.5,0,6.0,,91573.9,10.92,-0.21,0.65,0.71,0.0,5.4,-1.6,31.12,,,,,,,,,,
13.35.07.783,-96.7,24.2,0,6.0,,91084.9,10.98,-0.2,0.65,0.72,0.7,5.9,-1.6,31.12,,,,,,,,,,
13.35.07.791,-94.2,23.6,0,6.0,,91642.5,10.91,-0.2,0.65,0.72,1.4,6.3,-1.0,31.12,,,,,,,,,,
13.35.07.804,-97.8,24.4,0,6.0,,92033.1,10.87,-0.21,0.65,0.72,0.1,4.5,-1.5,31.12,,,,,,,,,,
13.35.07.812,-107.7,26.9,0,6.0,,91874.6,10.88,-0.21,0.64,0.72,-0.5,4.7,-1.7,31.12,,,,,,,,,,
13.35.07.824,-102.0,25.5,0,6.0,,91131.3,10.97,-0.21,0.64,0.72,0.4,5.4,-1.4,31.12,,,,,,,,,,
13.35.07.836,-108.7,27.2,0,6.0,,92242.2,10.84,-0.21,0.64,0.72,0.0,5.8,-1.4,31.12,,,,,,,,,,
13.35.07.844,-126.8,31.7,0,6.0,,92457.9,10.82,-0.21,0.64,0.72,-0.3,5.6,-1.4,31.12,,,,,,,,,,
13.35.07.858,-133.3,33.3,0,6.0,,92317.7,10.83,-0.21,0.64,0.72,1.1,5.8,-1.0,31.12,,,,,,,,,,
13.35.07.865,-128.2,32.0,0,6.0,,93292.9,10.72,-0.21,0.64,0.72,1.0,6.3,-0.8,31.12,,,,,,,,,,
13.35.07.877,35.3,8.8,1,7.0,102.5,92717.7,10.79,-0.21,0.65,0.72,0.9,6.1,-1.4,31.12,,,,,,,,,,
13.35.07.885,68.8,17.2,0,7.0,,91906.1,10.88,-0.21,0.65,0.72,0.9,5.5,-1.1,31.12,,,,,,,,,,
13.35.07.898,133.8,33.4,0,7.0,,94733.2,10.56,-0.21,0.65,0.72,0.2,5.5,-1.1,31.12,,,,,,,,,,
13.35.07.907,166.2,41.6,0,7.0,,91108.3,10.98,-0.21,0.65,0.72,0.2,5.1,-1.2,31.12,,,,,,,,,,
13.35.07.919,204.9,51.2,0,7.0,,91458.9,10.93,-0.21,0.65,0.72,0.4,5.5,-1.4,31.12,,,,,,,,,,
13.35.07.927,251.1,62.8,0,7.0,,91896.4,10.88,-0.21,0.65,0.72,0.0,4.8,-1.1,31.12,,,,,,,,,,
13.35.07.939,262.3,65.6,0,7.0,,90751.4,11.02,-0.21,0.65,0.72,0.3,5.9,-1.2,31.12,,,,,,,,,,
13.35.07.947,291.0,72.8,0,7.0,,93396.6,10.71,-0.21,0.65,0.73,0.2,4.6,-0.9,31.12,,,,,,,,,,
13.35.07.959,303.3,75.8,0,7.0,,91295.5,10.95,-0.21,0.65,0.72,0.6,5.7,-1.1,31.12,,,,,,,,,,
13.35.07.967,327.1,81.8,0,7.0,,91498.9,10.93,-0.21,0.64,0.72,0.1,5.5,-1.6,31.12,,,,,,,,,,
13.35.07.980,335.6,83.9,0,7.0,,92173.0,10.85,-0.22,0.65,0.71,0.4,5.6,-1.6,31.12,,,,,,,,,,
13.35.07.988,315.9,79.0,0,7.0,,92458.3,10.82,-0.21,0.65,0.71,0.5,6.1,-1.3,31.12,,,,,,,,,,
13.35.08.000,295.1,73.8,0,7.0,,91253.8,10.96,-0.2,0.64,0.71,-0.3,5.3,-1.7,31.12,,,,,,,,,,
13.35.08.008,292.4,73.1,0,7.0,,91352.9,10.95,-0.21,0.65,0.73,-0.1,6.0,-2.0,31.12,,,,,,,,,,
13.35.08.021,240.9,60.2,0,7.0,,92267.8,10.84,-0.21,0.66,0.73,2.2,6.4,-0.4,31.12,,,,,,,,,,
13.35.08.029,228.9,57.2,0,7.0,,92210.2,10.84,-0.21,0.65,0.72,-0.4,6.6,-2.1,31.12,,,,,,,,,,
13.35.08.041,186.1,46.5,0,7.0,,93223.1,10.73,-0.21,0.66,0.71,0.2,3.9,-1.2,31.12,,,,,,,,,,
13.35.08.049,142.5,35.6,0,7.0,,92424.3,10.82,-0.21,0.64,0.73,1.2,7.1,-1.0,31.12,,,,,,,,,,
13.35.08.062,76.4,19.1,0,7.0,,92443.1,10.82,-0.21,0.64,0.71,-0.5,5.6,-1.9,31.12,,,,,,,,,,
13.35.08.074,27.4,6.8,0,7.0,,92491.8,10.81,-0.21,0.64,0.73,-1.1,3.5,-2.2,31.12,,,,,,,,,,
13.35.08.085,4.9,1.2,0,7.0,,92264.7,10.84,-0.2,0.66,0.72,1.9,6.9,-0.9,31.12,,,,,,,,,,
13.35.08.095,24.8,6.2,0,7.0,,91280.5,10.96,-0.21,0.65,0.72,2.0,6.8,-0.9,31.12,,,,,,,,,,
13.35.08.102,24.0,6.0,0,7.0,,92260.8,10.84,-0.21,0.65,0.72,-0.4,5.2,-1.4,31.12,,,,,,,,,,
13.35.08.115,44.1,11.0,0,7.0,,91886.7,10.88,-0.21,0.64,0.72,0.1,5.2,-1.2,31.12,,,,,,,,,,
13.35.08.126,59.6,14.9,0,7.0,,91104.5,10.98,-0.21,0.64,0.72,1.0,5.8,-1.0,31.12,,,,,,,,,,
13.35.08.135,51.0,12.8,0,7.0,,92261.3,10.84,-0.21,0.64,0.72,0.0,5.5,-1.6,31.12,,,,,,,,,,
13.35.08.143,50.5,12.6,0,7.0,,91354.8,10.95,-0.21,0.65,0.72,0.8,6.0,-1.4,31.12,,,,,,,,,,
13.35.08.156,50.6,12.6,0,7.0,,92887.9,10.77,-0.2,0.65,0.71,0.9,6.0,-1.0,31.12,,,,,,,,,,
13.35.08.164,50.6,12.6,0,7.0,,91811.7,10.89,-0.21,0.65,0.72,0.2,5.3,-1.3,31.12,,,,,,,,,,
13.35.08.176,38.5,9.6,0,7.0,,93004.9,10.75,-0.21,0.65,0.72,0.3,5.4,-1.2,31.12,,,,,,,,,,
13.35.08.184,25.9,6.5,0,7.0,,91648.3,10.91,-0.21,0.65,0.72,0.0,5.4,-1.2,31.12,,,,,,,,,,
13.35.08.197,5.0,1.2,0,7.0,,92424.1,10.82,-0.21,0.65,0.72,-0.1,5.2,-1.4,31.12,,,,,,,,,,
13.35.08.205,-8.0,2.0,0,7.0,,92082.3,10.86,-0.21,0.64,0.72,0.6,6.0,-1.1,31.12,,,,,,,,,,
13.35.08.217,-13.9,3.5,0,7.0,,91553.3,10.92,-0.21,0.64,0.73,1.0,6.3,-0.7,31.12,,,,,,,,,,
13.35.08.225,-12.4,3.1,0,7.0,,92011.5,10.87,-0.21,0.65,0.72,1.3,6.4,-1.0,31.12,,,,,,,,,,
13.35.08.238,-15.8,4.0,0,7.0,,92215.5,10.84,-0.21,0.65,0.72,0.9,6.1,-0.9,31.12,,,,,,,,,,
13.35.08.247,-20.0,5.0,0,7.0,,92359.5,10.83,-0.21,0.65,0.72,0.8,5.5,-1.4,31.12,,,,,,,,,,
13.35.08.258,-37.7,9.4,0,7.0,,91066.6,10.98,-0.21,0.65,0.72,0.8,5.6,-1.3,31.12,,,,,,,,,,
13.35.08.266,-31.5,7.9,0,7.0,,92579.4,10.8,-0.21,0.65,0.72,0.5,5.8,-1.7,31.12,,,,,,,,,,
13.35.08.279,-36.8,9.2,0,7.0,,92169.2,10.85,-0.21,0.65,0.72,0.4,5.6,-1.4,31.12,,,,,,,,,,
13.35.08.291,-44.0,11.0,0,7.0,,92349.5,10.83,-0.21,0.65,0.72,0.8,6.1,-1.2,31.12,,,,,,,,,,
13.35.08.300,-45.8,11.4,0,7.0,,91543.0,10.92,-0.21,0.64,0.72,0.0,6.2,-1.7,31.12,,,,,,,,,,
13.35.08.311,-56.2,14.0,0,7.0,,91113.4,10.98,-0.21,0.65,0.72,0.3,5.5,-1.3,31.12,,,,,,,,,,
13.35.08.320,-44.9,11.2,0,7.0,,91491.9,10.93,-0.21,0.65,0.73,0.6,5.8,-1.5,31.12,,,,,,,,,,
13.35.08.332,-66.5,16.6,0,7.0,,92825.6,10.77,-0.21,0.65,0.72,0.0,5.9,-1.6,31.12,,,,,,,,,,
13.35.08.340,-61.0,15.2,0,7.0,,90338.4,11.07,-0.21,0.64,0.72,0.1,5.4,-1.4,31.12,,,,,,,,,,
13.35.08.352,-75.3,18.8,0,7.0,,91885.8,10.88,-0.21,0.65,0.72,0.7,5.9,-1.3,31.12,,,,,,,,,,
13.35.08.361,-73.7,18.4,0,7.0,,93111.5,10.74,-0.21,0.64,0.72,0.1,5.4,-1.4,31.12,,,,,,,,,,
13.35.08.373,-86.4,21.6,0,7.0,,91943.8,10.88,-0.21,0.64,0.72,-0.3,5.5,-1.3,31.12,,,,,,,,,,
13.35.08.381,-98.4,24.6,0,7.0,,92134.9,10.85,-0.21,0.64,0.71,1.3,6.8,-1.4,31.12,,,,,,,,,,
13.35.08.393,-96.8,24.2,0,7.0,,91189.6,10.97,-0.21,0.66,0.72,1.2,6.0,-0.8,31.12,,,,,,,,,,
13.35.08.406,-101.8,25.4,0,7.0,,92549.4,10.81,-0.21,0.65,0.72,0.4,5.8,-1.5,31.12,,,,,,,,,,
13.35.08.414,-100.3,25.1,0,7.0,,92486.0,10.81,-0.21,0.65,0.72,0.0,5.3,-1.2,31.12,,,,,,,,,,
13.35.08.426,-109.5,27.4,0,7.0,,91746.4,10.9,-0.21,0.65,0.71,0.2,5.5,-1.2,31.12,,,,,,,,,,
13.35.08.434,-110.9,27.7,0,7.0,,91825.9,10.89,-0.21,0.64,0.72,0.3,5.1,-1.3,31.12,,,,,,,,,,
13.35.08.448,-123.8,31.0,0,7.0,,91594.4,10.92,-0.21,0.64,0.72,0.1,5.8,-1.5,31.12,,,,,,,,,,
13.35.08.455,-110.1,27.5,0,7.0,,93228.7,10.73,-0.21,0.64,0.72,0.5,5.4,-1.2,31.12,,,,,,,,,,
13.35.08.467,-133.5,33.4,0,7.0,,93392.5,10.71,-0.21,0.64,0.72,0.7,6.0,-1.4,31.12,,,,,,,,,,
13.35.08.475,19.8,5.0,1,8.0,96.7,92671.8,10.79,-0.21,0.65,0.72,0.9,6.3,-1.5,31.12,,,,,,,,,,
13.35.08.488,87.3,21.8,0,8.0,,92752.1,10.78,-0.21,0.65,0.71,0.6,5.3,-1.1,31.12,,,,,,,,,,
13.35.08.496,121.3,30.3,0,8.0,,92054.1,10.86,-0.21,0.65,0.72,0.7,6.0,-1.1,31.12,,,,,,,,,,
13.35.08.508,172.6,43.2,0,8.0,,92245.1,10.84,-0.21,0.65,0.72,0.6,5.7,-1.2,31.12,,,,,,,,,,
13.35.08.545,273.5,68.4,0,8.0,,93164.0,10.73,-0.21,0.65,0.72,0.1,5.5,-1.2,31.12,,,,,,,,,,
13.35.08.554,314.8,78.7,0,8.0,,90775.0,11.02,-0.21,0.64,0.72,0.5,5.1,-1.2,31.12,,,,,,,,,,
13.35.08.565,316.6,79.2,0,8.0,,91665.5,10.91,-0.21,0.65,0.72,0.8,6.3,-1.5,31.12,,,,,,,,,,
13.35.08.574,339.5,84.9,0,8.0,,91761.8,10.9,-0.21,0.65,0.71,0.4,6.1,-1.2,31.12,,,,,,,,,,
13.35.08.586,313.8,78.4,0,8.0,,91892.7,10.88,-0.21,0.65,0.72,0.3,5.0,-1.4,31.12,,,,,,,,,,
13.35.08.594,306.3,76.6,0,8.0,,92809.1,10.77,-0.21,0.65,0.73,0.5,6.1,-1.5,31.12,,,,,,,,,,
13.35.08.606,293.7,73.4,0,8.0,,92481.1,10.81,-0.22,0.65,0.72,1.2,5.5,-0.9,31.12,,,,,,,,,,
13.35.08.615,230.9,57.7,0,8.0,,92508.2,10.81,-0.2,0.65,0.72,0.1,5.8,-1.7,31.12,,,,,,,,,,
13.35.08.627,232.3,58.1,0,8.0,,92746.4,10.78,-0.21,0.65,0.72,0.3,5.5,-1.3,31.12,,,,,,,,,,
13.35.08.635,198.9,49.7,0,8.0,,92548.2,10.81,-0.21,0.65,0.72,0.9,5.4,-1.1,31.12,,,,,,,,,,
13.35.08.647,138.7,34.7,0,8.0,,91431.6,10.94,-0.21,0.66,0.72,0.0,5.6,-1.4,31.12,,,,,,,,,,
13.35.08.655,126.0,31.5,0,8.0,,92524.8,10.81,-0.21,0.65,0.72,0.2,6.3,-1.5,31.12,,,,,,,,,,
13.35.08.668,53.0,13.2,0,8.0,,90926.7,11.0,-0.21,0.65,0.71,0.7,5.0,-1.2,31.12,,,,,,,,,,
13.35.08.676,25.3,6.3,0,8.0,,92407.9,10.82,-0.21,0.65,0.73,0.1,5.4,-1.4,31.12,99.2,,,,,,,,,
13.35.08.688,18.5,4.6,0,8.0,,92284.7,10.84,-0.21,0.65,0.72,-0.1,5.4,-1.4,31.12,,,,,,,,,,
13.35.08.697,31.5,7.9,0,8.0,,91762.2,10.9,-0.21,0.65,0.72,0.8,6.4,-1.2,31.12,,,,,,,,,,
13.35.08.709,37.9,9.5,0,8.0,,92240.5,10.84,-0.21,0.64,0.72,1.0,5.8,-1.0,31.12,,,,,,,,,,
13.35.08.717,48.1,12.0,0,8.0,,90801.9,11.01,-0.21,0.64,0.72,0.5,5.4,-1.0,31.12,,,,,,,,,,
13.35.08.729,59.3,14.8,0,8.0,,93088.8,10.74,-0.21,0.64,0.72,0.7,6.2,-1.4,31.12,,,,,,,,,,
13.35.08.738,62.0,15.5,0,8.0,,92262.4,10.84,-0.21,0.65,0.72,0.9,5.9,-1.4,31.12,,,,,,,,,,
13.35.08.750,54.6,13.6,0,8.0,,93034.4,10.75,-0.21,0.65,0.72,0.3,5.9,-1.3,31.12,,,,,,,,,,
13.35.08.762,53.7,13.4,0,8.0,,90478.9,11.05,-0.21,0.65,0.72,0.0,5.3,-1.4,31.12,,,,,,,,,,
13.35.08.770,43.7,10.9,0,8.0,,91332.3,10.95,-0.21,0.64,0.72,0.4,5.7,-1.1,31.12,,,,,,,,,,
13.35.08.783,24.8,6.2,0,8.0,,92323.0,10.83,-0.2,0.65,0.72,0.4,5.5,-1.3,31.12,,,,,,,,,,
13.35.08.791,14.5,3.6,0,8.0,,92260.3,10.84,-0.21,0.65,0.71,0.2,6.1,-1.2,31.12,,,,,,,,,,
13.35.08.803,-1.3,0.3,0,8.0,,90606.9,11.04,-0.21,0.64,0.72,0.4,5.7,-0.8,31.12,,,,,,,,,,
13.35.08.811,0.7,0.2,0,8.0,,91900.2,10.88,-0.21,0.64,0.72,0.5,6.7,-1.2,31.12,,,,,,,,,,
13.35.08.824,-11.4,2.8,0,8.0,,91532.1,10.93,-0.21,0.64,0.72,0.7,5.9,-1.2,31.12,,,,,,,,,,
13.35.08.832,-9.0,2.2,0,8.0,,92902.0,10.76,-0.21,0.65,0.72,1.2,6.8,-1.3,31.12,,,,,,,,,,
13.35.08.844,-12.1,3.0,0,8.0,,93130.0,10.74,-0.21,0.65,0.72,1.2,6.1,-1.0,31.12,,,,,,,,,,
13.35.08.852,-22.7,5.7,0,8.0,,93555.4,10.69,-0.21,0.65,0.72,0.3,5.9,-1.2,31.12,,,,,,,,,,
13.35.08.864,-27.1,6.8,0,8.0,,91986.8,10.87,-0.22,0.65,0.72,0.2,6.7,-1.6,31.12,,,,,,,,,,
13.35.08.873,-38.4,9.6,0,8.0,,92070.8,10.86,-0.21,0.65,0.73,0.5,4.9,-0.6,31.12,,,,,,,,,,
13.35.08.885,-44.1,11.0,0,8.0,,91182.8,10.97,-0.2,0.65,0.71,-0.1,6.1,-1.3,31.12,,,,,,,,,,
13.35.08.893,-49.3,12.3,0,8.0,,93946.6,10.64,-0.21,0.65,0.72,0.5,5.5,-1.3,31.12,,,,,,,,,,
13.35.08.905,-46.0,11.5,0,8.0,,93365.0,10.71,-0.21,0.65,0.73,0.7,6.6,-1.4,31.12,,,,,,,,,,
13.35.08.918,-61.6,15.4,0,8.0,,91350.4,10.95,-0.21,0.65,0.72,0.4,5.0,-1.1,31.12,,,,,,,,,,
13.35.08.926,-56.9,14.2,0,8.0,,92782.0,10.78,-0.22,0.65,0.73,0.1,4.9,-1.5,31.12,,,,,,,,,,
13.35.08.938,-66.4,16.6,0,8.0,,93849.0,10.66,-0.21,0.65,0.72,0.7,6.8,-1.5,31.12,,,,,,,,,,
13.35.08.946,-73.3,18.3,0,8.0,,91258.4,10.96,-0.22,0.65,0.71,0.3,4.6,-1.3,31.12,,,,,,,,,,
13.35.08.959,-69.0,17.2,0,8.0,,91350.2,10.95,-0.22,0.65,0.72,-0.3,4.6,-1.6,31.12,,,,,,,,,,
13.35.08.967,-86.0,21.5,0,8.0,,92299.8,10.83,-0.21,0.64,0.72,0.3,6.2,-1.1,31.12,,,,,,,,,,
13.35.08.979,-95.1,23.8,0,8.0,,92115.3,10.86,-0.21,0.64,0.72,1.1,5.2,-0.7,31.12,,,,,,,,,,
13.35.08.987,-85.9,21.5,0,8.0,,92347.8,10.83,-0.21,0.65,0.72,0.8,6.2,-1.2,31.12,,,,,,,,,,
13.35.09.000,-92.6,23.2,0,8.0,,93595.6,10.68,-0.2,0.65,0.71,1.1,5.3,-1.2,31.12,,,,,,,,,,
13.35.09.008,-93.7,23.4,0,8.0,,92307.0,10.83,-0.21,0.65,0.72,1.8,6.0,-1.4,31.12,,,,,,,,,,
13.35.09.020,-123.2,30.8,0,8.0,,91898.1,10.88,-0.21,0.65,0.72,0.2,6.1,-1.7,31.12,,,,,,,,,,
13.35.09.028,-106.8,26.7,0,8.0,,92251.5,10.84,-0.2,0.64,0.71,-0.8,5.0,-1.7,31.12,,,,,,,,,,
13.35.09.041,-116.1,29.0,0,8.0,,92207.5,10.85,-0.21,0.65,0.72,-0.1,6.3,-1.6,31.12,,,,,,,,,,
13.35.09.049,-126.4,31.6,0,8.0,,92175.9,10.85,-0.21,0.64,0.73,0.4,6.8,-1.5,31.12,,,,,,,,,,
13.35.09.062,-130.9,32.7,0,8.0,,91758.9,10.9,-0.21,0.64,0.72,0.2,4.9,-1.1,31.12,,,,,,,,,,
13.35.09.069,-138.9,34.7,0,8.0,,91831.3,10.89,-0.2,0.65,0.72,0.9,7.4,-1.5,31.12,,,,,,,,,,
13.35.09.082,60.0,15.0,1,9.0,100.1,91855.0,10.89,-0.2,0.65,0.72,0.8,7.8,-1.2,31.12,,,,,,,,,,
13.35.09.090,92.7,23.2,0,9.0,,91834.8,10.89,-0.2,0.65,0.71,0.5,5.4,-1.1,31.12,,,,,,,,,,
13.35.09.102,155.3,38.8,0,9.0,,92782.1,10.78,-0.21,0.65,0.73,0.1,4.8,-1.6,31.12,,,,,,,,,,
13.35.09.115,196.5,49.1,0,9.0,,91552.5,10.92,-0.21,0.65,0.72,1.1,6.7,-1.1,31.12,,,,,,,,,,
13.35.09.123,237.3,59.3,0,9.0,,91632.7,10.91,-0.21,0.65,0.72,0.0,4.7,-1.0,31.12,,,,,,,,,,
13.35.09.135,268.3,67.1,0,9.0,,92852.3,10.77,-0.21,0.64,0.73,-0.2,6.4,-1.7,31.12,,,,,,,,,,
13.35.09.147,263.5,65.9,0,9.0,,92046.6,10.86,-0.21,0.64,0.72,0.8,6.3,-1.2,31.12,,,,,,,,,,
13.35.09.160,296.7,74.2,0,9.0,,91624.3,10.91,-0.22,0.65,0.72,0.7,4.2,-0.8,31.12,,,,,,,,,,
13.35.09.168,309.4,77.4,0,9.0,,92654.0,10.79,-0.21,0.65,0.72,0.1,7.0,-1.7,31.12,,,,,,,,,,
13.35.09.180,337.8,84.4,0,9.0,,94725.5,10.56,-0.21,0.65,0.72,0.8,5.6,-1.3,31.12,,,,,,,,,,
13.35.09.192,310.6,77.6,0,9.0,,92677.5,10.79,-0.21,0.65,0.71,0.1,5.5,-1.4,31.12,,,,,,,,,,
13.35.09.200,300.3,75.1,0,9.0,,91995.1,10.87,-0.21,0.65,0.72,-0.3,4.5,-1.5,31.12,,,,,,,,,,
13.35.09.213,290.7,72.7,0,9.0,,92862.5,10.77,-0.21,0.65,0.72,0.4,6.6,-1.6,31.12,,,,,,,,,,
13.35.09.225,227.4,56.8,0,9.0,,93433.2,10.7,-0.21,0.64,0.72,0.3,5.8,-1.3,31.12,,,,,,,,,,
13.35.09.237,174.0,43.5,0,9.0,,91071.2,10.98,-0.21,0.64,0.72,0.6,4.9,-1.5,31.12,,,,,,,,,,
13.35.09.245,158.5,39.6,0,9.0,,92669.4,10.79,-0.22,0.65,0.72,1.2,7.8,-1.5,31.12,,,,,,,,,,
13.35.09.258,104.8,26.2,0,9.0,,92510.2,10.81,-0.22,0.65,0.72,0.9,5.2,-1.0,31.12,,,,,,,,,,
13.35.09.270,61.0,15.2,0,9.0,,92923.9,10.76,-0.21,0.65,0.72,-0.6,5.9,-1.5,31.12,,,,,,,,,,
13.35.09.278,13.3,3.3,0,9.0,,91054.2,10.98,-0.21,0.64,0.72,0.4,5.7,-1.2,31.12,,,,,,,,,,
13.35.09.290,15.7,3.9,0,9.0,,91667.7,10.91,-0.21,0.65,0.72,0.4,6.2,-1.4,31.12,,,,,,,,,,
13.35.09.303,26.8,6.7,0,9.0,,92184.9,10.85,-0.21,0.65,0.72,-0.1,5.0,-1.1,31.12,,,,,,,,,,
13.35.09.311,42.1,10.5,0,9.0,,92627.5,10.8,-0.22,0.64,0.72,0.7,6.2,-1.0,31.12,,,,,,,,,,
13.35.09.352,51.4,12.8,0,9.0,,91440.2,10.94,-0.21,0.66,0.72,0.2,5.2,-1.5,31.12,,,,,,,,,,
13.35.09.364,,,0,9.0,,,,,,,,,,,,,,,,,,,,
13.35.09.381,,,0,9.0,,,,,,,,,,,,31.11,,,,,,,,
13.35.09.389,14.9,3.7,0,9.0,,91365.0,10.95,-0.21,0.65,0.71,0.3,6.3,-1.3,31.12,,,,,,,,,,
13.35.09.401,-4.3,1.1,0,9.0,,93449.4,10.7,-0.21,0.64,0.72,0.0,5.2,-1.2,31.12,,,,,,,,,,
13.35.09.413,-10.1,2.5,0,9.0,,92404.7,10.82,-0.21,0.64,0.72,0.8,6.1,-1.1,31.12,,,,,,,,,,
13.35.09.422,-16.0,4.0,0,9.0,,92661.0,10.79,-0.21,0.65,0.72,0.8,7.3,-1.2,31.12,,,,,,,,,,
13.35.09.434,-12.5,3.1,0,9.0,,93254.5,10.72,-0.22,0.65,0.73,0.4,5.9,-0.9,31.12,,,,,,,,,,
13.35.09.446,-23.4,5.8,0,9.0,,92213.2,10.84,-0.21,0.65,0.71,0.7,6.6,-1.1,31.12,,,,,,,,,,
13.35.09.454,-21.7,5.4,0,9.0,,92155.9,10.85,-0.21,0.65,0.72,0.6,5.7,-0.9,31.12,,,,,,,,,,
13.35.09.467,-35.5,8.9,0,9.0,,92657.8,10.79,-0.21,0.65,0.73,0.4,5.5,-1.1,31.12,,,,,,,,,,
13.35.09.479,-35.8,9.0,0,9.0,,92182.9,10.85,-0.21,0.65,0.73,0.8,6.3,-1.1,31.12,,,,,,,,,,
13.35.09.492,-58.7,14.7,0,9.0,,92237.3,10.84,-0.21,0.64,0.72,0.8,5.8,-1.4,31.12,,,,,,,,,,
13.35.09.499,-48.3,12.1,0,9.0,,92842.7,10.77,-0.21,0.64,0.72,0.3,5.5,-1.7,31.12,,,,,,,,,,
13.35.09.512,-54.1,13.5,0,9.0,,92373.1,10.83,-0.21,0.65,0.71,0.5,6.0,-1.5,31.12,,,,,,,,,,
13.35.09.520,-56.1,14.0,0,9.0,,91787.2,10.89,-0.21,0.65,0.72,0.9,5.8,-1.5,31.12,,,,,,,,,,
13.35.09.532,-66.7,16.7,0,9.0,,91292.0,10.95,-0.21,0.65,0.72,-0.2,5.4,-1.6,31.12,,,,,,,,,,
13.35.09.540,-63.4,15.8,0,9.0,,91156.6,10.97,-0.21,0.65,0.72,0.0,5.8,-1.1,31.12,,,,,,,,,,
13.35.09.553,-63.8,16.0,0,9.0,,92147.6,10.85,-0.21,0.65,0.72,0.6,6.2,-1.1,31.12,,,,,,,,,,
13.35.09.561,-76.7,19.2,0,9.0,,91875.0,10.88,-0.21,0.65,0.73,0.4,5.3,-1.0,31.12,,,,,,,,,,
13.35.09.573,-81.8,20.4,0,9.0,,90798.8,11.01,-0.21,0.64,0.72,0.3,6.6,-1.4,31.12,,,,,,,,,,
13.35.09.581,-90.5,22.6,0,9.0,,92092.1,10.86,-0.21,0.65,0.72,1.0,5.6,-1.0,31.12,,,,,,,,,,
13.35.09.594,-87.2,21.8,0,9.0,,93241.1,10.72,-0.21,0.65,0.72,0.6,6.6,-1.6,31.12,,,,,,,,,,
13.35.09.602,-102.9,25.7,0,9.0,,91886.2,10.88,-0.21,0.65,0.71,0.6,5.6,-1.5,31.12,,,,,,,,,,
13.35.09.614,-109.0,27.2,0,9.0,,92076.5,10.86,-0.21,0.65,0.72,0.1,4.6,-1.5,31.12,,,,,,,,,,
13.35.09.622,-99.0,24.8,0,9.0,,91967.1,10.87,-0.21,0.65,0.72,0.0,6.6,-1.8,31.12,,,,,,,,,,
13.35.09.635,-106.2,26.6,0,9.0,,93654.0,10.68,-0.22,0.64,0.72,0.0,5.6,-1.4,31.12,,,,,,,,,,
13.35.09.643,-121.2,30.3,0,9.0,,92318.6,10.83,-0.21,0.65,0.73,0.2,5.5,-1.7,31.12,,,,,,,,,,
13.35.09.655,-126.4,31.6,0,9.0,,91773.5,10.9,-0.21,0.65,0.72,0.4,5.7,-1.4,31.12,,,,,,,,,,
13.35.09.663,-130.9,32.7,0,9.0,,92414.7,10.82,-0.2,0.64,0.72,0.6,6.3,-1.3,31.12,,,,,,,,,,
13.35.09.676,21.7,5.4,1,10.0,103.0,91999.3,10.87,-0.21,0.65,0.72,0.9,5.8,-1.3,31.12,,,,,,,,,,
13.35.09.688,88.1,22.0,0,10.0,,90523.4,11.05,-0.21,0.65,0.72,0.8,6.0,-1.1,31.12,,,,,,,,,,
13.35.09.696,115.0,28.8,0,10.0,,91822.0,10.89,-0.21,0.65,0.72,0.4,5.1,-1.3,31.12,,,,,,,,,,
13.35.09.708,159.3,39.8,0,10.0,,91978.3,10.87,-0.21,0.65,0.72,0.4,5.4,-1.6,31.12,,,,,,,,,,
13.35.09.716,201.9,50.5,0,10.0,,91207.8,10.96,-0.21,0.65,0.71,0.3,5.8,-1.4,31.12,,,,,,,,,,
13.35.09.729,232.5,58.1,0,10.0,,91927.3,10.88,-0.21,0.65,0.72,0.0,5.4,-1.3,31.12,,,,,,,,,,
13.35.09.737,276.9,69.2,0,10.0,,91579.4,10.92,-0.21,0.65,0.72,0.0,5.3,-1.6,31.12,,,,,,,,,,
13.35.09.749,286.1,71.5,0,10.0,,91362.5,10.95,-0.21,0.64,0.72,0.8,6.0,-1.0,31.12,,,,,,,,,,
13.35.09.758,299.4,74.8,0,10.0,,92011.1,10.87,-0.21,0.65,0.73,1.0,5.5,-1.0,31.12,,,,,,,,,,
13.35.09.770,320.0,80.0,0,10.0,,92370.6,10.83,-0.21,0.65,0.72,0.6,5.1,-1.0,31.12,,,,,,,,,,
13.35.09.778,324.0,81.0,0,10.0,,92976.8,10.76,-0.21,0.65,0.72,1.0,5.8,-0.9,31.12,,,,,,,,,,
13.35.09.790,311.0,77.8,0,10.0,,91901.0,10.88,-0.21,0.64,0.71,0.8,5.8,-1.2,31.12,,,,,,,,,,
13.35.09.798,299.0,74.8,0,10.0,,92988.5,10.75,-0.21,0.65,0.72,0.7,5.4,-1.4,31.12,,,,,,,,,,
13.35.09.811,281.1,70.3,0,10.0,,91776.0,10.9,-0.21,0.65,0.72,0.5,5.9,-1.3,31.12,,,,,,,,,,
13.35.09.819,228.9,57.2,0,10.0,,89804.6,11.14,-0.21,0.65,0.71,-0.4,5.4,-1.1,31.12,,,,,,,,,,
13.35.09.831,207.4,51.8,0,10.0,,93229.8,10.73,-0.21,0.64,0.72,0.3,5.5,-1.4,31.12,,,,,,,,,,
13.35.09.839,190.5,47.6,0,10.0,,93108.7,10.74,-0.21,0.64,0.72,1.0,6.5,-1.1,31.12,,,,,,,,,,
13.35.09.852,114.4,28.6,0,10.0,,91133.5,10.97,-0.21,0.65,0.72,0.7,5.9,-0.9,31.12,,,,,,,,,,
13.35.09.860,97.9,24.5,0,10.0,,92767.7,10.78,-0.21,0.65,0.72,0.5,5.6,-1.3,31.12,,,,,,,,,,
13.35.09.872,25.3,6.3,0,10.0,,92534.9,10.81,-0.21,0.65,0.72,0.3,5.6,-1.2,31.12,,,,,,,,,,
13.35.09.880,1.0,0.2,0,10.0,,91910.6,10.88,-0.21,0.65,0.72,0.8,5.2,-1.0,31.12,,,,,,,,,,
13.35.09.893,18.1,4.5,0,10.0,,92850.6,10.77,-0.21,0.65,0.72,0.6,6.0,-1.6,31.12,,,,,,,,,,
13.35.09.905,34.9,8.7,0,10.0,,91965.9,10.87,-0.21,0.65,0.71,0.1,5.2,-1.0,31.12,,,,,,,,,,
13.35.09.913,52.0,13.0,0,10.0,,92581.3,10.8,-0.21,0.65,0.72,0.0,5.3,-1.7,31.12,,,,,,,,,,
13.35.09.926,54.0,13.5,0,10.0,,92247.1,10.84,-0.21,0.65,0.72,0.2,6.8,-1.4,31.12,,,,,,,,,,
13.35.09.934,49.1,12.3,0,10.0,,92746.3,10.78,-0.21,0.65,0.72,0.0,5.3,-1.3,31.12,,,,,,,,,,
13.35.09.946,56.9,14.2,0,10.0,,91530.7,10.93,-0.21,0.65,0.73,-0.3,4.8,-1.6,31.12,,,,,,,,,,
13.35.09.954,61.4,15.4,0,10.0,,92957.4,10.76,-0.21,0.65,0.72,0.8,5.9,-1.0,31.12,,,,,,,,,,
13.35.09.966,47.1,11.8,0,10.0,,92660.2,10.79,-0.21,0.65,0.72,0.7,5.6,-1.2,31.12,,,,,,,,,,
13.35.09.975,42.6,10.6,0,10.0,,93146.1,10.74,-0.21,0.64,0.71,-0.1,5.1,-1.5,31.12,,,,,,,,,,
13.35.09.988,19.5,4.9,0,10.0,,92025.0,10.87,-0.21,0.64,0.73,0.4,5.7,-1.3,31.12,,,,,,,,,,
13.35.09.995,11.5,2.9,0,10.0,,93087.5,10.74,-0.21,0.64,0.72,1.1,6.8,-1.1,31.12,,,,,,,,,,
13.35.10.009,-4.5,1.1,0,10.0,,91980.3,10.87,-0.21,0.65,0.72,0.9,6.5,-1.3,31.12,,,,,,,,,,
13.35.10.016,-6.3,1.6,0,10.0,,91731.3,10.9,-0.21,0.65,0.72,0.4,6.4,-1.2,31.12,,,,,,,,,,
13.35.10.028,-15.4,3.8,0,10.0,,91447.8,10.94,-0.21,0.65,0.71,1.2,5.7,-0.8,31.12,,,,,,,,,,
13.35.10.036,-17.3,4.3,0,10.0,,92452.4,10.82,-0.21,0.65,0.72,0.4,5.8,-1.4,31.12,,,,,,,,,,
13.35.10.048,-24.6,6.2,0,10.0,,92664.1,10.79,-0.21,0.65,0.72,-0.1,5.6,-1.5,31.12,,,,,,,,,,
13.35.10.057,-27.9,7.0,0,10.0,,89984.9,11.11,-0.2,0.65,0.72,-0.3,5.8,-1.6,31.12,,,,,,,,,,
13.35.10.070,-30.8,7.7,0,10.0,,93502.1,10.69,-0.21,0.64,0.72,1.0,5.7,-1.4,31.12,,,,,,,,,,
13.35.10.081,-35.2,8.8,0,10.0,,92400.0,10.82,-0.22,0.65,0.71,0.5,5.3,-1.4,31.12,,,,,,,,,,
13.35.10.090,-43.9,11.0,0,10.0,,92705.5,10.79,-0.21,0.65,0.72,0.3,5.5,-1.6,31.12,,,,,,,,,,
13.35.10.102,-44.4,11.1,0,10.0,,91419.3,10.94,-0.2,0.65,0.72,,50.1,-1.6,31.12,,,,,,,,,,
13.35.10.117,-57.4,14.4,0,10.0,,92236.2,10.84,-0.21,0.65,0.72,0.5,5.4,-1.5,31.12,,,,,,,,,,
13.35.10.122,-55.0,13.8,0,10.0,,92465.6,10.81,-0.21,0.65,0.72,0.2,6.5,-1.4,31.12,,,,,,,,,,
13.35.10.159,-56.2,14.0,0,10.0,,91391.9,10.94,-0.21,0.65,0.73,-0.8,4.5,-1.5,31.12,,,,,,,,,,
13.35.10.167,-76.7,19.2,0,10.0,,94019.6,10.64,-0.21,0.64,0.72,-0.4,4.2,-1.8,31.12,,,,,,,,,,
13.35.10.180,-90.1,22.5,0,10.0,,91546.8,10.92,-0.21,0.65,0.72,1.0,6.2,-1.3,31.12,,,,,,,,,,
13.35.10.192,-96.4,24.1,0,10.0,,92205.0,10.85,-0.21,0.66,0.72,0.8,6.3,-1.2,31.12,,,,,,,,,,
13.35.10.200,-102.4,25.6,0,10.0,,92815.0,10.77,-0.21,0.65,0.72,-0.4,4.3,-1.4,31.12,,,,,,,,,,
13.35.10.212,-97.2,24.3,0,10.0,,91983.3,10.87,-0.21,0.65,0.72,-0.2,5.6,-1.6,31.12,,,,,,,,,,
13.35.10.221,-102.8,25.7,0,10.0,,91384.3,10.94,-0.21,0.65,0.71,1.1,5.8,-0.9,31.12,,,,,,,,,,
13.35.10.233,-106.8,26.7,0,10.0,,91835.0,10.89,-0.21,0.65,0.72,0.4,6.1,-1.4,31.12,,,,,,,,,,
13.35.10.241,-108.4,27.1,0,10.0,,91707.9,10.9,-0.21,0.64,0.72,-0.2,5.0,-1.2,31.12,,,,,,,,,,
13.35.10.254,-105.7,26.4,0,10.0,,91716.8,10.9,-0.21,0.64,0.71,0.4,7.5,-1.3,31.12,,,,,,,,,,
13.35.10.261,-126.7,31.7,0,10.0,,92189.3,10.85,-0.21,0.64,0.72,0.8,5.8,-0.7,31.12,,,,,,,,,,
13.35.10.274,19.4,4.8,1,11.0,103.9,92619.8,10.8,-0.22,0.65,0.72,0.8,6.8,-1.1,31.12,,,,,,,,,,
13.35.10.282,55.0,13.8,0,11.0,,92492.9,10.81,-0.21,0.65,0.72,-0.4,4.1,-1.0,31.12,,,,,,,,,,
13.35.10.294,107.8,27.0,0,11.0,,91533.5,10.92,-0.21,0.64,0.72,-0.7,6.6,-1.7,31.12,,,,,,,,,,
13.35.10.302,157.9,39.5,0,11.0,,92399.6,10.82,-0.21,0.64,0.72,0.5,5.5,-1.4,31.12,,,,,,,,,,
13.35.10.316,207.6,51.9,0,11.0,,91528.6,10.93,-0.21,0.65,0.72,0.8,6.7,-1.6,31.12,,,,,,,,,,
13.35.10.323,230.3,57.6,0,11.0,,93091.9,10.74,-0.21,0.65,0.72,0.2,5.6,-1.6,31.12,,,,,,,,,,
13.35.10.335,275.7,68.9,0,11.0,,92642.8,10.79,-0.21,0.66,0.72,0.2,5.2,-1.2,31.12,,,,,,,,,,
13.35.10.344,279.9,70.0,0,11.0,,92581.5,10.8,-0.21,0.65,0.72,-0.5,4.9,-1.5,31.12,,,,,,,,,,
13.35.10.356,309.3,77.3,0,11.0,,91396.1,10.94,-0.21,0.64,0.72,-0.1,4.6,-1.4,31.12,,,,,,,,,,
13.35.10.368,329.3,82.3,0,11.0,,92875.3,10.77,-0.21,0.64,0.72,0.3,5.1,-1.5,31.12,,,,,,,,,,
13.35.10.376,311.3,77.8,0,11.0,,92948.5,10.76,-0.21,0.65,0.72,-0.5,5.0,-2.2,31.12,,,,,,,,,,
13.35.10.388,307.1,76.8,0,11.0,,91737.0,10.9,-0.21,0.65,0.72,-0.3,3.9,-1.6,31.12,,,,,,,,,,
13.35.10.397,338.0,84.5,0,11.0,,91606.1,10.92,-0.21,0.65,0.73,0.4,5.6,-1.6,31.12,,,,,,,,,,
13.35.10.409,305.3,76.3,0,11.0,,92225.0,10.84,-0.21,0.65,0.72,-0.1,6.7,-1.6,31.12,,,,,,,,,,
13.35.10.417,250.3,62.6,0,11.0,,91814.5,10.89,-0.21,0.64,0.72,-0.5,3.5,-1.6,31.12,,,,,,,,,,
13.35.10.429,228.7,57.2,0,11.0,,92310.6,10.83,-0.21,0.65,0.73,0.1,5.6,-1.5,31.12,,,,,,,,,,
13.35.10.438,197.3,49.3,0,11.0,,91822.7,10.89,-0.22,0.65,0.72,1.0,6.3,-1.4,31.12,,,,,,,,,,
13.35.10.450,140.5,35.1,0,11.0,,92189.3,10.85,-0.21,0.65,0.72,-1.1,4.0,-2.2,31.12,,,,,,,,,,
13.35.10.458,115.7,28.9,0,11.0,,91087.4,10.98,-0.22,0.65,0.72,-1.1,2.9,-1.9,31.12,,,,,,,,,,
13.35.10.470,44.9,11.2,0,11.0,,92038.0,10.87,-0.21,0.64,0.71,0.3,6.1,-1.5,31.12,,,,,,,,,,
13.35.10.479,0.8,0.2,0,11.0,,91740.7,10.9,-0.21,0.64,0.71,0.8,5.1,-1.5,31.12,,,,,,,,,,
13.35.10.491,10.2,2.6,0,11.0,,91932.0,10.88,-0.21,0.65,0.72,-0.5,5.3,-1.9,31.12,,,,,,,,,,
13.35.10.499,25.4,6.4,0,11.0,,92513.8,10.81,-0.21,0.64,0.72,0.0,5.6,-1.7,31.12,,,,,,,,,,
13.35.10.511,36.9,9.2,0,11.0,,91609.5,10.92,-0.21,0.64,0.72,1.4,5.9,-1.0,31.12,,,,,,,,,,
13.35.10.520,48.8,12.2,0,11.0,,93960.4,10.64,-0.21,0.65,0.72,0.3,5.5,-1.5,31.12,,,,,,,,,,
13.35.10.532,60.6,15.2,0,11.0,,93528.4,10.69,-0.21,0.65,0.72,0.2,4.7,-1.0,31.12,,,,,,,,,,
13.35.10.541,60.6,15.2,0,11.0,,93426.8,10.7,-0.21,0.65,0.72,1.4,6.1,-0.9,31.12,,,,,,,,,,
13.35.10.552,64.5,16.1,0,11.0,,91011.4,10.99,-0.21,0.64,0.72,1.2,6.1,-0.9,31.12,,,,,,,,,,
13.35.10.561,51.7,12.9,0,11.0,,92368.7,10.83,-0.21,0.64,0.71,0.4,5.4,-0.9,31.12,,,,,,,,,,
13.35.10.573,46.4,11.6,0,11.0,,90802.9,11.01,-0.21,0.65,0.72,0.9,6.2,-1.0,31.12,,,,,,,,,,
13.35.10.581,27.4,6.8,0,11.0,,91055.4,10.98,-0.21,0.65,0.73,1.3,6.3,-0.7,31.12,,,,,,,,,,
13.35.10.593,8.4,2.1,0,11.0,,90968.5,10.99,-0.21,0.64,0.72,0.9,6.4,-1.1,31.12,,,,,,,,,,
13.35.10.601,3.6,0.9,0,11.0,,92651.0,10.79,-0.21,0.64,0.72,0.4,6.6,-1.3,31.12,,,,,,,,,,
13.35.10.614,-4.1,1.0,0,11.0,,91461.9,10.93,-0.21,0.65,0.72,1.1,6.6,-1.0,31.12,,,,,,,,,,
13.35.10.626,-16.0,4.0,0,11.0,,91225.4,10.96,-0.21,0.66,0.73,1.2,5.7,-0.8,31.12,,,,,,,,,,
13.35.10.634,-17.5,4.4,0,11.0,,91641.5,10.91,-0.21,0.65,0.73,0.6,6.7,-1.4,31.12,,,,,,,,,,
13.35.10.642,-17.8,4.4,0,11.0,,92547.9,10.81,-0.21,0.65,0.73,0.6,5.5,-0.7,31.12,,,,,,,,,,
13.35.10.655,-24.7,6.2,0,11.0,,91909.3,10.88,-0.21,0.65,0.72,1.2,6.4,-0.8,31.12,,,,,,,,,,
13.35.10.667,-34.4,8.6,0,11.0,,93118.0,10.74,-0.21,0.64,0.72,0.8,5.1,-0.9,31.12,,,,,,,,,,
13.35.10.680,-31.0,7.8,0,11.0,,92713.8,10.79,-0.21,0.65,0.72,0.9,4.9,-0.8,31.12,,,,,,,,,,
13.35.10.687,-45.4,11.4,0,11.0,,92516.4,10.81,-0.21,0.65,0.72,1.5,5.2,-0.4,31.12,,,,,,,,,,
13.35.10.700,-46.1,11.5,0,11.0,,93529.6,10.69,-0.21,0.65,0.72,0.8,5.6,-0.9,31.12,,,,,,,,,,
13.35.10.708,-45.5,11.4,0,11.0,,92699.2,10.79,-0.21,0.65,0.72,0.5,4.7,-0.6,31.12,,,,,,,,,,
13.35.10.720,-54.9,13.7,0,11.0,,91238.1,10.96,-0.19,0.66,0.71,-0.9,5.8,-0.3,31.12,,,,,,,,,,
13.35.10.729,-64.3,16.1,0,11.0,,92012.4,10.87,-0.22,0.62,0.73,-1.4,4.7,-0.8,31.12,,,,,,,,,,
13.35.10.741,-65.2,16.3,0,11.0,,93120.5,10.74,-0.21,0.63,0.74,2.3,6.2,-1.0,31.12,,,,,,,,,,
13.35.10.749,-73.3,18.3,0,11.0,,93495.7,10.7,-0.21,0.65,0.73,2.4,4.1,-0.1,31.12,,,,,,,,,,
13.35.10.761,-73.7,18.4,0,11.0,,91384.3,10.94,-0.21,0.66,0.71,0.1,5.8,-1.3,31.12,,,,,,,,,,
13.35.10.769,-82.0,20.5,0,11.0,,92231.2,10.84,-0.21,0.64,0.71,0.8,4.8,-1.0,31.12,,,,,,,,,,
13.35.10.782,-84.4,21.1,0,11.0,,94092.1,10.63,-0.21,0.64,0.72,1.1,5.7,-0.7,31.12,,,,,,,,,,
13.35.10.790,-94.5,23.6,0,11.0,,90437.2,11.06,-0.21,0.64,0.72,0.1,5.4,-1.3,31.12,,,,,,,,,,
13.35.10.802,-103.2,25.8,0,11.0,,91273.0,10.96,-0.21,0.64,0.72,-0.3,4.6,-1.7,31.12,,,,,,,,,,
13.35.10.810,-114.1,28.5,0,11.0,,90590.2,11.04,-0.2,0.66,0.73,0.8,5.4,-1.3,31.12,,,,,,,,,,
13.35.10.824,-114.7,28.7,0,11.0,,92859.4,10.77,-0.21,0.65,0.72,1.2,6.8,-0.8,31.12,,,,,,,,,,
13.35.10.831,-101.3,25.3,0,11.0,,91066.2,10.98,-0.21,0.65,0.72,0.3,4.5,-1.0,31.12,,,,,,,,,,
13.35.10.845,-111.4,27.8,0,11.0,,92046.3,10.86,-0.21,0.65,0.73,0.1,4.8,-1.4,31.12,,,,,,,,,,
13.35.10.851,-116.8,29.2,0,11.0,,93549.2,10.69,-0.2,0.67,0.69,1.2,6.3,-0.6,31.12,,,,,,,,,,
13.35.10.864,-131.0,32.8,0,11.0,,91882.1,10.88,-0.23,0.64,0.72,-0.8,5.2,-1.4,31.12,,,,,,,,,,
13.35.10.872,5.0,1.2,1,12.0,101.5,91664.2,10.91,-0.2,0.64,0.75,1.0,5.8,-1.9,31.12,,,,,,,,,,
13.35.10.884,69.4,17.4,0,12.0,,92627.3,10.8,-0.21,0.65,0.73,1.8,4.4,-0.8,31.12,,,,,,,,,,
13.35.10.892,110.8,27.7,0,12.0,,92229.2,10.84,-0.21,0.66,0.71,0.3,5.9,-1.4,31.12,,,,,,,,,,
13.35.10.905,163.5,40.9,0,12.0,,92994.3,10.75,-0.2,0.64,0.71,-0.3,3.8,-1.3,31.12,,,,,,,,,,
13.35.10.917,197.2,49.3,0,12.0,,94166.6,10.62,-0.21,0.65,0.72,1.2,5.2,-0.4,31.12,,,,,,,,,,
13.35.10.925,226.8,56.7,0,12.0,,92055.1,10.86,-0.2,0.64,0.72,1.6,6.6,-0.5,31.12,,,,,,,,,,
13.35.10.962,305.7,76.4,0,12.0,,91590.8,10.92,-0.21,0.65,0.71,0.4,6.1,-1.2,31.12,,,,,,,,,,
13.35.10.975,297.7,74.4,0,12.0,,94381.2,10.6,-0.21,0.65,0.72,-0.1,5.3,-1.1,31.12,,,,,,,,,,
13.35.10.982,300.7,75.2,0,12.0,,93117.3,10.74,-0.21,0.65,0.72,0.2,5.4,-1.2,31.12,,,,,,,,,,
13.35.10.995,320.6,80.2,0,12.0,,93508.0,10.69,-0.21,0.65,0.73,0.9,5.3,-1.0,31.12,,,,,,,,,,
13.35.11.003,300.5,75.1,0,12.0,,92499.6,10.81,-0.2,0.65,0.72,0.8,6.2,-0.8,31.12,,,,,,,,,,
13.35.11.015,256.8,64.2,0,12.0,,90757.5,11.02,-0.2,0.64,0.72,0.7,5.2,-0.8,31.12,,,,,,,,,,
13.35.11.023,251.3,62.8,0,12.0,,91655.4,10.91,-0.2,0.65,0.72,0.9,6.2,-0.8,31.12,,,,,,,,,,
13.35.11.036,203.4,50.8,0,12.0,,91764.3,10.9,-0.2,0.65,0.72,1.5,5.6,-0.7,31.12,,,,,,,,,,
13.35.11.044,160.9,40.2,0,12.0,,93423.9,10.7,-0.21,0.65,0.72,0.8,5.6,-0.5,31.12,,,,,,,,,,
13.35.11.056,101.5,25.4,0,12.0,,92026.9,10.87,-0.21,0.65,0.71,1.4,5.9,-0.4,31.12,,,,,,,,,,
13.35.11.064,76.5,19.1,0,12.0,,92356.5,10.83,-0.21,0.64,0.72,0.7,5.5,-0.8,31.12,,,,,,,,,,
13.35.11.078,6.3,1.6,0,12.0,,91306.3,10.95,-0.21,0.65,0.71,0.0,5.3,-1.4,31.12,,,,,,,,,,
13.35.11.085,5.5,1.4,0,12.0,,92970.3,10.76,-0.21,0.65,0.72,1.2,5.7,-1.2,31.12,,,,,,,,,,
13.35.11.097,18.5,4.6,0,12.0,,93230.3,10.73,-0.21,0.65,0.72,0.2,6.9,-1.8,31.12,,,,,,,,,,
13.35.11.105,27.1,6.8,0,12.0,,92243.5,10.84,-0.21,0.66,0.72,-0.8,4.6,-1.7,31.12,,,,,,,,,,
13.35.11.118,46.2,11.6,0,12.0,,92233.9,10.84,-0.2,0.65,0.72,0.1,5.1,-1.3,31.12,,,,,,,,,,
13.35.11.127,61.0,15.2,0,12.0,,92531.4,10.81,-0.21,0.65,0.72,0.7,5.0,-0.9,31.12,,,,,,,,,,
13.35.11.138,55.1,13.8,0,12.0,,92259.9,10.84,-0.21,0.64,0.73,-0.2,4.5,-1.4,31.12,,,,,,,,,,
13.35.11.146,55.5,13.9,0,12.0,,92906.2,10.76,-0.2,0.64,0.73,-0.8,4.2,-0.1,31.12,,,,,,,,,,
13.35.11.159,37.7,9.4,0,12.0,,92485.7,10.81,-0.22,0.64,0.72,1.1,7.4,-1.1,31.12,,,,,,,,,,
13.35.11.167,47.8,12.0,0,12.0,,92387.0,10.82,-0.21,0.64,0.72,1.9,6.3,-0.7,31.12,,,,,,,,,,
13.35.11.179,23.3,5.8,0,12.0,,92042.8,10.86,-0.21,0.65,0.72,0.8,5.0,-1.2,31.12,,,,,,,,,,
13.35.11.187,14.7,3.7,0,12.0,,92358.9,10.83,-0.21,0.65,0.71,0.3,7.1,-1.5,31.12,,,,,,,,,,
13.35.11.200,-7.3,1.8,0,12.0,,91978.2,10.87,-0.21,0.65,0.72,0.4,4.9,-1.4,31.12,,,,,,,,,,
13.35.11.208,-1.8,0.4,0,12.0,,92441.5,10.82,-0.2,0.66,0.72,-0.1,6.3,-1.5,31.12,,,,,,,,,,
13.35.11.220,-10.9,2.7,0,12.0,,91818.8,10.89,-0.21,0.65,0.73,-0.3,5.5,-1.4,31.12,,,,,,,,,,
13.35.11.228,-20.4,5.1,0,12.0,,91815.4,10.89,-0.2,0.64,0.72,-0.4,4.2,-1.5,31.12,,,,,,,,,,
13.35.11.245,-22.2,5.6,0,12.0,,92421.3,10.82,-0.21,0.65,0.72,0.6,6.5,-1.2,31.12,,,,,,,,,,
13.35.11.253,-28.7,7.2,0,12.0,,92803.6,10.78,-0.21,0.65,0.72,1.2,6.7,-0.9,31.12,,,,,,,,,,
13.35.11.266,-33.9,8.5,0,12.0,,90311.8,11.07,-0.21,0.65,0.72,0.4,5.4,-1.3,31.12,,,,,,,,,,
13.35.11.274,-37.9,9.5,0,12.0,,91840.0,10.89,-0.2,0.64,0.72,-0.3,5.4,-1.5,31.12,,,,,,,,,,
13.35.11.286,-36.4,9.1,0,12.0,,91842.4,10.89,-0.2,0.64,0.72,0.2,5.8,-1.4,31.12,,,,,,,,,,
13.35.11.296,-41.8,10.4,0,12.0,,92417.6,10.82,-0.2,0.65,0.72,0.7,5.8,-1.3,31.12,,,,,,,,,,
13.35.11.306,-52.7,13.2,0,12.0,,92560.1,10.8,-0.21,0.66,0.73,-0.4,5.3,-1.4,31.12,,,,,,,,,,
13.35.11.314,-50.8,12.7,0,12.0,,93762.4,10.67,-0.21,0.64,0.72,-0.5,5.7,-1.8,31.12,,,,,,,,,,
13.35.11.327,-60.0,15.0,0,12.0,,91621.9,10.91,-0.21,0.65,0.73,0.6,5.7,-1.0,31.12,,,,,,,,,,
13.35.11.335,-64.5,16.1,0,12.0,,93595.9,10.68,-0.2,0.64,0.72,0.2,6.2,-1.4,31.12,,,,,,,,,,
13.35.11.347,-63.9,16.0,0,12.0,,90513.2,11.05,-0.2,0.65,0.72,0.0,5.0,-0.9,31.12,,,,,,,,,,
13.35.11.355,-73.3,18.3,0,12.0,,90899.3,11.0,-0.21,0.65,0.72,0.5,5.9,-1.0,31.12,,,,,,,,,,
13.35.11.368,-81.5,20.4,0,12.0,,91165.1,10.97,-0.21,0.64,0.71,0.7,5.7,-1.2,31.12,,,,,,,,,,
13.35.11.376,-82.5,20.6,0,12.0,,93229.9,10.73,-0.21,0.64,0.71,-0.2,5.4,-1.7,31.12,,,,,,,,,,
13.35.11.388,-95.5,23.9,0,12.0,,92516.6,10.81,-0.21,0.65,0.72,0.3,5.9,-1.5,31.12,,,,,,,,,,
13.35.11.396,-89.8,22.4,0,12.0,,93176.5,10.73,-0.21,0.65,0.72,-0.1,4.7,-1.1,31.12,,,,,,,,,,
13.35.11.408,-109.0,27.2,0,12.0,,93489.8,10.7,-0.2,0.65,0.72,-0.1,5.8,-2.0,31.12,,,,,,,,,,
13.35.11.417,-108.1,27.0,0,12.0,,92076.0,10.86,-0.2,0.66,0.73,-0.4,4.9,-1.4,31.12,,,,,,,,,,
13.35.11.429,-118.3,29.6,0,12.0,,92243.0,10.84,-0.2,0.65,0.72,0.2,5.2,-1.0,31.12,,,,,,,,,,
13.35.11.437,-119.5,29.9,0,12.0,,92160.8,10.85,-0.21,0.64,0.72,1.0,5.5,-0.9,31.12,,,,,,,,,,
13.35.11.450,-127.2,31.8,0,12.0,,92472.3,10.81,-0.2,0.65,0.72,0.7,5.9,-0.8,31.12,,,,,,,,,,
13.35.11.458,-126.4,31.6,0,12.0,,93049.8,10.75,-0.21,0.64,0.72,0.5,6.2,-1.3,31.12,,,,,,,,,,
13.35.11.471,2.1,0.5,1,13.0,103.3,92070.7,10.86,-0.21,0.64,0.72,0.9,4.9,-0.3,31.12,,,,,,,,,,
13.35.11.478,35.6,8.9,0,13.0,,92887.3,10.77,-0.21,0.65,0.73,1.0,6.4,-1.3,31.12,,,,,,,,,,
13.35.11.490,87.4,21.8,0,13.0,,92452.8,10.82,-0.21,0.65,0.72,0.5,6.3,-1.1,31.12,,,,,,,,,,
13.35.11.499,129.0,32.2,0,13.0,,93356.8,10.71,-0.2,0.64,0.72,0.1,5.0,-1.0,31.12,,,,,,,,,,
13.35.11.511,177.7,44.4,0,13.0,,91331.6,10.95,-0.2,0.65,0.73,0.9,6.4,-1.2,31.12,,,,,,,,,,
13.35.11.524,259.2,64.8,0,13.0,,92679.1,10.79,-0.22,0.65,0.73,1.8,7.2,-1.1,31.12,,,,,,,,,,
13.35.11.531,279.9,70.0,0,13.0,,90639.6,11.03,-0.21,0.65,0.72,0.2,5.0,-1.3,31.12,,,,,,,,,,
13.35.11.544,289.1,72.3,0,13.0,,91467.4,10.93,-0.2,0.65,0.73,0.3,5.2,-1.5,31.12,,,,,,,,,,
13.35.11.552,289.4,72.4,0,13.0,,91679.3,10.91,-0.21,0.65,0.72,1.7,5.9,-1.1,31.12,,,,,,,,,,
13.35.11.564,305.6,76.4,0,13.0,,92135.3,10.85,-0.2,0.65,0.72,1.3,6.0,-1.0,31.12,,,,,,,,,,
13.35.11.572,315.6,78.9,0,13.0,,93285.3,10.72,-0.22,0.65,0.72,-0.5,4.9,-1.1,31.12,,,,,,,,,,
13.35.11.585,316.4,79.1,0,13.0,,91985.7,10.87,-0.2,0.64,0.72,0.0,7.6,-1.6,31.12,,,,,,,,,,
13.35.11.594,303.4,75.8,0,13.0,,91183.8,10.97,-0.21,0.65,0.72,1.2,5.1,-1.0,31.12,,,,,,,,,,
13.35.11.605,288.4,72.1,0,13.0,,93359.3,10.71,-0.21,0.65,0.73,0.5,6.5,-1.4,31.12,,,,,,,,,,
13.35.11.613,268.3,67.1,0,13.0,,91261.8,10.96,-0.2,0.65,0.73,0.2,5.8,-1.2,31.12,,,,,,,,,,
13.35.11.626,213.2,53.3,0,13.0,,92959.4,10.76,-0.2,0.64,0.72,0.5,7.4,-0.9,31.12,,,,,,,,,,
13.35.11.634,198.3,49.6,0,13.0,,90720.7,11.02,-0.21,0.64,0.71,-0.5,6.5,-1.3,31.12,,,,,,,,,,
13.35.11.647,145.6,36.4,0,13.0,,91525.9,10.93,-0.21,0.64,0.72,0.8,5.5,-1.3,31.12,,,,,,,,,,
13.35.11.654,127.0,31.8,0,13.0,,91836.5,10.89,-0.2,0.65,0.73,1.7,8.2,-1.0,31.12,,,,,,,,,,
13.35.11.667,57.5,14.4,0,13.0,,91495.2,10.93,-0.21,0.65,0.73,0.5,7.1,-1.2,31.12,,,,,,,,,,
13.35.11.675,37.6,9.4,0,13.0,,92855.6,10.77,-0.21,0.65,0.72,-1.1,4.9,-2.3,31.12,,,,,,,,,,
13.35.11.687,4.4,1.1,0,13.0,,90704.6,11.02,-0.2,0.65,0.72,0.2,5.7,-1.3,31.12,,,,,,,,,,
13.35.11.695,22.3,5.6,0,13.0,,92163.0,10.85,-0.2,0.65,0.73,0.9,7.3,-1.2,31.12,,,,,,,,,,
13.35.11.708,29.3,7.3,0,13.0,,91959.8,10.87,-0.21,0.65,0.72,0.4,5.0,-1.1,31.12,,,,,,,,,,
13.35.11.716,47.2,11.8,0,13.0,,92258.3,10.84,-0.21,0.64,0.72,-0.4,5.9,-1.0,31.12,,,,,,,,,,
13.35.11.728,53.0,13.2,0,13.0,,91941.2,10.88,-0.2,0.65,0.72,1.2,7.6,-1.4,31.12,,,,,,,,,,
13.35.11.765,45.9,11.5,0,13.0,,92232.5,10.84,-0.21,0.64,0.72,1.8,6.7,-0.6,31.12,,,,,,,,,,
13.35.11.773,34.0,8.5,0,13.0,,91452.7,10.93,-0.2,0.65,0.71,0.3,5.4,-1.2,31.12,,,,,,,,,,
13.35.11.785,25.3,6.3,0,13.0,,91959.6,10.87,-0.21,0.66,0.72,-0.1,5.0,-1.9,31.12,,,,,,,,,,
13.35.11.794,10.0,2.5,0,13.0,,92227.2,10.84,-0.2,0.66,0.73,0.7,6.1,-1.6,31.12,,,,,,,,,,
13.35.11.807,-5.9,1.5,0,13.0,,92549.4,10.81,-0.2,0.65,0.72,0.2,6.0,-1.6,31.12,,,,,,,,,,
13.35.11.818,-10.9,2.7,0,13.0,,93674.6,10.68,-0.2,0.65,0.72,-0.5,4.8,-1.7,31.12,,,,,,,,,,
13.35.11.830,-15.8,4.0,0,13.0,,92353.1,10.83,-0.21,0.64,0.72,0.3,6.0,-1.6,31.12,,,,,,,,,,
13.35.11.840,-14.3,3.6,0,13.0,,93592.9,10.68,-0.21,0.65,0.72,0.7,5.1,-1.4,31.12,,,,,,,,,,
13.35.11.851,-23.7,5.9,0,13.0,,91895.2,10.88,-0.2,0.65,0.72,-0.1,4.8,-1.3,31.12,,,,,,,,,,
13.35.11.859,-20.4,5.1,0,13.0,,91705.1,10.9,-0.2,0.64,0.72,0.2,6.7,-1.8,31.12,,,,,,,,,,
13.35.11.871,-38.5,9.6,0,13.0,,91465.9,10.93,-0.21,0.64,0.72,0.1,4.9,-1.5,31.12,,,,,,,,,,
13.35.11.880,-30.6,7.6,0,13.0,,91681.9,10.91,-0.21,0.65,0.72,-0.5,5.2,-1.6,31.12,,,,,,,,,,
13.35.11.893,-51.5,12.9,0,13.0,,91230.3,10.96,-0.21,0.65,0.72,-0.1,5.7,-2.0,31.12,,,,,,,,,,
13.35.11.904,-53.5,13.4,0,13.0,,90108.1,11.1,-0.2,0.65,0.73,0.3,6.6,-1.7,31.12,,,,,,,,,,
13.35.11.912,-45.1,11.3,0,13.0,,91833.6,10.89,-0.2,0.65,0.72,0.6,6.3,-1.3,31.12,,,,,,,,,,
13.35.11.925,-59.9,15.0,0,13.0,,92998.9,10.75,-0.21,0.65,0.73,-0.4,4.9,-1.2,31.12,,,,,,,,,,
13.35.11.937,-70.4,17.6,0,13.0,,93413.4,10.71,-0.2,0.65,0.72,0.7,6.1,-1.2,31.12,,,,,,,,,,
13.35.11.945,-72.5,18.1,0,13.0,,92597.2,10.8,-0.21,0.65,0.72,0.8,5.2,-1.0,31.12,,,,,,,,,,
13.35.11.957,-79.8,20.0,0,13.0,,91266.1,10.96,-0.21,0.65,0.72,0.2,5.9,-1.3,31.12,,,,,,,,,,
13.35.11.970,-74.4,18.6,0,13.0,,91327.9,10.95,-0.21,0.64,0.71,0.6,6.0,-1.2,31.12,,,,,,,,,,
13.35.11.982,-82.4,20.6,0,13.0,,92088.3,10.86,-0.21,0.65,0.71,0.2,5.9,-1.0,31.12,,,,,,,,,,
13.35.11.990,-89.8,22.4,0,13.0,,92229.5,10.84,-0.2,0.64,0.72,0.0,5.7,-1.8,31.12,,,,,,,,,,
13.35.12.002,-96.3,24.1,0,13.0,,92486.6,10.81,-0.21,0.65,0.72,0.4,6.3,-1.5,31.12,,,,,,,,,,
13.35.12.015,-103.5,25.9,0,13.0,,91113.1,10.98,-0.21,0.65,0.72,0.7,6.6,-1.5,31.12,,,,,,,,,,
13.35.12.024,-121.0,30.2,0,13.0,,91729.4,10.9,-0.2,0.65,0.72,0.0,5.9,-1.6,31.12,,,,,,,,,,
13.35.12.035,-107.4,26.8,0,13.0,,91825.4,10.89,-0.21,0.65,0.71,-0.6,5.5,-1.8,31.12,,,,,,,,,,
13.35.12.047,-116.7,29.2,0,13.0,,92356.3,10.83,-0.21,0.65,0.72,0.3,6.0,-1.4,31.12,,,,,,,,,,
13.35.12.056,-126.1,31.5,0,13.0,,92601.4,10.8,-0.2,0.65,0.72,0.7,5.5,-1.2,31.12,,,,,,,,,,
13.35.12.068,-125.3,31.3,0,13.0,,92803.2,10.78,-0.21,0.65,0.72,0.3,5.4,-1.4,31.12,,,,,,,,,,
13.35.12.080,52.6,13.2,1,14.0,100.3,92881.5,10.77,-0.21,0.64,0.72,0.5,5.7,-1.2,31.12,,,,,,,,,,
13.35.12.093,103.7,25.9,0,14.0,,92124.3,10.85,-0.21,0.64,0.72,0.4,5.7,-1.0,31.12,,,,,,,,,,
13.35.12.101,144.7,36.2,0,14.0,,91739.7,10.9,-0.21,0.64,0.72,0.4,5.7,-1.3,31.12,,,,,,,,,,
13.35.12.113,185.4,46.4,0,14.0,,92967.5,10.76,-0.21,0.65,0.72,0.7,6.1,-1.5,31.12,,,,,,,,,,
13.35.12.126,225.1,56.3,0,14.0,,92310.5,10.83,-0.21,0.65,0.72,0.4,5.7,-1.4,31.12,,,,,,,,,,
13.35.12.134,233.0,58.2,0,14.0,,91560.6,10.92,-0.21,0.65,0.73,0.2,5.5,-1.3,31.12,,,,,,,,,,
13.35.12.146,294.1,73.5,0,14.0,,93487.7,10.7,-0.21,0.65,0.73,0.1,5.9,-1.3,31.12,,,,,,,,,,
13.35.12.158,314.7,78.7,0,14.0,,92542.9,10.81,-0.2,0.65,0.72,0.0,5.2,-1.2,31.12,,,,,,,,,,
13.35.12.170,307.9,77.0,0,14.0,,91313.5,10.95,-0.2,0.65,0.72,0.3,5.7,-1.3,31.12,,,,,,,,,,
13.35.12.179,322.7,80.7,0,14.0,,93037.5,10.75,-0.21,0.65,0.73,0.7,6.5,-1.2,31.12,,,,,,,,,,
13.35.12.192,292.7,73.2,0,14.0,,91979.9,10.87,-0.21,0.65,0.72,0.5,5.6,-1.3,31.12,,,,,,,,,,
13.35.12.203,281.3,70.3,0,14.0,,92141.8,10.85,-0.21,0.65,0.72,0.0,5.3,-1.0,31.12,,,,,,,,,,
13.35.12.211,286.8,71.7,0,14.0,,91643.8,10.91,-0.21,0.64,0.73,0.3,6.7,-1.4,31.12,,,,,,,,,,
13.35.12.224,228.9,57.2,0,14.0,,93177.9,10.73,-0.21,0.64,0.72,0.5,5.6,-1.5,31.12,,,,,,,,,,
13.35.12.236,208.8,52.2,0,14.0,,92036.9,10.87,-0.21,0.65,0.72,0.5,5.6,-1.6,31.12,,,,,,,,,,
13.35.12.248,162.5,40.6,0,14.0,,92254.3,10.84,-0.21,0.65,0.72,0.7,5.9,-1.1,31.12,,,,,,,,,,
13.35.12.256,104.9,26.2,0,14.0,,92736.9,10.78,-0.21,0.65,0.73,0.4,5.4,-1.1,31.12,,,,,,,,,,
13.35.12.269,54.1,13.5,0,14.0,,91479.5,10.93,-0.21,0.64,0.72,-0.3,6.2,-1.5,31.12,,,,,,,,,,
13.35.12.281,-3.5,0.9,0,14.0,,91728.1,10.9,-0.21,0.64,0.72,0.4,5.6,-1.1,31.12,,,,,,,,,,
13.35.12.289,16.2,4.0,0,14.0,,92039.7,10.86,-0.21,0.64,0.72,0.9,6.2,-0.9,31.12,,,,,,,,,,
13.35.12.301,27.8,7.0,0,14.0,,90703.2,11.02,-0.21,0.65,0.72,0.8,7.3,-1.5,31.12,,,,,,,,,,
13.35.12.314,39.0,9.8,0,14.0,,94222.6,10.61,-0.21,0.65,0.72,0.8,6.4,-0.8,31.12,,,,,,,,,,
13.35.12.326,59.1,14.8,0,14.0,,91780.1,10.9,-0.21,0.64,0.71,0.5,6.0,-1.0,31.12,,,,,,,,,,
13.35.12.334,61.3,15.3,0,14.0,,91648.9,10.91,-0.21,0.65,0.72,0.2,6.5,-1.0,31.12,,,,,,,,,,
13.35.12.347,51.2,12.8,0,14.0,,92259.1,10.84,-0.21,0.65,0.73,0.6,5.9,-0.8,31.12,,,,,,,,,,
13.35.12.359,49.3,12.3,0,14.0,,92607.6,10.8,-0.21,0.64,0.72,0.5,5.0,-1.3,31.12,,,,,,,,,,
13.35.12.367,50.4,12.6,0,14.0,,92010.6,10.87,-0.21,0.64,0.72,0.2,5.7,-1.4,31.12,,,,,,,,,,
13.35.12.379,29.6,7.4,0,14.0,,92308.6,10.83,-0.21,0.64,0.72,1.0,6.4,-1.1,31.12,,,,,,,,,,
13.35.12.392,7.9,2.0,0,14.0,,92246.5,10.84,-0.21,0.65,0.72,0.0,6.4,-1.3,31.12,,,,,,,,,,
13.35.12.400,-0.3,0.1,0,14.0,,92303.8,10.83,-0.21,0.65,0.72,0.0,5.8,-1.3,31.12,,,,,,,,,,
13.35.12.412,-5.5,1.4,0,14.0,,92555.3,10.8,-0.21,0.65,0.72,0.0,6.5,-1.4,31.12,,,,,,,,,,
13.35.12.424,-21.9,5.5,0,14.0,,94190.3,10.62,-0.21,0.65,0.72,0.7,5.9,-0.9,31.12,,,,,,,,,,
13.35.12.437,-15.8,4.0,0,14.0,,93575.6,10.69,-0.21,0.65,0.73,0.0,5.5,-0.9,31.12,,,,,,,,,,
13.35.12.445,-14.8,3.7,0,14.0,,92645.9,10.79,-0.21,0.64,0.73,0.3,7.0,-1.0,31.12,,,,,,,,,,
13.35.12.457,-23.4,5.8,0,14.0,,92488.9,10.81,-0.21,0.65,0.72,0.7,5.3,-0.9,31.12,,,,,,,,,,
13.35.12.469,-29.5,7.4,0,14.0,,91581.6,10.92,-0.21,0.65,0.73,0.2,6.5,-1.5,31.12,,,,,,,,,,
13.35.12.478,-41.7,10.4,0,14.0,,90835.4,11.01,-0.21,0.65,0.72,0.7,6.0,-1.0,31.12,,,,,,,,,,
13.35.12.490,-47.4,11.8,0,14.0,,92638.6,10.79,-0.21,0.65,0.72,0.7,6.4,-1.1,31.12,,,,,,,,,,
13.35.12.502,-50.5,12.6,0,14.0,,92751.4,10.78,-0.21,0.65,0.72,-0.3,4.9,-1.4,31.12,,,,,,,,,,
13.35.12.511,-51.2,12.8,0,14.0,,92267.5,10.84,-0.2,0.64,0.73,0.1,5.7,-1.1,31.12,,,,,,,,,,
13.35.12.523,-69.6,17.4,0,14.0,,89944.6,11.12,-0.21,0.65,0.72,0.8,5.9,-1.0,31.12,,,,,,,,,,
13.35.12.535,-67.3,16.8,0,14.0,,91684.2,10.91,-0.21,0.65,0.72,0.1,6.1,-1.3,31.12,,,,,,,,,,
13.35.12.576,-75.3,18.8,0,14.0,,92302.4,10.83,-0.21,0.65,0.72,0.2,5.3,-1.2,31.12,,,,,,,,,,
13.35.12.584,-77.4,19.4,0,14.0,,90968.0,10.99,-0.2,0.65,0.72,0.1,5.5,-1.0,31.12,,,,,,,,,,
13.35.12.596,-111.9,28.0,0,14.0,,92917.5,10.76,-0.21,0.65,0.72,0.6,6.5,-0.7,31.12,,,,,,,,,,
13.35.12.609,-95.1,23.8,0,14.0,,92195.0,10.85,-0.21,0.65,0.72,0.6,4.9,-0.7,31.12,,,,,,,,,,
13.35.12.617,-102.6,25.6,0,14.0,,91300.2,10.95,-0.21,0.64,0.72,-0.1,5.8,-1.2,31.12,,,,,,,,,,
13.35.12.630,-106.0,26.5,0,14.0,,90966.5,10.99,-0.21,0.64,0.72,1.0,4.4,-0.4,31.12,,,,,,,,,,
13.35.12.642,-124.6,31.2,0,14.0,,92174.3,10.85,-0.21,0.65,0.73,0.8,5.7,-1.1,31.12,,,,,,,,,,
13.35.12.654,-125.7,31.4,0,14.0,,92582.1,10.8,-0.21,0.65,0.72,0.7,6.7,-1.8,31.12,,,,,,,,,,
13.35.12.662,-124.3,31.1,0,14.0,,90983.0,10.99,-0.21,0.65,0.71,1.0,5.3,-1.4,31.12,,,,,,,,,,
13.35.12.675,27.5,6.9,1,15.0,99.1,91854.7,10.89,-0.2,0.66,0.71,-0.5,5.7,-1.1,31.12,,,,,,,,,,
13.35.12.687,74.6,18.6,0,15.0,,92522.2,10.81,-0.21,0.64,0.73,-0.3,6.4,-2.0,31.12,,,,,,,,,,
13.35.12.696,123.9,31.0,0,15.0,,91192.1,10.97,-0.21,0.64,0.73,0.8,6.0,-0.7,31.12,,,,,,,,,,
13.35.12.708,173.6,43.4,0,15.0,,92908.9,10.76,-0.21,0.64,0.73,0.7,6.2,-1.1,31.12,,,,,,,,,,
13.35.12.719,195.4,48.8,0,15.0,,92150.9,10.85,-0.21,0.65,0.72,0.3,5.7,-1.5,31.12,,,,,,,,,,
13.35.12.728,261.8,65.4,0,15.0,,92022.6,10.87,-0.21,0.64,0.73,0.8,6.5,-0.9,31.12,,,,,,,,,,
13.35.12.740,288.1,72.0,0,15.0,,92904.1,10.76,-0.21,0.65,0.72,1.1,6.3,-1.2,31.12,,,,,,,,,,
13.35.12.753,322.6,80.6,0,15.0,,93088.2,10.74,-0.21,0.65,0.72,-0.2,5.0,-1.4,31.12,,,,,,,,,,
13.35.12.764,319.9,80.0,0,15.0,,91210.8,10.96,-0.2,0.65,0.72,0.8,6.7,-1.4,31.12,,,,,,,,,,
13.35.12.773,327.2,81.8,0,15.0,,93061.0,10.75,-0.21,0.64,0.72,0.7,5.7,-1.2,31.12,,,,,,,,,,
13.35.12.786,330.0,82.5,0,15.0,,93339.5,10.71,-0.2,0.65,0.72,-0.7,5.6,-1.9,31.12,,,,,,,,,,
13.35.12.797,316.7,79.2,0,15.0,,91562.3,10.92,-0.21,0.64,0.72,0.3,6.0,-1.2,31.12,,,,,,,,,,
13.35.12.805,246.9,61.7,0,15.0,,92652.3,10.79,-0.21,0.65,0.72,0.7,5.6,-1.1,31.12,,,,,,,,,,
13.35.12.818,245.9,61.5,0,15.0,,91963.5,10.87,-0.21,0.64,0.72,-0.1,6.3,-1.5,31.12,,,,,,,,,,
13.35.12.830,210.3,52.6,0,15.0,,92103.0,10.86,-0.21,0.64,0.73,0.7,5.7,-1.3,31.12,,,,,,,,,,
13.35.12.842,179.4,44.8,0,15.0,,92341.1,10.83,-0.2,0.65,0.72,0.9,7.0,-1.1,31.12,,,,,,,,,,
13.35.12.851,138.4,34.6,0,15.0,,90715.5,11.02,-0.21,0.65,0.72,0.9,6.5,-1.0,31.12,,,,,,,,,,
13.35.12.863,78.9,19.7,0,15.0,,90653.7,11.03,-0.21,0.65,0.73,0.8,6.8,-1.1,31.12,,,,,,,,,,
13.35.12.876,21.6,5.4,0,15.0,,90753.7,11.02,-0.21,0.65,0.72,0.4,6.6,-1.1,31.12,,,,,,,,,,
13.35.12.883,-3.7,0.9,0,15.0,,93153.5,10.73,-0.21,0.65,0.72,0.8,5.9,-1.0,31.12,,,,,,,,,,
13.35.12.896,24.1,6.0,0,15.0,,92426.9,10.82,-0.21,0.65,0.72,0.5,6.2,-0.9,31.12,,,,,,,,,,
13.35.12.909,33.3,8.3,0,15.0,,91839.6,10.89,-0.21,0.65,0.73,0.5,5.6,-1.1,31.12,,,,,,,,,,
13.35.12.921,44.9,11.2,0,15.0,,93291.9,10.72,-0.2,0.65,0.72,0.2,5.7,-1.4,31.12,,,,,,,,,,
13.35.12.929,44.9,11.2,0,15.0,,92615.4,10.8,-0.21,0.65,0.73,1.0,6.3,-1.2,31.12,,,,,,,,,,
13.35.12.942,59.0,14.8,0,15.0,,92862.0,10.77,-0.21,0.65,0.72,0.7,5.9,-1.3,31.12,,,,,,,,,,
13.35.12.949,47.5,11.9,0,15.0,,93370.6,10.71,-0.21,0.65,0.72,0.4,5.7,-1.5,31.12,,,,,,,,,,
13.35.12.962,46.9,11.7,0,15.0,,89911.8,11.12,-0.21,0.65,0.72,0.5,6.1,-1.4,31.12,,,,,,,,,,
13.35.12.969,31.2,7.8,0,15.0,,91963.8,10.87,-0.21,0.65,0.72,0.4,6.4,-1.2,31.12,,,,,,,,,,
13.35.12.982,25.9,6.5,0,15.0,,93022.5,10.75,-0.22,0.65,0.72,0.2,5.5,-1.2,31.12,,,,,,,,,,
13.35.12.990,18.2,4.6,0,15.0,,92883.6,10.77,-0.21,0.64,0.72,0.0,5.7,-1.6,31.12,,,,,,,,,,
13.35.13.002,-1.8,0.4,0,15.0,,91390.9,10.94,-0.21,0.65,0.72,0.5,6.1,-1.3,31.12,,,,,,,,,,
13.35.13.011,-3.2,0.8,0,15.0,,91793.7,10.89,-0.21,0.65,0.73,0.6,5.7,-1.4,31.12,,,,,,,,,,
13.35.13.023,-7.9,2.0,0,15.0,,92267.4,10.84,-0.21,0.65,0.73,0.5,6.0,-1.5,31.12,,,,,,,,,,
13.35.13.031,-9.9,2.5,0,15.0,,92459.9,10.82,-0.21,0.65,0.72,1.0,6.0,-1.4,31.12,,,,,,,,,,
13.35.13.044,-18.8,4.7,0,15.0,,92513.3,10.81,-0.21,0.65,0.72,0.8,6.2,-1.4,31.12,,,,,,,,,,
13.35.13.052,-20.6,5.2,0,15.0,,92076.8,10.86,-0.21,0.64,0.72,0.0,5.2,-1.4,31.12,,,,,,,,,,
13.35.13.064,-23.7,5.9,0,15.0,,91776.2,10.9,-0.21,0.64,0.73,0.3,5.7,-1.1,31.12,,,,,,,,,,
13.35.13.073,-40.7,10.2,0,15.0,,91908.0,10.88,-0.21,0.65,0.72,1.0,6.1,-1.4,31.12,,,,,,,,,,
13.35.13.084,-37.4,9.4,0,15.0,,93977.0,10.64,-0.21,0.65,0.71,0.6,6.2,-1.3,31.12,,,,,,,,,,
13.35.13.092,-28.5,7.1,0,15.0,,91418.4,10.94,-0.21,0.65,0.72,0.5,5.8,-1.0,31.12,,,,,,,,,,
13.35.13.105,-43.9,11.0,0,15.0,,91800.9,10.89,-0.21,0.65,0.73,1.2,6.0,-1.0,31.12,,,,,,,,,,
13.35.13.114,-49.1,12.3,0,15.0,,92986.0,10.75,-0.21,0.65,0.72,0.8,5.3,-1.0,31.12,,,,,,,,,,
13.35.13.125,-55.8,14.0,0,15.0,,92037.4,10.87,-0.21,0.65,0.73,0.7,5.4,-1.2,31.12,,,,,,,,,,
13.35.13.133,-59.2,14.8,0,15.0,,91858.2,10.89,-0.21,0.65,0.72,1.0,6.5,-1.6,31.12,,,,,,,,,,
13.35.13.146,-66.3,16.6,0,15.0,,91678.0,10.91,-0.21,0.65,0.72,1.0,5.1,-0.9,31.12,,,,,,,,,,
13.35.13.155,-73.1,18.3,0,15.0,,92937.0,10.76,-0.21,0.65,0.72,0.2,6.2,-1.3,31.12,,,,,,,,,,
13.35.13.166,-74.1,18.5,0,15.0,,92521.4,10.81,-0.21,0.65,0.72,0.9,5.3,-1.0,31.12,,,,,,,,,,
13.35.13.178,-88.7,22.2,0,15.0,,93090.6,10.74,-0.21,0.65,0.72,0.5,6.5,-1.2,31.12,,,,,,,,,,
13.35.13.187,-95.8,24.0,0,15.0,,91881.2,10.88,-0.21,0.64,0.71,0.3,5.1,-1.4,31.12,,,,,,,,,,
13.35.13.200,-88.3,22.1,0,15.0,,93713.8,10.67,-0.21,0.65,0.72,1.0,5.8,-1.1,31.12,,,,,,,,,,
13.35.13.207,-87.9,22.0,0,15.0,,91814.0,10.89,-0.21,0.65,0.72,0.6,6.0,-1.4,31.12,,,,,,,,,,
13.35.13.220,-115.1,28.8,0,15.0,,92008.5,10.87,-0.21,0.64,0.71,0.3,6.2,-1.5,31.12,,,,,,,,,,
13.35.13.227,-116.4,29.1,0,15.0,,93592.5,10.68,-0.21,0.65,0.73,0.4,5.7,-1.2,31.12,,,,,,,,,,
13.35.13.242,-114.7,28.7,0,15.0,,92257.1,10.84,-0.21,0.65,0.72,0.6,6.7,-1.6,31.12,,,,,,,,,,
13.35.13.248,-110.7,27.7,0,15.0,,92143.4,10.85,-0.21,0.65,0.72,0.1,5.5,-1.6,31.12,,,,,,,,,,
13.35.13.260,-127.7,31.9,0,15.0,,90915.2,11.0,-0.21,0.65,0.72,-0.1,5.5,-1.3,31.12,,,,,,,,,,
13.35.13.268,-113.6,28.4,0,15.0,,92059.0,10.86,-0.21,0.64,0.72,0.7,6.4,-1.5,31.12,,,,,,,,,,
13.35.13.281,48.0,12.0,1,16.0,91.4,93255.2,10.72,-0.21,0.65,0.71,0.8,5.8,-1.1,31.12,,,,,,,,,,
13.35.13.290,106.9,26.7,0,16.0,,91438.0,10.94,-0.21,0.65,0.72,0.4,6.2,-1.0,31.12,,,,,,,,,,
13.35.13.301,148.6,37.2,0,16.0,,90400.2,11.06,-0.21,0.64,0.71,0.5,5.7,-1.5,31.12,,,,,,,,,,
13.35.13.310,159.7,39.9,0,16.0,,92191.0,10.85,-0.21,0.65,0.72,0.0,4.9,-1.8,31.12,,,,,,,,,,
13.35.13.322,213.0,53.2,0,16.0,,90616.7,11.04,-0.21,0.65,0.72,-0.1,6.2,-1.6,31.12,,,,,,,,,,
13.35.13.330,284.2,71.0,0,16.0,,92751.8,10.78,-0.21,0.64,0.72,-0.4,4.6,-1.8,31.12,,,,,,,,,,
13.35.13.342,284.9,71.2,0,16.0,,92785.9,10.78,-0.21,0.65,0.72,0.1,5.1,-1.6,31.12,,,,,,,,,,
13.35.13.380,325.3,81.3,0,16.0,,93887.0,10.65,-0.21,0.65,0.72,0.9,5.4,-1.2,31.19,,,,,,,,,,
13.35.13.392,305.6,76.4,0,16.0,,92741.1,10.78,-0.2,0.64,0.72,1.1,6.6,-1.3,31.19,,,,,,,,,,
13.35.13.400,313.2,78.3,0,16.0,,92657.4,10.79,-0.21,0.65,0.72,0.7,6.2,-1.2,31.19,,,,,,,,,,
13.35.13.412,278.7,69.7,0,16.0,,91575.4,10.92,-0.21,0.65,0.72,0.5,7.0,-1.7,31.19,,,,,,,,,,
13.35.13.421,251.2,62.8,0,16.0,,90768.4,11.02,-0.21,0.65,0.71,0.3,5.2,-1.1,31.19,,,,,,,,,,
13.35.13.432,204.2,51.0,0,16.0,,91775.4,10.9,-0.21,0.65,0.72,-0.2,4.3,-1.5,31.19,,,,,,,,,,
13.35.13.440,184.7,46.2,0,16.0,,92603.3,10.8,-0.21,0.64,0.72,-0.4,5.3,-1.5,31.19,,,,,,,,,,
13.35.13.453,128.3,32.1,0,16.0,,93055.5,10.75,-0.21,0.65,0.72,0.3,4.6,-1.0,31.19,,,,,,,,,,
13.35.13.465,79.4,19.8,0,16.0,,92591.1,10.8,-0.21,0.65,0.72,0.7,6.5,-1.4,31.19,,,,,,,,,,
13.35.13.473,38.1,9.5,0,16.0,,92379.6,10.82,-0.21,0.65,0.71,0.8,5.2,-1.2,31.19,,,,,,,,,,
13.35.13.486,12.8,3.2,0,16.0,,93299.7,10.72,-0.21,0.65,0.73,0.1,5.8,-1.6,31.19,,,,,,,,,,
13.35.13.495,24.3,6.1,0,16.0,,92066.9,10.86,-0.21,0.64,0.72,0.4,5.4,-1.4,31.19,,,,,,,,,,
13.35.13.506,39.3,9.8,0,16.0,,92982.1,10.75,-0.21,0.65,0.72,0.7,5.2,-1.6,31.19,,,,,,,,,,
13.35.13.514,43.4,10.8,0,16.0,,91585.5,10.92,-0.22,0.65,0.72,0.5,5.8,-1.5,31.19,,,,,,,,,,
13.35.13.527,63.4,15.8,0,16.0,,92907.8,10.76,-0.21,0.64,0.71,-0.1,5.5,-1.8,31.19,,,,,,,,,,
13.35.13.536,66.2,16.6,0,16.0,,91860.0,10.89,-0.21,0.65,0.72,0.1,5.3,-1.6,31.19,,,,,,,,,,
13.35.13.547,59.8,15.0,0,16.0,,92028.8,10.87,-0.21,0.65,0.72,0.3,5.4,-1.7,31.19,,,,,,,,,,
13.35.13.556,52.8,13.2,0,16.0,,92555.7,10.8,-0.21,0.65,0.72,0.7,5.3,-1.5,31.19,,,,,,,,,,
13.35.13.567,45.4,11.4,0,16.0,,93043.9,10.75,-0.21,0.65,0.72,0.2,4.8,-1.5,31.19,,,,,,,,,,
13.35.13.576,43.4,10.8,0,16.0,,92690.4,10.79,-0.2,0.65,0.73,-0.2,5.3,-1.4,31.19,,,,,,,,,,
13.35.13.589,18.7,4.7,0,16.0,,92641.1,10.79,-0.21,0.64,0.72,0.9,5.6,-1.2,31.19,,,,,,,,,,
13.35.13.596,6.2,1.6,0,16.0,,92181.8,10.85,-0.21,0.65,0.72,0.6,6.4,-1.1,31.19,,,,,,,,,,
13.35.13.608,-5.5,1.4,0,16.0,,92492.1,10.81,-0.21,0.64,0.72,0.4,5.3,-1.4,31.19,,,,,,,,,,
13.35.13.617,-10.0,2.5,0,16.0,,91193.7,10.97,-0.21,0.64,0.72,0.1,5.7,-1.5,31.19,,,,,,,,,,
13.35.13.629,-13.8,3.4,0,16.0,,92681.1,10.79,-0.21,0.64,0.72,0.8,5.8,-1.3,31.19,,,,,,,,,,
13.35.13.637,-24.1,6.0,0,16.0,,92277.0,10.84,-0.21,0.65,0.72,0.4,5.5,-1.3,31.19,,,,,,,,,,
13.35.13.649,-19.0,4.8,0,16.0,,91096.4,10.98,-0.21,0.65,0.72,-0.2,4.9,-1.7,31.19,,,,,,,,,,
13.35.13.658,-26.4,6.6,0,16.0,,91146.1,10.97,-0.21,0.64,0.72,-0.4,5.0,-1.7,31.19,,,,,,,,,,
13.35.13.670,-38.2,9.6,0,16.0,,93750.7,10.67,-0.21,0.64,0.72,0.8,6.0,-1.3,31.19,,,,,,,,,,
13.35.13.682,-29.2,7.3,0,16.0,,92782.8,10.78,-0.21,0.64,0.72,0.5,5.5,-1.4,31.19,100.0,,,,,,,,,
13.35.13.691,-51.1,12.8,0,16.0,,92573.2,10.8,-0.21,0.65,0.73,0.4,5.6,-1.4,31.19,,,,,,,,,,
13.35.13.703,-56.5,14.1,0,16.0,,91427.6,10.94,-0.21,0.65,0.72,0.2,5.4,-1.4,31.19,,,,,,,,,,
13.35.13.711,-53.2,13.3,0,16.0,,93530.4,10.69,-0.21,0.65,0.72,0.0,5.1,-1.5,31.19,,,,,,,,,,
13.35.13.723,-70.5,17.6,0,16.0,,91409.3,10.94,-0.21,0.65,0.72,0.3,5.2,-1.3,31.19,,,,,,,,,,
13.35.13.731,-61.3,15.3,0,16.0,,92224.1,10.84,-0.21,0.65,0.72,0.4,4.7,-1.4,31.19,,,,,,,,,,
13.35.13.744,-74.8,18.7,0,16.0,,92286.9,10.84,-0.21,0.64,0.72,0.2,5.4,-1.9,31.19,,,,,,,,,,
13.35.13.753,-81.0,20.2,0,16.0,,89977.6,11.11,-0.21,0.65,0.72,0.3,6.1,-1.7,31.19,,,,,,,,,,
13.35.13.764,-82.9,20.7,0,16.0,,91920.5,10.88,-0.21,0.65,0.72,0.8,6.3,-1.3,31.19,,,,,,,,,,
13.35.13.772,-81.4,20.4,0,16.0,,92797.5,10.78,-0.21,0.65,0.72,-0.2,5.1,-1.3,31.19,,,,,,,,,,
13.35.13.785,-94.7,23.7,0,16.0,,92682.1,10.79,-0.21,0.65,0.73,0.3,5.5,-1.5,31.19,,,,,,,,,,
13.35.13.793,-99.6,24.9,0,16.0,,91873.0,10.88,-0.2,0.65,0.72,1.1,5.5,-0.7,31.19,,,,,,,,,,
13.35.13.805,-87.1,21.8,0,16.0,,91887.5,10.88,-0.21,0.65,0.72,0.9,5.2,-0.9,31.19,,,,,,,,,,
13.35.13.813,-96.9,24.2,0,16.0,,92021.3,10.87,-0.21,0.65,0.72,0.9,5.7,-1.2,31.19,,,,,,,,,,
13.35.13.826,-98.7,24.7,0,16.0,,92200.2,10.85,-0.21,0.64,0.72,0.6,5.4,-0.9,31.19,,,,,,,,,,
13.35.13.834,-109.4,27.4,0,16.0,,91800.3,10.89,-0.21,0.64,0.72,0.6,5.7,-1.6,31.19,,,,,,,,,,
13.35.13.846,-125.2,31.3,0,16.0,,92480.6,10.81,-0.21,0.64,0.72,0.4,6.1,-1.5,31.19,,,,,,,,,,
13.35.13.855,-116.3,29.1,0,16.0,,92605.0,10.8,-0.21,0.65,0.72,0.6,5.3,-1.8,31.19,,,,,,,,,,
13.35.13.867,-125.9,31.5,0,16.0,,92874.5,10.77,-0.21,0.65,0.71,-0.1,5.1,-1.7,31.19,,,,,,,,,,
13.35.13.875,13.1,3.3,1,17.0,103.0,92768.6,10.78,-0.21,0.65,0.73,-0.4,4.9,-1.8,31.19,,,,,,,,,,
13.35.13.887,84.5,21.1,0,17.0,,93406.1,10.71,-0.2,0.64,0.72,0.4,5.4,-1.3,31.19,,,,,,,,,,
13.35.13.895,124.7,31.2,0,17.0,,91726.7,10.9,-0.21,0.64,0.72,0.0,5.5,-1.6,31.19,,,,,,,,,,
13.35.13.907,178.6,44.6,0,17.0,,92348.2,10.83,-0.21,0.64,0.72,0.4,5.2,-1.1,31.19,,,,,,,,,,
13.35.13.916,211.9,53.0,0,17.0,,91595.3,10.92,-0.21,0.65,0.73,1.4,6.9,-1.3,31.19,,,,,,,,,,
13.35.13.928,257.0,64.2,0,17.0,,91898.9,10.88,-0.21,0.65,0.72,1.2,6.7,-1.2,31.19,,,,,,,,,,
13.35.13.936,269.1,67.3,0,17.0,,92046.9,10.86,-0.21,0.65,0.72,0.9,5.6,-1.5,31.19,,,,,,,,,,
13.35.13.948,268.0,67.0,0,17.0,,91725.2,10.9,-0.21,0.65,0.72,0.7,6.3,-1.5,31.19,,,,,,,,,,
13.35.13.957,286.2,71.6,0,17.0,,93025.3,10.75,-0.21,0.66,0.72,0.4,5.9,-1.4,31.19,,,,,,,,,,
13.35.13.969,347.8,87.0,0,17.0,,92253.7,10.84,-0.21,0.65,0.72,0.6,5.0,-1.4,31.19,,,,,,,,,,
13.35.13.977,338.5,84.6,0,17.0,,92196.8,10.85,-0.2,0.65,0.72,0.3,5.7,-1.5,31.19,,,,,,,,,,
13.35.13.994,326.9,81.7,0,17.0,,92673.5,10.79,-0.21,0.65,0.73,0.3,5.4,-1.1,31.19,,,,,,,,,,
13.35.14.002,292.6,73.2,0,17.0,,92627.7,10.8,-0.21,0.65,0.72,0.8,5.9,-1.2,31.19,,,,,,,,,,
13.35.14.015,242.1,60.5,0,17.0,,92093.1,10.86,-0.21,0.64,0.72,0.6,5.9,-1.6,31.19,,,,,,,,,,
13.35.14.023,212.5,53.1,0,17.0,,92160.6,10.85,-0.21,0.65,0.71,0.2,5.1,-1.3,31.19,,,,,,,,,,
13.35.14.035,205.6,51.4,0,17.0,,94098.3,10.63,-0.21,0.65,0.72,0.9,6.1,-1.4,31.19,,,,,,,,,,
13.35.14.043,173.6,43.4,0,17.0,,91776.6,10.9,-0.21,0.65,0.72,0.7,5.6,-1.2,31.19,,,,,,,,,,
13.35.14.055,111.2,27.8,0,17.0,,91949.9,10.88,-0.21,0.64,0.73,0.4,5.5,-1.1,31.19,,,,,,,,,,
13.35.14.063,82.0,20.5,0,17.0,,91401.5,10.94,-0.21,0.65,0.72,0.9,5.8,-1.0,31.19,,,,,,,,,,
13.35.14.075,18.4,4.6,0,17.0,,93035.1,10.75,-0.21,0.64,0.71,0.9,6.3,-1.5,31.19,,,,,,,,,,
13.35.14.085,6.2,1.6,0,17.0,,91120.4,10.97,-0.21,0.65,0.72,0.9,6.1,-1.2,31.19,,,,,,,,,,
13.35.14.096,22.9,5.7,0,17.0,,92441.2,10.82,-0.21,0.65,0.72,0.2,5.2,-1.2,31.19,,,,,,,,,,
13.35.14.105,30.3,7.6,0,17.0,,91230.9,10.96,-0.21,0.65,0.72,0.5,5.2,-1.2,31.19,,,,,,,,,,
13.35.14.117,53.3,13.3,0,17.0,,93681.0,10.67,-0.2,0.65,0.72,0.3,5.6,-1.3,31.19,,,,,,,,,,
13.35.14.125,62.0,15.5,0,17.0,,90599.3,11.04,-0.21,0.65,0.72,0.6,5.6,-1.1,31.19,,,,,,,,,,
13.35.14.137,58.3,14.6,0,17.0,,91497.3,10.93,-0.21,0.65,0.72,0.7,5.5,-0.8,31.19,,,,,,,,,,
13.35.14.146,51.8,13.0,0,17.0,,91987.4,10.87,-0.21,0.64,0.72,0.7,5.6,-1.1,31.19,,,,,,,,,,
13.35.14.183,26.0,6.5,0,17.0,,93192.0,10.73,-0.21,0.65,0.72,0.6,5.8,-1.4,31.19,,,,,,,,,,
13.35.14.194,14.3,3.6,0,17.0,,90708.5,11.02,-0.21,0.65,0.73,0.6,6.0,-1.5,31.19,,,,,,,,,,
13.35.14.202,-2.4,0.6,0,17.0,,92108.3,10.86,-0.21,0.65,0.73,0.8,5.6,-1.0,31.19,,,,,,,,,,
13.35.14.215,-1.6,0.4,0,17.0,,91476.7,10.93,-0.21,0.64,0.72,0.5,5.6,-1.1,31.19,,,,,,,,,,
13.35.14.224,-13.9,3.5,0,17.0,,92446.9,10.82,-0.21,0.65,0.72,0.7,5.8,-1.3,31.19,,,,,,,,,,
13.35.14.236,-24.1,6.0,0,17.0,,92201.9,10.85,-0.21,0.65,0.73,0.9,6.0,-1.3,31.19,,,,,,,,,,
13.35.14.244,-17.7,4.4,0,17.0,,92082.4,10.86,-0.21,0.65,0.72,-0.1,5.2,-1.6,31.19,,,,,,,,,,
13.35.14.257,-20.9,5.2,0,17.0,,91997.1,10.87,-0.2,0.64,0.72,-0.2,5.4,-1.9,31.19,,,,,,,,,,
13.35.14.264,-24.1,6.0,0,17.0,,91953.9,10.88,-0.21,0.65,0.72,0.6,6.1,-1.5,31.19,,,,,,,,,,
13.35.14.277,-40.8,10.2,0,17.0,,91230.0,10.96,-0.21,0.65,0.72,0.7,5.1,-1.6,31.19,,,,,,,,,,
13.35.14.285,-42.3,10.6,0,17.0,,90270.2,11.08,-0.21,0.64,0.72,-0.5,5.1,-1.4,31.19,,,,,,,,,,
13.35.14.297,-50.2,12.6,0,17.0,,91826.4,10.89,-0.21,0.65,0.72,0.8,5.6,-1.3,31.19,,,,,,,,,,
13.35.14.306,-52.9,13.2,0,17.0,,92383.1,10.82,-0.21,0.65,0.72,1.1,6.0,-1.3,31.19,,,,,,,,,,
13.35.14.317,-54.4,13.6,0,17.0,,92677.1,10.79,-0.21,0.65,0.71,-0.1,6.2,-1.3,31.19,,,,,,,,,,
13.35.14.326,-66.3,16.6,0,17.0,,91640.3,10.91,-0.21,0.64,0.72,-0.2,5.0,-1.8,31.19,,,,,,,,,,
13.35.14.338,-70.6,17.6,0,17.0,,92927.8,10.76,-0.21,0.65,0.73,0.4,6.1,-1.3,31.19,,,,,,,,,,
13.35.14.350,-64.9,16.2,0,17.0,,90851.3,11.01,-0.21,0.64,0.72,-0.3,5.2,-1.4,31.19,,,,,,,,,,
13.35.14.359,-73.7,18.4,0,17.0,,92493.4,10.81,-0.21,0.65,0.72,0.3,5.7,-1.5,31.19,,,,,,,,,,
13.35.14.371,-73.9,18.5,0,17.0,,93022.1,10.75,-0.21,0.65,0.72,1.0,6.3,-1.0,31.19,,,,,,,,,,
13.35.14.379,-79.1,19.8,0,17.0,,92065.7,10.86,-0.21,0.64,0.72,0.0,5.7,-1.6,31.19,,,,,,,,,,
13.35.14.392,-97.1,24.3,0,17.0,,92021.3,10.87,-0.21,0.64,0.72,-0.2,4.9,-1.8,31.19,,,,,,,,,,
13.35.14.399,-92.5,23.1,0,17.0,,92304.7,10.83,-0.21,0.64,0.72,0.4,6.5,-2.1,31.19,,,,,,,,,,
13.35.14.411,-115.5,28.9,0,17.0,,91658.4,10.91,-0.21,0.65,0.72,0.4,5.1,-2.0,31.19,,,,,,,,,,
13.35.14.420,-105.8,26.4,0,17.0,,93445.7,10.7,-0.21,0.65,0.72,-0.4,4.8,-2.2,31.19,,,,,,,,,,
13.35.14.433,-122.1,30.5,0,17.0,,91659.3,10.91,-0.2,0.64,0.72,0.3,5.9,-2.3,31.19,,,,,,,,,,
13.35.14.441,-106.2,26.6,0,17.0,,91709.9,10.9,-0.21,0.65,0.71,0.7,5.7,-1.5,31.19,,,,,,,,,,
13.35.14.452,-133.2,33.3,0,17.0,,92898.0,10.76,-0.21,0.65,0.71,-0.2,6.4,-2.2,31.19,,,,,,,,,,
13.35.14.461,-134.3,33.6,0,17.0,,92294.5,10.83,-0.21,0.64,0.72,-0.7,6.1,-2.3,31.19,,,,,,,,,,
13.35.14.473,18.2,4.6,1,18.0,99.1,92301.7,10.83,-0.21,0.64,0.73,-0.4,6.3,-1.9,31.19,,,,,,,,,,
13.35.14.481,49.0,12.2,0,18.0,,91556.4,10.92,-0.19,0.65,0.72,-0.2,7.6,-1.3,31.19,,,,,,,,,,
13.35.14.493,109.0,27.2,0,18.0,,91330.8,10.95,-0.2,0.65,0.72,-0.1,7.1,-1.3,31.19,,,,,,,,,,
13.35.14.501,139.0,34.8,0,18.0,,92109.8,10.86,-0.2,0.65,0.72,-0.8,6.1,-1.5,31.19,,,,,,,,,,
13.35.14.515,175.3,43.8,0,18.0,,91143.2,10.97,-0.22,0.65,0.73,0.7,6.2,-1.6,31.19,,,,,,,,,,
13.35.14.522,230.8,57.7,0,18.0,,92675.5,10.79,-0.21,0.64,0.72,-0.4,7.1,-1.6,31.19,,,,,,,,,,
13.35.14.534,257.9,64.5,0,18.0,,91754.4,10.9,-0.22,0.65,0.71,-0.6,4.7,-1.8,31.19,,,,,,,,,,
13.35.14.547,284.2,71.0,0,18.0,,91532.0,10.93,-0.21,0.65,0.72,-1.4,5.1,-2.0,31.19,,,,,,,,,,
13.35.14.559,317.5,79.4,0,18.0,,93324.7,10.72,-0.21,0.64,0.72,-0.8,4.7,-2.3,31.19,,,,,,,,,,
13.35.14.567,338.1,84.5,0,18.0,,92729.9,10.78,-0.21,0.64,0.73,-0.3,4.5,-1.9,31.19,,,,,,,,,,
13.35.14.579,326.8,81.7,0,18.0,,91312.5,10.95,-0.21,0.64,0.72,0.1,2.0,-1.4,31.19,,,,,,,,,,
13.35.14.588,310.0,77.5,0,18.0,,91259.6,10.96,-0.21,0.64,0.72,-0.6,5.9,-3.0,31.19,,,,,,,,,,
13.35.14.600,285.4,71.4,0,18.0,,91276.6,10.96,-0.21,0.64,0.72,0.1,5.6,-1.9,31.19,,,,,,,,,,
13.35.14.608,286.8,71.7,0,18.0,,92822.5,10.77,-0.21,0.65,0.72,1.0,4.4,-1.1,31.19,,,,,,,,,,
13.35.14.620,250.8,62.7,0,18.0,,91676.6,10.91,-0.21,0.65,0.72,-0.5,4.6,-1.9,31.19,,,,,,,,,,
13.35.14.628,219.2,54.8,0,18.0,,92807.5,10.77,-0.2,0.65,0.73,-0.1,4.1,-1.6,31.19,,,,,,,,,,
13.35.14.641,165.5,41.4,0,18.0,,91419.3,10.94,-0.2,0.65,0.73,1.2,4.7,-0.8,31.19,,,,,,,,,,
13.35.14.649,139.7,34.9,0,18.0,,92601.1,10.8,-0.2,0.65,0.73,0.9,4.2,-0.7,31.19,,,,,,,,,,
13.35.14.661,100.1,25.0,0,18.0,,93877.7,10.65,-0.21,0.65,0.73,0.7,4.2,-0.8,31.19,,,,,,,,,,
13.35.14.670,46.0,11.5,0,18.0,,92092.4,10.86,-0.21,0.64,0.72,1.3,3.6,-0.4,31.19,,,,,,,,,,
13.35.14.682,5.9,1.5,0,18.0,,91597.0,10.92,-0.21,0.65,0.72,1.6,4.6,-0.4,31.19,,,,,,,,,,
13.35.14.691,9.3,2.3,0,18.0,,91679.9,10.91,-0.22,0.64,0.71,0.7,5.0,-0.6,31.19,,,,,,,,,,
13.35.14.702,33.0,8.2,0,18.0,,92778.4,10.78,-0.21,0.64,0.72,0.5,4.6,-0.8,31.19,,,,,,,,,,
13.35.14.711,49.5,12.4,0,18.0,,91388.0,10.94,-0.2,0.64,0.72,0.9,5.5,-1.0,31.19,,,,,,,,,,
13.35.14.723,51.7,12.9,0,18.0,,92380.4,10.82,-0.21,0.65,0.73,0.8,5.7,-1.0,31.19,,,,,,,,,,
13.35.14.731,65.0,16.2,0,18.0,,93899.6,10.65,-0.2,0.65,0.72,0.8,5.7,-0.5,31.19,,,,,,,,,,
13.35.14.744,51.2,12.8,0,18.0,,93499.1,10.7,-0.21,0.64,0.73,0.0,4.2,-1.0,31.19,,,,,,,,,,
13.35.14.751,56.1,14.0,0,18.0,,92999.1,10.75,-0.2,0.64,0.72,0.6,5.5,-0.7,31.19,,,,,,,,,,
13.35.14.764,39.7,9.9,0,18.0,,92387.8,10.82,-0.21,0.64,0.72,1.1,5.6,-0.8,31.19,,,,,,,,,,
13.35.14.772,37.8,9.4,0,18.0,,91704.4,10.9,-0.21,0.64,0.72,1.0,5.9,-1.2,31.19,,,,,,,,,,
13.35.14.784,28.2,7.0,0,18.0,,92120.3,10.86,-0.21,0.65,0.72,1.6,5.6,-0.9,31.19,,,,,,,,,,
13.35.14.793,18.5,4.6,0,18.0,,90412.9,11.06,-0.2,0.65,0.72,1.5,6.8,-1.2,31.19,,,,,,,,,,
13.35.14.805,-3.1,0.8,0,18.0,,91540.3,10.92,-0.21,0.65,0.72,0.2,5.2,-1.1,31.19,,,,,,,,,,
13.35.14.817,-5.4,1.4,0,18.0,,93508.6,10.69,-0.2,0.65,0.72,1.4,5.6,-0.9,31.19,,,,,,,,,,
13.35.14.825,-6.8,1.7,0,18.0,,94283.5,10.61,-0.2,0.64,0.73,1.4,5.2,0.1,31.19,,,,,,,,,,
13.35.14.837,-15.6,3.9,0,18.0,,92038.5,10.87,-0.2,0.64,0.72,1.1,7.0,-0.6,31.19,,,,,,,,,,
13.35.14.846,-22.4,5.6,0,18.0,,89597.4,11.16,-0.21,0.64,0.72,1.0,5.4,-0.6,31.19,,,,,,,,,,
13.35.14.858,-22.2,5.6,0,18.0,,92036.0,10.87,-0.21,0.63,0.71,0.8,6.9,-1.0,31.19,,,,,,,,,,
13.35.14.866,-23.8,6.0,0,18.0,,93390.1,10.71,-0.21,0.64,0.71,0.1,6.9,-1.7,31.19,,,,,,,,,,
13.35.14.878,-27.3,6.8,0,18.0,,92941.9,10.76,-0.21,0.64,0.72,-0.1,5.9,-2.1,31.19,,,,,,,,,,
13.35.14.887,-37.1,9.3,0,18.0,,93373.4,10.71,-0.21,0.65,0.73,-0.9,6.7,-2.4,31.19,,,,,,,,,,
13.35.14.899,-50.2,12.6,0,18.0,,92126.0,10.85,-0.2,0.66,0.73,-0.8,5.7,-2.4,31.19,,,,,,,,,,
13.35.14.907,-55.1,13.8,0,18.0,,92239.9,10.84,-0.2,0.65,0.73,-0.4,6.1,-1.9,31.19,,,,,,,,,,
13.35.14.920,-48.7,12.2,0,18.0,,91517.9,10.93,-0.2,0.64,0.73,-0.1,5.4,-1.6,31.19,,,,,,,,,,
13.35.14.928,-58.8,14.7,0,18.0,,92656.6,10.79,-0.21,0.64,0.72,0.1,5.5,-1.3,31.19,,,,,,,,,,
13.35.14.940,-70.4,17.6,0,18.0,,91979.7,10.87,-0.21,0.64,0.72,0.5,7.0,-1.4,31.19,,,,,,,,,,
13.35.14.948,-67.7,16.9,0,18.0,,92378.3,10.83,-0.21,0.64,0.72,0.0,6.3,-1.6,31.19,,,,,,,,,,
13.35.14.985,-95.6,23.9,0,18.0,,92496.0,10.81,-0.21,0.64,0.72,-1.3,5.6,-2.2,31.19,,,,,,,,,,
13.35.14.997,-91.2,22.8,0,18.0,,91936.0,10.88,-0.18,0.61,0.72,-2.5,5.5,-1.6,31.19,,,,,,,,,,
13.35.15.005,-101.1,25.3,0,18.0,,93445.0,10.7,-0.2,0.62,0.74,0.2,6.9,-2.9,31.19,,,,,,,,,,
13.35.15.018,-114.2,28.6,0,18.0,,92717.4,10.79,-0.25,0.67,0.72,-0.5,0.2,-1.7,31.19,,,,,,,,,,
13.35.15.026,-102.8,25.7,0,18.0,,92020.6,10.87,-0.2,0.64,0.58,0.1,14.7,-4.3,31.19,,,,,,,,,,
13.35.15.038,-111.3,27.8,0,18.0,,91538.2,10.92,-0.28,0.72,0.77,1.5,-9.9,-1.4,31.19,,,,,,,,,,
13.35.15.046,-113.5,28.4,0,18.0,,91315.0,10.95,-0.17,0.69,0.79,-7.2,10.7,-2.0,31.19,,,,,,,,,,
13.35.15.059,-122.5,30.6,0,18.0,,91540.6,10.92,-0.2,0.63,0.71,-3.5,5.2,-5.0,31.19,,,,,,,,,,
13.35.15.071,4.3,1.1,1,19.0,102.6,91842.7,10.89,-0.17,0.64,0.76,-3.0,-9.7,-1.1,31.19,,,,,,,,,,
13.35.15.079,36.6,9.2,0,19.0,,91578.5,10.92,-0.18,0.67,0.75,-1.6,4.4,-1.9,31.19,,,,,,,,,,
13.35.15.091,104.9,26.2,0,19.0,,91130.9,10.97,-0.18,0.65,0.76,-0.4,1.2,0.8,31.19,,,,,,,,,,
13.35.15.100,131.9,33.0,0,19.0,,93176.5,10.73,-0.21,0.64,0.67,0.2,2.8,-0.3,31.19,,,,,,,,,,
13.35.15.112,190.0,47.5,0,19.0,,91920.3,10.88,-0.23,0.65,0.71,-0.5,0.1,0.6,31.19,,,,,,,,,,
13.35.15.124,237.1,59.3,0,19.0,,92806.3,10.78,-0.22,0.65,0.68,3.0,10.3,0.1,31.19,,,,,,,,,,
13.35.15.133,269.1,67.3,0,19.0,,91899.4,10.88,-0.22,0.65,0.72,1.3,3.4,1.5,31.19,,,,,,,,,,
13.35.15.145,307.6,76.9,0,19.0,,90904.7,11.0,-0.23,0.65,0.75,1.1,8.6,-1.6,31.19,,,,,,,,,,
13.35.15.153,318.2,79.6,0,19.0,,90820.8,11.01,-0.21,0.63,0.75,3.6,5.8,-0.6,31.19,,,,,,,,,,
13.35.15.165,321.2,80.3,0,19.0,,91327.3,10.95,-0.2,0.62,0.74,2.5,4.5,-1.4,31.19,,,,,,,,,,
13.35.15.174,326.7,81.7,0,19.0,,92705.5,10.79,-0.19,0.61,0.71,2.3,5.0,-2.5,31.19,,,,,,,,,,
13.35.15.186,338.5,84.6,0,19.0,,92201.7,10.85,-0.22,0.65,0.74,3.9,5.2,-2.2,31.19,,,,,,,,,,
13.35.15.194,334.6,83.6,0,19.0,,92926.1,10.76,-0.21,0.65,0.71,2.0,8.6,-3.0,31.19,,,,,,,,,,
13.35.15.206,267.5,66.9,0,19.0,,92110.0,10.86,-0.22,0.65,0.71,0.1,1.1,-3.7,31.19,,,,,,,,,,
13.35.15.214,268.7,67.2,0,19.0,,91778.5,10.9,-0.19,0.64,0.73,-1.3,3.6,-4.0,31.19,,,,,,,,,,
13.35.15.227,226.5,56.6,0,19.0,,92844.8,10.77,-0.2,0.64,0.72,2.5,4.6,-2.6,31.19,,,,,,,,,,
13.35.15.235,185.3,46.3,0,19.0,,92722.5,10.78,-0.19,0.66,0.72,0.9,1.9,-2.2,31.19,,,,,,,,,,
13.35.15.247,152.9,38.2,0,19.0,,92415.1,10.82,-0.19,0.66,0.72,-0.3,5.8,-1.5,31.19,,,,,,,,,,
13.35.15.255,113.7,28.4,0,19.0,,92812.7,10.77,-0.19,0.66,0.72,1.7,8.7,0.7,31.19,,,,,,,,,,
13.35.15.268,63.6,15.9,0,19.0,,91297.7,10.95,-0.2,0.62,0.73,4.1,11.0,0.8,31.19,,,,,,,,,,
13.35.15.276,20.2,5.0,0,19.0,,92001.1,10.87,-0.22,0.61,0.7,7.4,12.2,2.7,31.19,,,,,,,,,,
13.35.15.288,11.8,3.0,0,19.0,,92989.0,10.75,-0.23,0.61,0.71,9.1,13.2,0.6,31.19,,,,,,,,,,
13.35.15.296,24.6,6.2,0,19.0,,92190.0,10.85,-0.23,0.62,0.71,7.3,15.6,0.1,31.19,,,,,,,,,,
13.35.15.309,45.8,11.4,0,19.0,,93087.8,10.74,-0.2,0.66,0.71,4.6,16.1,-0.6,31.19,,,,,,,,,,
13.35.15.317,54.6,13.6,0,19.0,,92858.3,10.77,-0.2,0.67,0.73,1.6,14.9,-0.7,31.19,,,,,,,,,,
13.35.15.329,59.0,14.8,0,19.0,,93172.9,10.73,-0.21,0.64,0.73,-3.0,12.4,-1.6,31.19,,,,,,,,,,
13.35.15.338,70.2,17.6,0,19.0,,93513.0,10.69,-0.22,0.64,0.74,-0.8,11.8,-2.7,31.19,,,,,,,,,,
13.35.15.350,53.7,13.4,0,19.0,,91630.2,10.91,-0.23,0.62,0.72,1.7,14.8,-3.5,31.19,,,,,,,,,,
13.35.15.362,39.7,9.9,0,19.0,,94315.1,10.6,-0.23,0.68,0.69,-8.0,17.3,-6.7,31.19,,,,,,,,,,
13.35.15.370,39.9,10.0,0,19.0,,92259.5,10.84,-0.23,0.6,0.68,-16.9,3.0,-10.0,31.19,,,,,,,,,,
13.35.15.382,35.3,8.8,0,19.0,,92470.7,10.81,-0.22,0.69,0.77,-14.8,-6.7,-5.8,31.19,,,,,,,,,,
13.35.15.390,12.9,3.2,0,19.0,,93267.2,10.72,-0.19,0.7,0.76,-7.8,13.9,-8.8,31.19,,,,,,,,,,
13.35.15.403,4.6,1.2,0,19.0,,92412.3,10.82,-0.23,0.7,0.73,-3.2,7.6,-1.3,31.19,,,,,,,,,,
13.35.15.411,-0.1,0.0,0,19.0,,92579.8,10.8,-0.21,0.65,0.75,-1.9,16.1,-2.6,31.19,,,,,,,,,,
13.35.15.423,-10.9,2.7,0,19.0,,93268.6,10.72,-0.23,0.58,0.72,1.8,11.9,-1.2,31.19,,,,,,,,,,
13.35.15.432,-10.3,2.6,0,19.0,,90821.7,11.01,-0.23,0.61,0.74,10.9,13.8,4.6,31.19,,,,,,,,,,
13.35.15.445,-14.7,3.7,0,19.0,,92986.6,10.75,-0.22,0.61,0.7,8.1,20.1,0.5,31.19,,,,,,,,,,
13.35.15.456,-28.1,7.0,0,19.0,,92127.1,10.85,-0.22,0.61,0.71,0.7,2.9,0.3,31.19,,,,,,,,,,
13.35.15.464,-31.6,7.9,0,19.0,,92493.6,10.81,-0.2,0.7,0.74,4.4,8.6,0.2,31.19,,,,,,,,,,
13.35.15.472,-37.3,9.3,0,19.0,,92994.4,10.75,-0.2,0.7,0.72,7.5,17.6,-1.9,31.19,,,,,,,,,,
13.35.15.485,-25.6,6.4,0,19.0,,91033.0,10.99,-0.23,0.66,0.69,0.1,4.1,-2.6,31.19,,,,,,,,,,
13.35.15.497,-47.4,11.8,0,19.0,,90554.1,11.04,-0.21,0.68,0.73,-4.1,1.8,-2.5,31.19,,,,,,,,,,
13.35.15.506,-49.2,12.3,0,19.0,,93734.7,10.67,-0.22,0.65,0.73,-2.5,10.5,-2.1,31.19,,,,,,,,,,
13.35.15.517,-52.3,13.1,0,19.0,,92763.2,10.78,-0.22,0.63,0.72,-3.6,3.9,-1.5,31.19,,,,,,,,,,
13.35.15.526,-63.5,15.9,0,19.0,,90802.7,11.01,-0.22,0.66,0.73,-6.2,11.1,-3.5,31.19,,,,,,,,,,
13.35.15.538,-68.7,17.2,0,19.0,,94128.2,10.62,-0.23,0.63,0.71,-4.1,10.6,-2.4,31.19,,,,,,,,,,
13.35.15.546,-68.6,17.2,0,19.0,,92171.3,10.85,-0.25,0.64,0.75,-5.1,8.3,-2.1,31.19,,,,,,,,,,
13.35.15.558,-74.7,18.7,0,19.0,,92381.4,10.82,-0.22,0.62,0.71,-3.1,10.5,-2.1,31.19,,,,,,,,,,
13.35.15.567,-80.3,20.1,0,19.0,,92958.3,10.76,-0.22,0.66,0.73,-3.1,10.0,-0.6,31.19,,,,,,,,,,
13.35.15.579,-76.1,19.0,0,19.0,,92472.1,10.81,-0.22,0.64,0.73,2.2,10.7,-0.1,31.19,,,,,,,,,,
13.35.15.588,-94.2,23.6,0,19.0,,90606.4,11.04,-0.23,0.62,0.73,-0.4,8.8,1.1,31.19,,,,,,,,,,
13.35.15.600,-99.2,24.8,0,19.0,,90370.2,11.07,-0.22,0.62,0.73,-3.3,0.6,0.0,31.19,,,,,,,,,,
13.35.15.608,-99.5,24.9,0,19.0,,94511.7,10.58,-0.22,0.65,0.72,-3.0,11.2,-1.6,31.19,,,,,,,,,,
13.35.15.621,-123.0,30.8,0,19.0,,93072.1,10.74,-0.24,0.64,0.74,0.6,14.5,-2.1,31.19,,,,,,,,,,
13.35.15.628,-125.3,31.3,0,19.0,,92501.3,10.81,-0.23,0.61,0.69,-2.4,5.6,-1.3,31.19,,,,,,,,,,
13.35.15.640,-117.7,29.4,0,19.0,,91533.4,10.92,-0.21,0.63,0.74,-4.1,0.7,-0.7,31.19,,,,,,,,,,
13.35.15.649,-124.6,31.2,0,19.0,,92277.6,10.84,-0.24,0.62,0.75,-1.3,6.0,-4.5,31.19,,,,,,,,,,
13.35.15.662,-110.4,27.6,0,19.0,,91160.0,10.97,-0.23,0.65,0.71,-1.9,3.7,-6.0,31.19,,,,,,,,,,
13.35.15.674,13.4,3.4,1,20.0,99.6,92887.6,10.77,-0.22,0.67,0.71,-0.2,-3.2,-3.5,31.19,,,,,,,,,,
13.35.15.685,59.8,15.0,0,20.0,,91418.4,10.94,-0.2,0.66,0.72,-6.5,6.4,-6.0,31.19,,,,,,,,,,
13.35.15.694,113.5,28.4,0,20.0,,91706.5,10.9,-0.23,0.64,0.73,-4.1,7.9,-5.9,31.19,,,,,,,,,,
13.35.15.707,178.4,44.6,0,20.0,,93546.6,10.69,-0.23,0.61,0.73,0.9,7.2,-3.8,31.19,,,,,,,,,,
13.35.15.714,190.2,47.6,0,20.0,,91872.0,10.88,-0.23,0.6,0.73,3.5,5.4,-1.7,31.19,,,,,,,,,,
13.35.15.726,219.5,54.9,0,20.0,,92424.8,10.82,-0.23,0.6,0.73,4.5,6.4,-3.2,31.19,,,,,,,,,,
13.35.15.740,272.1,68.0,0,20.0,,91662.8,10.91,-0.22,0.63,0.73,4.7,7.8,-3.3,31.19,,,,,,,,,,
13.35.15.747,288.9,72.2,0,20.0,,92005.1,10.87,-0.25,0.68,0.75,6.8,7.7,-2.1,31.19,,,,,,,,,,
13.35.15.788,337.2,84.3,0,20.0,,91433.8,10.94,-0.23,0.66,0.72,4.3,11.2,-2.2,31.19,,,,,,,,,,
13.35.15.800,263.2,65.8,0,20.0,,94233.7,10.61,-0.23,0.61,0.75,-0.6,7.5,-1.6,31.19,,,,,,,,,,
13.35.15.808,293.6,73.4,0,20.0,,91339.4,10.95,-0.23,0.66,0.73,1.8,7.9,-2.7,31.19,,,,,,,,,,
13.35.15.821,250.2,62.6,0,20.0,,92604.5,10.8,-0.23,0.68,0.72,2.1,6.3,-1.4,31.19,,,,,,,,,,
13.35.15.829,209.8,52.4,0,20.0,,92783.0,10.78,-0.23,0.65,0.72,-0.7,8.4,-2.8,31.19,,,,,,,,,,
13.35.15.842,189.8,47.4,0,20.0,,92531.9,10.81,-0.25,0.64,0.72,-0.5,6.6,-1.5,31.19,,,,,,,,,,
13.35.15.850,151.1,37.8,0,20.0,,92114.6,10.86,-0.23,0.61,0.72,-1.6,10.4,-1.4,31.19,,,,,,,,,,
13.35.15.862,89.6,22.4,0,20.0,,92283.8,10.84,-0.23,0.63,0.72,-1.0,7.2,-2.2,31.19,,,,,,,,,,
13.35.15.871,44.3,11.1,0,20.0,,92788.1,10.78,-0.22,0.69,0.72,-2.0,6.7,-2.2,31.19,,,,,,,,,,
13.35.15.883,7.7,1.9,0,20.0,,91000.5,10.99,-0.22,0.61,0.73,-5.2,7.6,-3.4,31.19,,,,,,,,,,
13.35.15.891,20.8,5.2,0,20.0,,91012.8,10.99,-0.23,0.6,0.73,-3.5,6.1,-1.4,31.19,,,,,,,,,,
13.35.15.903,30.6,7.6,0,20.0,,91711.6,10.9,-0.23,0.64,0.73,2.0,10.6,-2.0,31.19,,,,,,,,,,
13.35.15.911,38.7,9.7,0,20.0,,91906.0,10.88,-0.25,0.67,0.72,2.9,10.6,-2.8,31.19,,,,,,,,,,
13.35.15.924,47.0,11.8,0,20.0,,91745.0,10.9,-0.23,0.64,0.71,-0.5,7.2,-2.7,31.19,,,,,,,,,,
13.35.15.931,65.1,16.3,0,20.0,,92195.8,10.85,-0.24,0.62,0.73,0.2,6.3,-1.6,31.19,,,,,,,,,,
13.35.15.944,43.6,10.9,0,20.0,,91968.7,10.87,-0.23,0.62,0.74,3.9,9.9,-1.1,31.19,,,,,,,,,,
13.35.15.953,55.5,13.9,0,20.0,,91946.9,10.88,-0.25,0.63,0.73,5.8,9.8,-0.3,31.19,,,,,,,,,,
13.35.15.964,55.1,13.8,0,20.0,,91653.4,10.91,-0.24,0.61,0.72,1.6,5.8,-0.2,31.19,,,,,,,,,,
13.35.15.972,40.4,10.1,0,20.0,,92363.3,10.83,-0.24,0.66,0.73,4.2,9.1,-1.4,31.19,,,,,,,,,,
13.35.15.985,28.9,7.2,0,20.0,,92280.5,10.84,-0.24,0.66,0.71,6.2,10.2,-0.9,31.19,,,,,,,,,,
13.35.15.993,12.3,3.1,0,20.0,,92927.5,10.76,-0.24,0.63,0.7,1.5,6.3,-2.2,31.19,,,,,,,,,,
13.35.16.005,-9.1,2.3,0,20.0,,91607.7,10.92,-0.22,0.61,0.73,0.0,5.6,-1.5,31.19,,,,,,,,,,
13.35.16.017,-10.4,2.6,0,20.0,,92043.9,10.86,-0.23,0.64,0.73,3.0,10.1,-1.3,31.19,,,,,,,,,,
13.35.16.025,-10.0,2.5,0,20.0,,90820.4,11.01,-0.23,0.63,0.72,1.5,6.9,-0.6,31.19,,,,,,,,,,
13.35.16.038,-24.9,6.2,0,20.0,,93226.5,10.73,-0.23,0.66,0.73,2.2,5.8,-1.6,31.19,,,,,,,,,,
13.35.16.051,-17.4,4.4,0,20.0,,92842.2,10.77,-0.24,0.66,0.72,3.6,7.8,-0.7,31.19,,,,,,,,,,
13.35.16.059,-30.7,7.7,0,20.0,,93522.2,10.69,-0.23,0.64,0.71,2.3,7.4,-1.8,31.19,,,,,,,,,,
13.35.16.071,-24.8,6.2,0,20.0,,92845.6,10.77,-0.24,0.63,0.72,1.5,8.2,-2.0,31.19,,,,,,,,,,
13.35.16.083,-41.8,10.4,0,20.0,,92476.0,10.81,-0.24,0.62,0.73,3.4,9.5,-0.5,31.19,,,,,,,,,,
13.35.16.095,-42.4,10.6,0,20.0,,92482.8,10.81,-0.24,0.62,0.73,3.0,7.9,0.0,31.19,,,,,,,,,,
13.35.16.103,-61.1,15.3,0,20.0,,92957.9,10.76,-0.24,0.65,0.73,4.0,8.2,-0.3,31.19,,,,,,,,,,
13.35.16.116,-61.8,15.4,0,20.0,,91778.8,10.9,-0.23,0.66,0.72,6.8,9.7,-0.5,31.19,,,,,,,,,,
13.35.16.128,-53.0,13.2,0,20.0,,92646.4,10.79,-0.24,0.66,0.71,2.2,8.2,0.0,31.19,,,,,,,,,,
13.35.16.136,-58.4,14.6,0,20.0,,93092.9,10.74,-0.22,0.62,0.71,-0.7,5.0,-0.3,31.19,,,,,,,,,,
13.35.16.149,-62.3,15.6,0,20.0,,91930.1,10.88,-0.24,0.64,0.71,0.3,7.3,-2.2,31.19,,,,,,,,,,
13.35.16.161,-73.7,18.4,0,20.0,,91948.8,10.88,-0.24,0.66,0.72,-2.8,0.0,-1.7,31.19,,,,,,,,,,
13.35.16.173,-81.3,20.3,0,20.0,,90374.6,11.07,-0.23,0.64,0.71,-6.7,-0.1,-3.5,31.19,,,,,,,,,,
13.35.16.181,-77.3,19.3,0,20.0,,92641.2,10.79,-0.23,0.62,0.72,-4.3,1.0,-2.2,31.19,,,,,,,,,,
13.35.16.194,-94.4,23.6,0,20.0,,93539.6,10.69,-0.24,0.63,0.72,-0.9,-2.0,-1.1,31.19,,,,,,,,,,
13.35.16.206,-94.7,23.7,0,20.0,,92381.8,10.82,-0.24,0.63,0.71,0.7,-1.2,-2.9,31.19,,,,,,,,,,
13.35.16.218,-110.1,27.5,0,20.0,,92174.6,10.85,-0.24,0.65,0.72,0.7,-2.0,0.0,31.19,,,,,,,,,,
13.35.16.226,-101.8,25.4,0,20.0,,91351.0,10.95,-0.25,0.66,0.71,2.9,-0.7,-0.2,31.19,,,,,,,,,,
13.35.16.238,-100.3,25.1,0,20.0,,93226.3,10.73,-0.23,0.66,0.75,0.4,-3.5,-1.8,31.19,,,,,,,,,,
13.35.16.252,-121.8,30.4,0,20.0,,93133.1,10.74,-0.24,0.63,0.74,-2.6,0.9,-3.4,31.19,,,,,,,,,,
13.35.16.263,-128.4,32.1,0,20.0,,93345.5,10.71,-0.24,0.61,0.74,1.9,-0.6,-1.2,31.19,,,,,,,,,,
13.35.16.271,3.5,0.9,1,21.0,99.6,93170.6,10.73,-0.23,0.62,0.72,6.3,8.0,0.6,31.19,,,,,,,,,,
13.35.16.284,68.9,17.2,0,21.0,,92938.3,10.76,-0.24,0.64,0.72,9.3,8.4,1.0,31.19,,,,,,,,,,
13.35.16.296,115.8,29.0,0,21.0,,91343.2,10.95,-0.24,0.65,0.71,8.3,7.6,0.4,31.19,,,,,,,,,,
13.35.16.304,163.1,40.8,0,21.0,,91088.4,10.98,-0.23,0.65,0.71,2.6,8.0,-0.1,31.19,,,,,,,,,,
13.35.16.316,210.6,52.6,0,21.0,,92381.6,10.82,-0.22,0.66,0.71,2.3,8.2,-0.2,31.19,,,,,,,,,,
13.35.16.329,243.1,60.8,0,21.0,,92411.6,10.82,-0.23,0.65,0.72,1.3,9.4,-1.5,31.19,,,,,,,,,,
13.35.16.337,276.1,69.0,0,21.0,,90453.2,11.06,-0.24,0.65,0.71,-0.9,5.0,-1.7,31.19,,,,,,,,,,
13.35.16.349,296.3,74.1,0,21.0,,92865.5,10.77,-0.22,0.65,0.72,0.9,7.5,-0.8,31.19,,,,,,,,,,
13.35.16.361,291.6,72.9,0,21.0,,93654.1,10.68,-0.23,0.65,0.72,2.1,10.7,-1.6,31.19,,,,,,,,,,
13.35.16.369,334.3,83.6,0,21.0,,93232.0,10.73,-0.23,0.66,0.71,-0.4,6.6,-1.5,31.19,,,,,,,,,,
13.35.16.383,313.1,78.3,0,21.0,,92749.6,10.78,-0.23,0.66,0.69,-0.3,7.4,-3.1,31.19,,,,,,,,,,
13.35.16.394,313.2,78.3,0,21.0,,91677.3,10.91,-0.24,0.66,0.71,-1.7,6.4,-3.6,31.19,,,,,,,,,,
13.35.16.403,304.1,76.0,0,21.0,,91409.5,10.94,-0.25,0.65,0.72,-3.3,3.7,-4.3,31.19,,,,,,,,,,
13.35.16.415,262.9,65.7,0,21.0,,92206.5,10.85,-0.21,0.65,0.72,-6.0,3.5,-5.0,31.19,,,,,,,,,,
13.35.16.427,243.4,60.8,0,21.0,,93424.9,10.7,-0.22,0.62,0.71,-7.2,6.9,-4.9,31.19,,,,,,,,,,
13.35.16.439,193.5,48.4,0,21.0,,93142.6,10.74,-0.25,0.6,0.73,-2.8,4.9,-4.0,31.19,,,,,,,,,,
13.35.16.447,161.9,40.5,0,21.0,,90762.2,11.02,-0.24,0.58,0.73,1.7,5.0,-4.1,31.19,,,,,,,,,,
13.35.16.461,96.5,24.1,0,21.0,,91616.9,10.92,-0.25,0.63,0.76,5.4,8.2,-2.3,31.19,,,,,,,,,,
13.35.16.472,45.0,11.2,0,21.0,,90191.0,11.09,-0.25,0.63,0.7,4.7,13.3,-1.9,31.19,,,,,,,,,,
13.35.16.480,3.6,0.9,0,21.0,,91267.8,10.96,-0.23,0.67,0.71,1.6,-0.1,-0.6,31.19,,,,,,,,,,
13.35.16.493,12.8,3.2,0,21.0,,91977.3,10.87,-0.24,0.67,0.72,-1.1,6.6,-3.3,31.19,,,,,,,,,,
13.35.16.505,29.1,7.3,0,21.0,,91439.8,10.94,-0.23,0.64,0.71,0.0,10.5,-3.4,31.19,,,,,,,,,,
13.35.16.517,46.1,11.5,0,21.0,,92627.6,10.8,-0.25,0.62,0.71,0.1,1.0,-1.4,31.19,,,,,,,,,,
13.35.16.525,50.8,12.7,0,21.0,,92617.7,10.8,-0.23,0.63,0.73,-1.6,3.7,-2.7,31.19,,,,,,,,,,
13.35.16.538,57.8,14.4,0,21.0,,92538.9,10.81,-0.23,0.65,0.72,4.1,10.3,-2.0,31.19,,,,,,,,,,
13.35.16.550,62.6,15.6,0,21.0,,93539.1,10.69,-0.23,0.66,0.71,4.2,8.6,-1.0,31.19,,,,,,,,,,
13.35.16.592,4.1,1.0,0,21.0,,92600.8,10.8,-0.25,0.64,0.71,0.2,8.1,-2.2,31.25,,,,,,,,,,
13.35.16.600,-0.6,0.2,0,21.0,,92181.3,10.85,-0.24,0.64,0.71,1.0,6.4,-0.8,31.25,,,,,,,,,,
13.35.16.612,-5.6,1.4,0,21.0,,92157.7,10.85,-0.23,0.64,0.72,1.6,5.6,-0.7,31.25,,,,,,,,,,
13.35.16.620,-4.7,1.2,0,21.0,,92784.2,10.78,-0.23,0.66,0.71,3.2,5.4,-0.7,31.25,,,,,,,,,,
13.35.16.632,-15.6,3.9,0,21.0,,92637.6,10.79,-0.23,0.67,0.7,3.6,6.1,-0.9,31.25,,,,,,,,,,
13.35.16.640,-9.9,2.5,0,21.0,,93184.9,10.73,-0.24,0.66,0.71,1.8,7.2,-0.2,31.25,,,,,,,,,,
13.35.16.652,-28.7,7.2,0,21.0,,90658.9,11.03,-0.24,0.62,0.71,1.0,7.3,-1.0,31.25,,,,,,,,,,
13.35.16.661,-28.0,7.0,0,21.0,,93442.0,10.7,-0.25,0.62,0.72,2.4,4.4,0.3,31.25,,,,,,,,,,
13.35.16.674,-30.6,7.6,0,21.0,,91128.0,10.97,-0.24,0.63,0.72,2.6,5.4,0.4,31.25,,,,,,,,,,
13.35.16.681,-27.4,6.8,0,21.0,,92617.6,10.8,-0.24,0.64,0.72,1.9,5.2,0.0,31.25,,,,,,,,,,
13.35.16.693,-39.2,9.8,0,21.0,,92925.3,10.76,-0.23,0.64,0.72,3.1,4.5,0.6,31.25,,,,,,,,,,
13.35.16.702,-41.9,10.5,0,21.0,,92695.2,10.79,-0.24,0.67,0.72,3.8,5.7,-0.1,31.25,,,,,,,,,,
13.35.16.714,-59.7,14.9,0,21.0,,92442.6,10.82,-0.23,0.65,0.71,3.5,4.9,-0.4,31.25,,,,,,,,,,
13.35.16.723,-58.8,14.7,0,21.0,,92558.6,10.8,-0.23,0.64,0.71,4.3,5.2,-0.5,31.25,,,,,,,,,,
13.35.16.735,-67.9,17.0,0,21.0,,91622.2,10.91,-0.24,0.64,0.72,2.7,5.8,-0.4,31.25,,,,,,,,,,
13.35.16.743,-74.7,18.7,0,21.0,,92429.2,10.82,-0.24,0.62,0.71,1.6,8.2,0.4,31.25,,,,,,,,,,
13.35.16.756,-73.2,18.3,0,21.0,,92747.2,10.78,-0.24,0.6,0.71,1.4,8.9,1.1,31.25,,,,,,,,,,
13.35.16.763,-75.3,18.8,0,21.0,,92860.7,10.77,-0.24,0.65,0.72,2.3,6.2,1.7,31.25,,,,,,,,,,
13.35.16.780,-85.5,21.4,0,21.0,,92460.6,10.82,-0.23,0.68,0.71,6.4,11.3,0.2,31.25,,,,,,,,,,
13.35.16.787,-95.6,23.9,0,21.0,,93083.0,10.74,-0.23,0.65,0.69,2.7,8.0,-0.8,31.25,,,,,,,,,,
13.35.16.800,-94.1,23.5,0,21.0,,93168.2,10.73,-0.24,0.65,0.71,-0.4,3.2,-1.4,31.25,,,,,,,,,,
13.35.16.809,-96.0,24.0,0,21.0,,92789.9,10.78,-0.24,0.64,0.72,1.1,5.2,-1.3,31.25,,,,,,,,,,
13.35.16.820,-102.3,25.6,0,21.0,,92609.3,10.8,-0.23,0.66,0.71,2.3,4.7,-0.4,31.25,,,,,,,,,,
13.35.16.828,-100.5,25.1,0,21.0,,91211.8,10.96,-0.23,0.66,0.72,0.8,0.0,-0.2,31.25,,,,,,,,,,
13.35.16.841,-98.7,24.7,0,21.0,,91308.7,10.95,-0.24,0.67,0.73,3.5,1.7,0.1,31.25,,,,,,,,,,
13.35.16.850,-114.1,28.5,0,21.0,,93441.3,10.7,-0.24,0.65,0.72,6.6,3.3,0.9,31.25,,,,,,,,,,
13.35.16.861,-121.0,30.2,0,21.0,,92354.7,10.83,-0.24,0.64,0.7,8.4,2.2,1.9,31.25,,,,,,,,,,
13.35.16.869,-118.5,29.6,0,21.0,,93034.1,10.75,-0.23,0.65,0.69,7.8,1.5,2.2,31.25,,,,,,,,,,
13.35.16.882,61.0,15.2,1,22.0,98.1,93636.8,10.68,-0.24,0.63,0.72,5.9,-1.7,3.1,31.25,,,,,,,,,,
13.35.16.891,119.7,29.9,0,22.0,,92174.9,10.85,-0.23,0.65,0.7,4.5,1.5,1.8,31.25,,,,,,,,,,
13.35.16.903,150.2,37.6,0,22.0,,93328.1,10.71,-0.23,0.68,0.71,3.5,3.5,2.1,31.25,,,,,,,,,,
13.35.16.914,197.8,49.4,0,22.0,,92041.7,10.86,-0.23,0.68,0.7,2.9,5.1,0.9,31.25,,,,,,,,,,
13.35.16.923,216.4,54.1,0,22.0,,91202.1,10.96,-0.22,0.67,0.7,-0.2,1.4,0.3,31.25,,,,,,,,,,
13.35.16.936,291.3,72.8,0,22.0,,92760.0,10.78,-0.23,0.62,0.72,-2.7,1.5,-0.4,31.25,,,,,,,,,,
13.35.16.947,297.7,74.4,0,22.0,,93323.3,10.72,-0.23,0.64,0.71,0.4,4.4,-0.9,31.25,,,,,,,,,,
13.35.16.955,319.3,79.8,0,22.0,,93449.5,10.7,-0.23,0.66,0.71,3.7,6.0,-0.5,31.25,,,,,,,,,,
13.35.16.968,324.1,81.0,0,22.0,,92419.8,10.82,-0.24,0.65,0.72,-0.2,1.4,-1.6,31.25,,,,,,,,,,
13.35.16.980,316.8,79.2,0,22.0,,91942.4,10.88,-0.22,0.63,0.71,-1.5,0.3,-1.9,31.25,,,,,,,,,,
13.35.16.994,309.0,77.2,0,22.0,,91509.2,10.93,-0.22,0.66,0.72,3.1,2.1,-0.7,31.25,,,,,,,,,,
13.35.17.000,313.2,78.3,0,22.0,,91540.7,10.92,-0.23,0.69,0.69,1.8,3.4,-0.2,31.25,,,,,,,,,,
13.35.17.014,280.4,70.1,0,22.0,,92537.1,10.81,-0.23,0.66,0.71,-2.5,-3.1,-1.0,31.25,,,,,,,,,,
13.35.17.025,230.5,57.6,0,22.0,,94693.4,10.56,-0.22,0.65,0.71,-4.4,2.0,-1.3,31.25,,,,,,,,,,
13.35.17.033,210.0,52.5,0,22.0,,92700.4,10.79,-0.21,0.62,0.7,2.5,4.1,0.9,31.25,,,,,,,,,,
13.35.17.045,162.2,40.6,0,22.0,,92577.1,10.8,-0.22,0.65,0.72,3.2,5.3,1.7,31.25,,,,,,,,,,
13.35.17.058,99.3,24.8,0,22.0,,92751.5,10.78,-0.23,0.66,0.72,4.9,9.6,0.8,31.25,,,,,,,,,,
13.35.17.071,44.0,11.0,0,22.0,,92125.0,10.85,-0.23,0.65,0.7,3.1,6.2,0.8,31.25,,,,,,,,,,
13.35.17.078,8.4,2.1,0,22.0,,92953.0,10.76,-0.23,0.66,0.71,0.2,5.5,0.4,31.25,,,,,,,,,,
13.35.17.091,15.0,3.8,0,22.0,,92060.5,10.86,-0.23,0.64,0.7,-1.0,6.9,-0.3,31.25,,,,,,,,,,
13.35.17.104,27.9,7.0,0,22.0,,93537.7,10.69,-0.23,0.64,0.71,-2.4,1.0,-1.1,31.25,,,,,,,,,,
13.35.17.111,46.7,11.7,0,22.0,,91823.3,10.89,-0.21,0.65,0.72,-0.6,4.7,-2.1,31.25,,,,,,,,,,
13.35.17.124,54.2,13.6,0,22.0,,91915.9,10.88,-0.22,0.66,0.69,0.7,7.8,-1.8,31.25,,,,,,,,,,
13.35.17.136,61.7,15.4,0,22.0,,92520.9,10.81,-0.24,0.65,0.7,-1.8,3.4,-1.7,31.25,,,,,,,,,,
13.35.17.145,61.5,15.4,0,22.0,,92179.8,10.85,-0.22,0.67,0.72,-1.6,4.3,-2.5,31.25,,,,,,,,,,
13.35.17.156,44.5,11.1,0,22.0,,93021.0,10.75,-0.22,0.66,0.71,0.5,5.1,-1.8,31.25,,,,,,,,,,
13.35.17.168,31.8,8.0,0,22.0,,92865.0,10.77,-0.22,0.66,0.71,-1.3,2.0,-1.8,31.25,,,,,,,,,,
13.35.17.181,20.6,5.2,0,22.0,,92380.3,10.82,-0.21,0.63,0.72,-1.7,2.9,-3.0,31.25,,,,,,,,,,
13.35.17.190,14.9,3.7,0,22.0,,92403.3,10.82,-0.22,0.64,0.72,0.7,5.5,-2.1,31.25,,,,,,,,,,
13.35.17.201,-2.5,0.6,0,22.0,,92207.8,10.85,-0.23,0.65,0.71,1.1,8.5,-1.1,31.25,,,,,,,,,,
13.35.17.214,-15.4,3.8,0,22.0,,92348.4,10.83,-0.24,0.66,0.7,-2.1,6.4,-1.2,31.25,,,,,,,,,,
13.35.17.223,-7.6,1.9,0,22.0,,90772.6,11.02,-0.22,0.67,0.7,-3.8,4.9,-1.4,31.25,,,,,,,,,,
13.35.17.234,-15.2,3.8,0,22.0,,90826.5,11.01,-0.21,0.68,0.71,-3.3,5.9,-1.9,31.25,,,,,,,,,,
13.35.17.246,-17.9,4.5,0,22.0,,90621.7,11.03,-0.22,0.67,0.72,-4.1,5.1,-1.1,31.25,,,,,,,,,,
13.35.17.254,-32.5,8.1,0,22.0,,92589.0,10.8,-0.22,0.63,0.72,-4.4,2.5,-0.9,31.25,,,,,,,,,,
13.35.17.268,-20.1,5.0,0,22.0,,92970.2,10.76,-0.22,0.64,0.73,-0.4,7.5,-0.8,31.25,,,,,,,,,,
13.35.17.280,-34.7,8.7,0,22.0,,91545.0,10.92,-0.23,0.63,0.72,2.6,7.4,0.3,31.25,,,,,,,,,,
13.35.17.287,-35.7,8.9,0,22.0,,92562.3,10.8,-0.23,0.65,0.71,-0.7,4.9,-1.3,31.25,,,,,,,,,,
13.35.17.299,-54.3,13.6,0,22.0,,93524.1,10.69,-0.22,0.66,0.71,-0.7,5.9,-1.5,31.25,,,,,,,,,,
13.35.17.312,-51.9,13.0,0,22.0,,92842.7,10.77,-0.22,0.66,0.71,-0.3,5.6,-1.3,31.25,,,,,,,,,,
13.35.17.320,-47.1,11.8,0,22.0,,91755.3,10.9,-0.22,0.66,0.71,-2.6,2.1,-1.8,31.25,,,,,,,,,,
13.35.17.332,-56.2,14.0,0,22.0,,90919.6,11.0,-0.22,0.64,0.72,-1.9,3.0,-1.9,31.25,,,,,,,,,,
13.35.17.345,-72.3,18.1,0,22.0,,92372.8,10.83,-0.23,0.65,0.72,-0.4,4.3,-1.2,31.25,,,,,,,,,,
13.35.17.357,-83.9,21.0,0,22.0,,92566.5,10.8,-0.22,0.65,0.71,-0.4,3.9,-1.8,31.25,,,,,,,,,,
13.35.17.394,-87.5,21.9,0,22.0,,92169.3,10.85,-0.22,0.63,0.71,-2.0,2.8,-2.0,31.31,,,,,,,,,,
13.35.17.406,-86.5,21.6,0,22.0,,91500.1,10.93,-0.22,0.64,0.72,-0.2,3.3,-2.1,31.31,,,,,,,,,,
13.35.17.418,-102.0,25.5,0,22.0,,93195.4,10.73,-0.21,0.66,0.72,1.4,6.4,-1.9,31.31,,,,,,,,,,
13.35.17.431,-111.6,27.9,0,22.0,,93245.5,10.72,-0.22,0.66,0.72,0.5,4.3,-1.8,31.31,,,,,,,,,,
13.35.17.439,-132.0,33.0,0,22.0,,92729.2,10.78,-0.21,0.66,0.72,0.0,5.0,-1.3,31.31,,,,,,,,,,
13.35.17.451,-123.5,30.9,0,22.0,,90961.9,10.99,-0.22,0.65,0.71,0.8,6.6,-0.9,31.31,,,,,,,,,,
13.35.17.463,-108.1,27.0,0,22.0,,91658.1,10.91,-0.23,0.67,0.75,0.2,1.3,-0.8,31.31,,,,,,,,,,
13.35.17.472,18.5,4.6,1,23.0,98.5,92984.0,10.75,-0.21,0.62,0.71,-0.5,7.6,-2.0,31.31,,,,,,,,,,
13.35.17.485,77.6,19.4,0,23.0,,92320.2,10.83,-0.22,0.65,0.71,0.6,4.8,-0.1,31.31,,,,,,,,,,
13.35.17.496,123.0,30.8,0,23.0,,91358.8,10.95,-0.22,0.64,0.72,1.3,7.3,-1.2,31.31,,,,,,,,,,
13.35.17.509,188.1,47.0,0,23.0,,92177.5,10.85,-0.22,0.66,0.72,1.1,5.7,-0.5,31.31,,,,,,,,,,
13.35.17.517,192.3,48.1,0,23.0,,93001.8,10.75,-0.22,0.65,0.7,1.6,8.1,-1.2,31.31,,,,,,,,,,
13.35.17.529,246.6,61.6,0,23.0,,91662.9,10.91,-0.23,0.65,0.72,0.1,4.9,-1.0,31.31,,,,,,,,,,
13.35.17.541,284.0,71.0,0,23.0,,93732.1,10.67,-0.22,0.65,0.72,-1.7,7.3,-1.2,31.31,,,,,,,,,,
13.35.17.550,308.4,77.1,0,23.0,,92078.1,10.86,-0.22,0.64,0.7,-0.8,4.7,-1.2,31.31,,,,,,,,,,
13.35.17.562,313.3,78.3,0,23.0,,92077.4,10.86,-0.22,0.64,0.72,0.3,5.6,-0.2,31.31,,,,,,,,,,
13.35.17.575,342.7,85.7,0,23.0,,92581.7,10.8,-0.21,0.64,0.73,-0.3,5.3,-1.4,31.31,,,,,,,,,,
13.35.17.586,289.5,72.4,0,23.0,,92597.8,10.8,-0.21,0.66,0.71,1.4,6.4,-1.4,31.31,,,,,,,,,,
13.35.17.594,327.4,81.8,0,23.0,,91889.4,10.88,-0.22,0.66,0.72,1.7,5.7,-1.0,31.31,,,,,,,,,,
13.35.17.607,267.1,66.8,0,23.0,,91134.2,10.97,-0.22,0.64,0.71,0.6,6.3,-1.2,31.31,,,,,,,,,,
13.35.17.619,242.1,60.5,0,23.0,,92318.2,10.83,-0.23,0.65,0.72,1.6,5.8,-0.6,31.31,,,,,,,,,,
13.35.17.627,227.1,56.8,0,23.0,,92782.3,10.78,-0.21,0.64,0.7,1.7,8.0,-0.7,31.31,,,,,,,,,,
13.35.17.639,183.3,45.8,0,23.0,,92302.8,10.83,-0.22,0.64,0.71,1.1,4.4,-0.5,31.31,,,,,,,,,,
13.35.17.652,124.4,31.1,0,23.0,,91185.8,10.97,-0.22,0.67,0.73,1.2,9.0,-1.2,31.31,,,,,,,,,,
13.35.17.664,59.8,15.0,0,23.0,,91702.3,10.9,-0.21,0.65,0.7,2.1,7.9,-0.4,31.31,,,,,,,,,,
13.35.17.672,39.8,10.0,0,23.0,,93229.3,10.73,-0.23,0.65,0.73,0.3,4.8,-0.7,31.31,,,,,,,,,,
13.35.17.685,11.1,2.8,0,23.0,,92020.8,10.87,-0.21,0.62,0.71,0.7,8.0,-0.7,31.31,,,,,,,,,,
13.35.17.697,21.9,5.5,0,23.0,,91514.7,10.93,-0.22,0.64,0.71,2.4,6.4,-0.4,31.31,,,,,,,,,,
13.35.17.705,39.7,9.9,0,23.0,,92075.8,10.86,-0.23,0.67,0.73,1.0,6.0,-0.8,31.31,,,,,,,,,,
13.35.17.717,46.2,11.6,0,23.0,,91423.4,10.94,-0.22,0.65,0.71,0.1,5.9,-1.2,31.31,,,,,,,,,,
13.35.17.730,50.3,12.6,0,23.0,,92213.7,10.84,-0.22,0.67,0.72,1.8,6.3,-0.8,31.31,,,,,,,,,,
13.35.17.739,58.5,14.6,0,23.0,,92276.8,10.84,-0.22,0.64,0.7,1.0,6.1,-1.1,31.31,,,,,,,,,,
13.35.17.751,57.0,14.2,0,23.0,,93083.1,10.74,-0.22,0.65,0.73,0.7,3.1,-1.1,31.31,,,,,,,,,,
13.35.17.762,47.4,11.8,0,23.0,,92071.2,10.86,-0.21,0.64,0.71,0.9,7.0,-1.9,31.31,,,,,,,,,,
13.35.17.771,35.0,8.8,0,23.0,,91869.8,10.88,-0.23,0.65,0.71,2.5,5.1,-1.3,31.31,,,,,,,,,,
13.35.17.783,19.7,4.9,0,23.0,,90489.4,11.05,-0.22,0.66,0.72,1.4,6.1,-1.1,31.31,,,,,,,,,,
13.35.17.795,8.6,2.2,0,23.0,,93821.7,10.66,-0.22,0.66,0.7,-0.1,4.8,-1.1,31.31,,,,,,,,,,
13.35.17.803,3.3,0.8,0,23.0,,92906.8,10.76,-0.22,0.66,0.72,-0.8,4.5,-1.4,31.31,,,,,,,,,,
13.35.17.816,-5.8,1.4,0,23.0,,93106.0,10.74,-0.22,0.65,0.71,0.0,7.0,-0.9,31.31,,,,,,,,,,
13.35.17.828,-12.9,3.2,0,23.0,,92528.2,10.81,-0.22,0.65,0.73,0.8,4.4,-0.5,31.31,,,,,,,,,,
13.35.17.838,-27.3,6.8,0,23.0,,92172.6,10.85,-0.2,0.64,0.71,1.2,8.3,-0.6,31.31,,,,,,,,,,
13.35.17.849,-19.4,4.8,0,23.0,,92017.1,10.87,-0.22,0.65,0.71,3.5,7.4,0.1,31.31,,,,,,,,,,
13.35.17.861,-29.1,7.3,0,23.0,,91066.3,10.98,-0.22,0.64,0.72,2.6,8.2,-0.6,31.31,,,,,,,,,,
13.35.17.873,-34.2,8.6,0,23.0,,90047.3,11.11,-0.21,0.66,0.71,3.1,8.5,-0.3,31.31,,,,,,,,,,
13.35.17.881,-33.0,8.2,0,23.0,,92259.9,10.84,-0.23,0.65,0.7,2.5,7.6,-0.6,31.31,,,,,,,,,,
13.35.17.894,-49.1,12.3,0,23.0,,92606.4,10.8,-0.22,0.66,0.72,1.1,7.2,-0.4,31.31,,,,,,,,,,
13.35.17.902,-54.3,13.6,0,23.0,,91900.4,10.88,-0.22,0.66,0.71,1.1,8.4,-0.5,31.31,,,,,,,,,,
13.35.17.914,-41.7,10.4,0,23.0,,92609.7,10.8,-0.24,0.65,0.7,0.4,6.4,-0.3,31.31,,,,,,,,,,
13.35.17.922,-63.2,15.8,0,23.0,,91734.0,10.9,-0.22,0.66,0.72,1.1,6.6,-0.2,31.31,,,,,,,,,,
13.35.17.935,-56.3,14.1,0,23.0,,92879.9,10.77,-0.21,0.64,0.71,1.6,8.3,-0.7,31.31,,,,,,,,,,
13.35.17.943,-71.2,17.8,0,23.0,,92189.9,10.85,-0.22,0.66,0.72,2.4,7.3,0.5,31.31,,,,,,,,,,
13.35.17.955,-79.5,19.9,0,23.0,,92858.0,10.77,-0.22,0.66,0.72,2.8,12.0,0.1,31.31,,,,,,,,,,
13.35.17.963,-71.6,17.9,0,23.0,,92518.9,10.81,-0.21,0.65,0.71,3.2,10.4,1.3,31.31,,,,,,,,,,
13.35.17.975,-77.8,19.4,0,23.0,,90530.5,11.05,-0.22,0.64,0.72,2.4,9.4,1.4,31.31,,,,,,,,,,
13.35.17.984,-78.7,19.7,0,23.0,,91674.1,10.91,-0.22,0.65,0.71,2.5,10.8,0.7,31.31,,,,,,,,,,
13.35.17.996,-103.9,26.0,0,23.0,,92318.5,10.83,-0.23,0.65,0.71,4.6,10.4,0.9,31.31,,,,,,,,,,
13.35.18.004,-106.0,26.5,0,23.0,,91696.6,10.91,-0.24,0.65,0.71,2.8,11.0,-0.2,31.31,,,,,,,,,,
13.35.18.016,-102.2,25.6,0,23.0,,92546.6,10.81,-0.23,0.66,0.71,0.2,4.6,-0.6,31.31,,,,,,,,,,
13.35.18.025,-107.2,26.8,0,23.0,,91916.4,10.88,-0.22,0.64,0.68,-1.1,8.1,-1.2,31.31,,,,,,,,,,
13.35.18.037,-119.8,30.0,0,23.0,,92630.9,10.8,-0.24,0.66,0.73,-1.7,4.4,-0.9,31.31,,,,,,,,,,
13.35.18.045,-119.0,29.8,0,23.0,,91690.1,10.91,-0.22,0.66,0.71,-0.5,5.0,-1.4,31.31,,,,,,,,,,
13.35.18.057,-125.8,31.4,0,23.0,,90660.1,11.03,-0.23,0.66,0.71,-0.5,5.4,-0.7,31.31,,,,,,,,,,
13.35.18.066,-129.1,32.3,0,23.0,,91954.4,10.87,-0.22,0.66,0.71,-0.9,4.7,-0.5,31.31,,,,,,,,,,
13.35.18.078,45.4,11.4,1,24.0,91.8,91838.6,10.89,-0.22,0.65,0.7,-0.9,8.8,-0.4,31.31,,,,,,,,,,
13.35.18.090,93.7,23.4,0,24.0,,93747.9,10.67,-0.23,0.66,0.71,0.8,5.4,0.2,31.31,,,,,,,,,,
13.35.18.098,117.3,29.3,0,24.0,,92337.2,10.83,-0.22,0.66,0.71,1.0,4.3,0.0,31.31,,,,,,,,,,
13.35.18.111,181.6,45.4,0,24.0,,92125.2,10.85,-0.22,0.66,0.72,1.0,6.0,0.0,31.31,,,,,,,,,,
13.35.18.119,223.2,55.8,0,24.0,,91629.0,10.91,-0.23,0.64,0.7,0.8,5.4,-0.2,31.31,,,,,,,,,,
