timestamp,ppg,threshold,beat,beat_count,inst_bpm,gsr_resistance_ohm,gsr_conductance_us,accel_x,accel_y,accel_z,gyro_x,gyro_y,gyro_z,temp_c,window_bpm,window_temp_c,status_message,SpO2,bmi,age,height,weight,env_temp_c,env_humidity_pct
14.11.00.365,,,0,,,60181.8,16.62,-0.25,0.44,0.85,1.5,5.1,-0.5,36.38,110.6,,,,43.3,23.0,162.56,114.3,37.0,52.0
14.11.00.373,12.0,3.0,0,,,59762.5,16.73,-0.25,0.45,0.85,0.7,5.6,-0.6,36.38,,,,,,,,,,
14.11.00.386,176.2,44.0,0,,,53638.8,18.64,-0.24,0.45,0.86,0.2,5.1,-1.2,36.38,,,,,,,,,,
14.11.00.394,214.5,53.6,0,,,60254.7,16.6,-0.25,0.44,0.86,0.4,5.9,-1.0,36.38,,,,,,,,,,
14.11.00.406,291.2,72.8,0,,,55040.2,18.17,-0.26,0.44,0.86,0.8,5.9,-0.6,36.38,,,,,,,,,,
14.11.00.418,376.7,94.2,0,,,56211.8,17.79,-0.26,0.44,0.86,1.2,5.6,-0.4,36.38,,,,,,,,,,
14.11.00.431,452.8,113.2,0,,,53952.4,18.53,-0.25,0.43,0.86,0.8,4.9,-1.0,36.38,,,,,,,,,,
14.11.00.439,417.1,104.3,0,,,59959.1,16.68,-0.24,0.44,0.87,0.4,4.8,-1.4,36.38,,,,,,,,,,
14.11.00.451,481.4,120.4,0,,,55160.8,18.13,-0.24,0.45,0.86,0.9,5.5,-0.8,36.38,,,,,,,,,,
14.11.00.463,502.6,125.6,0,,,54890.2,18.22,-0.25,0.45,0.86,1.8,5.8,0.1,36.38,,,,,,,,,,
14.11.00.472,515.3,128.8,0,,,58881.4,16.98,-0.25,0.44,0.85,2.0,6.4,0.2,36.38,,,,,,,,,,
14.11.00.484,457.6,114.4,0,,,60134.7,16.63,-0.26,0.44,0.86,1.2,6.2,-0.2,36.38,,,,,,,,,,
14.11.00.496,370.6,92.6,0,,,56304.9,17.76,-0.25,0.44,0.85,0.5,5.7,-1.0,36.38,,,,,,,,,,
14.11.00.537,170.2,42.6,0,,,52747.6,18.96,-0.25,0.45,0.86,-0.1,5.1,-0.5,36.44,,,,,,,,,,
14.11.00.545,103.2,25.8,0,,,59538.6,16.8,-0.25,0.44,0.86,-0.7,4.6,-0.7,36.44,,,,,,,,,,
14.11.00.558,76.3,19.1,0,,,53947.2,18.54,-0.25,0.44,0.86,-1.3,5.3,-1.1,36.44,,,,,,,,,,
14.11.00.570,12.5,3.1,0,,,55267.7,18.09,-0.25,0.44,0.86,-0.5,6.3,-1.6,36.44,,,,,,,,,,
14.11.00.582,0.2,0.0,0,,,55712.3,17.95,-0.25,0.43,0.87,0.4,5.7,-1.2,36.44,,,,,,,,,,
14.11.00.590,45.0,11.2,0,,,55121.6,18.14,-0.25,0.44,0.86,1.5,6.0,-0.6,36.44,,,,,,,,,,
14.11.00.603,67.1,16.8,0,,,55545.9,18.0,-0.24,0.44,0.85,1.9,7.2,-0.5,36.44,,,,,,,,,,
14.11.00.615,104.6,26.2,0,,,57534.3,17.38,-0.25,0.44,0.85,1.5,6.5,-1.0,36.44,,,,,,,,,,
14.11.00.623,112.0,28.0,0,,,54726.5,18.27,-0.25,0.45,0.85,0.5,6.9,-1.5,36.44,,,,,,,,,,
14.11.00.636,43.9,11.0,0,,,54606.1,18.31,-0.25,0.44,0.85,0.2,7.1,-1.8,36.44,,,,,,,,,,
14.11.00.648,41.0,10.2,0,,,56882.6,17.58,-0.25,0.44,0.86,0.6,5.9,-1.5,36.44,,,,,,,,,,
14.11.00.656,-0.1,0.0,0,,,58869.0,16.99,-0.25,0.44,0.86,0.8,4.7,-1.2,36.44,,,,,,,,,,
14.11.00.668,53.6,13.4,0,,,55565.9,18.0,-0.25,0.44,0.86,0.8,6.4,-1.0,36.44,,,,,,,,,,
14.11.00.681,22.2,5.6,0,,,55468.7,18.03,-0.25,0.44,0.86,0.4,5.4,-1.4,36.44,,,,,,,,,,
14.11.00.689,-26.5,6.6,0,,,58737.3,17.02,-0.25,0.44,0.85,0.4,6.2,-1.5,36.44,,,,,,,,,,
14.11.00.701,-8.5,2.1,0,,,56219.1,17.79,-0.25,0.44,0.85,0.4,6.0,-1.4,36.44,,,,,,,,,,
14.11.00.713,-21.8,5.4,0,,,53627.4,18.65,-0.25,0.44,0.86,0.3,4.5,-1.3,36.44,,,,,,,,,,
14.11.00.726,-3.4,0.8,0,,,51087.3,19.57,-0.25,0.44,0.86,0.7,5.1,-1.4,36.44,,,,,,,,,,
14.11.00.734,-16.9,4.2,0,,,53634.9,18.64,-0.25,0.44,0.86,1.0,5.6,-1.9,36.44,,,,,,,,,,
14.11.00.746,-38.4,9.6,0,,,53832.2,18.58,-0.24,0.44,0.86,0.2,5.9,-1.8,36.44,,,,,,,,,,
14.11.00.758,-5.1,1.3,0,,,53922.0,18.55,-0.24,0.44,0.86,0.4,5.7,-1.9,36.44,,,,,,,,,,
14.11.00.766,-38.1,9.5,0,,,55609.8,17.98,-0.24,0.44,0.86,0.7,5.6,-1.0,36.44,,,,,,,,,,
14.11.00.779,-50.4,12.6,0,,,49208.7,20.32,-0.24,0.43,0.86,1.8,5.4,0.4,36.44,,,,,,,,,,
14.11.00.791,-16.5,4.1,0,,,56906.8,17.57,-0.25,0.44,0.86,2.9,7.6,0.3,36.44,,,,,,,,,,
14.11.00.799,-70.4,17.6,0,,,54714.0,18.28,-0.24,0.44,0.85,1.0,6.2,0.2,36.44,,,,,,,,,,
14.11.00.812,-92.4,23.1,0,,,57903.1,17.27,-0.24,0.45,0.86,1.9,5.4,-0.6,36.44,,,,,,,,,,
14.11.00.824,-152.5,38.1,0,,,59091.2,16.92,-0.25,0.45,0.86,0.9,6.4,-0.9,36.44,,,,,,,,,,
14.11.00.832,-91.0,22.8,0,,,53053.8,18.85,-0.25,0.43,0.87,0.6,2.4,-1.1,36.44,,,,,,,,,,
14.11.00.844,-183.5,45.9,0,,,54063.9,18.5,-0.24,0.45,0.86,0.9,5.0,-0.6,36.44,,,,,,,,,,
14.11.00.857,-151.7,37.9,0,,,56365.9,17.74,-0.25,0.44,0.85,1.9,5.4,-0.7,36.44,,,,,,,,,,
14.11.00.869,-102.1,25.5,0,,,55647.6,17.97,-0.24,0.45,0.86,1.7,5.1,-0.4,36.44,,,,,,,,,,
14.11.00.877,-158.1,39.5,0,,,52623.3,19.0,-0.24,0.44,0.86,2.2,6.4,-1.2,36.44,,,,,,,,,,
14.11.00.889,-137.0,34.2,0,,,54953.9,18.2,-0.25,0.45,0.85,2.2,4.9,-1.4,36.44,,,,,,,,,,
14.11.00.902,-174.2,43.6,0,,,56629.1,17.66,-0.25,0.45,0.85,2.1,5.5,-1.2,36.44,,,,,,,,,,
14.11.00.910,-217.0,54.2,0,,,52330.2,19.11,-0.25,0.45,0.86,1.0,5.1,-1.6,36.44,,,,,,,,,,
14.11.00.922,-208.5,52.1,0,,,51893.0,19.27,-0.26,0.44,0.86,0.6,4.2,-1.1,36.44,,,,,,,,,,
14.11.00.934,31.8,8.0,1,1.0,109.1,51744.1,19.33,-0.25,0.44,0.86,0.9,5.0,-1.0,36.44,,,,,,,,,,
14.11.00.943,69.5,17.4,0,1.0,,50192.2,19.92,-0.25,0.44,0.86,1.5,5.5,-0.3,36.44,,,,,,,,,,
14.11.00.955,217.4,54.4,0,1.0,,54001.4,18.52,-0.25,0.44,0.86,0.9,6.1,-0.4,36.44,,,,,,,,,,
14.11.00.967,213.2,53.3,0,1.0,,56431.0,17.72,-0.25,0.45,0.85,0.7,6.3,-0.8,36.44,,,,,,,,,,
14.11.00.980,338.9,84.7,0,1.0,,55489.8,18.02,-0.25,0.45,0.85,0.0,5.2,-0.4,36.44,,,,,,,,,,
14.11.00.988,465.7,116.4,0,1.0,,49315.4,20.28,-0.25,0.45,0.86,-0.3,5.3,0.0,36.44,,,,,,,,,,
14.11.01.001,491.8,123.0,0,1.0,,50000.4,20.0,-0.25,0.44,0.86,-0.7,5.1,-0.5,36.44,,,,,,,,,,
14.11.01.013,488.7,122.2,0,1.0,,51758.4,19.32,-0.25,0.44,0.86,-0.4,5.5,-0.5,36.44,,,,,,,,,,
14.11.01.025,469.6,117.4,0,1.0,,54477.8,18.36,-0.25,0.44,0.86,-0.4,5.7,-0.7,36.44,,,,,,,,,,
14.11.01.033,438.1,109.5,0,1.0,,52590.2,19.01,-0.25,0.44,0.85,-0.7,4.4,-0.8,36.44,,,,,,,,,,
14.11.01.045,481.6,120.4,0,1.0,,49862.5,20.06,-0.24,0.45,0.85,-0.7,4.2,-1.0,36.44,,,,,,,,,,
14.11.01.057,473.8,118.4,0,1.0,,52104.7,19.19,-0.25,0.44,0.85,-0.5,5.3,-0.4,36.44,,,,,,,,,,
14.11.01.066,417.7,104.4,0,1.0,,53575.3,18.67,-0.25,0.44,0.86,-0.6,4.5,0.0,36.44,,,,,,,,,,
14.11.01.078,362.3,90.6,0,1.0,,54832.5,18.24,-0.24,0.44,0.86,-0.6,4.3,-0.3,36.44,,,,,,,,,,
14.11.01.090,254.4,63.6,0,1.0,,48452.2,20.64,-0.24,0.44,0.87,0.3,3.8,-0.3,36.44,,,,,,,,,,
14.11.01.102,211.6,52.9,0,1.0,,58169.7,17.19,-0.23,0.43,0.86,1.2,4.6,-0.7,36.44,,,,,,,,,,
14.11.01.111,168.2,42.0,0,1.0,,52367.5,19.1,-0.23,0.44,0.86,1.9,5.2,-0.7,36.44,,,,,,,,,,
14.11.01.123,67.0,16.8,0,1.0,,59115.0,16.92,-0.24,0.44,0.86,1.7,5.8,-1.2,36.44,,,,,,,,,,
14.11.01.135,25.8,6.4,0,1.0,,58253.4,17.17,-0.24,0.45,0.85,1.5,6.9,-1.2,36.44,,,,,,,,,,
14.11.01.148,127.9,32.0,0,1.0,,52034.0,19.22,-0.24,0.45,0.86,1.6,7.0,-0.9,36.44,,,,,,,,,,
14.11.01.156,71.2,17.8,0,1.0,,57613.8,17.36,-0.25,0.44,0.86,1.7,7.9,-1.2,36.44,,,,,,,,,,
14.11.01.168,98.0,24.5,0,1.0,,57419.9,17.42,-0.25,0.45,0.86,1.6,7.9,-1.5,36.44,,,,,,,,,,
14.11.01.180,100.9,25.2,0,1.0,,53574.8,18.67,-0.25,0.45,0.85,0.1,6.9,-2.4,36.44,,,,,,,,,,
14.11.01.188,115.9,29.0,0,1.0,,55822.0,17.91,-0.26,0.46,0.86,-0.8,5.9,-2.6,36.44,,,,,,,,,,
14.11.01.201,42.5,10.6,0,1.0,,56596.4,17.67,-0.25,0.46,0.85,-1.8,6.9,-2.3,36.44,,,,,,,,,,
14.11.01.213,68.2,17.0,0,1.0,,56690.7,17.64,-0.25,0.45,0.86,-2.2,7.0,-2.3,36.44,,,,,,,,,,
14.11.01.225,37.6,9.4,0,1.0,,52736.8,18.96,-0.25,0.44,0.86,-2.7,7.0,-2.5,36.44,,,,,,,,,,
14.11.01.234,-11.8,3.0,0,1.0,,57685.9,17.34,-0.25,0.44,0.86,-2.6,8.2,-2.8,36.44,,,,,,,,,,
14.11.01.246,-24.8,6.2,0,1.0,,55538.0,18.01,-0.26,0.44,0.85,-2.2,10.3,-3.1,36.44,,,,,,,,,,
14.11.01.258,-1.7,0.4,0,1.0,,55230.5,18.11,-0.26,0.44,0.86,-3.6,12.5,-4.3,36.44,,,,,,,,,,
14.11.01.266,-54.3,13.6,0,1.0,,44915.1,22.26,-0.23,0.44,0.87,-5.1,11.1,-4.5,36.44,,,,,,,,,,
14.11.01.279,-42.6,10.6,0,1.0,,60563.3,16.51,-0.2,0.39,0.86,-3.7,11.7,-4.4,36.44,,,,,,,,,,
14.11.01.291,-87.1,21.8,0,1.0,,50783.7,19.69,-0.21,0.39,0.88,1.5,11.8,-1.7,36.44,,,,,,,,,,
14.11.01.303,-70.3,17.6,0,1.0,,57385.0,17.43,-0.21,0.39,0.88,9.4,21.7,1.2,36.44,,,,,,,,,,
14.11.01.340,-64.9,16.2,0,1.0,,57410.0,17.42,-0.23,0.44,0.85,6.6,27.9,-6.9,36.44,,,,,,,,,,
14.11.01.352,-109.1,27.3,0,1.0,,54466.9,18.36,-0.27,0.46,0.86,8.9,19.3,-5.1,36.44,,,,,,,,,,
14.11.01.365,-85.5,21.4,0,1.0,,55391.9,18.05,-0.29,0.49,0.86,12.4,21.8,1.0,36.44,,,,,,,,,,
14.11.01.377,-116.0,29.0,0,1.0,,53072.1,18.84,-0.29,0.43,0.85,15.6,23.1,2.5,36.44,,,,,,,,,,
14.11.01.385,-145.2,36.3,0,1.0,,55977.9,17.86,-0.29,0.43,0.75,13.5,25.3,-2.8,36.44,,,,,,,,,,
14.11.01.397,-110.9,27.7,0,1.0,,55181.1,18.12,-0.36,0.63,0.83,1.1,15.7,-7.7,36.44,,,,,,,,,,
14.11.01.410,-113.7,28.4,0,1.0,,49778.9,20.09,-0.34,0.57,0.9,-11.5,2.2,-8.0,36.44,,,,,,,,,,
14.11.01.418,-137.4,34.4,0,1.0,,54186.4,18.45,-0.3,0.4,0.75,-5.6,17.1,-6.2,36.44,,,,,,,,,,
14.11.01.430,-159.8,40.0,0,1.0,,53041.1,18.85,-0.37,0.51,0.91,-9.9,-1.3,-5.1,36.44,,,,,,,,,,
14.11.01.442,-157.8,39.4,0,1.0,,55550.0,18.0,-0.26,0.37,0.83,-7.1,4.7,-3.2,36.44,,,,,,,,,,
14.11.01.455,-166.4,41.6,0,1.0,,59749.4,16.74,-0.31,0.42,0.84,-2.6,1.7,-2.6,36.44,,,,,,,,,,
14.11.01.463,-142.3,35.6,0,1.0,,57088.9,17.52,-0.28,0.42,0.85,-6.0,-1.7,-4.4,36.44,,,,,,,,,,
14.11.01.475,-199.8,50.0,0,1.0,,52865.3,18.92,-0.29,0.48,0.84,-0.9,-2.9,-1.6,36.44,,,,,,,,,,
14.11.01.488,-181.0,45.2,0,1.0,,55067.4,18.16,-0.27,0.45,0.86,-0.2,0.4,0.1,36.44,,,,,,,,,,
14.11.01.500,54.6,13.6,1,2.0,106.3,49603.9,20.16,-0.27,0.44,0.86,0.9,-2.1,0.1,36.44,,,,,,,,,,
14.11.01.509,43.0,10.8,0,2.0,,56278.4,17.77,-0.26,0.41,0.85,3.5,0.6,-1.0,36.44,,,,,,,,,,
14.11.01.520,89.6,22.4,0,2.0,,54429.9,18.37,-0.27,0.44,0.86,5.9,-0.9,-0.1,36.44,,,,,,,,,,
14.11.01.533,302.1,75.5,0,2.0,,49607.3,20.16,-0.27,0.43,0.85,6.4,4.3,0.1,36.44,,,,,,,,,,
14.11.01.541,294.9,73.7,0,2.0,,62976.9,15.88,-0.28,0.47,0.84,3.8,1.8,-1.0,36.44,,,,,,,,,,
14.11.01.553,366.0,91.5,0,2.0,,59860.2,16.71,-0.27,0.47,0.83,0.6,1.7,-2.9,36.44,,,,,,,,,,
14.11.01.565,357.2,89.3,0,2.0,,51107.8,19.57,-0.29,0.49,0.83,-2.4,2.3,-2.5,36.44,,,,,,,,,,
14.11.01.578,467.4,116.8,0,2.0,,53600.7,18.66,-0.31,0.49,0.84,-6.1,2.4,-1.7,36.44,,,,,,,,,,
14.11.01.586,545.0,136.2,0,2.0,,54119.1,18.48,-0.3,0.47,0.81,-10.5,1.3,-1.9,36.44,,,,,,,,,,
14.11.01.598,481.4,120.4,0,2.0,,61349.5,16.3,-0.31,0.44,0.83,-14.0,-1.9,-2.3,36.44,,,,,,,,,,
14.11.01.610,432.6,108.2,0,2.0,,56336.4,17.75,-0.28,0.41,0.86,-17.1,-8.9,-0.1,36.44,,,,,,,,,,
14.11.01.623,419.2,104.8,0,2.0,,51773.3,19.31,-0.26,0.4,0.88,-13.3,-11.3,3.7,36.44,,,,,,,,,,
14.11.01.631,418.9,104.7,0,2.0,,54290.6,18.42,-0.24,0.37,0.88,-5.8,-6.6,6.8,36.44,,,,,,,,,,
14.11.01.643,391.4,97.8,0,2.0,,55839.2,17.91,-0.22,0.38,0.88,0.5,-5.2,6.4,36.44,,,,,,,,,,
14.11.01.655,325.9,81.5,0,2.0,,51451.6,19.44,-0.22,0.41,0.88,2.9,-1.3,2.3,36.44,,,,,,,,,,
14.11.01.664,199.9,50.0,0,2.0,,59286.0,16.87,-0.2,0.44,0.86,2.9,0.8,-1.8,36.44,,,,,,,,,,
14.11.01.676,189.4,47.4,0,2.0,,54402.5,18.38,-0.21,0.45,0.85,3.2,1.4,-3.4,36.44,,,,,,,,,,
14.11.01.688,22.2,5.6,0,2.0,,54786.9,18.25,-0.22,0.47,0.86,4.0,5.7,-2.6,36.44,,,,,,,,,,
14.11.01.701,2.1,0.5,0,2.0,,56717.2,17.63,-0.24,0.45,0.86,5.1,7.6,-1.8,36.44,,,,,,,,,,
14.11.01.709,53.8,13.4,0,2.0,,50374.7,19.85,-0.25,0.44,0.85,5.4,6.6,-1.3,36.44,,,,,,,,,,
14.11.01.721,-19.6,4.9,0,2.0,,49366.9,20.26,-0.27,0.43,0.86,5.2,7.4,-3.0,36.44,,,,,,,,,,
14.11.01.733,94.8,23.7,0,2.0,,55194.8,18.12,-0.28,0.44,0.87,3.1,4.3,-3.1,36.44,,,,,,,,,,
14.11.01.741,94.3,23.6,0,2.0,,54828.1,18.24,-0.29,0.43,0.86,1.2,5.1,-2.6,36.44,,,,,,,,,,
14.11.01.754,118.2,29.6,0,2.0,,55292.7,18.09,-0.28,0.42,0.85,0.1,5.1,-3.6,36.44,,,,,,,,,,
14.11.01.766,65.2,16.3,0,2.0,,54213.9,18.45,-0.28,0.42,0.85,-0.7,3.1,-3.4,36.44,,,,,,,,,,
14.11.01.778,45.0,11.2,0,2.0,,56303.7,17.76,-0.27,0.44,0.86,-0.7,7.0,-2.2,36.44,,,,,,,,,,
14.11.01.787,1.5,0.4,0,2.0,,51592.5,19.38,-0.26,0.43,0.85,-0.3,7.5,-2.0,36.44,,,,,,,,,,
14.11.01.799,64.5,16.1,0,2.0,,55714.5,17.95,-0.26,0.44,0.86,1.9,7.8,-0.7,36.44,,,,,,,,,,
14.11.01.811,17.2,4.3,0,2.0,,52752.2,18.96,-0.27,0.45,0.86,3.3,11.3,1.5,36.44,,,,,,,,,,
14.11.01.823,50.8,12.7,0,2.0,,52861.4,18.92,-0.26,0.45,0.85,4.1,11.5,2.9,36.44,,,,,,,,,,
14.11.01.832,-65.4,16.4,0,2.0,,53132.7,18.82,-0.25,0.45,0.85,3.1,11.6,2.5,36.44,,,,,,,,,,
14.11.01.844,-12.7,3.2,0,2.0,,53647.8,18.64,-0.26,0.45,0.85,1.6,9.0,1.5,36.44,,,,,,,,,,
14.11.01.856,-38.8,9.7,0,2.0,,49961.0,20.02,-0.26,0.44,0.85,0.3,7.7,0.1,36.44,,,,,,,,,,
14.11.01.864,-42.6,10.6,0,2.0,,53564.5,18.67,-0.26,0.43,0.85,0.2,5.9,-0.8,36.44,,,,,,,,,,
14.11.01.877,-22.1,5.5,0,2.0,,56197.5,17.79,-0.27,0.44,0.85,0.6,6.4,-0.3,36.44,,,,,,,,,,
14.11.01.889,-32.2,8.0,0,2.0,,53202.8,18.8,-0.28,0.44,0.86,1.1,7.4,-1.0,36.44,,,,,,,,,,
14.11.01.901,-128.1,32.0,0,2.0,,51759.7,19.32,-0.27,0.45,0.85,-0.2,5.4,-1.3,36.44,,,,,,,,,,
14.11.01.910,-57.6,14.4,0,2.0,,54172.9,18.46,-0.27,0.44,0.84,-1.7,5.2,-2.7,36.44,,,,,,,,,,
14.11.01.922,-102.1,25.5,0,2.0,,51051.0,19.59,-0.27,0.45,0.85,-3.2,3.2,-2.8,36.44,,,,,,,,,,
14.11.01.930,-98.4,24.6,0,2.0,,54376.2,18.39,-0.27,0.44,0.86,-3.5,2.4,-1.9,36.44,,,,,,,,,,
14.11.01.942,-123.9,31.0,0,2.0,,58117.3,17.21,-0.27,0.44,0.85,-2.3,2.7,-0.7,36.44,,,,,,,,,,
14.11.01.950,-83.0,20.8,0,2.0,,57365.8,17.43,-0.27,0.43,0.85,-1.5,2.3,0.3,36.44,,,,,,,,,,
14.11.01.963,-141.1,35.3,0,2.0,,59787.6,16.73,-0.26,0.42,0.85,-0.8,3.0,0.6,36.44,,,,,,,,,,
14.11.01.971,-92.9,23.2,0,2.0,,53442.7,18.71,-0.26,0.43,0.86,0.0,2.2,0.7,36.44,,,,,,,,,,
14.11.01.983,-72.7,18.2,0,2.0,,54979.9,18.19,-0.26,0.44,0.86,0.8,3.1,0.7,36.44,,,,,,,,,,
14.11.01.992,-160.3,40.1,0,2.0,,55232.8,18.11,-0.25,0.42,0.85,0.7,2.8,-0.1,36.44,,,,,,,,,,
14.11.02.004,-209.5,52.4,0,2.0,,52343.8,19.1,-0.24,0.44,0.86,1.2,0.7,-0.5,36.44,,,,,,,,,,
14.11.02.012,-170.2,42.6,0,2.0,,50947.3,19.63,-0.24,0.44,0.87,1.7,3.3,-1.1,36.44,,,,,,,,,,
14.11.02.024,-116.5,29.1,0,2.0,,52356.8,19.1,-0.25,0.44,0.86,2.1,3.6,-1.4,36.44,,,,,,,,,,
14.11.02.032,-148.6,37.2,0,2.0,,62031.9,16.12,-0.25,0.45,0.85,2.0,4.8,-1.9,36.44,,,,,,,,,,
14.11.02.045,-224.4,56.1,0,2.0,,59029.7,16.94,-0.26,0.45,0.85,0.4,6.1,-2.7,36.44,,,,,,,,,,
14.11.02.053,-167.5,41.9,0,2.0,,51583.6,19.39,-0.26,0.44,0.85,-1.0,5.2,-3.2,36.44,,,,,,,,,,
14.11.02.065,-40.7,10.2,1,3.0,105.5,55146.9,18.13,-0.26,0.44,0.86,-1.4,4.6,-3.3,36.44,,,,,,,,,,
14.11.02.073,68.3,17.1,0,3.0,,54147.1,18.47,-0.26,0.43,0.85,-1.0,5.7,-2.6,36.44,,,,,,,,,,
14.11.02.086,139.6,34.9,0,3.0,,52930.7,18.89,-0.26,0.44,0.85,-0.8,5.3,-2.6,36.44,,,,,,,,,,
14.11.02.094,300.0,75.0,0,3.0,,54599.6,18.32,-0.26,0.43,0.85,-1.7,5.8,-3.3,36.44,,,,,,,,,,
14.11.02.106,297.4,74.4,0,3.0,,55132.0,18.14,-0.26,0.43,0.86,-2.0,4.6,-3.0,36.44,,,,,,,,,,
14.11.02.143,387.3,96.8,0,3.0,,61775.5,16.19,-0.26,0.43,0.86,-1.2,4.2,-2.5,36.44,,,,,,,,,,
14.11.02.151,496.6,124.2,0,3.0,,56712.1,17.63,-0.25,0.44,0.86,0.5,4.6,-1.2,36.44,,,,,,,,,,
14.11.02.164,449.7,112.4,0,3.0,,56593.4,17.67,-0.24,0.43,0.86,0.7,5.1,-1.3,36.44,,,,,,,,,,
14.11.02.172,494.3,123.6,0,3.0,,55983.6,17.86,-0.24,0.43,0.86,0.6,4.8,-2.1,36.44,,,,,,,,,,
14.11.02.184,462.4,115.6,0,3.0,,59023.2,16.94,-0.24,0.44,0.86,0.6,4.3,-2.7,36.44,,,,,,,,,,
14.11.02.192,405.6,101.4,0,3.0,,53011.1,18.86,-0.25,0.44,0.86,1.1,6.1,-3.0,36.44,,,,,,,,,,
14.11.02.205,353.6,88.4,0,3.0,,53347.2,18.75,-0.25,0.44,0.86,0.6,6.4,-3.3,36.44,,,,,,,,,,
14.11.02.213,349.5,87.4,0,3.0,,54321.1,18.41,-0.26,0.44,0.86,-0.2,6.9,-3.7,36.44,,,,,,,,,,
14.11.02.225,267.5,66.9,0,3.0,,58210.7,17.18,-0.26,0.43,0.86,-0.4,7.5,-3.8,36.44,,,,,,,,,,
14.11.02.237,259.4,64.8,0,3.0,,54036.5,18.51,-0.26,0.43,0.85,-0.4,6.5,-3.4,36.44,,,,,,,,,,
14.11.02.245,165.4,41.4,0,3.0,,50709.5,19.72,-0.26,0.43,0.85,-0.1,6.7,-2.7,36.44,,,,,,,,,,
14.11.02.258,53.4,13.4,0,3.0,,56053.9,17.84,-0.26,0.44,0.86,0.0,6.7,-2.4,36.44,,,,,,,,,,
14.11.02.266,15.5,3.9,0,3.0,,57448.6,17.41,-0.25,0.44,0.86,-0.8,6.6,-2.3,36.44,,,,,,,,,,
14.11.02.278,99.5,24.9,0,3.0,,50959.0,19.62,-0.25,0.43,0.87,-1.2,6.3,-2.1,36.44,,,,,,,,,,
14.11.02.287,29.7,7.4,0,3.0,,56422.1,17.72,-0.25,0.43,0.87,-1.2,6.3,-2.2,36.44,,,,,,,,,,
14.11.02.299,93.6,23.4,0,3.0,,56789.8,17.61,-0.25,0.42,0.86,-0.6,7.7,-2.5,36.44,,,,,,,,,,
14.11.02.307,66.9,16.7,0,3.0,,54937.0,18.2,-0.24,0.42,0.87,0.1,7.7,-2.5,36.44,,,,,,,,,,
14.11.02.319,108.4,27.1,0,3.0,,57221.4,17.48,-0.25,0.43,0.87,1.5,10.1,-2.5,36.44,,,,,,,,,,
14.11.02.327,88.4,22.1,0,3.0,,58302.4,17.15,-0.25,0.42,0.86,2.5,13.1,-2.8,36.44,,,,,,,,,,
14.11.02.340,66.6,16.6,0,3.0,,55652.7,17.97,-0.26,0.44,0.85,3.0,13.5,-2.9,36.44,,,,,,,,,,
14.11.02.348,67.8,17.0,0,3.0,,57679.8,17.34,-0.27,0.45,0.85,2.5,16.3,-2.9,36.44,,,,,,,,,,
14.11.02.360,46.7,11.7,0,3.0,,52927.9,18.89,-0.29,0.47,0.85,1.0,17.6,-2.3,36.44,,,,,,,,,,
14.11.02.368,-13.5,3.4,0,3.0,,51252.3,19.51,-0.28,0.43,0.85,-1.6,16.8,-1.6,36.44,,,,,,,,,,
14.11.02.381,12.6,3.2,0,3.0,,59319.3,16.86,-0.26,0.4,0.86,-1.2,12.5,-0.9,36.44,,,,,,,,,,
14.11.02.393,40.0,10.0,0,3.0,,53154.5,18.81,-0.27,0.38,0.87,4.3,9.7,2.2,36.44,,,,,,,,,,
14.11.02.401,-96.7,24.2,0,3.0,,54628.6,18.31,-0.25,0.36,0.88,10.9,9.6,5.6,36.44,,,,,,,,,,
14.11.02.413,-46.2,11.6,0,3.0,,52183.3,19.16,-0.26,0.4,0.87,17.1,10.5,7.4,36.44,,,,,,,,,,
14.11.02.422,-21.2,5.3,0,3.0,,51795.1,19.31,-0.26,0.43,0.86,18.1,14.4,5.9,36.44,,,,,,,,,,
14.11.02.434,-73.9,18.5,0,3.0,,55623.5,17.98,-0.27,0.5,0.84,14.4,11.8,2.4,36.44,,,,,,,,,,
14.11.02.442,-52.3,13.1,0,3.0,,54513.1,18.34,-0.27,0.51,0.83,7.7,11.0,-2.2,36.44,,,,,,,,,,
14.11.02.454,-6.1,1.5,0,3.0,,54858.6,18.23,-0.27,0.52,0.82,-0.3,8.9,-3.4,36.44,,,,,,,,,,
14.11.02.463,-91.2,22.8,0,3.0,,54964.4,18.19,-0.27,0.48,0.83,-3.1,6.6,-2.7,36.44,,,,,,,,,,
14.11.02.475,-36.6,9.2,0,3.0,,60712.9,16.47,-0.28,0.44,0.84,-3.2,5.0,-1.3,36.44,,,,,,,,,,
14.11.02.483,-70.9,17.7,0,3.0,,58933.2,16.97,-0.28,0.42,0.86,-1.8,2.7,0.2,36.44,,,,,,,,,,
14.11.02.495,-71.7,17.9,0,3.0,,59254.7,16.88,-0.28,0.4,0.85,-1.1,2.3,-1.2,36.44,,,,,,,,,,
14.11.02.504,-102.3,25.6,0,3.0,,49180.8,20.33,-0.28,0.42,0.86,-0.6,-0.6,-1.7,36.44,,,,,,,,,,
14.11.02.516,-101.2,25.3,0,3.0,,56957.8,17.56,-0.27,0.43,0.87,0.7,-0.5,-1.5,36.44,,,,,,,,,,
14.11.02.524,-108.1,27.0,0,3.0,,49875.6,20.05,-0.27,0.44,0.85,1.9,0.7,-0.2,36.44,,,,,,,,,,
14.11.02.536,-94.9,23.7,0,3.0,,52782.8,18.95,-0.26,0.45,0.85,2.1,0.4,0.9,36.44,,,,,,,,,,
14.11.02.549,-160.8,40.2,0,3.0,,59882.6,16.7,-0.26,0.45,0.85,0.2,0.2,0.1,36.44,,,,,,,,,,
14.11.02.561,-106.5,26.6,0,3.0,,59227.3,16.88,-0.25,0.45,0.84,-0.4,1.1,-1.0,36.44,,,,,,,,,,
14.11.02.569,-141.4,35.4,0,3.0,,57736.3,17.32,-0.24,0.45,0.86,0.9,0.2,-0.2,36.44,,,,,,,,,,
14.11.02.581,-177.5,44.4,0,3.0,,56983.1,17.55,-0.25,0.45,0.85,1.8,1.7,0.5,36.44,,,,,,,,,,
14.11.02.594,-155.9,39.0,0,3.0,,55812.8,17.92,-0.26,0.46,0.85,0.4,1.7,-0.8,36.44,,,,,,,,,,
14.11.02.602,-204.1,51.0,0,3.0,,56230.6,17.78,-0.26,0.45,0.86,-1.3,2.4,-2.5,36.44,,,,,,,,,,
14.11.02.614,-213.9,53.5,0,3.0,,58150.2,17.2,-0.26,0.43,0.85,-2.8,2.9,-3.7,36.44,,,,,,,,,,
14.11.02.626,-187.5,46.9,0,3.0,,50472.8,19.81,-0.26,0.43,0.85,-2.6,1.4,-3.5,36.44,,,,,,,,,,
14.11.02.639,108.4,27.1,1,4.0,105.9,55775.6,17.93,-0.26,0.43,0.86,-1.4,2.6,-3.2,36.44,,,,,,,,,,
14.11.02.647,152.7,38.2,0,4.0,,52617.4,19.01,-0.27,0.43,0.85,-0.9,1.8,-2.5,36.44,,,,,,,,,,
14.11.02.659,205.9,51.5,0,4.0,,53774.5,18.6,-0.27,0.43,0.86,-0.7,2.2,-2.1,36.44,,,,,,,,,,
14.11.02.672,291.8,73.0,0,4.0,,54288.2,18.42,-0.27,0.44,0.85,-0.6,3.6,-1.4,36.44,,,,,,,,,,
14.11.02.684,414.4,103.6,0,4.0,,55038.4,18.17,-0.27,0.44,0.85,-1.1,2.1,-0.5,36.44,,,,,,,,,,
14.11.02.692,418.6,104.6,0,4.0,,53137.1,18.82,-0.27,0.44,0.86,-1.3,1.9,0.6,36.44,,,,,,,,,,
14.11.02.704,413.3,103.3,0,4.0,,47940.2,20.86,-0.27,0.44,0.86,-0.9,1.8,0.5,36.44,,,,,,,,,,
14.11.02.717,489.9,122.5,0,4.0,,55147.1,18.13,-0.26,0.43,0.85,-1.0,1.3,0.6,36.44,,,,,,,,,,
14.11.02.725,484.9,121.2,0,4.0,,53479.2,18.7,-0.25,0.44,0.87,-0.4,1.5,0.9,36.44,,,,,,,,,,
14.11.02.737,548.7,137.2,0,4.0,,53926.0,18.54,-0.25,0.42,0.85,0.9,2.4,0.3,36.44,,,,,,,,,,
14.11.02.749,444.3,111.1,0,4.0,,56919.7,17.57,-0.25,0.43,0.86,1.7,2.0,0.1,36.44,,,,,,,,,,
14.11.02.757,409.6,102.4,0,4.0,,55509.9,18.01,-0.24,0.45,0.87,1.9,4.2,-0.7,36.44,,,,,,,,,,
14.11.02.770,362.9,90.7,0,4.0,,55226.1,18.11,-0.25,0.44,0.85,1.8,5.0,-1.7,36.44,,,,,,,,,,
14.11.02.782,300.3,75.1,0,4.0,,54401.3,18.38,-0.24,0.45,0.86,1.0,5.1,-2.3,36.44,,,,,,,,,,
14.11.02.790,202.9,50.7,0,4.0,,54711.3,18.28,-0.24,0.45,0.85,-0.3,5.6,-2.7,36.44,,,,,,,,,,
14.11.02.803,133.1,33.3,0,4.0,,51726.0,19.33,-0.24,0.44,0.86,-1.5,4.3,-2.8,36.44,,,,,,,,,,
14.11.02.815,76.2,19.0,0,4.0,,55240.1,18.1,-0.25,0.43,0.86,-1.2,6.0,-2.7,36.44,,,,,,,,,,
14.11.02.827,6.6,1.6,0,4.0,,52091.3,19.2,-0.25,0.43,0.86,-0.7,6.4,-2.5,36.44,,,,,,,,,,
14.11.02.835,49.4,12.4,0,4.0,,53105.6,18.83,-0.25,0.42,0.86,0.5,7.6,-2.5,36.44,,,,,,,,,,
14.11.02.848,24.9,6.2,0,4.0,,50846.3,19.67,-0.25,0.43,0.86,0.9,8.4,-3.2,36.44,,,,,,,,,,
14.11.02.860,102.3,25.6,0,4.0,,56387.8,17.73,-0.25,0.44,0.86,0.8,7.4,-2.9,36.44,,,,,,,,,,
14.11.02.869,62.1,15.5,0,4.0,,60709.0,16.47,-0.26,0.44,0.85,0.5,7.5,-2.5,36.44,,,,,,,,,,
14.11.02.880,153.9,38.5,0,4.0,,56422.7,17.72,-0.25,0.43,0.85,1.1,7.6,-1.8,36.44,,,,,,,,,,
14.11.02.893,120.1,30.0,0,4.0,,46617.4,21.45,-0.26,0.44,0.85,1.8,7.5,-1.4,36.44,,,,,,,,,,
14.11.02.901,42.9,10.7,0,4.0,,55747.8,17.94,-0.26,0.44,0.86,1.8,7.2,-1.4,36.44,,,,,,,,,,
14.11.02.942,2.2,0.6,0,4.0,,53928.0,18.54,-0.26,0.45,0.85,1.5,6.5,-1.1,36.44,,,,,,,,,,
14.11.02.954,-71.5,17.9,0,4.0,,55477.1,18.03,-0.26,0.44,0.86,0.9,4.7,-0.8,36.44,,,,,,,,,,
14.11.02.962,-58.9,14.7,0,4.0,,58630.0,17.06,-0.26,0.43,0.86,1.4,3.9,-1.1,36.44,,,,,,,,,,
14.11.02.975,-17.2,4.3,0,4.0,,55598.0,17.99,-0.26,0.44,0.86,1.7,4.4,-0.4,36.44,,,,,,,,,,
14.11.02.983,-44.4,11.1,0,4.0,,57434.3,17.41,-0.26,0.44,0.85,2.2,4.7,-0.1,36.44,,,,,,,,,,
14.11.02.995,-14.6,3.6,0,4.0,,56069.0,17.84,-0.26,0.44,0.86,2.4,4.5,0.1,36.44,,,,,,,,,,
14.11.03.007,-47.6,11.9,0,4.0,,51314.2,19.49,-0.26,0.45,0.85,2.1,4.2,0.2,36.44,,,,,,,,,,
14.11.03.020,-62.3,15.6,0,4.0,,57458.5,17.4,-0.25,0.44,0.86,1.4,3.5,-0.5,36.44,,,,,,,,,,
14.11.03.028,-61.9,15.5,0,4.0,,57270.6,17.46,-0.25,0.44,0.86,0.9,3.5,-1.2,36.44,,,,,,,,,,
14.11.03.040,-39.7,9.9,0,4.0,,54935.5,18.2,-0.25,0.44,0.86,1.2,3.8,-2.1,36.44,,,,,,,,,,
14.11.03.053,-104.7,26.2,0,4.0,,57665.2,17.34,-0.25,0.45,0.86,1.5,4.5,-2.3,36.44,,,,,,,,,,
14.11.03.061,-84.5,21.1,0,4.0,,57302.5,17.45,-0.25,0.46,0.86,0.5,5.6,-2.9,36.44,,,,,,,,,,
14.11.03.073,-90.8,22.7,0,4.0,,54499.5,18.35,-0.25,0.46,0.85,-1.0,5.9,-3.2,36.44,,,,,,,,,,
14.11.03.085,-122.8,30.7,0,4.0,,52526.5,19.04,-0.24,0.43,0.86,-1.2,6.0,-2.7,36.44,,,,,,,,,,
14.11.03.093,-89.8,22.4,0,4.0,,53065.4,18.84,-0.26,0.44,0.87,0.2,7.2,-2.1,36.44,,,,,,,,,,
14.11.03.106,-101.2,25.3,0,4.0,,58633.1,17.06,-0.26,0.43,0.87,0.7,8.8,-1.2,36.44,,,,,,,,,,
14.11.03.118,-101.7,25.4,0,4.0,,53739.1,18.61,-0.25,0.43,0.86,0.5,7.7,-1.8,36.44,,,,,,,,,,
14.11.03.130,-147.0,36.8,0,4.0,,56709.9,17.63,-0.25,0.43,0.86,-0.4,8.1,-2.3,36.44,,,,,,,,,,
14.11.03.139,-224.9,56.2,0,4.0,,53123.4,18.82,-0.25,0.44,0.86,-0.1,8.2,-1.5,36.44,,,,,,,,,,
14.11.03.151,-151.7,37.9,0,4.0,,54112.4,18.48,-0.25,0.44,0.85,1.0,9.2,-0.7,36.44,,,,,,,,,,
14.11.03.163,-144.8,36.2,0,4.0,,57431.0,17.41,-0.25,0.44,0.86,0.7,9.4,-0.7,36.44,,,,,,,,,,
14.11.03.171,-180.8,45.2,0,4.0,,57041.9,17.53,-0.26,0.45,0.85,-0.6,9.4,-1.5,36.44,,,,,,,,,,
14.11.03.184,-166.9,41.7,0,4.0,,54354.3,18.4,-0.26,0.45,0.85,-1.1,9.1,-1.8,36.44,,,,,,,,,,
14.11.03.196,57.9,14.5,1,5.0,103.8,59092.3,16.92,-0.25,0.43,0.85,-0.9,9.4,-1.4,36.44,,,,,,,,,,
14.11.03.208,132.6,33.2,0,5.0,,52708.7,18.97,-0.26,0.45,0.86,-0.2,9.4,-1.0,36.44,,,,,,,,,,
14.11.03.216,163.7,40.9,0,5.0,,52444.3,19.07,-0.26,0.44,0.85,-0.5,8.8,-1.0,36.44,,,,,,,,,,
14.11.03.229,243.3,60.8,0,5.0,,54774.0,18.26,-0.26,0.45,0.85,-1.5,8.2,-1.4,36.44,,,,,,,,,,
14.11.03.241,362.2,90.6,0,5.0,,57422.9,17.41,-0.26,0.44,0.86,-1.6,7.6,-1.7,36.44,,,,,,,,,,
14.11.03.249,374.7,93.7,0,5.0,,61540.5,16.25,-0.26,0.44,0.86,-1.3,7.1,-1.2,36.44,,,,,,,,,,
14.11.03.261,437.1,109.3,0,5.0,,50267.4,19.89,-0.25,0.43,0.86,-0.3,6.6,-0.8,36.44,,,,,,,,,,
14.11.03.274,440.6,110.2,0,5.0,,55120.1,18.14,-0.25,0.42,0.86,1.1,6.9,-0.7,36.44,,,,,,,,,,
14.11.03.286,506.3,126.6,0,5.0,,58876.7,16.98,-0.25,0.44,0.86,2.2,7.2,-1.4,36.44,,,,,,,,,,
14.11.03.294,529.5,132.4,0,5.0,,55538.9,18.01,-0.25,0.44,0.86,2.1,7.5,-2.0,36.44,,,,,,,,,,
14.11.03.306,439.3,109.8,0,5.0,,52907.3,18.9,-0.25,0.45,0.86,0.8,7.9,-2.7,36.44,,,,,,,,,,
14.11.03.319,478.1,119.5,0,5.0,,54380.8,18.39,-0.25,0.44,0.85,-0.1,7.3,-3.0,36.44,,,,,,,,,,
14.11.03.327,422.3,105.6,0,5.0,,54604.6,18.31,-0.26,0.44,0.86,0.3,8.4,-2.1,36.44,,,,,,,,,,
14.11.03.339,319.0,79.8,0,5.0,,59350.8,16.85,-0.26,0.44,0.86,1.1,9.1,-1.0,36.44,,,,,,,,,,
14.11.03.352,269.6,67.4,0,5.0,,59361.7,16.85,-0.27,0.43,0.85,0.8,9.1,-1.0,36.44,,,,,,,,,,
14.11.03.364,127.6,31.9,0,5.0,,52641.2,19.0,-0.27,0.44,0.85,-0.5,8.4,-1.7,36.44,,,,,,,,,,
14.11.03.372,198.6,49.6,0,5.0,,60593.3,16.5,-0.27,0.44,0.86,-1.7,7.2,-1.5,36.44,,,,,,,,,,
14.11.03.385,21.6,5.4,0,5.0,,53493.8,18.69,-0.26,0.43,0.85,-1.4,8.0,-1.0,36.44,,,,,,,,,,
14.11.03.397,-51.1,12.8,0,5.0,,56026.8,17.85,-0.25,0.43,0.86,-0.8,7.0,-1.1,36.44,,,,,,,,,,
14.11.03.405,47.9,12.0,0,5.0,,56168.3,17.8,-0.25,0.43,0.86,0.0,7.8,-1.3,36.44,,,,,,,,,,
14.11.03.417,50.3,12.6,0,5.0,,53009.0,18.86,-0.26,0.43,0.86,0.6,8.9,-1.3,36.44,,,,,,,,,,
14.11.03.429,69.9,17.5,0,5.0,,57658.5,17.34,-0.26,0.44,0.85,0.7,9.0,-1.4,36.44,,,,,,,,,,
14.11.03.442,85.9,21.5,0,5.0,,50598.3,19.76,-0.26,0.44,0.85,0.7,9.2,-1.5,36.44,,,,,,,,,,
14.11.03.450,113.8,28.4,0,5.0,,56336.8,17.75,-0.26,0.45,0.85,0.7,8.8,-0.9,36.44,,,,,,,,,,
14.11.03.462,108.7,27.2,0,5.0,,57351.2,17.44,-0.27,0.43,0.86,0.2,7.9,-0.5,36.44,,,,,,,,,,
14.11.03.474,79.3,19.8,0,5.0,,56963.9,17.55,-0.27,0.44,0.85,0.6,7.8,-0.7,36.44,,,,,,,,,,
14.11.03.483,57.3,14.3,0,5.0,,59465.1,16.82,-0.27,0.43,0.85,1.1,6.9,-0.3,36.44,,,,,,,,,,
14.11.03.495,0.9,0.2,0,5.0,,54824.3,18.24,-0.27,0.43,0.85,1.5,6.0,-0.3,36.44,,,,,,,,,,
14.11.03.507,38.4,9.6,0,5.0,,48655.8,20.55,-0.27,0.44,0.86,1.7,6.4,-0.4,36.44,,,,,,,,,,
14.11.03.515,-9.8,2.4,0,5.0,,59939.6,16.68,-0.27,0.44,0.85,1.3,5.7,-0.8,36.44,,,,,,,,,,
14.11.03.528,-21.4,5.4,0,5.0,,54166.1,18.46,-0.27,0.45,0.86,0.4,4.5,-0.9,36.44,,,,,,,,,,
14.11.03.540,-2.1,0.5,0,5.0,,53652.1,18.64,-0.27,0.44,0.86,0.2,5.5,-0.9,36.44,,,,,,,,,,
14.11.03.552,-53.9,13.5,0,5.0,,52218.7,19.15,-0.27,0.43,0.85,0.0,3.8,-1.0,36.44,,,,,,,,,,
14.11.03.561,-84.7,21.2,0,5.0,,50843.4,19.67,-0.26,0.43,0.86,0.8,4.1,-0.2,36.44,,,,,,,,,,
14.11.03.573,-102.9,25.7,0,5.0,,49776.2,20.09,-0.27,0.43,0.86,1.7,5.2,-0.1,36.44,,,,,,,,,,
14.11.03.585,-10.3,2.6,0,5.0,,55515.2,18.01,-0.26,0.43,0.85,2.2,4.1,0.1,36.44,,,,,,,,,,
14.11.03.593,-87.8,22.0,0,5.0,,58293.5,17.15,-0.27,0.44,0.85,2.4,4.8,0.0,36.44,,,,,,,,,,
14.11.03.606,-72.3,18.1,0,5.0,,53554.7,18.67,-0.27,0.44,0.86,2.4,4.2,0.2,36.44,,,,,,,,,,
14.11.03.618,-44.1,11.0,0,5.0,,56132.8,17.81,-0.26,0.43,0.86,2.4,3.1,0.2,36.44,,,,,,,,,,
14.11.03.626,-114.0,28.5,0,5.0,,60051.9,16.65,-0.26,0.43,0.86,2.1,3.1,0.1,36.44,,,,,,,,,,
14.11.03.638,-68.8,17.2,0,5.0,,55345.6,18.07,-0.26,0.43,0.86,3.3,1.8,0.2,36.44,,,,,,,,,,
14.11.03.651,-136.8,34.2,0,5.0,,51980.4,19.24,-0.26,0.44,0.85,4.6,3.3,0.0,36.44,,,,,,,,,,
14.11.03.659,-132.4,33.1,0,5.0,,55666.4,17.96,-0.26,0.44,0.85,4.5,3.5,-0.1,36.44,,,,,,,,,,
14.11.03.671,-154.2,38.6,0,5.0,,52732.1,18.96,-0.26,0.46,0.85,3.5,2.9,-0.6,36.44,,,,,,,,,,
14.11.03.679,-148.4,37.1,0,5.0,,56503.9,17.7,-0.26,0.45,0.85,2.4,3.1,-1.3,36.44,,,,,,,,,,
14.11.03.692,-167.3,41.8,0,5.0,,52231.3,19.15,-0.26,0.45,0.85,1.9,2.3,-1.2,36.44,,,,,,,,,,
14.11.03.704,-228.6,57.2,0,5.0,,50247.1,19.9,-0.26,0.44,0.85,2.1,3.1,-0.3,36.44,,,,,,,,,,
14.11.03.713,-167.9,42.0,0,5.0,,58057.1,17.22,-0.26,0.44,0.86,2.3,3.8,0.0,36.44,,,,,,,,,,
14.11.03.753,-153.7,38.4,0,5.0,,55577.5,17.99,-0.26,0.45,0.85,1.9,4.5,-1.1,36.44,,,,,,,,,,
14.11.03.765,17.9,4.5,1,6.0,99.6,56829.0,17.6,-0.26,0.45,0.85,1.3,4.7,-1.5,36.44,,,,,,,,,,
14.11.03.778,157.4,39.4,0,6.0,,52784.1,18.95,-0.26,0.45,0.86,0.6,4.0,-1.5,36.44,,,,,,,,,,
14.11.03.790,221.1,55.3,0,6.0,,50337.1,19.87,-0.25,0.44,0.85,0.4,5.3,-1.4,36.44,,,,,,,,,,
14.11.03.798,318.7,79.7,0,6.0,,57753.1,17.32,-0.26,0.44,0.85,0.6,4.3,-1.0,36.44,,,,,,,,,,
14.11.03.810,307.9,77.0,0,6.0,,58064.1,17.22,-0.26,0.44,0.85,0.2,4.2,-1.1,36.44,,,,,,,,,,
14.11.03.823,356.0,89.0,0,6.0,,52267.0,19.13,-0.26,0.44,0.86,-0.2,4.3,-0.8,36.44,,,,,,,,,,
14.11.03.831,392.2,98.0,0,6.0,,58404.2,17.12,-0.25,0.44,0.85,-0.4,3.9,-0.8,36.44,,,,,,,,,,
14.11.03.843,491.8,123.0,0,6.0,,55371.9,18.06,-0.26,0.44,0.86,0.3,4.2,-0.6,36.44,,,,,,,,,,
14.11.03.855,496.1,124.0,0,6.0,,54432.7,18.37,-0.25,0.44,0.86,0.9,5.1,-0.6,36.44,,,,,,,,,,
14.11.03.868,464.7,116.2,0,6.0,,52397.7,19.08,-0.25,0.44,0.86,1.7,5.7,-0.3,36.44,,,,,,,,,,
14.11.03.876,485.4,121.4,0,6.0,,56839.8,17.59,-0.25,0.44,0.85,1.7,5.7,-0.2,36.44,,,,,,,,,,
14.11.03.888,424.2,106.0,0,6.0,,56576.2,17.68,-0.25,0.45,0.85,1.6,5.9,-0.2,36.44,,,,,,,,,,
14.11.03.901,332.8,83.2,0,6.0,,56395.5,17.73,-0.25,0.45,0.85,1.5,5.8,0.0,36.44,,,,,,,,,,
14.11.03.909,379.2,94.8,0,6.0,,48198.1,20.75,-0.25,0.45,0.86,1.3,6.2,-0.3,36.44,,,,,,,,,,
14.11.03.921,260.7,65.2,0,6.0,,53585.8,18.66,-0.25,0.44,0.86,1.2,5.8,-0.8,36.44,,,,,,,,,,
14.11.03.933,136.2,34.0,0,6.0,,55344.4,18.07,-0.25,0.44,0.86,0.8,5.3,-1.2,36.44,,,,,,,,,,
14.11.03.946,61.8,15.4,0,6.0,,55286.5,18.09,-0.26,0.45,0.85,0.7,5.5,-0.9,36.44,,,,,,,,,,
14.11.03.954,-7.2,1.8,0,6.0,,50368.2,19.85,-0.25,0.45,0.86,0.7,6.0,-1.2,36.44,,,,,,,,,,
14.11.03.966,-5.6,1.4,0,6.0,,56364.0,17.74,-0.25,0.45,0.85,0.3,6.0,-1.4,36.44,,,,,,,,,,
14.11.03.978,-30.1,7.5,0,6.0,,58040.3,17.23,-0.25,0.44,0.85,-0.5,5.6,-1.4,36.44,,,,,,,,,,
14.11.03.987,68.8,17.2,0,6.0,,49483.3,20.21,-0.25,0.44,0.86,-0.8,5.5,-0.7,36.44,,,,,,,,,,
14.11.03.999,90.7,22.7,0,6.0,,55321.3,18.08,-0.25,0.44,0.86,-0.3,5.8,-0.6,36.44,,,,,,,,,,
14.11.04.011,135.8,34.0,0,6.0,,51825.6,19.3,-0.25,0.44,0.86,0.5,6.2,-0.6,36.44,,,,,,,,,,
14.11.04.023,106.9,26.7,0,6.0,,55303.6,18.08,-0.25,0.44,0.86,1.2,6.6,-0.5,36.44,,,,,,,,,,
14.11.04.032,97.1,24.3,0,6.0,,51570.3,19.39,-0.25,0.44,0.86,1.4,6.3,-0.4,36.44,,,,,,,,,,
14.11.04.044,46.2,11.6,0,6.0,,54970.7,18.19,-0.25,0.45,0.85,0.9,6.6,-0.8,36.44,,,,,,,,,,
14.11.04.056,41.7,10.4,0,6.0,,54853.3,18.23,-0.25,0.45,0.85,1.0,7.5,-0.6,36.44,,,,,,,,,,
14.11.04.064,18.6,4.6,0,6.0,,60277.1,16.59,-0.26,0.45,0.85,0.6,7.1,-0.4,36.44,,,,,,,,,,
14.11.04.077,13.3,3.3,0,6.0,,58308.7,17.15,-0.25,0.44,0.85,0.5,6.9,-0.4,36.44,,,,,,,,,,
14.11.04.089,-31.1,7.8,0,6.0,,59931.0,16.69,-0.26,0.44,0.86,1.0,6.7,-0.4,36.44,,,,,,,,,,
14.11.04.097,-32.2,8.0,0,6.0,,52365.9,19.1,-0.26,0.44,0.85,1.2,5.4,-0.2,36.44,,,,,,,,,,
14.11.04.109,-38.6,9.6,0,6.0,,49044.7,20.39,-0.26,0.45,0.85,1.8,5.0,-0.1,36.44,,,,,,,,,,
14.11.04.122,-21.8,5.4,0,6.0,,50722.5,19.72,-0.26,0.45,0.85,1.6,5.8,-0.5,36.44,,,,,,,,,,
14.11.04.130,-50.7,12.7,0,6.0,,52027.1,19.22,-0.26,0.44,0.85,0.8,4.4,-1.0,36.44,,,,,,,,,,
14.11.04.142,-85.0,21.2,0,6.0,,55127.6,18.14,-0.26,0.46,0.85,0.1,4.2,-1.1,36.44,,,,,,,,,,
14.11.04.154,-70.7,17.7,0,6.0,,59933.9,16.69,-0.25,0.45,0.85,-0.4,5.2,-1.7,36.44,,,,,,,,,,
14.11.04.167,-38.5,9.6,0,6.0,,54687.2,18.29,-0.25,0.45,0.85,-1.1,3.5,-1.7,36.44,,,,,,,,,,
14.11.04.175,-55.0,13.8,0,6.0,,56179.8,17.8,-0.26,0.44,0.86,-0.9,4.9,-1.6,36.44,,,,,,,,,,
14.11.04.187,-114.7,28.7,0,6.0,,57568.1,17.37,-0.26,0.44,0.86,-0.8,4.4,-1.5,36.44,,,,,,,,,,
14.11.04.200,-94.6,23.6,0,6.0,,53440.9,18.71,-0.25,0.44,0.86,-0.9,4.0,-1.3,36.44,,,,,,,,,,
14.11.04.208,-112.5,28.1,0,6.0,,55268.7,18.09,-0.26,0.44,0.86,-0.6,5.5,-1.2,36.44,,,,,,,,,,
14.11.04.220,-141.1,35.3,0,6.0,,51557.2,19.4,-0.25,0.44,0.86,-0.1,4.9,-0.5,36.44,,,,,,,,,,
14.11.04.232,-152.6,38.2,0,6.0,,48652.8,20.55,-0.25,0.44,0.86,0.6,6.5,0.1,36.44,,,,,,,,,,
14.11.04.245,-163.1,40.8,0,6.0,,55637.5,17.97,-0.24,0.44,0.85,0.9,6.1,-0.2,36.44,,,,,,,,,,
14.11.04.253,-140.7,35.2,0,6.0,,55043.9,18.17,-0.24,0.45,0.86,1.4,5.5,-0.7,36.44,,,,,,,,,,
14.11.04.265,-70.4,17.6,0,6.0,,55416.5,18.05,-0.24,0.44,0.86,2.0,7.1,-0.9,36.44,,,,,,,,,,
14.11.04.277,-167.7,41.9,0,6.0,,57990.8,17.24,-0.25,0.45,0.85,1.7,7.5,-1.2,36.44,,,,,,,,,,
14.11.04.286,-184.8,46.2,0,6.0,,59186.3,16.9,-0.25,0.45,0.86,1.1,8.9,-1.6,36.44,,,,,,,,,,
14.11.04.298,-189.6,47.4,0,6.0,,54645.1,18.3,-0.24,0.44,0.85,0.4,8.3,-2.5,36.44,,,,,,,,,,
14.11.04.310,-181.0,45.2,0,6.0,,52040.3,19.22,-0.25,0.44,0.85,1.2,7.4,-2.7,36.44,,,,,,,,,,
14.11.04.318,-123.1,30.8,0,6.0,,52542.2,19.03,-0.25,0.43,0.86,2.2,8.3,-3.2,36.44,,,,,,,,,,
14.11.04.331,54.8,13.7,1,7.0,106.4,50012.1,20.0,-0.26,0.44,0.85,3.3,8.0,-4.0,36.44,,,,,,,,,,
14.11.04.343,198.6,49.6,0,7.0,,59869.0,16.7,-0.26,0.44,0.86,3.1,8.6,-5.3,36.44,,,,,,,,,,
14.11.04.351,214.9,53.7,0,7.0,,51540.8,19.4,-0.26,0.44,0.85,2.3,7.9,-7.3,36.44,,,,,,,,,,
14.11.04.363,290.8,72.7,0,7.0,,55294.2,18.09,-0.26,0.45,0.85,1.9,6.7,-8.7,36.44,,,,,,,,,,
14.11.04.376,413.9,103.5,0,7.0,,49888.9,20.04,-0.26,0.45,0.85,3.1,7.5,-8.3,36.44,,,,,,,,,,
14.11.04.388,397.6,99.4,0,7.0,,55490.9,18.02,-0.27,0.45,0.85,3.9,8.1,-7.7,36.44,,,,,,,,,,
14.11.04.396,410.3,102.6,0,7.0,,53956.3,18.53,-0.27,0.45,0.86,3.1,8.0,-8.1,36.44,,,,,,,,,,
14.11.04.408,502.4,125.6,0,7.0,,50027.2,19.99,-0.26,0.45,0.86,1.2,7.9,-8.6,36.44,,,,,,,,,,
14.11.04.421,405.8,101.4,0,7.0,,51905.8,19.27,-0.24,0.45,0.84,-0.1,8.0,-7.3,36.44,,,,,,,,,,
14.11.04.429,462.5,115.6,0,7.0,,52146.3,19.18,-0.25,0.45,0.85,-0.6,6.1,-4.8,36.44,,,,,,,,,,
14.11.04.442,456.5,114.1,0,7.0,,55874.4,17.9,-0.26,0.47,0.85,-0.9,6.5,-0.5,36.44,,,,,,,,,,
14.11.04.453,416.2,104.0,0,7.0,,56889.7,17.58,-0.28,0.46,0.85,-2.2,7.5,2.3,36.44,,,,,,,,,,
14.11.04.466,361.2,90.3,0,7.0,,55767.8,17.93,-0.28,0.46,0.86,-4.4,7.9,4.6,36.44,,,,,,,,,,
14.11.04.474,378.5,94.6,0,7.0,,54738.3,18.27,-0.3,0.47,0.85,-7.4,11.0,7.9,36.44,,,,,,,,,,
14.11.04.486,261.3,65.3,0,7.0,,55716.4,17.95,-0.29,0.46,0.86,-8.8,13.3,13.6,36.44,,,,,,,,,,
14.11.04.499,141.6,35.4,0,7.0,,52110.8,19.19,-0.29,0.44,0.86,-7.6,13.6,20.9,36.44,,,,,,,,,,
14.11.04.511,76.3,19.1,0,7.0,,55276.0,18.09,-0.26,0.42,0.86,-4.2,13.2,28.3,36.44,,,,,,,,,,
14.11.04.519,33.3,8.3,0,7.0,,54290.7,18.42,-0.25,0.4,0.86,0.9,13.4,32.0,36.44,,,,,,,,,,
14.11.04.560,28.0,7.0,0,7.0,,54180.0,18.46,-0.22,0.43,0.85,5.7,11.2,9.6,36.38,,,,,,,,,,
14.11.04.572,120.7,30.2,0,7.0,,55352.7,18.07,-0.21,0.42,0.85,3.2,11.2,-2.0,36.38,,,,,,,,,,
14.11.04.585,127.3,31.8,0,7.0,,50809.9,19.68,-0.21,0.43,0.86,3.5,10.1,-9.3,36.38,,,,,,,,,,
14.11.04.593,70.2,17.6,0,7.0,,50508.2,19.8,-0.22,0.45,0.85,5.6,11.2,-11.4,36.38,,,,,,,,,,
14.11.04.605,59.7,14.9,0,7.0,,57109.3,17.51,-0.24,0.46,0.85,7.2,11.3,-10.9,36.38,,,,,,,,,,
14.11.04.617,37.0,9.2,0,7.0,,53123.2,18.82,-0.26,0.49,0.84,6.5,11.6,-10.3,36.38,,,,,,,,,,
14.11.04.626,20.4,5.1,0,7.0,,56961.1,17.56,-0.27,0.49,0.82,2.4,11.8,-11.1,36.38,,,,,,,,,,
14.11.04.638,22.5,5.6,0,7.0,,54403.5,18.38,-0.28,0.48,0.82,-1.4,8.6,-11.5,36.38,,,,,,,,,,
14.11.04.650,-5.7,1.4,0,7.0,,54615.1,18.31,-0.28,0.46,0.83,-3.0,6.4,-10.0,36.38,,,,,,,,,,
14.11.04.662,22.6,5.6,0,7.0,,58690.6,17.04,-0.29,0.45,0.85,-2.3,3.6,-7.3,36.38,,,,,,,,,,
14.11.04.671,-9.8,2.4,0,7.0,,54938.3,18.2,-0.28,0.43,0.86,-1.7,1.3,-6.1,36.38,,,,,,,,,,
14.11.04.683,-40.7,10.2,0,7.0,,53044.2,18.85,-0.28,0.43,0.86,-0.3,0.0,-5.8,36.38,,,,,,,,,,
14.11.04.695,-15.7,3.9,0,7.0,,53389.4,18.73,-0.28,0.43,0.85,0.9,0.7,-6.0,36.38,,,,,,,,,,
14.11.04.708,-49.1,12.3,0,7.0,,56572.1,17.68,-0.27,0.45,0.85,0.8,0.9,-6.3,36.38,,,,,,,,,,
14.11.04.716,-84.2,21.0,0,7.0,,50502.2,19.8,-0.26,0.46,0.84,-0.2,1.3,-6.7,36.38,,,,,,,,,,
14.11.04.728,-59.9,15.0,0,7.0,,52418.1,19.08,-0.26,0.46,0.85,-0.9,0.3,-5.7,36.38,,,,,,,,,,
14.11.04.740,-66.6,16.6,0,7.0,,50583.9,19.77,-0.25,0.46,0.85,0.3,0.7,-3.4,36.38,,,,,,,,,,
14.11.04.753,-121.8,30.4,0,7.0,,52674.8,18.98,-0.26,0.45,0.85,1.9,2.8,-2.0,36.38,,,,,,,,,,
14.11.04.761,-116.6,29.2,0,7.0,,54139.1,18.47,-0.25,0.45,0.85,2.1,2.5,-1.6,36.38,,,,,,,,,,
14.11.04.773,-110.6,27.6,0,7.0,,53544.6,18.68,-0.25,0.45,0.85,1.9,2.9,-3.4,36.38,,,,,,,,,,
14.11.04.785,-128.9,32.2,0,7.0,,50757.0,19.7,-0.25,0.45,0.85,1.5,2.7,-4.6,36.38,,,,,,,,,,
14.11.04.794,-175.0,43.8,0,7.0,,54922.3,18.21,-0.26,0.45,0.85,1.6,2.8,-5.3,36.38,,,,,,,,,,
14.11.04.806,-68.6,17.2,0,7.0,,55731.0,17.94,-0.26,0.45,0.85,2.1,4.1,-6.0,36.38,,,,,,,,,,
14.11.04.818,-93.3,23.3,0,7.0,,55205.0,18.11,-0.26,0.45,0.85,2.0,4.6,-6.6,36.38,,,,,,,,,,
14.11.04.830,-184.3,46.1,0,7.0,,58861.5,16.99,-0.27,0.45,0.85,1.9,5.1,-7.1,36.38,,,,,,,,,,
14.11.04.839,-163.3,40.8,0,7.0,,56704.3,17.64,-0.27,0.45,0.85,1.2,5.9,-6.3,36.38,,,,,,,,,,
14.11.04.851,-154.3,38.6,0,7.0,,53660.5,18.64,-0.28,0.45,0.85,0.3,5.2,-5.4,36.38,,,,,,,,,,
14.11.04.863,-237.6,59.4,0,7.0,,64261.7,15.56,-0.28,0.46,0.84,-1.1,5.0,-4.2,36.38,,,,,,,,,,
14.11.04.871,-228.1,57.0,0,7.0,,50668.1,19.74,-0.28,0.45,0.84,-2.5,4.9,-3.3,36.38,,,,,,,,,,
14.11.04.884,-105.9,26.5,0,7.0,,51982.6,19.24,-0.28,0.44,0.85,-3.6,4.4,-2.4,36.38,,,,,,,,,,
14.11.04.896,44.8,11.2,1,8.0,107.5,53622.8,18.65,-0.27,0.44,0.85,-3.1,4.9,-1.6,36.38,,,,,,,,,,
14.11.04.908,140.0,35.0,0,8.0,,49328.5,20.27,-0.27,0.43,0.84,-2.1,5.7,-1.2,36.38,,,,,,,,,,
14.11.04.916,246.3,61.6,0,8.0,,59248.0,16.88,-0.26,0.44,0.85,-1.1,5.2,-1.4,36.38,,,,,,,,,,
14.11.04.929,306.4,76.6,0,8.0,,51368.6,19.47,-0.25,0.44,0.85,-1.6,4.4,-2.2,36.38,,,,,,,,,,
14.11.04.941,356.0,89.0,0,8.0,,52130.8,19.18,-0.25,0.45,0.86,-1.3,3.5,-2.6,36.38,,,,,,,,,,
14.11.04.949,348.7,87.2,0,8.0,,54658.6,18.3,-0.25,0.45,0.86,-0.5,4.8,-2.7,36.38,,,,,,,,,,
14.11.04.961,401.2,100.3,0,8.0,,55727.9,17.94,-0.26,0.44,0.86,0.1,5.1,-2.7,36.38,,,,,,,,,,
14.11.04.974,477.0,119.2,0,8.0,,51211.0,19.53,-0.26,0.44,0.85,0.1,4.7,-2.9,36.38,,,,,,,,,,
14.11.04.986,448.3,112.1,0,8.0,,51582.2,19.39,-0.26,0.44,0.86,-0.1,3.8,-2.9,36.38,,,,,,,,,,
14.11.04.994,441.2,110.3,0,8.0,,55012.9,18.18,-0.27,0.45,0.85,0.5,4.4,-3.3,36.38,,,,,,,,,,
14.11.05.007,475.3,118.8,0,8.0,,54796.3,18.25,-0.27,0.44,0.85,0.4,4.0,-3.3,36.38,,,,,,,,,,
14.11.05.019,388.8,97.2,0,8.0,,58594.3,17.07,-0.26,0.44,0.85,-0.1,3.9,-3.7,36.38,,,,,,,,,,
14.11.05.027,346.0,86.5,0,8.0,,55598.7,17.99,-0.26,0.45,0.86,-0.9,3.1,-3.2,36.38,,,,,,,,,,
14.11.05.039,371.9,93.0,0,8.0,,55668.9,17.96,-0.26,0.45,0.85,-1.1,3.4,-3.2,36.38,,,,,,,,,,
14.11.05.052,218.1,54.5,0,8.0,,55851.1,17.9,-0.26,0.44,0.86,-1.4,3.1,-2.9,36.38,,,,,,,,,,
14.11.05.064,205.2,51.3,0,8.0,,54999.3,18.18,-0.25,0.44,0.86,-1.4,2.9,-2.6,36.38,,,,,,,,,,
14.11.05.072,109.5,27.4,0,8.0,,51308.1,19.49,-0.26,0.44,0.86,-0.7,3.7,-2.1,36.38,,,,,,,,,,
14.11.05.085,57.2,14.3,0,8.0,,54984.1,18.19,-0.25,0.43,0.86,-0.3,4.5,-1.9,36.38,,,,,,,,,,
14.11.05.097,65.7,16.4,0,8.0,,53580.7,18.66,-0.25,0.43,0.86,0.2,4.6,-1.6,36.38,,,,,,,,,,
14.11.05.105,69.5,17.4,0,8.0,,50647.2,19.74,-0.25,0.43,0.87,1.0,5.5,-1.9,36.38,,,,,,,,,,
14.11.05.117,26.9,6.7,0,8.0,,54984.8,18.19,-0.25,0.43,0.85,1.4,5.7,-1.9,36.38,,,,,,,,,,
14.11.05.129,96.5,24.1,0,8.0,,51585.2,19.39,-0.26,0.45,0.87,1.5,6.1,-1.6,36.38,,,,,,,,,,
14.11.05.142,85.0,21.2,0,8.0,,57333.9,17.44,-0.26,0.44,0.85,1.5,6.6,-1.4,36.38,,,,,,,,,,
14.11.05.150,71.7,17.9,0,8.0,,53297.9,18.76,-0.26,0.44,0.85,1.4,5.8,-1.8,36.38,,,,,,,,,,
14.11.05.162,58.9,14.7,0,8.0,,57772.0,17.31,-0.26,0.43,0.85,1.2,5.6,-2.0,36.38,,,,,,,,,,
14.11.05.175,24.2,6.0,0,8.0,,52684.5,18.98,-0.27,0.44,0.86,1.8,5.6,-1.5,36.38,,,,,,,,,,
14.11.05.183,13.5,3.4,0,8.0,,55593.4,17.99,-0.27,0.44,0.85,1.8,5.0,-0.9,36.38,,,,,,,,,,
14.11.05.195,-25.2,6.3,0,8.0,,54311.3,18.41,-0.26,0.44,0.85,0.9,4.7,-1.3,36.38,,,,,,,,,,
14.11.05.207,66.0,16.5,0,8.0,,52327.4,19.11,-0.27,0.45,0.85,0.4,4.0,-0.7,36.38,,,,,,,,,,
14.11.05.216,-53.1,13.3,0,8.0,,54045.5,18.5,-0.26,0.44,0.85,0.0,3.5,-0.9,36.38,,,,,,,,,,
14.11.05.228,-29.0,7.2,0,8.0,,54809.9,18.24,-0.26,0.43,0.86,0.3,2.4,-0.8,36.38,,,,,,,,,,
14.11.05.241,-62.4,15.6,0,8.0,,55349.7,18.07,-0.25,0.44,0.85,0.8,1.8,-0.7,36.38,,,,,,,,,,
14.11.05.252,-111.1,27.8,0,8.0,,50501.1,19.8,-0.26,0.44,0.86,1.8,2.6,0.0,36.38,,,,,,,,,,
14.11.05.261,-49.5,12.4,0,8.0,,56173.6,17.8,-0.25,0.44,0.85,1.8,3.3,-0.1,36.38,,,,,,,,,,
14.11.05.273,-81.7,20.4,0,8.0,,54635.1,18.3,-0.26,0.45,0.86,1.7,4.1,-0.2,36.38,,,,,,,,,,
14.11.05.285,-139.3,34.8,0,8.0,,55310.9,18.08,-0.26,0.45,0.86,1.9,4.7,-0.1,36.38,,,,,,,,,,
14.11.05.293,-22.8,5.7,0,8.0,,52286.3,19.13,-0.26,0.44,0.85,1.5,4.1,-0.2,36.38,,,,,,,,,,
14.11.05.306,-30.5,7.6,0,8.0,,50674.9,19.73,-0.25,0.44,0.85,1.6,3.6,-0.6,36.38,,,,,,,,,,
14.11.05.318,-64.9,16.2,0,8.0,,52093.9,19.2,-0.25,0.45,0.85,1.8,4.0,-0.3,36.38,,,,,,,,,,
14.11.05.359,-83.3,20.8,0,8.0,,57094.3,17.51,-0.25,0.44,0.85,1.8,4.1,-0.4,36.38,,,,,,,,,,
14.11.05.367,-99.8,25.0,0,8.0,,47767.0,20.93,-0.25,0.44,0.86,0.2,4.2,-1.4,36.38,99.8,,,,,,,,,
14.11.05.379,-133.9,33.5,0,8.0,,53569.2,18.67,-0.25,0.44,0.86,0.4,5.2,-1.0,36.38,,,,,,,,,,
14.11.05.388,-133.1,33.3,0,8.0,,58165.6,17.19,-0.25,0.44,0.86,1.5,5.9,-0.3,36.38,,,,,,,,,,
14.11.05.400,-166.7,41.7,0,8.0,,53786.2,18.59,-0.25,0.44,0.86,1.9,5.9,-0.8,36.38,,,,,,,,,,
14.11.05.408,-157.6,39.4,0,8.0,,54502.7,18.35,-0.25,0.44,0.85,1.6,6.3,-0.9,36.38,,,,,,,,,,
14.11.05.420,-160.0,40.0,0,8.0,,50957.3,19.62,-0.26,0.45,0.86,1.1,5.9,-1.2,36.38,,,,,,,,,,
14.11.05.429,-171.1,42.8,0,8.0,,56056.4,17.84,-0.25,0.44,0.86,0.4,5.6,-0.8,36.38,,,,,,,,,,
14.11.05.441,-195.0,48.8,0,8.0,,55818.2,17.92,-0.25,0.44,0.86,0.6,5.1,-0.8,36.38,,,,,,,,,,
14.11.05.453,-225.6,56.4,0,8.0,,53044.5,18.85,-0.26,0.44,0.86,1.2,5.3,-0.5,36.38,,,,,,,,,,
14.11.05.461,41.1,10.3,1,9.0,108.8,53342.5,18.75,-0.25,0.44,0.86,1.6,5.8,-0.2,36.38,,,,,,,,,,
14.11.05.474,58.7,14.7,0,9.0,,52473.9,19.06,-0.25,0.44,0.84,1.9,6.4,-0.6,36.38,,,,,,,,,,
14.11.05.482,209.2,52.3,0,9.0,,58602.1,17.06,-0.25,0.44,0.85,1.6,6.1,-0.5,36.38,,,,,,,,,,
14.11.05.494,326.1,81.5,0,9.0,,59216.2,16.89,-0.25,0.45,0.85,1.4,5.3,-0.8,36.38,,,,,,,,,,
14.11.05.502,391.1,97.8,0,9.0,,56513.4,17.69,-0.26,0.45,0.86,0.9,6.3,-1.2,36.38,,,,,,,,,,
14.11.05.515,384.7,96.2,0,9.0,,56814.1,17.6,-0.25,0.45,0.85,0.3,5.5,-1.5,36.38,,,,,,,,,,
14.11.05.527,442.0,110.5,0,9.0,,54196.1,18.45,-0.26,0.44,0.86,0.0,5.8,-1.6,36.38,,,,,,,,,,
14.11.05.535,360.7,90.2,0,9.0,,54912.3,18.21,-0.25,0.44,0.85,0.0,5.8,-1.5,36.38,,,,,,,,,,
14.11.05.547,451.9,113.0,0,9.0,,58357.7,17.14,-0.25,0.44,0.86,0.8,5.3,-0.9,36.38,,,,,,,,,,
14.11.05.556,488.0,122.0,0,9.0,,49398.8,20.24,-0.25,0.44,0.85,0.8,6.3,-0.7,36.38,,,,,,,,,,
14.11.05.568,452.9,113.2,0,9.0,,52737.9,18.96,-0.25,0.45,0.86,1.3,5.8,-0.5,36.38,,,,,,,,,,
14.11.05.576,437.2,109.3,0,9.0,,53098.6,18.83,-0.25,0.44,0.86,2.1,6.8,-0.8,36.38,,,,,,,,,,
14.11.05.588,404.9,101.2,0,9.0,,53589.5,18.66,-0.25,0.45,0.85,2.1,7.5,-0.7,36.38,,,,,,,,,,
14.11.05.597,361.5,90.4,0,9.0,,57025.6,17.54,-0.25,0.45,0.86,2.3,6.9,-0.8,36.38,,,,,,,,,,
14.11.05.609,339.6,84.9,0,9.0,,55795.3,17.92,-0.25,0.45,0.85,1.6,6.7,-0.7,36.38,,,,,,,,,,
14.11.05.617,297.3,74.3,0,9.0,,55896.5,17.89,-0.26,0.45,0.86,1.0,6.1,-0.9,36.38,,,,,,,,,,
14.11.05.629,195.4,48.8,0,9.0,,56789.5,17.61,-0.26,0.45,0.85,0.7,5.9,-1.1,36.38,,,,,,,,,,
14.11.05.638,127.7,31.9,0,9.0,,56045.9,17.84,-0.26,0.45,0.85,0.4,5.8,-1.0,36.38,,,,,,,,,,
14.11.05.650,32.9,8.2,0,9.0,,51858.4,19.28,-0.26,0.44,0.85,0.4,4.6,-1.2,36.38,,,,,,,,,,
14.11.05.658,4.0,1.0,0,9.0,,55957.6,17.87,-0.25,0.44,0.85,0.1,4.8,-0.9,36.38,,,,,,,,,,
14.11.05.670,46.1,11.5,0,9.0,,49964.3,20.01,-0.25,0.44,0.86,1.0,3.7,-0.7,36.38,,,,,,,,,,
14.11.05.678,58.3,14.6,0,9.0,,55518.6,18.01,-0.25,0.44,0.86,1.6,3.7,-0.1,36.38,,,,,,,,,,
14.11.05.691,117.9,29.5,0,9.0,,55056.5,18.16,-0.25,0.45,0.86,2.3,5.0,-0.3,36.38,,,,,,,,,,
14.11.05.699,136.3,34.1,0,9.0,,53096.7,18.83,-0.25,0.45,0.85,1.7,4.8,-0.4,36.38,,,,,,,,,,
14.11.05.711,155.0,38.8,0,9.0,,54890.2,18.22,-0.25,0.46,0.85,0.9,5.2,-0.9,36.38,,,,,,,,,,
14.11.05.720,88.3,22.1,0,9.0,,49494.9,20.2,-0.25,0.45,0.86,0.2,4.2,-1.0,36.38,,,,,,,,,,
14.11.05.732,109.1,27.3,0,9.0,,58070.7,17.22,-0.25,0.45,0.85,0.6,4.9,-0.7,36.38,,,,,,,,,,
14.11.05.740,26.3,6.6,0,9.0,,54971.3,18.19,-0.25,0.44,0.85,1.0,5.5,-0.9,36.38,,,,,,,,,,
14.11.05.752,33.3,8.3,0,9.0,,57866.0,17.28,-0.25,0.44,0.86,0.6,4.7,-1.0,36.38,,,,,,,,,,
14.11.05.765,-32.8,8.2,0,9.0,,48282.3,20.71,-0.25,0.45,0.86,0.8,5.5,-1.4,36.38,,,,,,,,,,
14.11.05.773,-42.0,10.5,0,9.0,,51482.4,19.42,-0.25,0.45,0.86,0.2,5.3,-1.6,36.38,,,,,,,,,,
14.11.05.785,29.4,7.4,0,9.0,,55197.5,18.12,-0.25,0.45,0.85,0.1,6.4,-1.5,36.38,,,,,,,,,,
14.11.05.797,0.7,0.2,0,9.0,,54962.0,18.19,-0.25,0.45,0.86,-0.1,6.3,-1.5,36.38,,,,,,,,,,
14.11.05.810,-22.5,5.6,0,9.0,,48761.4,20.51,-0.24,0.44,0.85,-1.0,6.0,-1.6,36.38,,,,,,,,,,
14.11.05.818,-17.5,4.4,0,9.0,,53610.9,18.65,-0.24,0.45,0.86,-1.3,4.3,-1.5,36.38,,,,,,,,,,
14.11.05.830,-33.3,8.3,0,9.0,,52230.4,19.15,-0.25,0.44,0.85,0.2,5.3,-0.9,36.38,,,,,,,,,,
14.11.05.842,-68.1,17.0,0,9.0,,57366.8,17.43,-0.25,0.44,0.86,0.5,5.7,-1.1,36.38,,,,,,,,,,
14.11.05.850,-10.1,2.5,0,9.0,,58221.9,17.18,-0.25,0.45,0.86,0.7,6.2,-1.4,36.38,,,,,,,,,,
14.11.05.863,-76.3,19.1,0,9.0,,59816.6,16.72,-0.25,0.45,0.85,-0.2,6.8,-2.2,36.38,,,,,,,,,,
14.11.05.875,-82.2,20.6,0,9.0,,53934.0,18.54,-0.26,0.45,0.85,-0.3,5.9,-1.7,36.38,,,,,,,,,,
14.11.05.887,-89.4,22.4,0,9.0,,54248.7,18.43,-0.25,0.45,0.85,-0.4,6.6,-1.4,36.38,,,,,,,,,,
14.11.05.896,-99.3,24.8,0,9.0,,50918.5,19.64,-0.26,0.44,0.86,-0.3,5.3,-1.4,36.38,,,,,,,,,,
14.11.05.908,-132.5,33.1,0,9.0,,61282.2,16.32,-0.26,0.45,0.85,-0.6,5.0,-0.7,36.38,,,,,,,,,,
14.11.05.920,-110.1,27.5,0,9.0,,59101.1,16.92,-0.26,0.44,0.85,-0.5,4.6,-0.9,36.38,,,,,,,,,,
14.11.05.928,-140.9,35.2,0,9.0,,51546.2,19.4,-0.26,0.45,0.86,-0.4,3.7,-0.4,36.38,,,,,,,,,,
14.11.05.941,-89.5,22.4,0,9.0,,56914.2,17.57,-0.25,0.45,0.85,-0.4,4.6,0.0,36.38,,,,,,,,,,
14.11.05.953,-189.6,47.4,0,9.0,,60915.0,16.42,-0.25,0.45,0.86,-1.2,3.5,0.6,36.38,,,,,,,,,,
14.11.05.965,-79.9,20.0,0,9.0,,51200.0,19.53,-0.25,0.45,0.86,-1.3,2.4,0.9,36.38,,,,,,,,,,
14.11.05.973,-144.1,36.0,0,9.0,,51544.0,19.4,-0.23,0.44,0.85,-1.4,2.9,1.2,36.38,,,,,,,,,,
14.11.05.986,-169.3,42.3,0,9.0,,55104.8,18.15,-0.23,0.44,0.85,-1.1,1.6,0.7,36.38,,,,,,,,,,
14.11.05.998,-144.1,36.0,0,9.0,,54412.4,18.38,-0.24,0.43,0.87,0.0,2.9,0.4,36.38,,,,,,,,,,
14.11.06.006,-185.3,46.3,0,9.0,,55283.9,18.09,-0.24,0.44,0.86,0.9,3.7,-0.1,36.38,,,,,,,,,,
14.11.06.019,-186.7,46.7,0,9.0,,59962.9,16.68,-0.25,0.44,0.86,0.6,3.9,-0.9,36.38,,,,,,,,,,
14.11.06.031,77.5,19.4,1,10.0,107.8,55130.5,18.14,-0.24,0.44,0.86,0.4,4.3,-1.6,36.38,,,,,,,,,,
14.11.06.039,159.6,39.9,0,10.0,,53596.8,18.66,-0.24,0.45,0.86,0.2,3.7,-1.1,36.38,,,,,,,,,,
14.11.06.051,238.5,59.6,0,10.0,,54921.8,18.21,-0.24,0.44,0.86,0.6,3.7,-0.5,36.38,,,,,,,,,,
14.11.06.064,296.4,74.1,0,10.0,,54756.5,18.26,-0.24,0.44,0.86,1.0,3.6,-0.3,36.38,,,,,,,,,,
14.11.06.072,446.5,111.6,0,10.0,,54637.6,18.3,-0.24,0.44,0.86,1.4,4.3,-0.7,36.38,,,,,,,,,,
14.11.06.084,383.8,96.0,0,10.0,,53073.5,18.84,-0.24,0.44,0.86,1.4,5.4,-1.2,36.38,,,,,,,,,,
14.11.06.092,417.0,104.2,0,10.0,,53344.6,18.75,-0.25,0.44,0.87,1.8,6.2,-1.3,36.38,,,,,,,,,,
14.11.06.104,473.4,118.4,0,10.0,,53433.1,18.71,-0.24,0.44,0.86,1.7,7.1,-1.2,36.38,,,,,,,,,,
14.11.06.117,491.8,123.0,0,10.0,,53357.1,18.74,-0.24,0.44,0.86,1.6,7.1,-1.0,36.38,,,,,,,,,,
14.11.06.125,560.8,140.2,0,10.0,,56909.3,17.57,-0.24,0.45,0.86,1.1,6.6,-1.2,36.38,,,,,,,,,,
14.11.06.166,289.6,72.4,0,10.0,,52297.2,19.12,-0.25,0.45,0.86,-1.0,10.0,-2.5,36.44,,,,,,,,,,
14.11.06.178,333.2,83.3,0,10.0,,52597.6,19.01,-0.25,0.45,0.85,-1.5,9.7,-2.7,36.44,,,,,,,,,,
14.11.06.190,218.0,54.5,0,10.0,,57170.8,17.49,-0.25,0.44,0.85,-0.8,9.8,-2.2,36.44,,,,,,,,,,
14.11.06.199,123.1,30.8,0,10.0,,54149.0,18.47,-0.25,0.43,0.85,-0.8,10.7,-2.4,36.44,,,,,,,,,,
14.11.06.211,19.9,5.0,0,10.0,,52565.1,19.02,-0.25,0.44,0.86,-0.5,10.0,-2.7,36.44,,,,,,,,,,
14.11.06.223,50.1,12.5,0,10.0,,56426.2,17.72,-0.25,0.45,0.85,-1.0,10.4,-3.1,36.44,,,,,,,,,,
14.11.06.236,40.9,10.2,0,10.0,,64193.9,15.58,-0.25,0.44,0.85,-1.3,8.8,-3.4,36.44,,,,,,,,,,
14.11.06.244,105.5,26.4,0,10.0,,56513.6,17.69,-0.25,0.45,0.86,-1.6,8.2,-2.8,36.44,,,,,,,,,,
14.11.06.256,71.2,17.8,0,10.0,,53954.3,18.53,-0.25,0.44,0.86,-1.8,6.6,-2.3,36.44,,,,,,,,,,
14.11.06.268,155.4,38.8,0,10.0,,57206.9,17.48,-0.24,0.44,0.85,-1.2,4.7,-1.8,36.44,,,,,,,,,,
14.11.06.281,124.3,31.1,0,10.0,,59346.7,16.85,-0.25,0.43,0.87,0.1,4.5,-1.4,36.44,,,,,,,,,,
14.11.06.289,119.1,29.8,0,10.0,,50489.0,19.81,-0.25,0.43,0.87,1.7,5.4,-0.9,36.44,,,,,,,,,,
14.11.06.301,,,0,10.0,,,,,,,,,,,,,,,,,,,,
14.11.06.318,,,0,10.0,,,,,,,,,,,,36.42,,,,,,,,
14.11.06.330,-4.7,1.2,0,10.0,,57435.4,17.41,-0.24,0.45,0.86,0.5,4.0,-2.3,36.44,,,,,,,,,,
14.11.06.338,37.1,9.3,0,10.0,,50423.7,19.83,-0.24,0.44,0.86,0.8,4.2,-2.5,36.44,,,,,,,,,,
14.11.06.350,-16.0,4.0,0,10.0,,52724.1,18.97,-0.24,0.45,0.86,1.1,4.9,-2.7,36.44,,,,,,,,,,
14.11.06.359,38.6,9.6,0,10.0,,54663.2,18.29,-0.24,0.44,0.86,1.4,5.1,-2.5,36.44,,,,,,,,,,
14.11.06.371,-18.3,4.6,0,10.0,,56322.7,17.75,-0.25,0.43,0.86,2.0,5.6,-2.4,36.44,,,,,,,,,,
14.11.06.379,-13.1,3.3,0,10.0,,51870.2,19.28,-0.25,0.43,0.86,2.8,6.2,-1.8,36.44,,,,,,,,,,
14.11.06.391,-57.2,14.3,0,10.0,,56595.3,17.67,-0.26,0.43,0.85,3.8,6.5,-1.8,36.44,,,,,,,,,,
14.11.06.399,-26.6,6.6,0,10.0,,53956.6,18.53,-0.26,0.45,0.85,4.0,7.0,-1.5,36.44,,,,,,,,,,
14.11.06.412,-51.6,12.9,0,10.0,,51587.2,19.38,-0.27,0.45,0.86,2.5,6.7,-1.9,36.44,,,,,,,,,,
14.11.06.420,-114.7,28.7,0,10.0,,59403.2,16.83,-0.27,0.45,0.85,0.9,5.8,-1.5,36.44,,,,,,,,,,
14.11.06.432,-131.2,32.8,0,10.0,,55485.4,18.02,-0.26,0.45,0.84,-0.5,5.1,-1.0,36.44,,,,,,,,,,
14.11.06.440,-104.9,26.2,0,10.0,,56446.1,17.72,-0.26,0.44,0.85,-1.4,4.6,-0.5,36.44,,,,,,,,,,
14.11.06.453,-103.7,25.9,0,10.0,,58671.7,17.04,-0.26,0.43,0.86,-1.1,3.5,0.3,36.44,,,,,,,,,,
14.11.06.461,-82.4,20.6,0,10.0,,54766.3,18.26,-0.25,0.43,0.86,0.1,4.1,0.8,36.44,,,,,,,,,,
14.11.06.473,-121.9,30.5,0,10.0,,54551.1,18.33,-0.25,0.43,0.86,1.2,5.1,0.8,36.44,,,,,,,,,,
14.11.06.481,-77.9,19.5,0,10.0,,56433.3,17.72,-0.24,0.44,0.86,2.5,4.7,0.4,36.44,,,,,,,,,,
14.11.06.494,-111.1,27.8,0,10.0,,54652.0,18.3,-0.24,0.44,0.86,2.3,5.9,0.2,36.44,,,,,,,,,,
14.11.06.502,-160.5,40.1,0,10.0,,54855.7,18.23,-0.24,0.45,0.85,1.7,5.3,-0.1,36.44,,,,,,,,,,
14.11.06.514,-110.1,27.5,0,10.0,,57125.5,17.51,-0.24,0.45,0.86,1.2,5.4,0.0,36.44,,,,,,,,,,
14.11.06.522,-158.9,39.7,0,10.0,,55364.2,18.06,-0.25,0.45,0.86,0.9,6.3,-0.1,36.44,,,,,,,,,,
14.11.06.535,-131.2,32.8,0,10.0,,53167.0,18.81,-0.25,0.44,0.86,1.2,5.5,-0.4,36.44,,,,,,,,,,
14.11.06.543,-159.3,39.8,0,10.0,,51309.5,19.49,-0.24,0.44,0.85,1.5,4.4,-0.7,36.44,,,,,,,,,,
14.11.06.555,-147.5,36.9,0,10.0,,50801.7,19.68,-0.24,0.44,0.87,1.5,3.5,-1.1,36.44,,,,,,,,,,
14.11.06.563,-170.0,42.5,0,10.0,,54517.4,18.34,-0.25,0.45,0.86,1.5,4.1,-1.1,36.44,,,,,,,,,,
14.11.06.576,-149.0,37.2,0,10.0,,53495.0,18.69,-0.25,0.45,0.86,1.5,4.2,-1.4,36.44,,,,,,,,,,
14.11.06.584,-151.7,37.9,0,10.0,,49459.1,20.22,-0.25,0.45,0.85,1.1,3.8,-1.6,36.44,,,,,,,,,,
14.11.06.597,58.1,14.5,1,11.0,106.1,54308.4,18.41,-0.25,0.44,0.86,0.8,5.0,-1.7,36.44,,,,,,,,,,
14.11.06.605,195.7,48.9,0,11.0,,58617.1,17.06,-0.25,0.44,0.86,0.1,4.9,-1.6,36.44,,,,,,,,,,
14.11.06.617,209.1,52.3,0,11.0,,53535.7,18.68,-0.25,0.44,0.85,0.2,5.8,-1.8,36.44,,,,,,,,,,
14.11.06.625,315.2,78.8,0,11.0,,54249.1,18.43,-0.25,0.44,0.86,0.3,6.0,-1.1,36.44,,,,,,,,,,
14.11.06.637,377.0,94.2,0,11.0,,53838.6,18.57,-0.25,0.44,0.86,0.4,5.2,-0.9,36.44,,,,,,,,,,
14.11.06.649,374.4,93.6,0,11.0,,60164.0,16.62,-0.25,0.44,0.86,0.7,5.7,-0.9,36.44,,,,,,,,,,
14.11.06.658,428.4,107.1,0,11.0,,55156.0,18.13,-0.25,0.44,0.86,0.8,6.4,-1.3,36.44,,,,,,,,,,
14.11.06.670,524.1,131.0,0,11.0,,53111.5,18.83,-0.24,0.44,0.86,0.2,7.6,-1.8,36.44,,,,,,,,,,
14.11.06.678,388.1,97.0,0,11.0,,55516.0,18.01,-0.24,0.44,0.86,-0.1,7.4,-2.0,36.44,,,,,,,,,,
14.11.06.690,481.4,120.4,0,11.0,,53957.7,18.53,-0.25,0.44,0.86,0.3,8.3,-1.9,36.44,,,,,,,,,,
14.11.06.699,520.3,130.1,0,11.0,,48423.1,20.65,-0.24,0.43,0.87,0.4,9.5,-1.9,36.44,,,,,,,,,,
14.11.06.711,452.8,113.2,0,11.0,,53292.4,18.76,-0.25,0.44,0.86,0.1,9.6,-1.9,36.44,,,,,,,,,,
14.11.06.719,430.6,107.6,0,11.0,,53878.3,18.56,-0.25,0.44,0.86,-0.4,9.8,-2.4,36.44,,,,,,,,,,
14.11.06.731,376.2,94.0,0,11.0,,50988.5,19.61,-0.25,0.44,0.86,-0.3,10.7,-2.7,36.44,,,,,,,,,,
14.11.06.740,332.4,83.1,0,11.0,,53686.5,18.63,-0.26,0.44,0.86,0.0,9.1,-2.4,36.44,,,,,,,,,,
14.11.06.756,209.5,52.4,0,11.0,,52381.4,19.09,-0.26,0.44,0.85,0.5,10.1,-2.1,36.44,,,,,,,,,,
14.11.06.764,162.7,40.7,0,11.0,,51567.8,19.39,-0.26,0.44,0.85,-0.2,8.7,-2.1,36.44,,,,,,,,,,
14.11.06.777,13.3,3.3,0,11.0,,53999.5,18.52,-0.25,0.44,0.86,-0.5,7.4,-2.3,36.44,,,,,,,,,,
14.11.06.785,-5.2,1.3,0,11.0,,55347.6,18.07,-0.26,0.44,0.85,-0.4,8.1,-2.3,36.44,,,,,,,,,,
14.11.06.797,16.1,4.0,0,11.0,,57620.5,17.35,-0.25,0.44,0.86,0.0,6.9,-1.8,36.44,,,,,,,,,,
14.11.06.805,49.1,12.3,0,11.0,,53585.9,18.66,-0.25,0.44,0.87,0.5,6.5,-1.3,36.44,,,,,,,,,,
14.11.06.817,67.8,17.0,0,11.0,,57663.8,17.34,-0.25,0.44,0.85,0.4,6.7,-1.5,36.44,,,,,,,,,,
14.11.06.826,73.8,18.4,0,11.0,,53116.5,18.83,-0.25,0.45,0.86,0.6,6.6,-1.5,36.44,,,,,,,,,,
14.11.06.838,29.5,7.4,0,11.0,,45723.6,21.87,-0.24,0.44,0.85,0.1,7.6,-1.9,36.44,,,,,,,,,,
14.11.06.846,64.9,16.2,0,11.0,,58567.9,17.07,-0.24,0.44,0.86,0.6,7.0,-1.8,36.44,,,,,,,,,,
14.11.06.858,119.7,29.9,0,11.0,,58113.4,17.21,-0.25,0.44,0.86,1.4,7.5,-1.5,36.44,,,,,,,,,,
14.11.06.866,61.9,15.5,0,11.0,,50706.2,19.72,-0.26,0.44,0.86,1.6,8.9,-1.5,36.44,,,,,,,,,,
14.11.06.879,61.1,15.3,0,11.0,,56833.9,17.6,-0.25,0.43,0.85,1.5,7.7,-1.8,36.44,,,,,,,,,,
14.11.06.887,48.8,12.2,0,11.0,,55960.6,17.87,-0.26,0.44,0.85,0.9,7.4,-2.0,36.44,,,,,,,,,,
14.11.06.899,-79.8,20.0,0,11.0,,53619.1,18.65,-0.26,0.44,0.85,0.5,8.4,-2.0,36.44,,,,,,,,,,
14.11.06.908,-59.1,14.8,0,11.0,,57144.1,17.5,-0.27,0.44,0.86,0.4,7.8,-2.0,36.44,,,,,,,,,,
14.11.06.920,-73.0,18.2,0,11.0,,53826.2,18.58,-0.26,0.45,0.85,0.1,7.9,-1.9,36.44,,,,,,,,,,
14.11.06.928,-14.0,3.5,0,11.0,,56133.5,17.81,-0.26,0.44,0.86,-0.5,7.6,-1.9,36.44,,,,,,,,,,
14.11.06.965,-43.9,11.0,0,11.0,,54879.4,18.22,-0.26,0.44,0.85,-0.7,5.8,-1.8,36.38,,,,,,,,,,
14.11.06.977,-101.8,25.4,0,11.0,,56750.9,17.62,-0.26,0.43,0.86,1.3,8.6,-1.3,36.38,,,,,,,,,,
14.11.06.985,-30.8,7.7,0,11.0,,52192.1,19.16,-0.25,0.44,0.86,1.5,9.2,-1.2,36.38,,,,,,,,,,
14.11.06.998,-92.2,23.0,0,11.0,,57542.1,17.38,-0.26,0.44,0.86,1.3,8.3,-1.1,36.38,,,,,,,,,,
14.11.07.006,-121.3,30.3,0,11.0,,56427.2,17.72,-0.26,0.45,0.85,0.5,8.4,-1.7,36.38,,,,,,,,,,
14.11.07.018,-106.8,26.7,0,11.0,,58249.0,17.17,-0.26,0.44,0.85,0.0,7.9,-2.4,36.38,,,,,,,,,,
14.11.07.026,-84.1,21.0,0,11.0,,54044.8,18.5,-0.26,0.44,0.86,-0.6,7.3,-2.1,36.38,,,,,,,,,,
14.11.07.039,-133.0,33.2,0,11.0,,58028.9,17.23,-0.26,0.45,0.85,-0.6,7.5,-1.8,36.38,,,,,,,,,,
14.11.07.047,-79.2,19.8,0,11.0,,53876.5,18.56,-0.26,0.44,0.85,-0.6,7.5,-1.6,36.38,,,,,,,,,,
14.11.07.059,-90.1,22.5,0,11.0,,52942.3,18.89,-0.26,0.44,0.86,-0.8,7.6,-1.5,36.38,,,,,,,,,,
14.11.07.067,-132.6,33.2,0,11.0,,51879.0,19.28,-0.26,0.44,0.85,-1.3,7.1,-1.5,36.38,,,,,,,,,,
14.11.07.080,-72.1,18.0,0,11.0,,55645.8,17.97,-0.26,0.43,0.86,-1.2,6.5,-1.4,36.38,,,,,,,,,,
14.11.07.088,-145.2,36.3,0,11.0,,56439.7,17.72,-0.26,0.43,0.85,-1.1,6.1,-1.4,36.38,,,,,,,,,,
14.11.07.100,-159.2,39.8,0,11.0,,46392.4,21.56,-0.26,0.43,0.86,-0.2,5.2,-1.2,36.38,,,,,,,,,,
14.11.07.108,-187.0,46.8,0,11.0,,59581.6,16.78,-0.26,0.43,0.85,0.2,5.7,-1.2,36.38,,,,,,,,,,
14.11.07.121,-165.6,41.4,0,11.0,,55448.4,18.03,-0.26,0.43,0.86,1.8,5.5,-0.7,36.38,,,,,,,,,,
14.11.07.133,-143.9,36.0,0,11.0,,56593.4,17.67,-0.26,0.44,0.86,2.5,6.3,-0.1,36.38,,,,,,,,,,
14.11.07.141,-202.5,50.6,0,11.0,,51770.0,19.32,-0.26,0.45,0.86,2.4,6.0,-0.1,36.38,,,,,,,,,,
14.11.07.153,69.7,17.4,1,12.0,97.4,54833.2,18.24,-0.26,0.45,0.85,1.3,5.8,-0.3,36.38,,,,,,,,,,
14.11.07.161,131.4,32.8,0,12.0,,55693.0,17.96,-0.26,0.44,0.85,0.6,5.5,-0.4,36.38,,,,,,,,,,
14.11.07.174,192.2,48.0,0,12.0,,51666.5,19.35,-0.26,0.43,0.86,0.0,4.1,-0.9,36.38,,,,,,,,,,
14.11.07.182,225.7,56.4,0,12.0,,61520.0,16.25,-0.26,0.43,0.86,0.4,3.1,-0.4,36.38,,,,,,,,,,
14.11.07.194,246.8,61.7,0,12.0,,52246.7,19.14,-0.26,0.43,0.86,1.5,3.1,-0.1,36.38,,,,,,,,,,
14.11.07.202,388.2,97.0,0,12.0,,54714.5,18.28,-0.27,0.43,0.86,2.6,2.9,-0.1,36.38,,,,,,,,,,
14.11.07.215,392.5,98.1,0,12.0,,57001.8,17.54,-0.26,0.44,0.85,2.7,2.8,0.3,36.38,,,,,,,,,,
14.11.07.223,536.2,134.0,0,12.0,,53882.8,18.56,-0.26,0.45,0.86,2.5,3.2,0.4,36.38,,,,,,,,,,
14.11.07.235,460.0,115.0,0,12.0,,51636.3,19.37,-0.26,0.45,0.85,1.8,2.7,0.0,36.38,,,,,,,,,,
14.11.07.243,434.4,108.6,0,12.0,,53326.1,18.75,-0.26,0.45,0.85,1.4,3.1,-0.1,36.38,,,,,,,,,,
14.11.07.256,474.3,118.6,0,12.0,,52849.1,18.92,-0.26,0.44,0.86,0.5,3.7,-0.4,36.38,,,,,,,,,,
14.11.07.264,457.1,114.3,0,12.0,,52882.3,18.91,-0.25,0.44,0.85,0.1,2.4,-0.8,36.38,,,,,,,,,,
14.11.07.276,436.8,109.2,0,12.0,,54653.7,18.3,-0.25,0.44,0.86,0.8,2.7,-0.9,36.38,,,,,,,,,,
14.11.07.285,380.2,95.0,0,12.0,,56267.7,17.77,-0.26,0.44,0.86,1.6,4.0,-0.1,36.38,,,,,,,,,,
14.11.07.297,358.4,89.6,0,12.0,,55791.6,17.92,-0.25,0.43,0.86,1.9,4.2,-0.2,36.38,,,,,,,,,,
14.11.07.309,282.4,70.6,0,12.0,,52193.7,19.16,-0.26,0.44,0.86,1.9,5.2,-0.7,36.38,,,,,,,,,,
14.11.07.317,169.8,42.4,0,12.0,,55441.0,18.04,-0.25,0.44,0.85,1.3,5.9,-0.6,36.38,,,,,,,,,,
14.11.07.329,135.6,33.9,0,12.0,,52174.5,19.17,-0.25,0.45,0.85,1.3,5.5,-0.8,36.38,,,,,,,,,,
14.11.07.338,124.6,31.2,0,12.0,,58036.5,17.23,-0.25,0.45,0.85,0.7,5.9,-1.0,36.38,,,,,,,,,,
14.11.07.350,-17.7,4.4,0,12.0,,56352.2,17.75,-0.25,0.45,0.86,0.0,5.3,-1.3,36.38,,,,,,,,,,
14.11.07.358,-3.0,0.8,0,12.0,,56122.2,17.82,-0.25,0.44,0.86,-0.8,4.5,-1.2,36.38,,,,,,,,,,
14.11.07.370,65.7,16.4,0,12.0,,51676.4,19.35,-0.25,0.44,0.86,-0.4,4.7,-0.8,36.38,,,,,,,,,,
14.11.07.383,59.8,15.0,0,12.0,,57223.3,17.48,-0.25,0.44,0.85,0.4,4.1,0.0,36.38,,,,,,,,,,
14.11.07.391,61.1,15.3,0,12.0,,57497.3,17.39,-0.26,0.44,0.85,0.2,4.4,-0.3,36.38,,,,,,,,,,
14.11.07.403,103.0,25.8,0,12.0,,52953.9,18.88,-0.26,0.45,0.85,0.0,3.6,-0.9,36.38,,,,,,,,,,
14.11.07.411,130.0,32.5,0,12.0,,52463.0,19.06,-0.26,0.45,0.85,-0.6,2.6,-0.9,36.38,,,,,,,,,,
14.11.07.424,101.4,25.4,0,12.0,,54783.5,18.25,-0.26,0.45,0.85,-0.7,2.2,0.1,36.38,,,,,,,,,,
14.11.07.432,1.6,0.4,0,12.0,,53243.9,18.78,-0.26,0.45,0.84,-0.5,1.4,0.9,36.38,,,,,,,,,,
14.11.07.445,66.1,16.5,0,12.0,,55103.9,18.15,-0.26,0.45,0.85,-0.3,0.2,1.9,36.38,,,,,,,,,,
14.11.07.452,-61.4,15.4,0,12.0,,53273.9,18.77,-0.26,0.45,0.85,-0.4,-0.7,2.7,36.38,,,,,,,,,,
14.11.07.465,22.1,5.5,0,12.0,,54648.2,18.3,-0.25,0.44,0.86,-1.5,-2.2,3.4,36.38,,,,,,,,,,
14.11.07.473,14.3,3.6,0,12.0,,50515.9,19.8,-0.25,0.43,0.86,-2.8,-2.8,4.7,36.38,,,,,,,,,,
14.11.07.485,-39.9,10.0,0,12.0,,54080.4,18.49,-0.24,0.43,0.86,-2.4,-3.3,5.2,36.38,,,,,,,,,,
14.11.07.493,-14.3,3.6,0,12.0,,52965.4,18.88,-0.23,0.43,0.86,-1.5,-2.6,6.2,36.38,,,,,,,,,,
14.11.07.506,-99.6,24.9,0,12.0,,53682.3,18.63,-0.21,0.42,0.87,-0.2,-0.9,6.5,36.38,,,,,,,,,,
14.11.07.518,-58.6,14.6,0,12.0,,55863.6,17.9,-0.21,0.42,0.87,0.8,0.5,6.9,36.38,,,,,,,,,,
14.11.07.526,-64.0,16.0,0,12.0,,52472.3,19.06,-0.22,0.43,0.87,2.1,2.6,5.4,36.38,,,,,,,,,,
14.11.07.538,-73.1,18.3,0,12.0,,61287.8,16.32,-0.22,0.46,0.86,1.6,4.7,4.3,36.38,,,,,,,,,,
14.11.07.547,-99.1,24.8,0,12.0,,59667.7,16.76,-0.21,0.44,0.86,0.7,5.1,1.1,36.38,,,,,,,,,,
14.11.07.559,-97.5,24.4,0,12.0,,59286.3,16.87,-0.23,0.46,0.87,-0.5,5.2,-1.4,36.38,,,,,,,,,,
14.11.07.567,-47.2,11.8,0,12.0,,50228.2,19.91,-0.24,0.46,0.86,-2.2,6.9,-2.2,36.38,,,,,,,,,,
14.11.07.579,-117.2,29.3,0,12.0,,55317.9,18.08,-0.24,0.44,0.86,-3.6,6.6,-2.3,36.38,,,,,,,,,,
14.11.07.588,-71.1,17.8,0,12.0,,49445.9,20.22,-0.24,0.43,0.86,-4.3,5.8,-1.9,36.38,,,,,,,,,,
14.11.07.600,-115.1,28.8,0,12.0,,50392.2,19.84,-0.24,0.42,0.88,-3.0,5.6,-1.0,36.38,,,,,,,,,,
14.11.07.608,-121.7,30.4,0,12.0,,50066.3,19.97,-0.24,0.41,0.87,-0.6,6.2,0.3,36.38,,,,,,,,,,
14.11.07.620,-128.0,32.0,0,12.0,,56375.3,17.74,-0.24,0.42,0.87,1.2,7.1,0.9,36.38,,,,,,,,,,
14.11.07.629,-174.0,43.5,0,12.0,,51916.1,19.26,-0.24,0.44,0.86,1.7,9.3,1.0,36.38,,,,,,,,,,
14.11.07.641,-194.2,48.6,0,12.0,,51028.7,19.6,-0.24,0.44,0.86,1.2,10.4,0.3,36.38,,,,,,,,,,
14.11.07.649,-151.9,38.0,0,12.0,,52589.0,19.02,-0.24,0.45,0.85,0.6,10.6,-0.3,36.38,,,,,,,,,,
14.11.07.661,-110.6,27.6,0,12.0,,55987.7,17.86,-0.24,0.46,0.86,-0.4,11.3,-0.4,36.38,,,,,,,,,,
14.11.07.669,-180.9,45.2,0,12.0,,53592.7,18.66,-0.24,0.46,0.86,-1.3,9.6,-0.3,36.38,,,,,,,,,,
14.11.07.682,-198.0,49.5,0,12.0,,58124.9,17.2,-0.24,0.45,0.86,-2.4,8.9,-0.9,36.38,,,,,,,,,,
14.11.07.690,-175.1,43.8,0,12.0,,56608.7,17.67,-0.24,0.45,0.85,-3.8,7.5,-0.9,36.38,,,,,,,,,,
14.11.07.702,-201.3,50.3,0,12.0,,55868.3,17.9,-0.23,0.44,0.86,-4.3,6.7,-1.0,36.38,,,,,,,,,,
14.11.07.710,-260.3,65.1,0,12.0,,59667.6,16.76,-0.23,0.43,0.87,-3.6,6.7,-0.7,36.38,,,,,,,,,,
14.11.07.723,111.1,27.8,1,13.0,101.5,56553.3,17.68,-0.23,0.43,0.87,-1.8,7.9,0.1,36.38,,,,,,,,,,
14.11.07.731,109.4,27.4,0,13.0,,51073.9,19.58,-0.23,0.43,0.87,-0.6,8.5,-0.1,36.38,,,,,,,,,,
14.11.07.772,408.5,102.1,0,13.0,,53976.3,18.53,-0.23,0.44,0.87,-1.2,7.6,-0.9,36.44,,,,,,,,,,
14.11.07.780,413.1,103.3,0,13.0,,58131.3,17.2,-0.23,0.43,0.86,-1.4,7.7,-0.2,36.44,,,,,,,,,,
14.11.07.793,498.2,124.6,0,13.0,,59538.1,16.8,-0.24,0.42,0.87,0.4,8.2,-0.3,36.44,,,,,,,,,,
14.11.07.801,488.0,122.0,0,13.0,,51620.0,19.37,-0.25,0.43,0.87,1.7,7.7,0.0,36.44,,,,,,,,,,
14.11.07.813,408.9,102.2,0,13.0,,54795.6,18.25,-0.24,0.42,0.88,3.2,7.5,0.4,36.44,,,,,,,,,,
14.11.07.821,508.0,127.0,0,13.0,,61773.8,16.19,-0.23,0.43,0.86,4.8,7.3,2.4,36.44,,,,,,,,,,
14.11.07.833,443.3,110.8,0,13.0,,48067.7,20.8,-0.23,0.44,0.86,6.9,8.5,5.1,36.44,,,,,,,,,,
14.11.07.842,453.9,113.5,0,13.0,,51201.5,19.53,-0.23,0.47,0.85,4.8,9.8,6.3,36.44,,,,,,,,,,
14.11.07.854,471.9,118.0,0,13.0,,48640.7,20.56,-0.25,0.46,0.84,2.8,10.3,3.2,36.44,,,,,,,,,,
14.11.07.862,318.5,79.6,0,13.0,,57149.8,17.5,-0.25,0.45,0.86,-0.7,11.1,-0.8,36.44,,,,,,,,,,
14.11.07.874,243.3,60.8,0,13.0,,50425.2,19.83,-0.25,0.46,0.87,-2.5,9.7,-1.7,36.44,,,,,,,,,,
14.11.07.882,174.8,43.7,0,13.0,,54100.5,18.48,-0.25,0.45,0.87,-2.6,10.2,-1.8,36.44,,,,,,,,,,
14.11.07.895,76.4,19.1,0,13.0,,59735.8,16.74,-0.25,0.45,0.85,-5.0,11.8,-2.0,36.44,,,,,,,,,,
14.11.07.903,87.3,21.8,0,13.0,,53484.1,18.7,-0.24,0.44,0.86,-7.2,11.4,-3.3,36.44,,,,,,,,,,
14.11.07.915,13.3,3.3,0,13.0,,52666.5,18.99,-0.24,0.43,0.85,-7.6,12.0,-3.8,36.44,,,,,,,,,,
14.11.07.923,11.2,2.8,0,13.0,,56278.0,17.77,-0.25,0.42,0.86,-6.4,12.8,-3.0,36.44,,,,,,,,,,
14.11.07.936,99.0,24.8,0,13.0,,54784.8,18.25,-0.24,0.41,0.86,-4.7,13.1,-1.3,36.44,,,,,,,,,,
14.11.07.948,89.5,22.4,0,13.0,,57653.6,17.34,-0.26,0.42,0.87,-1.4,13.1,0.3,36.44,,,,,,,,,,
14.11.07.961,87.6,21.9,0,13.0,,62049.3,16.12,-0.26,0.41,0.86,-0.1,16.4,0.1,36.44,,,,,,,,,,
14.11.07.969,50.8,12.7,0,13.0,,54130.7,18.47,-0.25,0.42,0.86,-0.2,15.8,-1.0,36.44,,,,,,,,,,
14.11.07.981,105.2,26.3,0,13.0,,52389.5,19.09,-0.25,0.42,0.85,-0.1,15.1,-2.5,36.44,,,,,,,,,,
14.11.07.989,96.2,24.0,0,13.0,,62853.0,15.91,-0.25,0.42,0.86,0.7,16.8,-4.7,36.44,,,,,,,,,,
14.11.08.001,8.4,2.1,0,13.0,,58113.1,17.21,-0.27,0.43,0.87,1.2,15.7,-4.9,36.44,,,,,,,,,,
14.11.08.009,31.1,7.8,0,13.0,,59578.1,16.78,-0.26,0.43,0.86,1.4,16.1,-5.6,36.44,,,,,,,,,,
14.11.08.022,13.6,3.4,0,13.0,,55796.0,17.92,-0.26,0.46,0.86,-0.3,15.7,-6.6,36.44,,,,,,,,,,
14.11.08.030,-17.1,4.3,0,13.0,,49263.2,20.3,-0.26,0.44,0.85,-1.2,15.9,-7.8,36.44,,,,,,,,,,
14.11.08.042,2.6,0.6,0,13.0,,52629.9,19.0,-0.27,0.43,0.86,-2.2,15.5,-8.1,36.44,,,,,,,,,,
14.11.08.050,-23.1,5.8,0,13.0,,53037.9,18.85,-0.28,0.44,0.86,-1.8,15.5,-7.7,36.44,,,,,,,,,,
14.11.08.063,-90.4,22.6,0,13.0,,59261.2,16.87,-0.28,0.43,0.86,-2.6,17.2,-8.9,36.44,,,,,,,,,,
14.11.08.075,10.1,2.5,0,13.0,,54022.2,18.51,-0.28,0.42,0.85,-4.3,16.7,-11.9,36.44,,,,,,,,,,
14.11.08.083,-45.2,11.3,0,13.0,,55257.8,18.1,-0.3,0.41,0.85,-5.5,16.5,-14.8,36.44,,,,,,,,,,
14.11.08.096,-6.9,1.7,0,13.0,,51319.2,19.49,-0.3,0.41,0.86,-6.3,17.7,-16.2,36.44,,,,,,,,,,
14.11.08.104,-56.0,14.0,0,13.0,,57559.1,17.37,-0.31,0.41,0.86,-6.2,17.3,-17.6,36.44,,,,,,,,,,
14.11.08.117,-49.4,12.4,0,13.0,,58533.7,17.08,-0.31,0.41,0.87,-5.9,17.4,-18.4,36.44,,,,,,,,,,
14.11.08.125,-112.2,28.0,0,13.0,,54832.8,18.24,-0.32,0.41,0.87,-6.0,18.1,-18.5,36.44,,,,,,,,,,
14.11.08.136,-74.3,18.6,0,13.0,,54796.8,18.25,-0.31,0.41,0.86,-5.3,18.4,-19.3,36.44,,,,,,,,,,
14.11.08.149,-108.3,27.1,0,13.0,,55911.8,17.89,-0.32,0.41,0.85,-2.8,18.9,-19.8,36.44,,,,,,,,,,
14.11.08.157,-83.3,20.8,0,13.0,,54893.6,18.22,-0.33,0.42,0.87,-0.6,20.5,-19.9,36.44,,,,,,,,,,
14.11.08.169,-70.3,17.6,0,13.0,,57316.8,17.45,-0.34,0.41,0.86,0.2,22.2,-21.7,36.44,,,,,,,,,,
14.11.08.177,-121.0,30.2,0,13.0,,55739.9,17.94,-0.35,0.41,0.86,-0.4,22.0,-24.9,36.44,,,,,,,,,,
14.11.08.190,-78.5,19.6,0,13.0,,55369.2,18.06,-0.34,0.42,0.87,-1.0,20.6,-28.0,36.44,,,,,,,,,,
14.11.08.198,-132.0,33.0,0,13.0,,54078.1,18.49,-0.35,0.39,0.85,-1.1,20.1,-30.9,36.44,,,,,,,,,,
14.11.08.210,-142.5,35.6,0,13.0,,55263.2,18.1,-0.33,0.39,0.86,0.9,15.7,-30.5,36.44,,,,,,,,,,
14.11.08.223,-152.1,38.0,0,13.0,,53835.4,18.58,-0.33,0.39,0.86,1.5,19.8,-27.0,36.44,,,,,,,,,,
14.11.08.231,-110.4,27.6,0,13.0,,55572.5,17.99,-0.35,0.4,0.84,2.6,20.5,-23.4,36.44,,,,,,,,,,
14.11.08.243,-154.3,38.6,0,13.0,,53237.0,18.78,-0.36,0.37,0.84,1.0,16.2,-21.7,36.44,,,,,,,,,,
14.11.08.251,-270.2,67.6,0,13.0,,53224.0,18.79,-0.33,0.41,0.86,-0.1,15.9,-21.6,36.44,,,,,,,,,,
14.11.08.264,-128.3,32.1,0,13.0,,55495.9,18.02,-0.32,0.41,0.86,1.4,17.8,-23.2,36.44,,,,,,,,,,
14.11.08.272,-139.8,35.0,0,13.0,,56929.0,17.57,-0.3,0.4,0.84,0.2,15.3,-20.3,36.44,,,,,,,,,,
14.11.08.284,55.3,13.8,1,14.0,106.3,47584.6,21.02,-0.29,0.4,0.83,0.1,13.8,-16.0,36.44,,,,,,,,,,
14.11.08.292,93.4,23.4,0,14.0,,53315.1,18.76,-0.29,0.41,0.84,1.7,11.0,-10.6,36.44,,,,,,,,,,
14.11.08.305,192.6,48.2,0,14.0,,53323.6,18.75,-0.3,0.4,0.85,2.1,11.0,-7.0,36.44,,,,,,,,,,
14.11.08.317,299.8,75.0,0,14.0,,55480.3,18.02,-0.31,0.4,0.84,1.5,9.5,-4.4,36.44,,,,,,,,,,
14.11.08.325,392.3,98.1,0,14.0,,56014.6,17.85,-0.32,0.41,0.85,1.0,8.1,-2.9,36.44,,,,,,,,,,
14.11.08.337,357.1,89.3,0,14.0,,60522.8,16.52,-0.33,0.4,0.85,0.6,7.8,-0.6,36.44,,,,,,,,,,
14.11.08.345,442.3,110.6,0,14.0,,52495.5,19.05,-0.33,0.39,0.85,1.0,8.2,1.6,36.44,,,,,,,,,,
14.11.08.358,496.0,124.0,0,14.0,,59897.9,16.7,-0.33,0.39,0.84,2.8,5.8,5.2,36.44,,,,,,,,,,
14.11.08.366,508.5,127.1,0,14.0,,48337.3,20.69,-0.33,0.39,0.85,4.2,6.2,8.8,36.44,,,,,,,,,,
14.11.08.378,487.3,121.8,0,14.0,,49785.0,20.09,-0.33,0.4,0.83,4.9,5.3,10.6,36.44,,,,,,,,,,
14.11.08.386,485.4,121.4,0,14.0,,50781.6,19.69,-0.34,0.42,0.83,4.1,3.0,9.3,36.44,,,,,,,,,,
14.11.08.399,575.5,143.9,0,14.0,,58524.3,17.09,-0.33,0.4,0.83,1.3,1.7,7.0,36.44,,,,,,,,,,
14.11.08.407,437.5,109.4,0,14.0,,55848.9,17.91,-0.34,0.4,0.85,0.3,-0.4,4.8,36.44,,,,,,,,,,
14.11.08.419,367.8,92.0,0,14.0,,58323.2,17.15,-0.33,0.4,0.84,1.6,0.4,4.6,36.44,,,,,,,,,,
14.11.08.427,350.9,87.7,0,14.0,,59498.0,16.81,-0.33,0.4,0.85,2.7,1.5,4.0,36.44,,,,,,,,,,
14.11.08.440,245.4,61.4,0,14.0,,54195.9,18.45,-0.34,0.41,0.85,2.6,1.3,3.4,36.44,,,,,,,,,,
14.11.08.448,261.2,65.3,0,14.0,,54822.1,18.24,-0.34,0.41,0.86,2.2,2.8,2.5,36.44,,,,,,,,,,
14.11.08.461,130.9,32.7,0,14.0,,54513.3,18.34,-0.33,0.41,0.84,0.0,2.0,1.0,36.44,,,,,,,,,,
14.11.08.469,80.5,20.1,0,14.0,,55681.3,17.96,-0.32,0.4,0.84,-0.7,1.4,0.5,36.44,,,,,,,,,,
14.11.08.481,-14.9,3.7,0,14.0,,57846.4,17.29,-0.33,0.4,0.85,0.0,2.4,1.2,36.44,,,,,,,,,,
14.11.08.489,55.4,13.8,0,14.0,,54174.7,18.46,-0.33,0.39,0.85,1.4,4.4,2.8,36.44,,,,,,,,,,
14.11.08.501,68.2,17.0,0,14.0,,57236.4,17.47,-0.33,0.39,0.85,1.3,4.5,3.4,36.44,,,,,,,,,,
14.11.08.509,61.1,15.3,0,14.0,,55607.1,17.98,-0.33,0.4,0.84,-0.1,5.0,2.0,36.44,,,,,,,,,,
14.11.08.522,133.3,33.3,0,14.0,,58996.6,16.95,-0.34,0.41,0.85,-0.9,6.9,1.2,36.44,,,,,,,,,,
14.11.08.530,66.9,16.7,0,14.0,,51401.7,19.45,-0.34,0.4,0.86,-1.2,7.1,0.6,36.44,,,,,,,,,,
14.11.08.542,51.5,12.9,0,14.0,,56454.7,17.71,-0.34,0.39,0.85,-0.7,8.0,1.2,36.44,,,,,,,,,,
14.11.08.579,16.2,4.0,0,14.0,,48805.5,20.49,-0.33,0.4,0.86,0.0,9.8,1.4,36.38,,,,,,,,,,
14.11.08.587,15.3,3.8,0,14.0,,51909.6,19.26,-0.33,0.4,0.84,-1.2,10.2,-1.4,36.38,,,,,,,,,,
14.11.08.600,-71.9,18.0,0,14.0,,52703.9,18.97,-0.35,0.41,0.84,0.1,10.7,0.2,36.38,,,,,,,,,,
14.11.08.612,2.4,0.6,0,14.0,,54413.4,18.38,-0.35,0.43,0.85,0.4,11.4,0.9,36.38,,,,,,,,,,
14.11.08.620,-21.3,5.3,0,14.0,,58725.6,17.03,-0.34,0.42,0.84,-2.2,12.7,-0.2,36.38,,,,,,,,,,
14.11.08.633,-27.8,7.0,0,14.0,,53851.9,18.57,-0.33,0.42,0.84,-5.0,11.5,-1.0,36.38,,,,,,,,,,
14.11.08.640,-67.6,16.9,0,14.0,,50844.3,19.67,-0.32,0.41,0.84,-5.8,11.5,-0.4,36.38,,,,,,,,,,
14.11.08.653,-55.7,13.9,0,14.0,,59002.2,16.95,-0.33,0.4,0.85,-4.6,12.1,1.5,36.38,,,,,,,,,,
14.11.08.661,-82.8,20.7,0,14.0,,51136.4,19.56,-0.34,0.41,0.86,-3.1,12.8,3.6,36.38,,,,,,,,,,
14.11.08.673,-49.2,12.3,0,14.0,,57502.0,17.39,-0.34,0.42,0.84,-3.3,13.3,2.5,36.38,,,,,,,,,,
14.11.08.681,-71.5,17.9,0,14.0,,49106.8,20.36,-0.34,0.42,0.84,-5.1,12.2,-0.2,36.38,,,,,,,,,,
14.11.08.694,-73.5,18.4,0,14.0,,52125.9,19.18,-0.34,0.42,0.84,-6.9,11.7,-2.7,36.38,,,,,,,,,,
14.11.08.706,-100.7,25.2,0,14.0,,53290.4,18.77,-0.33,0.42,0.85,-8.8,12.0,-4.2,36.38,,,,,,,,,,
14.11.08.714,-72.3,18.1,0,14.0,,52009.9,19.23,-0.34,0.41,0.84,-10.0,10.2,-4.3,36.38,,,,,,,,,,
14.11.08.726,-103.7,25.9,0,14.0,,57111.4,17.51,-0.35,0.41,0.84,-10.8,10.0,-3.6,36.38,,,,,,,,,,
14.11.08.735,-170.4,42.6,0,14.0,,49044.9,20.39,-0.36,0.4,0.85,-11.1,10.6,-3.3,36.38,,,,,,,,,,
14.11.08.747,-139.5,34.9,0,14.0,,54513.4,18.34,-0.36,0.38,0.84,-11.8,10.5,-2.6,36.38,,,,,,,,,,
14.11.08.755,-75.3,18.8,0,14.0,,53751.0,18.6,-0.36,0.38,0.85,-12.2,11.4,-1.6,36.38,,,,,,,,,,
14.11.08.767,-173.3,43.3,0,14.0,,54870.2,18.22,-0.36,0.37,0.86,-11.6,12.6,-0.7,36.38,,,,,,,,,,
14.11.08.780,-36.3,9.1,0,14.0,,53680.7,18.63,-0.36,0.37,0.85,-11.3,13.0,-1.1,36.38,,,,,,,,,,
14.11.08.790,-165.2,41.3,0,14.0,,54772.9,18.26,-0.36,0.36,0.85,-11.0,12.7,-1.9,36.38,,,,,,,,,,
14.11.08.800,-104.6,26.2,0,14.0,,51848.2,19.29,-0.36,0.36,0.86,-9.9,11.9,-1.9,36.38,,,,,,,,,,
14.11.08.808,-246.6,61.6,0,14.0,,53749.0,18.61,-0.35,0.35,0.85,-8.7,12.5,-2.0,36.38,,,,,,,,,,
14.11.08.821,-241.3,60.3,0,14.0,,54752.0,18.26,-0.35,0.35,0.85,-8.7,11.2,-2.3,36.38,,,,,,,,,,
14.11.08.829,-195.7,48.9,0,14.0,,55960.2,17.87,-0.35,0.36,0.85,-7.5,10.0,-2.5,36.38,,,,,,,,,,
14.11.08.841,-148.6,37.2,0,14.0,,60179.3,16.62,-0.36,0.37,0.86,-6.0,11.1,-1.0,36.38,,,,,,,,,,
14.11.08.849,70.5,17.6,1,15.0,110.1,55223.4,18.11,-0.37,0.39,0.86,-5.1,12.7,0.5,36.38,,,,,,,,,,
14.11.08.862,143.6,35.9,0,15.0,,59872.4,16.7,-0.37,0.38,0.85,-5.7,13.5,0.2,36.38,,,,,,,,,,
14.11.08.874,197.4,49.4,0,15.0,,53505.4,18.69,-0.37,0.38,0.85,-7.3,12.6,-1.5,36.38,,,,,,,,,,
14.11.08.882,257.3,64.3,0,15.0,,52792.5,18.94,-0.36,0.38,0.85,-8.3,11.6,-3.3,36.38,,,,,,,,,,
14.11.08.894,330.2,82.6,0,15.0,,51895.1,19.27,-0.37,0.37,0.85,-7.9,10.7,-5.1,36.38,,,,,,,,,,
14.11.08.903,386.1,96.5,0,15.0,,52704.9,18.97,-0.38,0.37,0.85,-8.0,8.6,-4.6,36.38,,,,,,,,,,
14.11.08.915,437.5,109.4,0,15.0,,51010.9,19.6,-0.37,0.36,0.85,-7.6,9.5,-3.9,36.38,,,,,,,,,,
14.11.08.923,489.4,122.4,0,15.0,,46802.5,21.37,-0.36,0.35,0.86,-6.8,9.1,-3.5,36.38,,,,,,,,,,
14.11.08.935,441.9,110.5,0,15.0,,53272.8,18.77,-0.37,0.36,0.85,-6.8,8.5,-2.9,36.38,,,,,,,,,,
14.11.08.944,484.6,121.2,0,15.0,,57642.3,17.35,-0.37,0.36,0.85,-6.7,8.2,-2.3,36.38,,,,,,,,,,
14.11.08.956,504.3,126.1,0,15.0,,59196.6,16.89,-0.37,0.35,0.86,-6.7,8.1,-3.1,36.38,,,,,,,,,,
14.11.08.964,508.4,127.1,0,15.0,,56135.7,17.81,-0.36,0.36,0.86,-7.0,8.0,-2.8,36.38,,,,,,,,,,
14.11.08.976,366.7,91.7,0,15.0,,51143.4,19.55,-0.35,0.38,0.86,-7.5,8.7,-0.5,36.38,,,,,,,,,,
14.11.08.989,361.5,90.4,0,15.0,,51374.9,19.46,-0.35,0.39,0.85,-9.6,9.9,1.5,36.38,,,,,,,,,,
14.11.08.997,294.6,73.6,0,15.0,,54226.2,18.44,-0.35,0.39,0.85,-12.2,9.3,1.8,36.38,,,,,,,,,,
14.11.09.009,210.5,52.6,0,15.0,,54755.4,18.26,-0.35,0.38,0.86,-14.5,8.9,1.2,36.38,,,,,,,,,,
14.11.09.017,205.8,51.4,0,15.0,,55719.1,17.95,-0.36,0.37,0.87,-17.2,8.8,1.5,36.38,,,,,,,,,,
14.11.09.030,83.5,20.9,0,15.0,,50568.3,19.78,-0.35,0.38,0.87,-18.6,8.9,3.1,36.38,,,,,,,,,,
14.11.09.038,80.8,20.2,0,15.0,,52879.1,18.91,-0.33,0.39,0.88,-21.1,9.3,5.8,36.38,,,,,,,,,,
14.11.09.050,53.7,13.4,0,15.0,,53239.0,18.78,-0.34,0.38,0.87,-25.2,9.2,5.9,36.38,,,,,,,,,,
14.11.09.058,24.3,6.1,0,15.0,,55229.4,18.11,-0.34,0.4,0.86,-29.3,9.4,5.6,36.38,,,,,,,,,,
14.11.09.071,72.2,18.0,0,15.0,,56148.4,17.81,-0.35,0.36,0.87,-31.4,9.7,4.0,36.38,,,,,,,,,,
14.11.09.079,105.6,26.4,0,15.0,,56904.8,17.57,-0.32,0.32,0.86,-31.7,5.5,0.7,36.38,,,,,,,,,,
14.11.09.091,94.9,23.7,0,15.0,,57198.0,17.48,-0.34,0.33,0.88,-34.4,4.1,1.8,36.38,,,,,,,,,,
14.11.09.099,96.2,24.0,0,15.0,,54358.5,18.4,-0.35,0.32,0.87,-33.3,5.8,2.9,36.38,,,,,,,,,,
14.11.09.111,58.5,14.6,0,15.0,,52915.6,18.9,-0.37,0.29,0.88,-34.3,6.0,4.9,36.38,,,,,,,,,,
14.11.09.120,60.1,15.0,0,15.0,,57519.9,17.39,-0.38,0.3,0.89,-33.4,8.1,5.2,36.38,,,,,,,,,,
14.11.09.132,70.6,17.6,0,15.0,,55055.4,18.16,-0.37,0.3,0.89,-36.1,9.7,6.8,36.38,,,,,,,,,,
14.11.09.140,49.7,12.4,0,15.0,,52243.1,19.14,-0.37,0.3,0.89,-29.4,7.8,2.4,36.38,,,,,,,,,,
14.11.09.153,-13.6,3.4,0,15.0,,59469.6,16.82,-0.39,0.27,0.87,-32.6,10.0,3.1,36.38,,,,,,,,,,
14.11.09.165,-20.7,5.2,0,15.0,,55926.3,17.88,-0.39,0.28,0.88,-30.1,10.0,0.5,36.38,,,,,,,,,,
14.11.09.173,2.4,0.6,0,15.0,,51315.8,19.49,-0.38,0.25,0.87,-28.2,9.7,-1.1,36.38,,,,,,,,,,
14.11.09.185,-11.5,2.9,0,15.0,,57780.4,17.31,-0.4,0.24,0.87,-27.0,9.3,-0.9,36.38,,,,,,,,,,
14.11.09.193,-32.0,8.0,0,15.0,,53814.1,18.58,-0.39,0.21,0.86,-20.0,7.8,-3.3,36.38,,,,,,,,,,
14.11.09.206,-19.6,4.9,0,15.0,,54421.1,18.38,-0.4,0.19,0.88,-14.7,4.6,-5.1,36.38,,,,,,,,,,
14.11.09.214,-73.2,18.3,0,15.0,,52553.3,19.03,-0.41,0.18,0.88,-9.4,3.8,-6.4,36.38,,,,,,,,,,
14.11.09.226,-91.4,22.8,0,15.0,,58305.7,17.15,-0.42,0.19,0.88,-3.3,3.8,-6.5,36.38,,,,,,,,,,
14.11.09.234,-66.4,16.6,0,15.0,,54026.9,18.51,-0.41,0.2,0.89,1.8,4.3,-5.8,36.38,,,,,,,,,,
14.11.09.247,-68.8,17.2,0,15.0,,54841.6,18.23,-0.41,0.21,0.88,5.3,5.4,-5.5,36.38,,,,,,,,,,
14.11.09.255,-95.5,23.9,0,15.0,,56651.2,17.65,-0.39,0.23,0.87,8.2,5.1,-7.4,36.38,,,,,,,,,,
14.11.09.267,-92.6,23.2,0,15.0,,51935.6,19.25,-0.39,0.24,0.87,9.9,2.5,-10.8,36.38,,,,,,,,,,
14.11.09.279,-81.6,20.4,0,15.0,,52867.5,18.92,-0.39,0.26,0.88,12.4,2.3,-12.2,36.38,,,,,,,,,,
14.11.09.292,-37.8,9.4,0,15.0,,54035.7,18.51,-0.4,0.27,0.89,14.6,3.6,-12.2,36.38,,,,,,,,,,
14.11.09.300,-117.1,29.3,0,15.0,,49023.7,20.4,-0.4,0.28,0.89,14.9,3.7,-12.4,36.38,,,,,,,,,,
14.11.09.312,-67.4,16.8,0,15.0,,62220.9,16.07,-0.4,0.27,0.89,14.4,2.7,-14.5,36.38,,,,,,,,,,
14.11.09.320,-72.5,18.1,0,15.0,,53061.3,18.85,-0.41,0.25,0.89,15.2,1.8,-16.6,36.38,,,,,,,,,,
14.11.09.333,-142.2,35.6,0,15.0,,52569.0,19.02,-0.42,0.24,0.88,16.9,2.7,-18.4,36.38,,,,,,,,,,
14.11.09.341,-122.4,30.6,0,15.0,,54857.0,18.23,-0.44,0.24,0.88,21.5,3.7,-21.6,36.38,,,,,,,,,,
14.11.09.378,-169.2,42.3,0,15.0,,56162.9,17.81,-0.43,0.21,0.9,27.9,2.7,-28.0,36.44,,,,,,,,,,
14.11.09.390,-180.4,45.1,0,15.0,,53923.8,18.54,-0.37,0.17,0.86,45.9,-3.5,-43.5,36.44,,,,,,,,,,
14.11.09.398,-147.4,36.8,0,15.0,,55040.8,18.17,-0.35,0.24,0.85,53.3,-3.4,-37.9,36.44,,,,,,,,,,
14.11.09.411,89.4,22.4,1,16.0,104.8,54807.6,18.25,-0.35,0.28,0.86,57.5,-3.4,-30.7,36.44,,,,,,,,,,
14.11.09.423,98.0,24.5,0,16.0,,55022.1,18.17,-0.33,0.34,0.86,56.2,-1.0,-22.6,36.44,,,,,,,,,,
14.11.09.431,168.5,42.1,0,16.0,,55965.0,17.87,-0.33,0.37,0.86,52.9,0.9,-13.8,36.44,,,,,,,,,,
14.11.09.443,250.8,62.7,0,16.0,,62095.9,16.1,-0.34,0.37,0.86,49.9,-0.6,-4.6,36.44,,,,,,,,,,
14.11.09.452,334.8,83.7,0,16.0,,59790.9,16.72,-0.34,0.42,0.88,45.2,-3.1,5.3,36.44,,,,,,,,,,
14.11.09.464,381.7,95.4,0,16.0,,56303.8,17.76,-0.34,0.49,0.85,40.5,-0.7,14.6,36.44,,,,,,,,,,
14.11.09.472,472.8,118.2,0,16.0,,55715.0,17.95,-0.36,0.52,0.84,32.4,2.0,20.3,36.44,,,,,,,,,,
14.11.09.484,498.4,124.6,0,16.0,,52312.2,19.12,-0.35,0.55,0.84,21.1,2.1,20.8,36.44,,,,,,,,,,
14.11.09.492,542.9,135.7,0,16.0,,49513.9,20.2,-0.35,0.51,0.84,8.4,1.9,17.6,36.44,,,,,,,,,,
14.11.09.505,485.6,121.4,0,16.0,,56275.3,17.77,-0.33,0.46,0.84,-2.0,-2.9,14.6,36.44,,,,,,,,,,
14.11.09.513,520.1,130.0,0,16.0,,56698.0,17.64,-0.33,0.42,0.86,-7.5,-7.8,13.7,36.44,,,,,,,,,,
14.11.09.525,501.5,125.4,0,16.0,,54883.3,18.22,-0.32,0.36,0.86,-8.7,-6.5,13.8,36.44,,,,,,,,,,
14.11.09.538,430.8,107.7,0,16.0,,46172.1,21.66,-0.34,0.31,0.88,-6.7,-7.2,14.1,36.44,,,,,,,,,,
14.11.09.546,361.8,90.4,0,16.0,,52695.3,18.98,-0.34,0.29,0.87,-4.1,-8.1,14.2,36.44,,,,,,,,,,
14.11.09.558,329.6,82.4,0,16.0,,55013.0,18.18,-0.35,0.28,0.88,0.0,-8.3,12.5,36.44,,,,,,,,,,
14.11.09.566,250.1,62.5,0,16.0,,50009.1,20.0,-0.35,0.29,0.88,3.7,-6.4,11.9,36.44,,,,,,,,,,
14.11.09.579,222.6,55.6,0,16.0,,57319.4,17.45,-0.35,0.31,0.86,8.0,-3.9,12.0,36.44,,,,,,,,,,
14.11.09.587,144.3,36.1,0,16.0,,54609.6,18.31,-0.34,0.34,0.86,11.1,-4.3,13.3,36.44,,,,,,,,,,
14.11.09.599,39.8,10.0,0,16.0,,51253.8,19.51,-0.33,0.37,0.86,12.7,-0.9,14.3,36.44,,,,,,,,,,
14.11.09.611,-6.6,1.6,0,16.0,,50002.0,20.0,-0.33,0.38,0.86,12.4,1.4,14.6,36.44,,,,,,,,,,
14.11.09.620,42.8,10.7,0,16.0,,54531.0,18.34,-0.32,0.39,0.87,12.3,0.3,15.1,36.44,,,,,,,,,,
14.11.09.632,28.1,7.0,0,16.0,,56060.0,17.84,-0.32,0.4,0.85,11.6,1.3,17.2,36.44,,,,,,,,,,
14.11.09.640,103.5,25.9,0,16.0,,50063.0,19.97,-0.33,0.4,0.86,9.7,3.6,18.5,36.44,,,,,,,,,,
14.11.09.652,133.5,33.4,0,16.0,,53331.8,18.75,-0.34,0.4,0.85,8.1,4.1,18.3,36.44,,,,,,,,,,
14.11.09.660,83.1,20.8,0,16.0,,55834.7,17.91,-0.35,0.4,0.86,6.4,1.8,15.9,36.44,,,,,,,,,,
14.11.09.673,55.1,13.8,0,16.0,,50846.3,19.67,-0.35,0.39,0.86,3.8,1.7,11.9,36.44,,,,,,,,,,
14.11.09.681,138.0,34.5,0,16.0,,57284.1,17.46,-0.36,0.38,0.86,2.7,1.6,8.9,36.44,,,,,,,,,,
14.11.09.693,51.5,12.9,0,16.0,,54441.3,18.37,-0.36,0.36,0.87,1.7,-0.7,7.0,36.44,,,,,,,,,,
14.11.09.706,75.8,19.0,0,16.0,,53959.7,18.53,-0.35,0.37,0.87,2.5,1.4,6.3,36.44,,,,,,,,,,
14.11.09.714,22.6,5.6,0,16.0,,57265.1,17.46,-0.35,0.36,0.86,3.5,3.7,5.2,36.44,,,,,,,,,,
14.11.09.726,-18.0,4.5,0,16.0,,57955.0,17.25,-0.33,0.37,0.85,3.3,2.8,3.8,36.44,,,,,,,,,,
14.11.09.734,98.6,24.6,0,16.0,,50914.9,19.64,-0.32,0.38,0.85,2.3,2.2,1.7,36.44,,,,,,,,,,
14.11.09.746,-47.4,11.8,0,16.0,,57852.6,17.29,-0.31,0.38,0.85,2.1,1.2,0.5,36.44,,,,,,,,,,
14.11.09.755,24.8,6.2,0,16.0,,58896.7,16.98,-0.31,0.39,0.85,3.0,-0.1,0.6,36.44,,,,,,,,,,
14.11.09.767,-57.8,14.4,0,16.0,,52231.8,19.15,-0.31,0.4,0.86,4.5,1.0,2.2,36.44,,,,,,,,,,
14.11.09.775,-44.9,11.2,0,16.0,,56319.0,17.76,-0.32,0.39,0.86,5.6,3.5,3.1,36.44,,,,,,,,,,
14.11.09.787,-18.5,4.6,0,16.0,,53736.0,18.61,-0.33,0.39,0.87,6.3,4.7,3.1,36.44,,,,,,,,,,
14.11.09.796,-22.8,5.7,0,16.0,,54258.8,18.43,-0.33,0.39,0.87,6.4,6.3,2.7,36.44,,,,,,,,,,
14.11.09.808,-94.7,23.7,0,16.0,,55151.4,18.13,-0.32,0.39,0.86,7.1,6.8,2.1,36.44,,,,,,,,,,
14.11.09.820,-94.4,23.6,0,16.0,,49055.0,20.39,-0.33,0.39,0.86,8.1,6.5,1.5,36.44,,,,,,,,,,
14.11.09.828,-49.9,12.5,0,16.0,,48823.1,20.48,-0.32,0.38,0.87,8.0,6.9,0.5,36.44,,,,,,,,,,
14.11.09.841,-104.9,26.2,0,16.0,,49197.4,20.33,-0.32,0.4,0.85,8.1,6.2,0.2,36.44,,,,,,,,,,
14.11.09.853,-118.8,29.7,0,16.0,,58196.6,17.18,-0.32,0.41,0.86,8.5,6.0,-0.2,36.44,,,,,,,,,,
14.11.09.861,-132.5,33.1,0,16.0,,55471.6,18.03,-0.33,0.41,0.85,7.9,7.0,-0.3,36.44,,,,,,,,,,
14.11.09.873,-146.2,36.6,0,16.0,,53268.8,18.77,-0.33,0.42,0.85,6.2,4.9,-0.5,36.44,,,,,,,,,,
14.11.09.886,-85.9,21.5,0,16.0,,58714.5,17.03,-0.32,0.43,0.86,4.2,5.5,0.1,36.44,,,,,,,,,,
14.11.09.894,-148.6,37.2,0,16.0,,56177.3,17.8,-0.3,0.41,0.87,3.1,4.2,0.5,36.44,,,,,,,,,,
14.11.09.906,-146.7,36.7,0,16.0,,57101.8,17.51,-0.32,0.42,0.85,2.8,5.0,-0.4,36.44,,,,,,,,,,
14.11.09.918,-144.1,36.0,0,16.0,,59008.7,16.95,-0.32,0.4,0.86,2.1,6.6,-1.1,36.44,,,,,,,,,,
14.11.09.927,-160.1,40.0,0,16.0,,46037.9,21.72,-0.31,0.4,0.86,1.6,5.6,-1.8,36.44,,,,,,,,,,
14.11.09.939,-106.9,26.7,0,16.0,,53732.5,18.61,-0.3,0.41,0.86,0.6,6.7,-2.2,36.44,,,,,,,,,,
14.11.09.951,-164.6,41.2,0,16.0,,57702.4,17.33,-0.31,0.4,0.86,1.1,8.2,-2.1,36.44,,,,,,,,,,
14.11.09.964,-178.4,44.6,0,16.0,,57181.3,17.49,-0.3,0.41,0.85,1.7,7.9,-0.8,36.44,,,,,,,,,,
14.11.09.972,-197.0,49.2,0,16.0,,51583.3,19.39,-0.31,0.41,0.85,2.4,8.6,-0.1,36.44,,,,,,,,,,
14.11.09.984,110.9,27.7,1,17.0,107.9,53093.6,18.83,-0.3,0.41,0.85,0.8,8.0,-1.1,36.44,,,,,,,,,,
14.11.09.996,228.9,57.2,0,17.0,,54869.7,18.22,-0.31,0.41,0.86,-0.9,6.3,-2.5,36.44,,,,,,,,,,
14.11.10.005,290.3,72.6,0,17.0,,55591.0,17.99,-0.31,0.4,0.85,-1.0,6.6,-2.9,36.44,,,,,,,,,,
14.11.10.017,312.8,78.2,0,17.0,,55791.0,17.92,-0.32,0.4,0.86,-0.1,7.5,-2.0,36.44,,,,,,,,,,
14.11.10.029,424.0,106.0,0,17.0,,54153.8,18.47,-0.32,0.39,0.86,0.5,8.5,-1.9,36.44,,,,,,,,,,
14.11.10.037,423.0,105.8,0,17.0,,53026.3,18.86,-0.32,0.39,0.86,0.4,8.5,-2.2,36.44,,,,,,,,,,
14.11.10.050,493.1,123.3,0,17.0,,53520.2,18.68,-0.33,0.39,0.85,0.5,8.9,-2.6,36.44,,,,,,,,,,
14.11.10.062,494.6,123.6,0,17.0,,61278.7,16.32,-0.33,0.4,0.86,0.6,8.9,-3.0,36.44,,,,,,,,,,
14.11.10.074,475.7,118.9,0,17.0,,51683.5,19.35,-0.33,0.4,0.86,0.2,8.5,-3.1,36.44,,,,,,,,,,
14.11.10.082,493.8,123.4,0,17.0,,53117.6,18.83,-0.32,0.4,0.86,-1.0,6.6,-3.4,36.44,,,,,,,,,,
14.11.10.095,394.5,98.6,0,17.0,,57561.6,17.37,-0.32,0.39,0.86,-0.9,5.7,-3.1,36.44,,,,,,,,,,
14.11.10.107,434.3,108.6,0,17.0,,54003.8,18.52,-0.31,0.39,0.86,0.3,5.2,-0.9,36.44,,,,,,,,,,
14.11.10.115,473.4,118.4,0,17.0,,53331.5,18.75,-0.32,0.4,0.85,2.4,8.1,0.5,36.44,,,,,,,,,,
14.11.10.128,263.0,65.8,0,17.0,,52655.5,18.99,-0.32,0.41,0.84,3.6,8.8,1.0,36.44,,,,,,,,,,
14.11.10.140,172.7,43.2,0,17.0,,57376.4,17.43,-0.32,0.42,0.84,3.0,8.4,-0.5,36.44,,,,,,,,,,
14.11.10.148,138.0,34.5,0,17.0,,55817.7,17.92,-0.33,0.41,0.84,0.5,9.5,-3.5,36.44,,,,,,,,,,
14.11.10.189,-6.2,1.6,0,17.0,,57950.9,17.26,-0.34,0.4,0.86,0.5,3.6,0.3,36.38,,,,,,,,,,
14.11.10.201,27.4,6.8,0,17.0,,53415.5,18.72,-0.33,0.4,0.85,0.5,3.4,1.5,36.38,,,,,,,,,,
14.11.10.214,74.7,18.7,0,17.0,,60287.3,16.59,-0.32,0.41,0.85,0.8,3.5,2.1,36.38,,,,,,,,,,
14.11.10.222,23.2,5.8,0,17.0,,53163.0,18.81,-0.31,0.4,0.85,0.7,3.4,2.5,36.38,,,,,,,,,,
14.11.10.234,113.8,28.4,0,17.0,,53892.1,18.56,-0.31,0.4,0.85,0.5,4.7,1.9,36.38,,,,,,,,,,
14.11.10.246,56.0,14.0,0,17.0,,59831.5,16.71,-0.31,0.4,0.84,1.0,4.4,1.0,36.38,,,,,,,,,,
14.11.10.254,107.5,26.9,0,17.0,,54823.6,18.24,-0.31,0.4,0.86,0.9,3.0,-0.2,36.38,,,,,,,,,,
14.11.10.267,76.5,19.1,0,17.0,,54397.0,18.38,-0.31,0.4,0.87,0.3,2.2,-2.2,36.38,,,,,,,,,,
14.11.10.279,3.7,0.9,0,17.0,,49790.8,20.08,-0.31,0.39,0.86,1.0,2.1,-2.4,36.38,,,,,,,,,,
14.11.10.291,-21.2,5.3,0,17.0,,54079.8,18.49,-0.31,0.4,0.86,2.3,2.4,-1.1,36.38,,,,,,,,,,
14.11.10.300,24.0,6.0,0,17.0,,58565.3,17.07,-0.31,0.4,0.87,2.8,3.8,0.4,36.38,,,,,,,,,,
14.11.10.312,15.3,3.8,0,17.0,,51750.2,19.32,-0.31,0.4,0.86,2.8,4.6,0.3,36.38,,,,,,,,,,
14.11.10.324,-14.7,3.7,0,17.0,,47858.4,20.89,-0.31,0.41,0.85,2.6,6.3,-0.2,36.38,,,,,,,,,,
14.11.10.336,-29.9,7.5,0,17.0,,54573.6,18.32,-0.31,0.41,0.85,1.6,7.3,-0.8,36.38,,,,,,,,,,
14.11.10.345,-78.0,19.5,0,17.0,,48669.6,20.55,-0.31,0.41,0.86,0.4,7.1,-1.8,36.38,,,,,,,,,,
14.11.10.357,-117.9,29.5,0,17.0,,56675.6,17.64,-0.32,0.41,0.85,0.0,5.5,-2.3,36.38,,,,,,,,,,
14.11.10.369,-100.4,25.1,0,17.0,,56803.5,17.6,-0.32,0.41,0.86,0.8,5.8,-1.7,36.38,109.4,,,,,,,,,
14.11.10.381,-95.1,23.8,0,17.0,,60932.0,16.41,-0.32,0.41,0.86,0.5,7.0,-1.0,36.38,,,,,,,,,,
14.11.10.394,-54.6,13.6,0,17.0,,56634.6,17.66,-0.32,0.41,0.85,0.8,7.6,-0.5,36.38,,,,,,,,,,
14.11.10.402,-70.9,17.7,0,17.0,,56320.7,17.76,-0.32,0.4,0.85,0.2,7.8,0.0,36.38,,,,,,,,,,
14.11.10.414,-74.6,18.6,0,17.0,,52262.5,19.13,-0.32,0.41,0.85,0.2,8.1,-0.2,36.38,,,,,,,,,,
14.11.10.422,-44.6,11.2,0,17.0,,49236.0,20.31,-0.32,0.4,0.84,-0.3,8.8,-0.3,36.38,,,,,,,,,,
14.11.10.435,-153.5,38.4,0,17.0,,53012.1,18.86,-0.32,0.41,0.85,-1.0,7.6,-0.8,36.38,,,,,,,,,,
14.11.10.447,-125.0,31.2,0,17.0,,56116.6,17.82,-0.31,0.4,0.85,-1.1,5.6,-0.8,36.38,,,,,,,,,,
14.11.10.455,-120.9,30.2,0,17.0,,57811.8,17.3,-0.31,0.4,0.86,-0.1,6.0,-0.3,36.38,,,,,,,,,,
14.11.10.468,-122.2,30.6,0,17.0,,56070.1,17.83,-0.32,0.39,0.86,1.9,7.6,1.1,36.38,,,,,,,,,,
14.11.10.476,-119.5,29.9,0,17.0,,55276.7,18.09,-0.32,0.4,0.85,2.7,8.0,0.9,36.38,,,,,,,,,,
14.11.10.489,-190.7,47.7,0,17.0,,58726.7,17.03,-0.32,0.41,0.86,2.5,8.8,0.0,36.38,,,,,,,,,,
14.11.10.496,-154.6,38.6,0,17.0,,54103.6,18.48,-0.32,0.42,0.85,1.0,8.4,-1.1,36.38,,,,,,,,,,
14.11.10.509,-181.1,45.3,0,17.0,,57535.1,17.38,-0.32,0.42,0.84,-0.2,6.6,-1.3,36.38,,,,,,,,,,
14.11.10.517,-196.0,49.0,0,17.0,,52297.6,19.12,-0.32,0.41,0.84,-0.3,6.5,-0.1,36.38,,,,,,,,,,
14.11.10.529,-248.0,62.0,0,17.0,,57256.0,17.47,-0.33,0.41,0.84,0.5,6.9,1.6,36.38,,,,,,,,,,
14.11.10.537,-3.4,0.8,1,18.0,108.1,53326.4,18.75,-0.34,0.41,0.85,0.2,6.5,1.8,36.38,,,,,,,,,,
14.11.10.550,128.1,32.0,0,18.0,,53959.2,18.53,-0.33,0.38,0.85,-1.6,4.4,0.3,36.38,,,,,,,,,,
14.11.10.558,240.2,60.0,0,18.0,,55934.9,17.88,-0.32,0.39,0.86,-2.0,1.3,-0.8,36.38,,,,,,,,,,
14.11.10.570,239.5,59.9,0,18.0,,57765.1,17.31,-0.31,0.39,0.86,0.3,3.8,0.4,36.38,,,,,,,,,,
14.11.10.582,332.0,83.0,0,18.0,,56439.3,17.72,-0.31,0.39,0.85,2.8,5.9,2.5,36.38,,,,,,,,,,
14.11.10.591,337.2,84.3,0,18.0,,56254.1,17.78,-0.32,0.41,0.85,4.2,5.2,3.3,36.38,,,,,,,,,,
14.11.10.603,486.0,121.5,0,18.0,,54531.3,18.34,-0.32,0.41,0.85,3.1,5.2,2.0,36.38,,,,,,,,,,
14.11.10.611,439.4,109.8,0,18.0,,55694.8,17.95,-0.31,0.41,0.85,1.1,3.0,-0.3,36.38,,,,,,,,,,
14.11.10.623,470.5,117.6,0,18.0,,50825.5,19.68,-0.31,0.39,0.85,0.4,1.4,-1.5,36.38,,,,,,,,,,
14.11.10.631,455.2,113.8,0,18.0,,56402.8,17.73,-0.31,0.39,0.86,1.7,1.7,-1.0,36.38,,,,,,,,,,
14.11.10.644,514.5,128.6,0,18.0,,54887.3,18.22,-0.32,0.41,0.87,4.7,2.3,1.5,36.38,,,,,,,,,,
14.11.10.652,431.9,108.0,0,18.0,,50459.8,19.82,-0.32,0.41,0.85,6.0,5.1,3.1,36.38,,,,,,,,,,
14.11.10.660,462.3,115.6,0,18.0,,50645.9,19.74,-0.33,0.43,0.85,4.4,2.7,3.4,36.38,,,,,,,,,,
14.11.10.672,443.8,111.0,0,18.0,,60412.7,16.55,-0.32,0.41,0.85,2.4,2.1,1.2,36.38,,,,,,,,,,
14.11.10.681,412.1,103.0,0,18.0,,56783.0,17.61,-0.31,0.41,0.86,1.0,1.5,0.1,36.38,,,,,,,,,,
14.11.10.693,241.1,60.3,0,18.0,,55996.6,17.86,-0.3,0.4,0.85,1.9,1.1,0.4,36.38,,,,,,,,,,
14.11.10.705,272.4,68.1,0,18.0,,51700.0,19.34,-0.31,0.41,0.84,3.4,2.7,2.0,36.38,,,,,,,,,,
14.11.10.713,176.4,44.1,0,18.0,,59585.4,16.78,-0.32,0.42,0.84,3.8,2.3,2.8,36.38,,,,,,,,,,
14.11.10.726,42.2,10.6,0,18.0,,51631.0,19.37,-0.31,0.42,0.85,2.4,2.8,2.1,36.38,,,,,,,,,,
14.11.10.734,-58.8,14.7,0,18.0,,54686.2,18.29,-0.31,0.43,0.85,0.1,2.7,0.5,36.38,,,,,,,,,,
14.11.10.746,27.4,6.8,0,18.0,,54921.5,18.21,-0.3,0.4,0.85,-1.2,3.3,0.2,36.38,,,,,,,,,,
14.11.10.754,63.8,16.0,0,18.0,,46261.3,21.62,-0.31,0.43,0.87,0.2,2.0,2.2,36.38,,,,,,,,,,
14.11.10.767,62.1,15.5,0,18.0,,53546.8,18.68,-0.29,0.39,0.84,2.7,7.7,2.8,36.38,,,,,,,,,,
14.11.10.775,158.9,39.7,0,18.0,,56835.3,17.59,-0.31,0.42,0.87,1.9,4.2,2.3,36.38,,,,,,,,,,
14.11.10.787,43.1,10.8,0,18.0,,56402.4,17.73,-0.29,0.39,0.84,1.2,8.6,-1.1,36.38,,,,,,,,,,
14.11.10.795,32.2,8.0,0,18.0,,53368.0,18.74,-0.31,0.43,0.86,-0.1,4.4,-2.4,36.38,,,,,,,,,,
14.11.10.808,33.9,8.5,0,18.0,,53421.8,18.72,-0.3,0.43,0.85,0.9,7.4,-1.3,36.38,,,,,,,,,,
14.11.10.816,85.4,21.4,0,18.0,,53923.5,18.54,-0.31,0.43,0.85,0.5,8.5,-0.2,36.38,,,,,,,,,,
14.11.10.828,10.1,2.5,0,18.0,,54594.0,18.32,-0.31,0.43,0.85,-0.5,7.0,-0.2,36.38,,,,,,,,,,
14.11.10.836,47.5,11.9,0,18.0,,53094.3,18.83,-0.31,0.42,0.85,-2.1,7.9,-1.7,36.38,,,,,,,,,,
14.11.10.849,4.0,1.0,0,18.0,,55644.8,17.97,-0.32,0.4,0.85,-2.9,5.4,-3.0,36.38,,,,,,,,,,
14.11.10.857,6.4,1.6,0,18.0,,56111.1,17.82,-0.31,0.39,0.86,-2.8,4.6,-3.2,36.38,,,,,,,,,,
14.11.10.869,-22.5,5.6,0,18.0,,57121.3,17.51,-0.32,0.4,0.86,-0.6,5.7,-2.0,36.38,,,,,,,,,,
14.11.10.881,-10.4,2.6,0,18.0,,56724.1,17.63,-0.32,0.41,0.85,0.2,6.0,-1.4,36.38,,,,,,,,,,
14.11.10.889,53.0,13.2,0,18.0,,59114.3,16.92,-0.31,0.41,0.85,-0.1,5.6,-1.5,36.38,,,,,,,,,,
14.11.10.902,-40.6,10.2,0,18.0,,52816.4,18.93,-0.31,0.41,0.85,-1.0,5.5,-2.2,36.38,,,,,,,,,,
14.11.10.910,-17.7,4.4,0,18.0,,55146.6,18.13,-0.31,0.42,0.84,-1.0,4.5,-1.8,36.38,,,,,,,,,,
14.11.10.922,-46.2,11.6,0,18.0,,52322.8,19.11,-0.31,0.41,0.85,-1.1,4.4,-0.9,36.38,,,,,,,,,,
14.11.10.930,-97.4,24.4,0,18.0,,53461.1,18.71,-0.32,0.41,0.86,-1.4,3.9,-0.8,36.38,,,,,,,,,,
14.11.10.943,-101.0,25.2,0,18.0,,54015.6,18.51,-0.33,0.42,0.86,-2.4,3.6,-0.6,36.38,,,,,,,,,,
14.11.10.951,-121.6,30.4,0,18.0,,52809.3,18.94,-0.33,0.42,0.86,-3.6,3.6,-0.1,36.38,,,,,,,,,,
14.11.10.988,-78.5,19.6,0,18.0,,57683.6,17.34,-0.32,0.41,0.86,-4.2,3.7,0.6,36.44,,,,,,,,,,
14.11.11.000,-92.1,23.0,0,18.0,,54789.7,18.25,-0.3,0.37,0.87,-1.3,1.4,4.4,36.44,,,,,,,,,,
14.11.11.008,-139.6,34.9,0,18.0,,54576.2,18.32,-0.3,0.37,0.87,1.0,1.6,5.9,36.44,,,,,,,,,,
14.11.11.021,-99.6,24.9,0,18.0,,56363.4,17.74,-0.28,0.38,0.88,4.4,2.1,6.9,36.44,,,,,,,,,,
14.11.11.029,-193.2,48.3,0,18.0,,56191.3,17.8,-0.3,0.35,0.86,7.8,6.2,5.8,36.44,,,,,,,,,,
14.11.11.041,-154.3,38.6,0,18.0,,54186.2,18.45,-0.29,0.36,0.87,9.6,7.1,5.5,36.44,,,,,,,,,,
14.11.11.049,-132.5,33.1,0,18.0,,54439.2,18.37,-0.3,0.41,0.87,13.1,13.3,6.1,36.44,,,,,,,,,,
14.11.11.062,-173.8,43.4,0,18.0,,61705.1,16.21,-0.29,0.44,0.85,15.3,21.7,7.7,36.44,,,,,,,,,,
14.11.11.070,-145.7,36.4,0,18.0,,52998.7,18.87,-0.28,0.46,0.87,13.8,23.2,8.6,36.44,,,,,,,,,,
14.11.11.082,-170.9,42.7,0,18.0,,53648.3,18.64,-0.28,0.45,0.86,13.3,26.7,8.3,36.44,,,,,,,,,,
14.11.11.090,-140.9,35.2,0,18.0,,51591.5,19.38,-0.29,0.44,0.87,14.4,30.5,11.2,36.44,,,,,,,,,,
14.11.11.103,11.4,2.8,1,19.0,104.7,57717.2,17.33,-0.31,0.45,0.9,11.4,35.8,20.8,36.44,,,,,,,,,,
14.11.11.115,82.6,20.6,0,19.0,,50536.6,19.79,-0.28,0.42,0.86,9.1,43.9,29.3,36.44,,,,,,,,,,
14.11.11.123,209.9,52.5,0,19.0,,55489.4,18.02,-0.33,0.39,0.82,13.8,44.9,29.3,36.44,,,,,,,,,,
14.11.11.135,236.5,59.1,0,19.0,,50950.3,19.63,-0.29,0.43,0.84,16.3,38.1,29.2,36.44,,,,,,,,,,
14.11.11.143,292.0,73.0,0,19.0,,60137.8,16.63,-0.27,0.41,0.84,16.0,31.7,20.8,36.44,,,,,,,,,,
14.11.11.156,381.7,95.4,0,19.0,,48581.3,20.58,-0.25,0.44,0.83,18.5,20.2,6.6,36.44,,,,,,,,,,
14.11.11.164,429.8,107.4,0,19.0,,51948.4,19.25,-0.26,0.44,0.82,11.3,17.7,-0.8,36.44,,,,,,,,,,
14.11.11.176,467.7,116.9,0,19.0,,53786.0,18.59,-0.28,0.48,0.82,7.9,17.1,-0.2,36.44,,,,,,,,,,
14.11.11.189,525.0,131.2,0,19.0,,58302.9,17.15,-0.31,0.52,0.82,7.5,24.0,6.0,36.44,,,,,,,,,,
14.11.11.197,473.0,118.2,0,19.0,,48989.4,20.41,-0.3,0.52,0.82,0.4,25.4,10.1,36.44,,,,,,,,,,
14.11.11.209,450.2,112.6,0,19.0,,54238.5,18.44,-0.31,0.49,0.85,-8.9,23.6,7.6,36.44,,,,,,,,,,
14.11.11.217,519.8,130.0,0,19.0,,51869.8,19.28,-0.3,0.48,0.87,-18.0,23.8,6.7,36.44,,,,,,,,,,
14.11.11.229,403.0,100.8,0,19.0,,55507.8,18.02,-0.3,0.44,0.86,-24.5,23.3,8.5,36.44,,,,,,,,,,
14.11.11.242,438.7,109.7,0,19.0,,54588.6,18.32,-0.32,0.39,0.88,-25.7,22.6,12.4,36.44,,,,,,,,,,
14.11.11.250,350.9,87.7,0,19.0,,54140.3,18.47,-0.35,0.37,0.88,-23.8,31.6,18.3,36.44,,,,,,,,,,
14.11.11.262,252.8,63.2,0,19.0,,53820.0,18.58,-0.36,0.37,0.86,-19.0,35.6,23.3,36.44,,,,,,,,,,
14.11.11.271,221.0,55.2,0,19.0,,53657.9,18.64,-0.35,0.35,0.89,-22.9,31.9,28.0,36.44,,,,,,,,,,
14.11.11.283,121.3,30.3,0,19.0,,50942.8,19.63,-0.35,0.33,0.91,-27.2,33.2,24.2,36.44,,,,,,,,,,
14.11.11.291,40.5,10.1,0,19.0,,47343.4,21.12,-0.41,0.32,0.92,-40.2,38.3,23.0,36.44,,,,,,,,,,
14.11.11.303,49.6,12.4,0,19.0,,53178.9,18.8,-0.37,0.26,0.92,-44.4,33.6,16.8,36.44,,,,,,,,,,
14.11.11.316,161.0,40.2,0,19.0,,55266.2,18.09,-0.38,0.24,0.92,-41.2,33.4,11.2,36.44,,,,,,,,,,
14.11.11.324,32.7,8.2,0,19.0,,56368.2,17.74,-0.4,0.24,0.96,-37.6,42.9,6.0,36.44,,,,,,,,,,
14.11.11.336,1.9,0.5,0,19.0,,52480.0,19.05,-0.42,0.25,0.96,-33.6,40.3,3.3,36.44,,,,,,,,,,
14.11.11.344,69.8,17.4,0,19.0,,57307.7,17.45,-0.43,0.26,0.98,-32.5,41.7,1.6,36.44,,,,,,,,,,
14.11.11.356,89.6,22.4,0,19.0,,49520.5,20.19,-0.42,0.27,0.98,-34.9,43.1,-1.0,36.44,,,,,,,,,,
14.11.11.365,92.6,23.2,0,19.0,,55678.2,17.96,-0.46,0.3,0.91,-40.0,42.0,-7.4,36.44,,,,,,,,,,
14.11.11.377,76.7,19.2,0,19.0,,57660.7,17.34,-0.42,0.32,0.94,-42.5,37.1,-15.6,36.44,,,,,,,,,,
14.11.11.385,51.7,12.9,0,19.0,,54073.9,18.49,-0.42,0.35,0.9,-44.7,47.8,-22.3,36.44,,,,,,,,,,
14.11.11.397,43.9,11.0,0,19.0,,53907.1,18.55,-0.44,0.36,0.81,-40.1,53.2,-23.9,36.44,,,,,,,,,,
14.11.11.410,-104.4,26.1,0,19.0,,54969.5,18.19,-0.41,0.4,0.77,-32.4,51.8,-21.8,36.44,,,,,,,,,,
14.11.11.418,-5.0,1.2,0,19.0,,52545.5,19.03,-0.4,0.44,0.73,-23.3,59.8,-18.6,36.44,,,,,,,,,,
14.11.11.430,-0.3,0.1,0,19.0,,59247.4,16.88,-0.41,0.48,0.68,-16.2,68.2,-16.0,36.44,,,,,,,,,,
14.11.11.438,16.5,4.1,0,19.0,,52548.5,19.03,-0.42,0.49,0.69,-13.4,67.7,-14.7,36.44,,,,,,,,,,
14.11.11.451,-32.3,8.1,0,19.0,,52737.7,18.96,-0.41,0.49,0.7,-16.3,66.3,-15.1,36.44,,,,,,,,,,
14.11.11.463,-2.5,0.6,0,19.0,,57192.6,17.48,-0.47,0.5,0.72,-18.2,69.6,-14.9,36.44,,,,,,,,,,
14.11.11.471,-90.4,22.6,0,19.0,,54929.4,18.21,-0.49,0.48,0.71,-18.5,69.4,-13.3,36.44,,,,,,,,,,
14.11.11.483,-63.9,16.0,0,19.0,,54956.1,18.2,-0.5,0.43,0.72,-19.3,67.0,-11.9,36.44,,,,,,,,,,
14.11.11.492,-86.4,21.6,0,19.0,,52161.0,19.17,-0.53,0.38,0.73,-16.5,65.7,-10.0,36.44,,,,,,,,,,
14.11.11.504,-32.1,8.0,0,19.0,,51314.7,19.49,-0.55,0.34,0.7,-9.8,68.6,-6.9,36.44,,,,,,,,,,
14.11.11.516,-86.2,21.6,0,19.0,,54235.6,18.44,-0.58,0.34,0.69,-0.9,70.1,-0.9,36.44,,,,,,,,,,
14.11.11.524,-82.6,20.6,0,19.0,,50610.4,19.76,-0.6,0.37,0.68,7.0,69.6,5.1,36.44,,,,,,,,,,
14.11.11.537,-100.3,25.1,0,19.0,,56356.3,17.74,-0.6,0.37,0.67,9.8,68.7,8.0,36.44,,,,,,,,,,
14.11.11.545,-109.5,27.4,0,19.0,,52902.0,18.9,-0.56,0.38,0.64,9.2,68.0,9.6,36.44,,,,,,,,,,
14.11.11.557,-66.3,16.6,0,19.0,,52067.5,19.21,-0.56,0.4,0.62,9.3,69.1,12.5,36.44,,,,,,,,,,
14.11.11.566,-101.6,25.4,0,19.0,,58789.8,17.01,-0.58,0.41,0.63,11.2,70.7,16.2,36.44,,,,,,,,,,
14.11.11.578,-173.1,43.3,0,19.0,,56559.3,17.68,-0.56,0.42,0.63,13.2,69.8,20.2,36.44,,,,,,,,,,
14.11.11.586,-132.6,33.2,0,19.0,,51243.7,19.51,-0.56,0.43,0.65,13.7,64.1,23.3,36.44,,,,,,,,,,
14.11.11.598,-114.4,28.6,0,19.0,,51045.0,19.59,-0.57,0.45,0.67,12.9,58.6,24.7,36.44,,,,,,,,,,
14.11.11.606,-138.9,34.7,0,19.0,,51108.5,19.57,-0.55,0.44,0.68,13.3,54.7,24.6,36.44,,,,,,,,,,
14.11.11.619,-169.7,42.4,0,19.0,,56905.3,17.57,-0.54,0.42,0.68,15.2,49.9,24.1,36.44,,,,,,,,,,
14.11.11.631,-192.5,48.1,0,19.0,,52607.8,19.01,-0.54,0.39,0.67,19.5,49.9,24.4,36.44,,,,,,,,,,
14.11.11.639,-214.7,53.7,0,19.0,,56848.5,17.59,-0.52,0.38,0.64,27.2,52.8,27.0,36.44,,,,,,,,,,
14.11.11.652,-183.8,46.0,0,19.0,,51642.1,19.36,-0.51,0.38,0.62,35.7,50.5,31.8,36.44,,,,,,,,,,
14.11.11.660,-205.0,51.2,0,19.0,,56073.7,17.83,-0.51,0.39,0.62,42.0,51.6,36.8,36.44,,,,,,,,,,
14.11.11.672,84.5,21.1,1,20.0,103.3,60860.7,16.43,-0.51,0.38,0.63,44.9,56.4,39.9,36.44,,,,,,,,,,
14.11.11.680,82.7,20.7,0,20.0,,54165.5,18.46,-0.51,0.4,0.64,43.9,56.9,41.9,36.44,,,,,,,,,,
14.11.11.692,179.8,45.0,0,20.0,,52307.5,19.12,-0.53,0.41,0.65,39.9,57.6,42.5,36.44,,,,,,,,,,
14.11.11.701,256.2,64.0,0,20.0,,52617.9,19.0,-0.56,0.44,0.65,33.3,55.9,41.5,36.44,,,,,,,,,,
14.11.11.713,376.8,94.2,0,20.0,,56737.2,17.63,-0.6,0.48,0.66,26.2,57.5,37.3,36.44,,,,,,,,,,
14.11.11.725,465.3,116.3,0,20.0,,51522.7,19.41,-0.63,0.48,0.65,17.2,56.2,29.5,36.44,,,,,,,,,,
14.11.11.733,430.9,107.7,0,20.0,,55244.0,18.1,-0.67,0.51,0.68,8.9,52.1,20.1,36.44,,,,,,,,,,
14.11.11.746,484.3,121.1,0,20.0,,60940.5,16.41,-0.72,0.5,0.72,6.9,46.5,9.1,36.44,,,,,,,,,,
14.11.11.754,571.1,142.8,0,20.0,,59438.5,16.82,-0.76,0.44,0.8,13.6,39.6,1.2,36.44,,,,,,,,,,
14.11.11.791,425.6,106.4,0,20.0,,57562.5,17.37,-0.75,0.47,0.8,23.6,40.6,1.6,36.44,,,,,,,,,,
14.11.11.803,419.5,104.9,0,20.0,,55270.0,18.09,-0.75,0.48,0.77,44.7,32.1,16.5,36.44,,,,,,,,,,
14.11.11.815,304.1,76.0,0,20.0,,52706.7,18.97,-0.73,0.52,0.71,43.7,32.8,23.9,36.44,,,,,,,,,,
14.11.11.828,276.9,69.2,0,20.0,,54266.0,18.43,-0.73,0.55,0.71,38.5,32.9,26.2,36.44,,,,,,,,,,
14.11.11.836,167.4,41.8,0,20.0,,47863.1,20.89,-0.74,0.53,0.7,33.7,31.2,17.9,36.44,,,,,,,,,,
14.11.11.848,110.6,27.6,0,20.0,,52090.5,19.2,-0.74,0.5,0.7,30.2,27.2,6.9,36.44,,,,,,,,,,
14.11.11.856,45.9,11.5,0,20.0,,59471.2,16.81,-0.71,0.49,0.68,29.0,25.4,0.5,36.44,,,,,,,,,,
14.11.11.869,15.0,3.8,0,20.0,,62376.7,16.03,-0.7,0.47,0.64,26.6,26.4,-3.3,36.44,,,,,,,,,,
14.11.11.877,-21.0,5.2,0,20.0,,53957.8,18.53,-0.68,0.43,0.62,24.4,25.1,-7.8,36.44,,,,,,,,,,
14.11.11.889,84.8,21.2,0,20.0,,44803.6,22.32,-0.68,0.42,0.61,24.0,25.7,-13.1,36.44,,,,,,,,,,
14.11.11.897,68.7,17.2,0,20.0,,53947.9,18.54,-0.68,0.4,0.56,25.3,25.3,-16.3,36.44,,,,,,,,,,
14.11.11.910,110.7,27.7,0,20.0,,59025.3,16.94,-0.67,0.37,0.55,25.6,22.1,-18.0,36.44,,,,,,,,,,
14.11.11.922,86.8,21.7,0,20.0,,57344.3,17.44,-0.66,0.35,0.53,24.8,21.7,-17.3,36.44,,,,,,,,,,
14.11.11.930,118.3,29.6,0,20.0,,58962.3,16.96,-0.67,0.37,0.53,27.4,23.3,-12.5,36.44,,,,,,,,,,
14.11.11.942,51.4,12.8,0,20.0,,54284.1,18.42,-0.7,0.4,0.51,32.6,26.1,-5.7,36.44,,,,,,,,,,
14.11.11.951,57.9,14.5,0,20.0,,54711.0,18.28,-0.7,0.41,0.5,35.5,23.5,-1.8,36.44,,,,,,,,,,
14.11.11.963,11.1,2.8,0,20.0,,52003.1,19.23,-0.69,0.46,0.51,36.7,19.1,-2.2,36.44,,,,,,,,,,
14.11.11.971,-17.5,4.4,0,20.0,,56273.1,17.77,-0.69,0.49,0.51,37.9,18.2,-6.3,36.44,,,,,,,,,,
14.11.11.983,18.8,4.7,0,20.0,,53734.2,18.61,-0.69,0.52,0.5,37.1,15.5,-10.7,36.44,,,,,,,,,,
14.11.11.996,-35.5,8.9,0,20.0,,55228.6,18.11,-0.7,0.55,0.51,36.7,14.6,-13.4,36.44,,,,,,,,,,
14.11.12.004,50.8,12.7,0,20.0,,55670.0,17.96,-0.71,0.56,0.49,36.5,12.9,-14.1,36.44,,,,,,,,,,
14.11.12.016,-16.5,4.1,0,20.0,,53569.7,18.67,-0.69,0.56,0.47,35.6,7.4,-14.7,36.44,,,,,,,,,,
14.11.12.024,-32.0,8.0,0,20.0,,59228.0,16.88,-0.69,0.56,0.46,33.9,8.8,-14.5,36.44,,,,,,,,,,
14.11.12.037,-30.4,7.6,0,20.0,,56499.3,17.7,-0.68,0.53,0.45,32.3,12.4,-10.5,36.44,,,,,,,,,,
14.11.12.045,-30.7,7.7,0,20.0,,53885.9,18.56,-0.66,0.53,0.44,32.5,12.7,-4.1,36.44,,,,,,,,,,
14.11.12.057,-8.2,2.0,0,20.0,,52076.6,19.2,-0.66,0.55,0.43,34.5,15.5,1.9,36.44,,,,,,,,,,
14.11.12.065,-99.4,24.8,0,20.0,,51239.4,19.52,-0.67,0.57,0.43,35.3,17.9,2.7,36.44,,,,,,,,,,
14.11.12.077,-117.1,29.3,0,20.0,,52085.1,19.2,-0.65,0.57,0.42,32.3,19.1,-3.2,36.44,,,,,,,,,,
14.11.12.086,-96.9,24.2,0,20.0,,53217.9,18.79,-0.65,0.58,0.44,28.5,19.5,-10.0,36.44,,,,,,,,,,
14.11.12.098,-52.3,13.1,0,20.0,,52226.7,19.15,-0.65,0.59,0.44,26.1,19.5,-14.7,36.44,,,,,,,,,,
14.11.12.110,-90.8,22.7,0,20.0,,50547.7,19.78,-0.67,0.61,0.42,24.9,18.4,-17.3,36.44,,,,,,,,,,
14.11.12.118,-130.5,32.6,0,20.0,,58218.7,17.18,-0.68,0.58,0.42,23.5,18.3,-20.4,36.44,,,,,,,,,,
14.11.12.131,-114.8,28.7,0,20.0,,53507.3,18.69,-0.67,0.56,0.42,21.9,19.0,-22.2,36.44,,,,,,,,,,
14.11.12.139,-107.5,26.9,0,20.0,,56829.8,17.6,-0.66,0.55,0.42,21.2,19.1,-21.0,36.44,,,,,,,,,,
14.11.12.151,-122.0,30.5,0,20.0,,53428.3,18.72,-0.68,0.55,0.44,22.0,19.6,-18.1,36.44,,,,,,,,,,
14.11.12.160,-161.2,40.3,0,20.0,,49698.1,20.12,-0.68,0.54,0.43,21.5,19.9,-15.4,36.44,,,,,,,,,,
14.11.12.172,-164.9,41.2,0,20.0,,49383.0,20.25,-0.68,0.56,0.45,19.9,18.8,-15.4,36.44,,,,,,,,,,
14.11.12.180,-132.7,33.2,0,20.0,,51282.1,19.5,-0.7,0.56,0.45,18.8,18.8,-17.3,36.44,,,,,,,,,,
14.11.12.193,-222.8,55.7,0,20.0,,56450.3,17.71,-0.71,0.55,0.44,17.2,16.7,-20.6,36.44,,,,,,,,,,
14.11.12.201,-112.5,28.1,0,20.0,,54560.8,18.33,-0.7,0.54,0.45,14.7,13.2,-23.1,36.44,,,,,,,,,,
14.11.12.213,-144.7,36.2,0,20.0,,57276.8,17.46,-0.71,0.52,0.45,14.2,11.2,-24.7,36.44,,,,,,,,,,
14.11.12.221,-160.8,40.2,0,20.0,,54216.1,18.44,-0.72,0.49,0.43,13.7,9.2,-25.5,36.44,,,,,,,,,,
14.11.12.233,47.2,11.8,1,21.0,110.1,52972.8,18.88,-0.73,0.48,0.42,13.7,7.7,-24.5,36.44,,,,,,,,,,
14.11.12.241,98.7,24.7,0,21.0,,56971.2,17.55,-0.74,0.48,0.42,15.4,6.4,-21.0,36.44,,,,,,,,,,
14.11.12.254,230.0,57.5,0,21.0,,56512.0,17.7,-0.75,0.47,0.41,17.2,4.6,-18.1,36.44,,,,,,,,,,
14.11.12.262,258.3,64.6,0,21.0,,55359.3,18.06,-0.74,0.47,0.4,17.9,1.8,-17.4,36.44,,,,,,,,,,
14.11.12.274,291.2,72.8,0,21.0,,56850.0,17.59,-0.74,0.47,0.4,18.7,-2.2,-19.1,36.44,,,,,,,,,,
14.11.12.282,420.6,105.2,0,21.0,,51168.5,19.54,-0.72,0.45,0.4,20.2,-4.4,-21.1,36.44,,,,,,,,,,
14.11.12.295,412.5,103.1,0,21.0,,53805.6,18.59,-0.71,0.44,0.39,23.6,-6.2,-21.2,36.44,,,,,,,,,,
14.11.12.303,496.7,124.2,0,21.0,,57510.1,17.39,-0.72,0.43,0.38,27.6,-7.7,-19.3,36.44,,,,,,,,,,
14.11.12.315,492.5,123.1,0,21.0,,54513.5,18.34,-0.71,0.43,0.37,31.7,-9.9,-17.5,36.44,,,,,,,,,,
14.11.12.323,518.5,129.6,0,21.0,,57879.9,17.28,-0.69,0.44,0.36,35.4,-12.0,-17.0,36.44,,,,,,,,,,
14.11.12.336,462.3,115.6,0,21.0,,57019.0,17.54,-0.69,0.45,0.36,38.3,-13.0,-17.2,36.44,,,,,,,,,,
14.11.12.344,436.8,109.2,0,21.0,,58198.7,17.18,-0.68,0.46,0.36,41.1,-12.4,-17.6,36.44,,,,,,,,,,
14.11.12.356,389.1,97.3,0,21.0,,59473.7,16.81,-0.69,0.47,0.36,43.9,-10.8,-17.7,36.44,,,,,,,,,,
14.11.12.364,448.7,112.2,0,21.0,,52413.1,19.08,-0.68,0.49,0.36,45.8,-10.7,-18.4,36.44,,,,,,,,,,
14.11.12.377,360.9,90.2,0,21.0,,62481.1,16.0,-0.68,0.51,0.37,46.6,-12.4,-20.4,36.44,,,,,,,,,,
14.11.12.389,275.8,69.0,0,21.0,,54772.1,18.26,-0.68,0.53,0.37,46.9,-13.0,-23.5,36.44,,,,,,,,,,
14.11.12.397,192.6,48.2,0,21.0,,55563.8,18.0,-0.7,0.54,0.37,46.6,-12.7,-25.8,36.44,,,,,,,,,,
14.11.12.409,146.6,36.6,0,21.0,,58550.3,17.08,-0.7,0.56,0.37,46.9,-11.8,-26.2,36.44,,,,,,,,,,
14.11.12.418,106.0,26.5,0,21.0,,55344.1,18.07,-0.71,0.58,0.37,46.6,-11.0,-25.0,36.44,,,,,,,,,,
14.11.12.430,46.7,11.7,0,21.0,,55972.2,17.87,-0.73,0.58,0.37,46.1,-10.4,-23.5,36.44,,,,,,,,,,
14.11.12.438,81.4,20.4,0,21.0,,58555.0,17.08,-0.73,0.6,0.37,44.6,-9.6,-22.6,36.44,,,,,,,,,,
14.11.12.450,36.0,9.0,0,21.0,,49378.5,20.25,-0.74,0.61,0.38,43.4,-9.3,-22.5,36.44,,,,,,,,,,
14.11.12.458,35.3,8.8,0,21.0,,57496.9,17.39,-0.74,0.62,0.38,41.9,-9.0,-22.5,36.44,,,,,,,,,,
14.11.12.471,94.5,23.6,0,21.0,,54273.4,18.43,-0.74,0.62,0.37,39.7,-7.3,-23.6,36.44,,,,,,,,,,
14.11.12.479,106.3,26.6,0,21.0,,55647.3,17.97,-0.75,0.62,0.38,38.0,-5.6,-24.5,36.44,,,,,,,,,,
14.11.12.491,80.7,20.2,0,21.0,,57525.1,17.38,-0.76,0.63,0.38,36.9,-3.4,-25.1,36.44,,,,,,,,,,
14.11.12.499,66.3,16.6,0,21.0,,50169.7,19.93,-0.76,0.63,0.37,35.1,-2.5,-25.6,36.44,,,,,,,,,,
14.11.12.512,21.8,5.4,0,21.0,,48373.5,20.67,-0.76,0.63,0.37,33.0,-3.2,-27.4,36.44,,,,,,,,,,
14.11.12.520,56.9,14.2,0,21.0,,60300.2,16.58,-0.76,0.63,0.37,31.2,-3.0,-28.7,36.44,,,,,,,,,,
14.11.12.532,29.4,7.4,0,21.0,,56657.0,17.65,-0.77,0.63,0.37,30.7,-1.5,-29.4,36.44,,,,,,,,,,
14.11.12.540,36.5,9.1,0,21.0,,49304.7,20.28,-0.78,0.62,0.36,30.2,-0.2,-30.0,36.44,,,,,,,,,,
14.11.12.553,-17.8,4.4,0,21.0,,61775.2,16.19,-0.78,0.62,0.36,29.4,0.9,-29.3,36.44,,,,,,,,,,
14.11.12.561,-56.0,14.0,0,21.0,,54436.3,18.37,-0.78,0.62,0.37,28.3,2.2,-28.4,36.44,,,,,,,,,,
14.11.12.598,-72.4,18.1,0,21.0,,55223.1,18.11,-0.79,0.63,0.38,26.5,2.7,-27.7,36.38,,,,,,,,,,
14.11.12.610,-69.0,17.2,0,21.0,,57386.3,17.43,-0.79,0.6,0.39,18.1,4.4,-30.9,36.38,,,,,,,,,,
14.11.12.618,-91.9,23.0,0,21.0,,55563.0,18.0,-0.79,0.59,0.39,16.2,4.0,-30.4,36.38,,,,,,,,,,
14.11.12.631,-17.5,4.4,0,21.0,,48566.0,20.59,-0.79,0.59,0.39,14.8,3.7,-30.0,36.38,,,,,,,,,,
14.11.12.639,-74.2,18.6,0,21.0,,47680.2,20.97,-0.79,0.57,0.39,14.1,4.5,-31.1,36.38,,,,,,,,,,
14.11.12.651,-127.8,32.0,0,21.0,,63210.4,15.82,-0.79,0.56,0.38,13.3,4.7,-31.8,36.38,,,,,,,,,,
14.11.12.659,-127.6,31.9,0,21.0,,57811.9,17.3,-0.79,0.55,0.38,13.4,5.0,-31.5,36.38,,,,,,,,,,
14.11.12.672,-103.4,25.8,0,21.0,,55671.0,17.96,-0.81,0.54,0.38,13.7,5.8,-29.7,36.38,,,,,,,,,,
14.11.12.680,-81.0,20.2,0,21.0,,52040.8,19.22,-0.82,0.54,0.38,12.7,6.0,-26.3,36.38,,,,,,,,,,
14.11.12.692,-110.1,27.5,0,21.0,,54831.4,18.24,-0.82,0.53,0.37,11.3,4.5,-23.4,36.38,,,,,,,,,,
14.11.12.704,-75.3,18.8,0,21.0,,50640.0,19.75,-0.82,0.54,0.37,10.4,3.6,-23.0,36.38,,,,,,,,,,
14.11.12.713,-122.9,30.7,0,21.0,,57118.2,17.51,-0.82,0.52,0.36,9.4,2.8,-24.2,36.38,,,,,,,,,,
14.11.12.725,-151.1,37.8,0,21.0,,51608.5,19.38,-0.81,0.5,0.34,8.8,2.7,-24.6,36.38,,,,,,,,,,
14.11.12.737,-208.2,52.0,0,21.0,,52688.6,18.98,-0.81,0.48,0.35,9.4,2.6,-23.0,36.38,,,,,,,,,,
14.11.12.745,-149.9,37.5,0,21.0,,59588.6,16.78,-0.81,0.47,0.33,10.3,2.7,-19.6,36.38,,,,,,,,,,
14.11.12.757,-152.3,38.1,0,21.0,,53308.5,18.76,-0.8,0.46,0.34,10.5,2.9,-17.3,36.38,,,,,,,,,,
14.11.12.770,-169.9,42.5,0,21.0,,55381.2,18.06,-0.81,0.46,0.33,10.4,3.6,-15.8,36.38,,,,,,,,,,
14.11.12.782,-172.3,43.1,0,21.0,,52523.3,19.04,-0.81,0.45,0.33,9.9,3.0,-14.9,36.38,,,,,,,,,,
14.11.12.790,-170.0,42.5,0,21.0,,53806.8,18.59,-0.82,0.43,0.32,9.3,3.8,-13.3,36.38,,,,,,,,,,
14.11.12.803,80.3,20.1,1,22.0,107.3,51664.0,19.36,-0.82,0.43,0.33,9.9,4.3,-12.4,36.38,,,,,,,,,,
14.11.12.815,139.5,34.9,0,22.0,,62163.1,16.09,-0.82,0.41,0.31,10.4,4.6,-12.0,36.38,,,,,,,,,,
14.11.12.827,230.8,57.7,0,22.0,,51309.3,19.49,-0.81,0.4,0.31,12.1,5.4,-11.5,36.38,,,,,,,,,,
14.11.12.835,332.2,83.0,0,22.0,,56053.1,17.84,-0.81,0.39,0.31,13.7,6.0,-9.8,36.38,,,,,,,,,,
14.11.12.848,434.1,108.5,0,22.0,,56722.2,17.63,-0.81,0.39,0.31,16.2,6.1,-7.8,36.38,,,,,,,,,,
14.11.12.860,447.4,111.8,0,22.0,,55780.1,17.93,-0.82,0.39,0.32,17.3,6.6,-6.9,36.38,,,,,,,,,,
14.11.12.872,418.5,104.6,0,22.0,,54214.9,18.45,-0.82,0.39,0.3,17.5,7.4,-6.4,36.38,,,,,,,,,,
14.11.12.881,447.2,111.8,0,22.0,,54849.4,18.23,-0.82,0.39,0.31,16.9,7.9,-5.7,36.38,,,,,,,,,,
14.11.12.893,483.1,120.8,0,22.0,,56740.0,17.62,-0.81,0.39,0.32,16.4,7.9,-5.3,36.38,,,,,,,,,,
14.11.12.905,529.4,132.4,0,22.0,,50036.1,19.99,-0.81,0.39,0.32,15.5,8.2,-4.4,36.38,,,,,,,,,,
14.11.12.917,486.6,121.6,0,22.0,,50082.2,19.97,-0.8,0.39,0.32,13.8,9.2,-4.5,36.38,,,,,,,,,,
14.11.12.930,407.2,101.8,0,22.0,,52702.2,18.97,-0.8,0.39,0.33,12.4,9.7,-5.0,36.38,,,,,,,,,,
14.11.12.938,361.4,90.4,0,22.0,,53430.8,18.72,-0.8,0.39,0.33,11.1,10.5,-5.6,36.38,,,,,,,,,,
14.11.12.954,280.0,70.0,0,22.0,,52826.7,18.93,-0.81,0.4,0.33,9.6,10.7,-5.8,36.38,,,,,,,,,,
14.11.12.962,132.9,33.2,0,22.0,,54517.0,18.34,-0.81,0.4,0.32,8.8,11.2,-6.6,36.38,,,,,,,,,,
14.11.12.975,109.5,27.4,0,22.0,,53665.1,18.63,-0.81,0.4,0.32,7.4,11.6,-7.0,36.38,,,,,,,,,,
14.11.12.983,91.5,22.9,0,22.0,,53583.0,18.66,-0.81,0.41,0.33,5.7,11.3,-7.0,36.38,,,,,,,,,,
14.11.12.995,6.3,1.6,0,22.0,,52482.2,19.05,-0.8,0.42,0.33,4.5,11.1,-6.2,36.38,,,,,,,,,,
14.11.13.003,19.5,4.9,0,22.0,,55144.0,18.13,-0.8,0.42,0.34,2.5,10.2,-5.7,36.38,,,,,,,,,,
14.11.13.016,39.5,9.9,0,22.0,,54832.9,18.24,-0.8,0.43,0.35,0.1,9.3,-5.4,36.38,,,,,,,,,,
14.11.13.024,81.8,20.4,0,22.0,,57259.2,17.46,-0.8,0.42,0.34,-2.1,8.8,-4.8,36.38,,,,,,,,,,
14.11.13.036,118.7,29.7,0,22.0,,52309.6,19.12,-0.8,0.41,0.33,-3.9,7.9,-4.6,36.38,,,,,,,,,,
14.11.13.048,64.7,16.2,0,22.0,,53944.9,18.54,-0.79,0.4,0.33,-4.2,7.3,-3.6,36.38,,,,,,,,,,
14.11.13.057,107.6,26.9,0,22.0,,49356.5,20.26,-0.79,0.4,0.33,-3.5,6.4,-3.0,36.38,,,,,,,,,,
14.11.13.069,37.2,9.3,0,22.0,,58379.2,17.13,-0.79,0.4,0.32,-2.7,5.8,-3.1,36.38,,,,,,,,,,
14.11.13.077,95.8,24.0,0,22.0,,56937.7,17.56,-0.8,0.4,0.32,-1.3,5.5,-4.3,36.38,,,,,,,,,,
14.11.13.089,26.4,6.6,0,22.0,,59487.4,16.81,-0.8,0.4,0.31,-0.2,5.0,-4.9,36.38,,,,,,,,,,
14.11.13.098,27.8,7.0,0,22.0,,56949.8,17.56,-0.81,0.41,0.32,1.9,3.3,-5.1,36.38,,,,,,,,,,
14.11.13.110,-9.5,2.4,0,22.0,,55563.4,18.0,-0.81,0.4,0.31,4.7,2.0,-4.9,36.38,,,,,,,,,,
14.11.13.118,-18.0,4.5,0,22.0,,55588.8,17.99,-0.81,0.4,0.3,7.0,0.1,-5.7,36.38,,,,,,,,,,
14.11.13.130,-20.0,5.0,0,22.0,,57370.2,17.43,-0.81,0.4,0.3,10.8,-0.6,-4.6,36.38,,,,,,,,,,
14.11.13.139,-7.4,1.8,0,22.0,,52948.1,18.89,-0.82,0.39,0.3,15.3,-0.7,-1.4,36.38,,,,,,,,,,
14.11.13.151,-99.4,24.8,0,22.0,,56201.5,17.79,-0.83,0.41,0.3,20.2,-2.5,2.3,36.38,,,,,,,,,,
14.11.13.159,28.8,7.2,0,22.0,,57875.7,17.28,-0.83,0.42,0.3,24.0,-4.1,3.9,36.38,,,,,,,,,,
14.11.13.171,-30.3,7.6,0,22.0,,53514.8,18.69,-0.83,0.42,0.3,25.4,-5.4,3.1,36.38,,,,,,,,,,
14.11.13.180,-102.8,25.7,0,22.0,,53584.4,18.66,-0.82,0.43,0.3,26.3,-6.5,1.7,36.38,,,,,,,,,,
14.11.13.192,-2.4,0.6,0,22.0,,47680.9,20.97,-0.82,0.43,0.3,27.0,-6.7,1.4,36.38,,,,,,,,,,
14.11.13.200,-72.5,18.1,0,22.0,,56180.4,17.8,-0.81,0.44,0.3,27.8,-6.4,2.0,36.38,,,,,,,,,,
14.11.13.212,-112.5,28.1,0,22.0,,59549.2,16.79,-0.8,0.44,0.3,27.9,-5.2,2.2,36.38,,,,,,,,,,
14.11.13.220,-110.3,27.6,0,22.0,,55207.2,18.11,-0.8,0.44,0.31,27.4,-4.0,1.5,36.38,,,,,,,,,,
14.11.13.233,-57.9,14.5,0,22.0,,54429.9,18.37,-0.8,0.45,0.3,26.1,-2.8,0.4,36.38,,,,,,,,,,
14.11.13.241,-119.9,30.0,0,22.0,,51341.1,19.48,-0.8,0.45,0.31,24.4,-1.4,-1.4,36.38,,,,,,,,,,
14.11.13.253,-137.1,34.3,0,22.0,,58373.3,17.13,-0.8,0.45,0.32,23.4,-0.6,-2.6,36.38,,,,,,,,,,
14.11.13.266,-131.4,32.8,0,22.0,,58023.3,17.23,-0.8,0.46,0.32,22.3,0.7,-4.8,36.38,,,,,,,,,,
14.11.13.274,-119.4,29.8,0,22.0,,58819.5,17.0,-0.8,0.46,0.31,21.0,3.1,-6.7,36.38,,,,,,,,,,
14.11.13.286,-142.1,35.5,0,22.0,,58163.2,17.19,-0.81,0.46,0.31,19.3,5.0,-8.3,36.38,,,,,,,,,,
14.11.13.294,-130.5,32.6,0,22.0,,57292.0,17.45,-0.8,0.48,0.31,18.3,6.8,-9.1,36.38,,,,,,,,,,
14.11.13.306,-162.2,40.6,0,22.0,,51310.0,19.49,-0.82,0.47,0.31,16.9,8.6,-9.4,36.38,,,,,,,,,,
14.11.13.319,-189.7,47.4,0,22.0,,50354.1,19.86,-0.83,0.49,0.31,15.2,11.3,-9.4,36.38,,,,,,,,,,
14.11.13.327,-160.9,40.2,0,22.0,,55203.2,18.11,-0.83,0.5,0.31,12.6,11.1,-8.9,36.38,,,,,,,,,,
14.11.13.339,-172.9,43.2,0,22.0,,55315.6,18.08,-0.84,0.51,0.31,10.3,10.7,-8.5,36.38,,,,,,,,,,
14.11.13.347,-220.8,55.2,0,22.0,,47971.2,20.85,-0.84,0.52,0.3,7.6,10.8,-8.7,36.38,,,,,,,,,,
14.11.13.360,-22.4,5.6,1,23.0,105.2,57017.2,17.54,-0.84,0.51,0.3,4.8,10.9,-8.9,36.38,,,,,,,,,,
14.11.13.368,92.1,23.0,0,23.0,,59974.0,16.67,-0.84,0.5,0.3,3.1,9.8,-9.6,36.38,,,,,,,,,,
14.11.13.405,281.7,70.4,0,23.0,,58390.2,17.13,-0.84,0.49,0.3,2.3,10.0,-9.5,36.38,,,,,,,,,,
14.11.13.417,453.4,113.4,0,23.0,,56580.7,17.67,-0.81,0.46,0.29,3.3,4.4,-9.8,36.38,,,,,,,,,,
14.11.13.425,490.6,122.6,0,23.0,,52559.4,19.03,-0.81,0.43,0.29,4.0,4.1,-9.7,36.38,,,,,,,,,,
14.11.13.438,535.1,133.8,0,23.0,,51554.9,19.4,-0.79,0.42,0.28,6.8,4.0,-8.3,36.38,,,,,,,,,,
14.11.13.446,492.7,123.2,0,23.0,,54543.5,18.33,-0.78,0.42,0.29,9.6,4.4,-6.1,36.38,,,,,,,,,,
14.11.13.458,431.6,107.9,0,23.0,,59112.0,16.92,-0.77,0.42,0.29,12.2,3.8,-4.6,36.38,,,,,,,,,,
14.11.13.466,525.0,131.2,0,23.0,,58053.1,17.23,-0.77,0.42,0.29,13.7,3.0,-5.1,36.38,,,,,,,,,,
14.11.13.479,499.8,125.0,0,23.0,,49126.2,20.36,-0.77,0.43,0.29,14.9,3.6,-6.8,36.38,,,,,,,,,,
14.11.13.487,449.3,112.3,0,23.0,,52331.1,19.11,-0.77,0.42,0.29,16.1,3.4,-8.3,36.38,,,,,,,,,,
14.11.13.499,410.5,102.6,0,23.0,,46983.7,21.28,-0.77,0.43,0.3,17.7,4.7,-8.6,36.38,,,,,,,,,,
14.11.13.507,350.8,87.7,0,23.0,,51021.5,19.6,-0.78,0.45,0.3,19.8,5.5,-8.6,36.38,,,,,,,,,,
14.11.13.520,309.2,77.3,0,23.0,,53681.8,18.63,-0.79,0.46,0.31,21.6,5.0,-9.9,36.38,,,,,,,,,,
14.11.13.528,194.0,48.5,0,23.0,,51666.0,19.36,-0.79,0.47,0.31,22.9,4.6,-11.7,36.38,,,,,,,,,,
14.11.13.540,131.2,32.8,0,23.0,,56119.7,17.82,-0.8,0.48,0.31,24.4,3.8,-13.7,36.38,,,,,,,,,,
14.11.13.548,10.9,2.7,0,23.0,,56082.7,17.83,-0.81,0.48,0.32,25.7,3.5,-14.0,36.38,,,,,,,,,,
14.11.13.561,76.6,19.2,0,23.0,,55786.8,17.93,-0.83,0.5,0.31,27.1,2.8,-14.0,36.38,,,,,,,,,,
14.11.13.569,62.7,15.7,0,23.0,,59537.3,16.8,-0.84,0.52,0.31,28.7,1.4,-12.9,36.38,,,,,,,,,,
14.11.13.581,49.1,12.3,0,23.0,,56018.3,17.85,-0.87,0.53,0.31,29.9,0.5,-12.8,36.38,,,,,,,,,,
14.11.13.589,82.3,20.6,0,23.0,,54445.0,18.37,-0.87,0.54,0.3,30.5,-0.2,-11.7,36.38,,,,,,,,,,
14.11.13.601,63.1,15.8,0,23.0,,54356.1,18.4,-0.86,0.55,0.3,31.2,0.0,-9.2,36.38,,,,,,,,,,
14.11.13.610,126.3,31.6,0,23.0,,56705.2,17.64,-0.86,0.56,0.29,31.4,-1.2,-6.6,36.38,,,,,,,,,,
14.11.13.622,65.9,16.5,0,23.0,,56154.9,17.81,-0.86,0.56,0.29,31.1,-1.8,-5.5,36.38,,,,,,,,,,
14.11.13.630,38.7,9.7,0,23.0,,58207.3,17.18,-0.85,0.56,0.3,29.8,-1.5,-4.4,36.38,,,,,,,,,,
14.11.13.642,106.5,26.6,0,23.0,,48734.2,20.52,-0.85,0.56,0.29,27.7,0.2,-3.9,36.38,,,,,,,,,,
14.11.13.651,63.6,15.9,0,23.0,,59170.7,16.9,-0.85,0.56,0.29,24.5,1.2,-3.5,36.38,,,,,,,,,,
14.11.13.663,47.1,11.8,0,23.0,,50493.0,19.8,-0.84,0.55,0.3,21.2,0.6,-2.5,36.38,,,,,,,,,,
14.11.13.675,-2.1,0.5,0,23.0,,56078.6,17.83,-0.83,0.55,0.29,18.0,1.2,-2.6,36.38,,,,,,,,,,
14.11.13.683,-44.6,11.2,0,23.0,,57232.3,17.47,-0.83,0.54,0.29,13.5,2.2,-4.4,36.38,,,,,,,,,,
14.11.13.696,-26.4,6.6,0,23.0,,56369.1,17.74,-0.82,0.52,0.29,10.6,2.7,-7.6,36.38,,,,,,,,,,
14.11.13.704,-51.1,12.8,0,23.0,,55421.6,18.04,-0.81,0.52,0.28,8.3,4.4,-8.8,36.38,,,,,,,,,,
14.11.13.716,-69.9,17.5,0,23.0,,55856.0,17.9,-0.81,0.49,0.28,7.7,4.7,-9.1,36.38,,,,,,,,,,
14.11.13.724,-23.1,5.8,0,23.0,,52344.5,19.1,-0.82,0.48,0.28,6.9,6.0,-8.0,36.38,,,,,,,,,,
14.11.13.737,-18.2,4.6,0,23.0,,55370.1,18.06,-0.83,0.48,0.27,6.1,7.1,-6.7,36.38,,,,,,,,,,
14.11.13.745,-51.7,12.9,0,23.0,,56562.6,17.68,-0.85,0.48,0.27,4.8,5.8,-5.8,36.38,,,,,,,,,,
14.11.13.757,-56.1,14.0,0,23.0,,56988.0,17.55,-0.85,0.48,0.27,3.6,5.8,-6.1,36.38,,,,,,,,,,
14.11.13.765,-93.1,23.3,0,23.0,,55487.1,18.02,-0.84,0.48,0.27,2.5,6.3,-6.7,36.38,,,,,,,,,,
14.11.13.778,-13.5,3.4,0,23.0,,57820.8,17.29,-0.84,0.47,0.27,2.7,6.1,-7.5,36.38,,,,,,,,,,
14.11.13.786,-69.0,17.2,0,23.0,,58140.3,17.2,-0.83,0.45,0.27,2.8,5.8,-8.2,36.38,,,,,,,,,,
14.11.13.798,-109.5,27.4,0,23.0,,56721.1,17.63,-0.84,0.46,0.28,4.1,4.5,-8.3,36.38,,,,,,,,,,
14.11.13.810,-99.2,24.8,0,23.0,,56043.5,17.84,-0.85,0.45,0.28,4.5,4.5,-8.7,36.38,,,,,,,,,,
14.11.13.819,-124.3,31.1,0,23.0,,50802.9,19.68,-0.86,0.45,0.29,5.8,3.2,-9.4,36.38,,,,,,,,,,
14.11.13.831,-186.2,46.6,0,23.0,,51165.9,19.54,-0.86,0.46,0.27,7.0,1.7,-10.4,36.38,,,,,,,,,,
14.11.13.839,-128.2,32.0,0,23.0,,59163.0,16.9,-0.86,0.45,0.28,8.5,1.0,-10.9,36.38,,,,,,,,,,
14.11.13.851,-189.7,47.4,0,23.0,,55087.7,18.15,-0.86,0.45,0.28,10.8,0.8,-10.7,36.38,,,,,,,,,,
14.11.13.860,-110.8,27.7,0,23.0,,57635.3,17.35,-0.85,0.46,0.28,13.2,-0.7,-10.0,36.38,,,,,,,,,,
14.11.13.872,-150.9,37.7,0,23.0,,59894.9,16.7,-0.85,0.46,0.28,15.1,-2.7,-9.2,36.38,,,,,,,,,,
14.11.13.885,-155.9,39.0,0,23.0,,54412.6,18.38,-0.85,0.46,0.29,17.2,-4.0,-8.5,36.38,,,,,,,,,,
14.11.13.893,-103.9,26.0,0,23.0,,58736.9,17.03,-0.84,0.47,0.29,18.6,-5.0,-8.7,36.38,,,,,,,,,,
14.11.13.905,-205.7,51.4,0,23.0,,53912.4,18.55,-0.85,0.48,0.28,20.0,-6.5,-9.5,36.38,,,,,,,,,,
14.11.13.913,-236.4,59.1,0,23.0,,50763.8,19.7,-0.85,0.47,0.28,21.8,-6.7,-10.5,36.38,,,,,,,,,,
14.11.13.925,43.4,10.8,1,24.0,108.5,56605.3,17.67,-0.85,0.47,0.28,23.2,-6.6,-11.0,36.38,,,,,,,,,,
14.11.13.937,136.5,34.1,0,24.0,,58717.4,17.03,-0.85,0.47,0.28,23.4,-5.2,-9.2,36.38,,,,,,,,,,
14.11.13.946,219.1,54.8,0,24.0,,59190.4,16.89,-0.84,0.48,0.28,22.7,-6.3,-7.8,36.38,,,,,,,,,,
14.11.13.958,261.8,65.4,0,24.0,,55328.8,18.07,-0.85,0.5,0.29,22.5,-6.5,-6.0,36.38,,,,,,,,,,
14.11.13.966,374.1,93.5,0,24.0,,53538.4,18.68,-0.84,0.49,0.29,22.0,-5.3,-6.1,36.38,,,,,,,,,,
14.11.13.978,389.1,97.3,0,24.0,,51913.3,19.26,-0.83,0.5,0.29,20.5,-6.5,-6.2,36.38,,,,,,,,,,
14.11.13.991,425.0,106.2,0,24.0,,52031.1,19.22,-0.84,0.49,0.28,19.7,-6.2,-6.2,36.38,,,,,,,,,,
14.11.13.999,447.3,111.8,0,24.0,,55767.4,17.93,-0.85,0.5,0.28,18.5,-6.0,-5.4,36.38,,,,,,,,,,
14.11.14.011,541.0,135.2,0,24.0,,63853.3,15.66,-0.85,0.5,0.28,17.8,-5.5,-4.8,36.38,,,,,,,,,,
14.11.14.019,544.9,136.2,0,24.0,,56379.4,17.74,-0.85,0.5,0.27,16.4,-5.9,-6.6,36.38,,,,,,,,,,
14.11.14.032,549.3,137.3,0,24.0,,55916.7,17.88,-0.85,0.5,0.27,15.5,-6.0,-8.2,36.38,,,,,,,,,,
14.11.14.044,505.4,126.4,0,24.0,,56570.2,17.68,-0.84,0.49,0.28,14.4,-5.1,-8.6,36.38,,,,,,,,,,
14.11.14.052,446.6,111.6,0,24.0,,54220.6,18.44,-0.84,0.49,0.27,13.7,-4.4,-7.7,36.38,,,,,,,,,,
14.11.14.064,381.2,95.3,0,24.0,,57325.1,17.44,-0.85,0.48,0.27,12.4,-3.7,-5.9,36.38,,,,,,,,,,
14.11.14.077,249.4,62.4,0,24.0,,53978.1,18.53,-0.85,0.48,0.27,10.9,-3.0,-5.6,36.38,,,,,,,,,,
14.11.14.089,180.9,45.2,0,24.0,,59517.1,16.8,-0.84,0.46,0.27,9.1,-3.0,-6.3,36.38,,,,,,,,,,
14.11.14.097,125.6,31.4,0,24.0,,53088.1,18.84,-0.84,0.46,0.27,8.0,-3.7,-6.3,36.38,,,,,,,,,,
14.11.14.109,-29.5,7.4,0,24.0,,53434.9,18.71,-0.85,0.45,0.27,7.4,-3.5,-5.3,36.38,,,,,,,,,,
14.11.14.118,47.0,11.8,0,24.0,,55703.3,17.95,-0.85,0.45,0.25,7.7,-3.2,-5.4,36.38,,,,,,,,,,
14.11.14.130,6.7,1.7,0,24.0,,54424.1,18.37,-0.85,0.45,0.26,7.6,-3.6,-6.1,36.38,,,,,,,,,,
14.11.14.138,25.7,6.4,0,24.0,,57578.3,17.37,-0.85,0.43,0.26,7.6,-3.7,-7.7,36.38,,,,,,,,,,
14.11.14.150,57.4,14.4,0,24.0,,56993.0,17.55,-0.86,0.42,0.26,8.2,-3.5,-8.8,36.38,,,,,,,,,,
14.11.14.159,61.3,15.3,0,24.0,,55175.1,18.12,-0.86,0.42,0.26,9.3,-3.9,-7.5,36.38,,,,,,,,,,
14.11.14.171,80.7,20.2,0,24.0,,55261.0,18.1,-0.87,0.42,0.26,10.8,-4.7,-6.5,36.38,,,,,,,,,,
14.11.14.208,35.9,9.0,0,24.0,,54526.7,18.34,-0.86,0.41,0.25,11.8,-5.6,-5.6,36.44,,,,,,,,,,
14.11.14.216,38.1,9.5,0,24.0,,55053.8,18.16,-0.84,0.42,0.25,15.1,-5.7,-4.8,36.44,,,,,,,,,,
14.11.14.228,21.6,5.4,0,24.0,,49144.0,20.35,-0.83,0.43,0.25,15.5,-5.7,-4.6,36.44,,,,,,,,,,
14.11.14.237,13.7,3.4,0,24.0,,49346.1,20.27,-0.84,0.43,0.24,15.5,-5.8,-4.6,36.44,,,,,,,,,,
14.11.14.249,-15.1,3.8,0,24.0,,48577.7,20.59,-0.83,0.44,0.24,16.3,-5.7,-4.6,36.44,,,,,,,,,,
14.11.14.257,48.3,12.1,0,24.0,,55954.9,17.87,-0.83,0.44,0.24,16.6,-5.4,-4.3,36.44,,,,,,,,,,
14.11.14.269,-106.4,26.6,0,24.0,,57383.8,17.43,-0.83,0.46,0.24,16.6,-5.6,-3.9,36.44,,,,,,,,,,
14.11.14.277,-3.7,0.9,0,24.0,,52039.2,19.22,-0.83,0.45,0.24,16.7,-4.5,-5.2,36.44,,,,,,,,,,
14.11.14.290,-25.9,6.5,0,24.0,,55853.6,17.9,-0.82,0.45,0.24,16.7,-3.1,-5.6,36.44,,,,,,,,,,
14.11.14.302,-105.6,26.4,0,24.0,,59460.2,16.82,-0.83,0.46,0.24,16.4,-2.8,-5.7,36.44,,,,,,,,,,
14.11.14.310,-66.9,16.7,0,24.0,,56904.6,17.57,-0.83,0.47,0.24,15.5,-3.2,-6.0,36.44,,,,,,,,,,
14.11.14.322,-124.1,31.0,0,24.0,,52826.7,18.93,-0.84,0.47,0.24,14.6,-2.7,-7.1,36.44,,,,,,,,,,
14.11.14.331,-61.1,15.3,0,24.0,,49692.4,20.12,-0.83,0.47,0.25,13.7,-3.2,-8.1,36.44,,,,,,,,,,
14.11.14.343,-59.8,15.0,0,24.0,,55141.5,18.14,-0.83,0.47,0.25,13.2,-2.4,-7.4,36.44,,,,,,,,,,
14.11.14.351,-56.4,14.1,0,24.0,,55867.8,17.9,-0.83,0.47,0.25,13.5,-3.0,-6.5,36.44,,,,,,,,,,
14.11.14.363,-127.4,31.8,0,24.0,,54378.0,18.39,-0.82,0.47,0.25,13.9,-2.4,-4.8,36.44,,,,,,,,,,
14.11.14.372,-149.6,37.4,0,24.0,,51868.2,19.28,-0.82,0.47,0.26,14.4,-2.3,-4.1,36.44,,,,,,,,,,
14.11.14.384,-149.6,37.4,0,24.0,,58225.2,17.17,-0.82,0.48,0.25,14.8,-1.4,-3.4,36.44,,,,,,,,,,
14.11.14.392,-84.5,21.1,0,24.0,,58412.7,17.12,-0.82,0.48,0.25,14.9,-1.1,-3.1,36.44,,,,,,,,,,
14.11.14.404,-164.2,41.0,0,24.0,,56476.5,17.71,-0.82,0.49,0.25,14.7,-0.6,-2.9,36.44,,,,,,,,,,
14.11.14.413,-196.2,49.0,0,24.0,,49848.8,20.06,-0.82,0.49,0.25,14.1,-0.1,-2.7,36.44,,,,,,,,,,
14.11.14.425,-142.9,35.7,0,24.0,,52459.0,19.06,-0.82,0.49,0.26,13.7,0.8,-2.3,36.44,,,,,,,,,,
14.11.14.433,-126.7,31.7,0,24.0,,57431.0,17.41,-0.82,0.5,0.26,13.2,1.5,-1.5,36.44,,,,,,,,,,
14.11.14.445,-126.3,31.6,0,24.0,,54941.4,18.2,-0.81,0.5,0.26,11.7,1.9,-0.3,36.44,,,,,,,,,,
14.11.14.454,-209.2,52.3,0,24.0,,51336.0,19.48,-0.82,0.5,0.26,10.0,2.1,0.0,36.44,,,,,,,,,,
14.11.14.466,-231.1,57.8,0,24.0,,54405.7,18.38,-0.82,0.5,0.26,8.7,3.2,-0.2,36.44,,,,,,,,,,
14.11.14.474,-139.6,34.9,0,24.0,,57496.7,17.39,-0.82,0.49,0.26,6.8,3.9,-0.3,36.44,,,,,,,,,,
14.11.14.486,31.9,8.0,1,25.0,103.6,52475.3,19.06,-0.82,0.49,0.26,5.5,4.1,0.0,36.44,,,,,,,,,,
14.11.14.495,80.0,20.0,0,25.0,,60234.7,16.6,-0.82,0.48,0.26,4.3,5.4,-0.3,36.44,,,,,,,,,,
14.11.14.507,202.6,50.6,0,25.0,,54032.0,18.51,-0.82,0.48,0.26,3.6,6.6,-0.9,36.44,,,,,,,,,,
14.11.14.515,200.9,50.2,0,25.0,,54029.1,18.51,-0.83,0.49,0.27,3.0,7.0,-1.6,36.44,,,,,,,,,,
14.11.14.527,263.6,65.9,0,25.0,,55919.9,17.88,-0.83,0.48,0.26,2.4,7.3,-1.5,36.44,,,,,,,,,,
14.11.14.540,391.8,98.0,0,25.0,,55979.9,17.86,-0.83,0.47,0.28,1.8,7.2,-1.9,36.44,,,,,,,,,,
14.11.14.548,422.0,105.5,0,25.0,,53323.0,18.75,-0.83,0.47,0.27,1.5,7.9,-2.3,36.44,,,,,,,,,,
14.11.14.561,448.8,112.2,0,25.0,,50490.5,19.81,-0.84,0.46,0.27,1.9,8.4,-2.5,36.44,,,,,,,,,,
14.11.14.573,502.9,125.7,0,25.0,,54930.5,18.2,-0.84,0.46,0.28,2.6,7.8,-1.9,36.44,,,,,,,,,,
14.11.14.585,452.5,113.1,0,25.0,,56670.4,17.65,-0.84,0.46,0.28,3.4,7.7,-1.8,36.44,,,,,,,,,,
14.11.14.593,535.1,133.8,0,25.0,,54872.0,18.22,-0.84,0.47,0.27,3.8,7.7,-1.7,36.44,,,,,,,,,,
14.11.14.605,417.5,104.4,0,25.0,,50683.1,19.73,-0.84,0.46,0.28,4.3,7.3,-1.8,36.44,,,,,,,,,,
14.11.14.617,415.5,103.9,0,25.0,,52619.6,19.0,-0.84,0.47,0.28,4.4,7.0,-1.3,36.44,,,,,,,,,,
14.11.14.626,345.8,86.4,0,25.0,,58345.6,17.14,-0.84,0.47,0.29,4.2,7.1,-0.5,36.44,,,,,,,,,,
14.11.14.638,279.9,70.0,0,25.0,,53813.3,18.58,-0.84,0.47,0.28,3.8,6.3,-0.5,36.44,,,,,,,,,,
14.11.14.650,209.1,52.3,0,25.0,,51915.0,19.26,-0.84,0.47,0.28,3.2,6.3,-1.8,36.44,,,,,,,,,,
14.11.14.662,126.1,31.5,0,25.0,,54018.8,18.51,-0.84,0.47,0.28,2.4,6.4,-2.4,36.44,,,,,,,,,,
14.11.14.671,88.1,22.0,0,25.0,,51571.9,19.39,-0.83,0.47,0.28,2.2,6.3,-2.1,36.44,,,,,,,,,,
14.11.14.683,-30.1,7.5,0,25.0,,54535.4,18.34,-0.84,0.47,0.28,2.5,6.2,-1.1,36.44,,,,,,,,,,
14.11.14.695,82.2,20.6,0,25.0,,54771.7,18.26,-0.83,0.47,0.29,2.5,6.0,-0.5,36.44,,,,,,,,,,
14.11.14.708,129.7,32.4,0,25.0,,57795.1,17.3,-0.84,0.47,0.28,2.0,5.7,0.0,36.44,,,,,,,,,,
14.11.14.716,29.2,7.3,0,25.0,,53999.9,18.52,-0.84,0.47,0.28,1.4,5.5,-0.5,36.44,,,,,,,,,,
14.11.14.728,103.5,25.9,0,25.0,,53244.6,18.78,-0.84,0.47,0.28,1.2,4.9,-1.2,36.44,,,,,,,,,,
14.11.14.740,122.2,30.6,0,25.0,,48067.5,20.8,-0.84,0.46,0.28,1.2,5.2,-1.2,36.44,,,,,,,,,,
14.11.14.749,114.4,28.6,0,25.0,,60563.3,16.51,-0.84,0.47,0.28,2.0,4.9,-0.5,36.44,,,,,,,,,,
14.11.14.761,57.2,14.3,0,25.0,,57132.2,17.5,-0.84,0.47,0.27,2.3,4.7,-0.2,36.44,,,,,,,,,,
14.11.14.773,84.1,21.0,0,25.0,,57878.9,17.28,-0.83,0.46,0.27,2.3,4.0,-0.9,36.44,,,,,,,,,,
14.11.14.781,-8.3,2.1,0,25.0,,55712.1,17.95,-0.83,0.47,0.27,2.5,5.0,-1.1,36.44,,,,,,,,,,
14.11.14.794,21.3,5.3,0,25.0,,54378.1,18.39,-0.83,0.47,0.26,2.8,4.9,-0.9,36.44,,,,,,,,,,
14.11.14.806,-23.6,5.9,0,25.0,,53794.6,18.59,-0.84,0.47,0.26,3.4,4.8,0.0,36.44,,,,,,,,,,
14.11.14.814,-29.1,7.3,0,25.0,,50228.8,19.91,-0.83,0.47,0.26,3.6,5.2,0.8,36.44,,,,,,,,,,
14.11.14.826,-43.8,11.0,0,25.0,,46407.2,21.55,-0.84,0.47,0.26,3.3,5.1,-0.3,36.44,,,,,,,,,,
14.11.14.839,-90.2,22.6,0,25.0,,54704.4,18.28,-0.83,0.48,0.26,2.5,5.3,-1.6,36.44,,,,,,,,,,
14.11.14.847,-71.6,17.9,0,25.0,,56003.4,17.86,-0.83,0.48,0.26,2.9,6.6,-1.8,36.44,,,,,,,,,,
14.11.14.859,-63.8,16.0,0,25.0,,53355.3,18.74,-0.83,0.48,0.26,3.3,7.1,-0.6,36.44,,,,,,,,,,
14.11.14.871,-26.6,6.6,0,25.0,,56014.9,17.85,-0.83,0.49,0.26,3.2,7.6,0.0,36.44,,,,,,,,,,
14.11.14.880,-46.7,11.7,0,25.0,,52730.8,18.96,-0.83,0.49,0.26,2.2,7.9,-0.1,36.44,,,,,,,,,,
14.11.14.892,-104.7,26.2,0,25.0,,57027.9,17.54,-0.83,0.49,0.26,1.5,8.1,-0.3,36.44,,,,,,,,,,
14.11.14.905,-32.4,8.1,0,25.0,,54439.8,18.37,-0.83,0.49,0.26,0.6,9.2,0.0,36.44,,,,,,,,,,
14.11.14.917,-90.0,22.5,0,25.0,,56944.8,17.56,-0.83,0.49,0.26,-0.5,9.7,-0.1,36.44,,,,,,,,,,
14.11.14.925,-80.0,20.0,0,25.0,,55672.9,17.96,-0.83,0.49,0.26,-1.7,9.9,-0.8,36.44,,,,,,,,,,
