timestamp,ppg,threshold,beat,beat_count,inst_bpm,gsr_resistance_ohm,gsr_conductance_us,accel_x,accel_y,accel_z,gyro_x,gyro_y,gyro_z,temp_c,window_bpm,window_temp_c,status_message,SpO2,bmi,age,height,weight,env_temp_c,env_humidity_pct
14.00.00.578,,0.0,0,,,77836.2,12.85,-0.17,0.83,0.54,8.0,7.6,3.2,35.81,97.8,,,,43.3,23.0,162.56,114.3,37.0,52.0
14.00.00.587,52.0,13.0,0,,,77528.9,12.9,-0.16,0.84,0.53,4.4,7.4,1.4,35.81,,,,,,,,,,
14.00.00.595,105.9,26.5,0,,,73038.6,13.69,-0.16,0.86,0.53,-0.5,7.2,-0.6,35.81,,,,,,,,,,
14.00.00.607,159.2,39.8,0,,,77890.5,12.84,-0.17,0.85,0.53,-6.0,6.2,-3.5,35.81,,,,,,,,,,
14.00.00.619,270.9,67.7,0,,,74066.9,13.5,-0.16,0.85,0.53,-13.6,6.2,-4.8,35.81,,,,,,,,,,
14.00.00.628,289.7,72.4,0,,,74926.5,13.35,-0.18,0.84,0.53,-20.4,6.6,-5.3,35.81,,,,,,,,,,
14.00.00.640,343.1,85.8,0,,,73269.9,13.65,-0.18,0.83,0.55,-24.6,8.9,-6.8,35.81,,,,,,,,,,
14.00.00.648,365.4,91.4,0,,,77675.1,12.87,-0.19,0.81,0.56,-26.5,8.4,-7.2,35.81,,,,,,,,,,
14.00.00.660,362.2,90.6,0,,,74156.7,13.48,-0.18,0.79,0.57,-25.8,7.5,-7.2,35.81,,,,,,,,,,
14.00.00.669,437.0,109.2,0,,,73958.6,13.52,-0.18,0.77,0.58,-24.8,7.0,-6.7,35.81,,,,,,,,,,
14.00.00.681,453.6,113.4,0,,,76885.7,13.01,-0.18,0.77,0.58,-23.3,6.7,-6.5,35.81,,,,,,,,,,
14.00.00.693,359.2,89.8,0,,,77805.2,12.85,-0.18,0.78,0.58,-22.1,7.8,-5.4,35.81,,,,,,,,,,
14.00.00.701,370.6,92.6,0,,,74997.0,13.33,-0.17,0.77,0.58,-21.8,9.0,-4.7,35.81,,,,,,,,,,
14.00.00.714,350.9,87.7,0,,,72389.3,13.81,-0.18,0.78,0.59,-21.9,8.9,-3.9,35.81,,,,,,,,,,
14.00.00.722,351.1,87.8,0,,,77369.6,12.92,-0.18,0.77,0.6,-21.2,10.7,-3.7,35.81,,,,,,,,,,
14.00.00.734,314.2,78.6,0,,,73269.6,13.65,-0.18,0.76,0.6,-19.3,11.3,-3.3,35.81,,,,,,,,,,
14.00.00.742,219.6,54.9,0,,,74238.3,13.47,-0.19,0.76,0.61,-16.4,10.4,-3.4,35.81,,,,,,,,,,
14.00.00.755,160.1,40.0,0,,,74564.7,13.41,-0.19,0.74,0.61,-13.7,10.3,-2.8,35.81,,,,,,,,,,
14.00.00.767,148.6,37.2,0,,,74131.8,13.49,-0.19,0.74,0.61,-10.4,8.9,-3.6,35.81,,,,,,,,,,
14.00.00.775,47.1,11.8,0,,,74443.3,13.43,-0.2,0.74,0.62,-8.3,7.6,-3.8,35.81,,,,,,,,,,
14.00.00.787,-0.9,0.2,0,,,75901.8,13.17,-0.2,0.74,0.62,-5.7,7.6,-3.8,35.81,,,,,,,,,,
14.00.00.800,7.2,1.8,0,,,73843.0,13.54,-0.2,0.75,0.61,-3.6,6.8,-2.8,35.81,,,,,,,,,,
14.00.00.808,65.1,16.3,0,,,73755.1,13.56,-0.19,0.75,0.61,-0.9,7.2,-1.2,35.81,,,,,,,,,,
14.00.00.820,73.8,18.4,0,,,75424.9,13.26,-0.19,0.76,0.6,0.3,7.3,-0.7,35.81,,,,,,,,,,
14.00.00.828,87.0,21.8,0,,,76881.9,13.01,-0.19,0.77,0.61,-0.4,7.0,-0.8,35.81,,,,,,,,,,
14.00.00.841,97.2,24.3,0,,,74459.9,13.43,-0.19,0.77,0.6,-1.7,7.1,-1.2,35.81,,,,,,,,,,
14.00.00.853,86.7,21.7,0,,,74389.0,13.44,-0.19,0.77,0.61,-2.3,6.6,-1.3,35.81,,,,,,,,,,
14.00.00.861,55.2,13.8,0,,,76786.2,13.02,-0.2,0.77,0.6,-2.2,6.7,-1.3,35.81,,,,,,,,,,
14.00.00.873,67.7,16.9,0,,,74939.9,13.34,-0.19,0.76,0.6,-1.1,6.7,-1.5,35.81,,,,,,,,,,
14.00.00.882,54.9,13.7,0,,,73039.6,13.69,-0.19,0.76,0.62,-1.1,5.1,-1.0,35.81,,,,,,,,,,
14.00.00.894,32.1,8.0,0,,,71177.3,14.05,-0.2,0.75,0.61,0.1,4.9,-1.3,35.81,,,,,,,,,,
14.00.00.902,17.3,4.3,0,,,73045.8,13.69,-0.2,0.74,0.62,1.1,4.5,-1.2,35.81,,,,,,,,,,
14.00.00.914,-36.2,9.0,0,,,73190.8,13.66,-0.2,0.75,0.62,2.9,4.0,-0.6,35.81,,,,,,,,,,
14.00.00.923,-22.0,5.5,0,,,73257.0,13.65,-0.19,0.74,0.61,5.4,4.4,0.4,35.81,,,,,,,,,,
14.00.00.935,11.0,2.8,0,,,74495.0,13.42,-0.19,0.75,0.62,7.3,3.9,1.5,35.81,,,,,,,,,,
14.00.00.943,-47.6,11.9,0,,,69801.2,14.33,-0.19,0.75,0.61,8.7,4.0,1.9,35.81,,,,,,,,,,
14.00.00.951,-16.7,4.2,0,,,75446.8,13.25,-0.19,0.76,0.61,9.3,4.2,1.9,35.81,,,,,,,,,,
14.00.00.964,-35.7,8.9,0,,,73839.0,13.54,-0.19,0.77,0.6,9.5,3.9,1.8,35.81,,,,,,,,,,
14.00.00.972,-47.5,11.9,0,,,76178.1,13.13,-0.2,0.77,0.61,9.3,4.0,1.9,35.81,,,,,,,,,,
14.00.01.008,-102.8,25.7,0,,,77049.9,12.98,-0.19,0.77,0.6,9.7,3.8,2.5,35.81,,,,,,,,,,
14.00.01.021,-81.3,20.3,0,,,72622.8,13.77,-0.2,0.75,0.61,17.6,3.3,5.5,35.81,,,,,,,,,,
14.00.01.029,-80.9,20.2,0,,,73363.9,13.63,-0.21,0.76,0.62,21.0,2.2,7.4,35.81,,,,,,,,,,
14.00.01.041,-83.6,20.9,0,,,75052.3,13.32,-0.24,0.76,0.64,24.6,2.0,8.6,35.81,,,,,,,,,,
14.00.01.050,-58.9,14.7,0,,,74525.9,13.42,-0.24,0.74,0.63,29.4,3.8,9.1,35.81,,,,,,,,,,
14.00.01.062,-100.9,25.2,0,,,72308.4,13.83,-0.26,0.74,0.64,34.6,-1.1,10.6,35.81,,,,,,,,,,
14.00.01.070,-70.9,17.7,0,,,74017.8,13.51,-0.26,0.74,0.64,42.2,-2.5,12.6,35.81,,,,,,,,,,
14.00.01.082,-85.1,21.3,0,,,75246.6,13.29,-0.26,0.72,0.62,49.4,-2.5,14.1,35.81,,,,,,,,,,
14.00.01.090,-67.4,16.8,0,,,72094.4,13.87,-0.24,0.73,0.6,57.1,-7.5,15.7,35.81,,,,,,,,,,
14.00.01.103,-119.7,29.9,0,,,71774.1,13.93,-0.22,0.75,0.57,63.6,-9.1,16.6,35.81,,,,,,,,,,
14.00.01.115,-118.7,29.7,0,,,71665.3,13.95,-0.32,0.86,0.59,61.3,-7.8,18.2,35.81,,,,,,,,,,
14.00.01.123,-155.3,38.8,0,,,70527.5,14.18,-0.21,0.83,0.56,53.4,-0.4,14.5,35.81,,,,,,,,,,
14.00.01.136,-132.4,33.1,0,,,73321.3,13.64,-0.15,0.78,0.53,47.5,2.7,6.4,35.81,,,,,,,,,,
14.00.01.144,-121.7,30.4,0,,,75103.3,13.31,-0.18,0.83,0.54,44.1,0.1,8.5,35.81,,,,,,,,,,
14.00.01.156,-109.0,27.2,0,,,74413.5,13.44,-0.17,0.85,0.54,47.5,9.7,16.0,35.81,,,,,,,,,,
14.00.01.164,-164.2,41.0,0,,,69885.8,14.31,-0.17,0.85,0.49,50.3,20.9,21.5,35.81,,,,,,,,,,
14.00.01.177,56.6,14.2,1,1.0,95.7,70388.6,14.21,-0.16,0.86,0.47,49.9,18.3,22.0,35.81,,,,,,,,,,
14.00.01.185,54.7,13.7,0,1.0,,71678.0,13.95,-0.17,0.86,0.45,46.6,14.4,16.1,35.81,,,,,,,,,,
14.00.01.197,170.7,42.7,0,1.0,,73672.7,13.57,-0.18,0.87,0.44,41.3,12.2,7.4,35.81,,,,,,,,,,
14.00.01.205,201.9,50.5,0,1.0,,72288.6,13.83,-0.2,0.89,0.43,35.5,12.3,-0.9,35.81,,,,,,,,,,
14.00.01.217,309.6,77.4,0,1.0,,70288.7,14.23,-0.21,0.92,0.46,25.5,9.8,-7.1,35.81,,,,,,,,,,
14.00.01.226,308.1,77.0,0,1.0,,71933.3,13.9,-0.21,0.93,0.47,13.2,2.2,-11.1,35.81,,,,,,,,,,
14.00.01.238,297.5,74.4,0,1.0,,73012.1,13.7,-0.22,0.93,0.48,-2.8,-3.5,-16.0,35.81,,,,,,,,,,
14.00.01.251,431.2,107.8,0,1.0,,73934.4,13.53,-0.22,0.91,0.47,-19.5,-9.0,-20.8,35.81,,,,,,,,,,
14.00.01.259,364.4,91.1,0,1.0,,69255.8,14.44,-0.23,0.9,0.5,-35.2,-13.6,-21.2,35.81,,,,,,,,,,
14.00.01.271,347.7,86.9,0,1.0,,76382.4,13.09,-0.24,0.84,0.53,-47.8,-13.0,-18.4,35.81,,,,,,,,,,
14.00.01.279,372.0,93.0,0,1.0,,72127.7,13.86,-0.26,0.8,0.57,-57.4,-14.7,-13.5,35.81,,,,,,,,,,
14.00.01.295,406.4,101.6,0,1.0,,77076.2,12.97,-0.28,0.75,0.61,-63.3,-15.3,-6.8,35.81,,,,,,,,,,
14.00.01.304,348.1,87.0,0,1.0,,76444.7,13.08,-0.28,0.69,0.62,-63.2,-16.4,-4.1,35.81,,,,,,,,,,
14.00.01.316,352.5,88.1,0,1.0,,71884.2,13.91,-0.26,0.62,0.64,-56.7,-19.8,-7.3,35.81,,,,,,,,,,
14.00.01.324,323.9,81.0,0,1.0,,75976.3,13.16,-0.27,0.58,0.65,-50.9,-20.0,-11.9,35.81,,,,,,,,,,
14.00.01.336,233.9,58.5,0,1.0,,75834.4,13.19,-0.26,0.56,0.67,-35.8,-23.9,-18.5,35.81,,,,,,,,,,
14.00.01.349,172.0,43.0,0,1.0,,73015.0,13.7,-0.25,0.56,0.68,-20.8,-24.1,-22.2,35.81,,,,,,,,,,
14.00.01.357,154.2,38.6,0,1.0,,74663.2,13.39,-0.24,0.54,0.68,-3.4,-25.5,-24.7,35.81,,,,,,,,,,
14.00.01.369,100.1,25.0,0,1.0,,75231.5,13.29,-0.24,0.56,0.66,12.0,-27.5,-23.0,35.81,,,,,,,,,,
14.00.01.377,14.0,3.5,0,1.0,,75301.0,13.28,-0.25,0.6,0.68,26.9,-29.3,-19.5,35.81,,,,,,,,,,
14.00.01.390,33.6,8.4,0,1.0,,72401.8,13.81,-0.26,0.64,0.65,40.0,-31.1,-16.0,35.81,,,,,,,,,,
14.00.01.398,36.7,9.2,0,1.0,,76031.5,13.15,-0.26,0.67,0.65,48.5,-35.7,-15.1,35.81,,,,,,,,,,
14.00.01.410,56.1,14.0,0,1.0,,74456.7,13.43,-0.26,0.7,0.63,51.2,-39.1,-16.2,35.81,,,,,,,,,,
14.00.01.423,62.8,15.7,0,1.0,,74231.5,13.47,-0.25,0.73,0.59,49.1,-42.1,-20.0,35.81,,,,,,,,,,
14.00.01.431,63.8,16.0,0,1.0,,66667.1,15.0,-0.23,0.74,0.55,44.3,-45.6,-25.7,35.81,,,,,,,,,,
14.00.01.443,102.4,25.6,0,1.0,,78142.9,12.8,-0.21,0.75,0.52,39.7,-47.6,-30.1,35.81,,,,,,,,,,
14.00.01.451,64.5,16.1,0,1.0,,70971.5,14.09,-0.19,0.76,0.49,38.0,-48.2,-32.1,35.81,,,,,,,,,,
14.00.01.463,43.3,10.8,0,1.0,,75812.8,13.19,-0.16,0.77,0.45,36.3,-47.8,-32.6,35.81,,,,,,,,,,
14.00.01.471,60.8,15.2,0,1.0,,75832.0,13.19,-0.13,0.77,0.43,34.5,-46.9,-33.1,35.81,,,,,,,,,,
14.00.01.484,17.8,4.4,0,1.0,,73674.1,13.57,-0.12,0.77,0.37,33.8,-45.0,-35.1,35.81,,,,,,,,,,
14.00.01.496,23.2,5.8,0,1.0,,74352.8,13.45,-0.1,0.77,0.34,36.0,-43.3,-36.6,35.81,,,,,,,,,,
14.00.01.504,-43.9,11.0,0,1.0,,72652.0,13.76,-0.08,0.78,0.31,40.8,-41.3,-35.2,35.81,,,,,,,,,,
14.00.01.517,8.8,2.2,0,1.0,,74783.1,13.37,-0.06,0.8,0.29,47.7,-37.2,-31.4,35.81,,,,,,,,,,
14.00.01.525,-16.2,4.0,0,1.0,,74199.1,13.48,-0.06,0.82,0.28,53.4,-33.1,-26.5,35.81,,,,,,,,,,
14.00.01.537,-16.8,4.2,0,1.0,,70237.9,14.24,-0.07,0.87,0.27,56.7,-30.3,-24.3,35.81,,,,,,,,,,
14.00.01.549,-26.0,6.5,0,1.0,,73470.3,13.61,-0.07,0.9,0.25,57.4,-27.7,-25.7,35.81,,,,,,,,,,
14.00.01.558,-39.1,9.8,0,1.0,,72630.8,13.77,-0.08,0.94,0.24,55.1,-24.7,-28.9,35.81,,,,,,,,,,
14.00.01.570,-84.3,21.1,0,1.0,,74471.0,13.43,-0.06,0.95,0.22,52.5,-23.0,-33.1,35.81,,,,,,,,,,
14.00.01.578,-59.9,15.0,0,1.0,,77550.9,12.89,-0.06,0.97,0.21,49.1,-20.1,-34.9,35.81,,,,,,,,,,
14.00.01.590,-6.8,1.7,0,1.0,,75600.2,13.23,-0.04,0.98,0.21,45.6,-16.6,-33.3,35.81,,,,,,,,,,
14.00.01.598,-42.1,10.5,0,1.0,,72503.2,13.79,-0.02,1.0,0.19,43.8,-12.6,-30.1,35.81,,,,,,,,,,
14.00.01.611,-79.7,19.9,0,1.0,,74118.4,13.49,-0.01,1.03,0.2,42.7,-8.5,-23.6,35.81,,,,,,,,,,
14.00.01.619,-45.3,11.3,0,1.0,,70112.2,14.26,0.01,1.05,0.18,43.4,-4.5,-18.2,35.81,,,,,,,,,,
14.00.01.631,-76.3,19.1,0,1.0,,75007.1,13.33,0.0,1.07,0.17,43.4,0.3,-11.7,35.81,,,,,,,,,,
14.00.01.644,-113.5,28.4,0,1.0,,73651.9,13.58,0.01,1.09,0.16,43.2,5.8,-6.6,35.81,,,,,,,,,,
14.00.01.652,-112.6,28.2,0,1.0,,70115.7,14.26,0.01,1.12,0.17,41.5,11.1,-1.8,35.81,,,,,,,,,,
14.00.01.664,-99.5,24.9,0,1.0,,79920.3,12.51,-0.01,1.16,0.17,37.3,16.8,0.7,35.81,,,,,,,,,,
14.00.01.672,-83.5,20.9,0,1.0,,77635.1,12.88,-0.02,1.2,0.18,31.0,20.8,0.0,35.81,,,,,,,,,,
14.00.01.685,-97.6,24.4,0,1.0,,71217.0,14.04,0.0,1.22,0.19,21.3,24.1,-2.7,35.81,,,,,,,,,,
14.00.01.693,-119.1,29.8,0,1.0,,73045.5,13.69,0.02,1.22,0.19,10.4,28.4,-4.3,35.81,,,,,,,,,,
14.00.01.705,-110.3,27.6,0,1.0,,73425.9,13.62,0.01,1.21,0.19,2.8,33.3,-1.9,35.81,,,,,,,,,,
14.00.01.713,-138.2,34.6,0,1.0,,78728.6,12.7,0.01,1.2,0.21,-1.2,35.8,2.7,35.81,,,,,,,,,,
14.00.01.725,-169.3,42.3,0,1.0,,75052.6,13.32,0.0,1.19,0.21,-3.5,40.3,7.6,35.81,,,,,,,,,,
14.00.01.734,-146.3,36.6,0,1.0,,71706.7,13.95,-0.02,1.18,0.23,-6.4,45.1,10.5,35.81,,,,,,,,,,
14.00.01.746,-172.7,43.2,0,1.0,,73553.0,13.6,-0.03,1.18,0.24,-9.8,48.6,13.8,35.81,,,,,,,,,,
14.00.01.754,-125.8,31.4,0,1.0,,74689.0,13.39,-0.05,1.16,0.26,-13.1,53.1,15.4,35.81,,,,,,,,,,
14.00.01.766,-161.3,40.3,0,1.0,,71471.7,13.99,-0.05,1.14,0.25,-16.2,55.8,17.4,35.81,,,,,,,,,,
14.00.01.775,72.0,18.0,1,2.0,101.6,77217.3,12.95,-0.05,1.11,0.26,-17.9,58.8,20.9,35.81,,,,,,,,,,
14.00.01.811,229.1,57.3,0,2.0,,73636.6,13.58,-0.05,1.1,0.28,-18.2,63.9,25.6,35.81,,,,,,,,,,
14.00.01.824,299.7,74.9,0,2.0,,73918.8,13.53,-0.1,1.04,0.35,-21.7,70.3,32.6,35.81,,,,,,,,,,
14.00.01.832,370.5,92.6,0,2.0,,75334.7,13.27,-0.12,1.02,0.36,-23.4,70.7,32.4,35.81,,,,,,,,,,
14.00.01.844,374.0,93.5,0,2.0,,70683.8,14.15,-0.13,0.99,0.37,-24.3,71.1,32.1,35.81,,,,,,,,,,
14.00.01.852,434.5,108.6,0,2.0,,69945.2,14.3,-0.15,0.97,0.4,-25.0,70.8,32.2,35.81,,,,,,,,,,
14.00.01.865,397.7,99.4,0,2.0,,74219.3,13.47,-0.16,0.97,0.42,-26.2,70.5,33.2,35.81,,,,,,,,,,
14.00.01.877,426.1,106.5,0,2.0,,73950.7,13.52,-0.17,0.95,0.45,-30.3,69.0,31.9,35.81,,,,,,,,,,
14.00.01.885,386.4,96.6,0,2.0,,74291.7,13.46,-0.18,0.93,0.47,-33.7,66.5,26.6,35.81,,,,,,,,,,
14.00.01.898,372.8,93.2,0,2.0,,73500.9,13.61,-0.19,0.92,0.51,-41.3,63.5,21.3,35.81,,,,,,,,,,
14.00.01.906,439.6,109.9,0,2.0,,75033.8,13.33,-0.19,0.89,0.51,-47.9,60.3,16.0,35.81,,,,,,,,,,
14.00.01.918,285.1,71.3,0,2.0,,71579.2,13.97,-0.17,0.86,0.52,-51.0,56.5,9.8,35.81,,,,,,,,,,
14.00.01.930,268.2,67.0,0,2.0,,74602.3,13.4,-0.19,0.82,0.52,-53.5,53.5,4.4,35.81,,,,,,,,,,
14.00.01.939,210.2,52.6,0,2.0,,72430.3,13.81,-0.18,0.82,0.52,-53.0,52.1,2.4,35.81,,,,,,,,,,
14.00.01.951,139.8,35.0,0,2.0,,72510.8,13.79,-0.19,0.8,0.54,-50.2,47.5,1.1,35.81,,,,,,,,,,
14.00.01.959,100.4,25.1,0,2.0,,72710.0,13.75,-0.18,0.8,0.54,-53.2,46.0,4.1,35.81,,,,,,,,,,
14.00.01.971,-13.2,3.3,0,2.0,,73088.1,13.68,-0.19,0.8,0.53,-57.7,43.6,6.6,35.81,,,,,,,,,,
14.00.01.984,-16.9,4.2,0,2.0,,70384.8,14.21,-0.22,0.82,0.53,-56.8,38.4,4.6,35.81,,,,,,,,,,
14.00.01.996,37.9,9.5,0,2.0,,73027.7,13.69,-0.21,0.8,0.54,-55.5,34.7,-0.3,35.81,,,,,,,,,,
14.00.02.004,71.8,18.0,0,2.0,,74958.9,13.34,-0.24,0.81,0.53,-58.1,33.3,-5.0,35.81,,,,,,,,,,
14.00.02.016,37.6,9.4,0,2.0,,72763.1,13.74,-0.26,0.77,0.53,-58.2,24.1,-11.9,35.81,,,,,,,,,,
14.00.02.029,84.1,21.0,0,2.0,,71705.2,13.95,-0.25,0.77,0.54,-61.5,19.7,-16.4,35.81,,,,,,,,,,
14.00.02.037,48.8,12.2,0,2.0,,73475.2,13.61,-0.25,0.77,0.53,-59.6,21.5,-21.7,35.81,,,,,,,,,,
14.00.02.049,32.5,8.1,0,2.0,,71186.1,14.05,-0.26,0.75,0.51,-61.1,19.9,-23.2,35.81,,,,,,,,,,
14.00.02.057,82.6,20.6,0,2.0,,73624.8,13.58,-0.26,0.74,0.53,-53.4,15.8,-27.2,35.81,,,,,,,,,,
14.00.02.070,40.6,10.2,0,2.0,,76368.7,13.09,-0.34,0.76,0.55,-47.5,14.8,-31.5,35.81,,,,,,,,,,
14.00.02.082,4.0,1.0,0,2.0,,75817.8,13.19,-0.3,0.76,0.54,-46.7,15.8,-32.0,35.81,,,,,,,,,,
14.00.02.091,-0.4,0.1,0,2.0,,77594.2,12.89,-0.25,0.73,0.53,-40.8,12.0,-38.6,35.81,,,,,,,,,,
14.00.02.103,-14.9,3.7,0,2.0,,72941.5,13.71,-0.25,0.73,0.52,-36.1,8.1,-43.2,35.81,,,,,,,,,,
14.00.02.111,17.1,4.3,0,2.0,,74069.1,13.5,-0.25,0.73,0.55,-35.4,4.9,-42.4,35.81,,,,,,,,,,
14.00.02.123,-10.1,2.5,0,2.0,,74254.9,13.47,-0.27,0.7,0.55,-35.7,6.7,-38.6,35.81,,,,,,,,,,
14.00.02.135,-39.1,9.8,0,2.0,,72136.6,13.86,-0.28,0.74,0.55,-33.4,6.0,-37.6,35.81,,,,,,,,,,
14.00.02.143,-18.2,4.6,0,2.0,,71112.8,14.06,-0.28,0.74,0.55,-24.0,4.5,-38.5,35.81,,,,,,,,,,
14.00.02.156,-39.4,9.8,0,2.0,,72146.8,13.86,-0.28,0.7,0.56,-19.4,-1.3,-43.2,35.81,,,,,,,,,,
14.00.02.164,-35.9,9.0,0,2.0,,79242.1,12.62,-0.3,0.67,0.55,-11.0,-2.8,-53.7,35.81,,,,,,,,,,
14.00.02.176,-65.8,16.4,0,2.0,,77040.9,12.98,-0.29,0.67,0.54,-6.5,-4.7,-55.8,35.81,,,,,,,,,,
14.00.02.188,-54.5,13.6,0,2.0,,71580.7,13.97,-0.29,0.64,0.52,8.2,-4.8,-54.2,35.81,,,,,,,,,,
14.00.02.197,-58.8,14.7,0,2.0,,74194.1,13.48,-0.26,0.65,0.51,24.0,3.5,-44.7,35.81,,,,,,,,,,
14.00.02.209,-68.8,17.2,0,2.0,,73461.2,13.61,-0.26,0.76,0.53,40.7,10.5,-30.3,35.81,,,,,,,,,,
14.00.02.217,-67.8,17.0,0,2.0,,72569.5,13.78,-0.26,0.88,0.56,41.5,19.9,-17.4,35.81,,,,,,,,,,
14.00.02.229,-85.9,21.5,0,2.0,,73793.7,13.55,-0.36,0.9,0.63,20.3,14.5,-14.0,35.81,,,,,,,,,,
14.00.02.238,-67.6,16.9,0,2.0,,74184.4,13.48,-0.35,0.91,0.58,-10.8,5.2,-21.7,35.81,,,,,,,,,,
14.00.02.250,-102.6,25.6,0,2.0,,79057.2,12.65,-0.31,0.84,0.54,-33.3,-5.2,-40.9,35.81,,,,,,,,,,
14.00.02.262,-116.1,29.0,0,2.0,,75344.3,13.27,-0.29,0.67,0.47,-44.2,-13.3,-51.5,35.81,,,,,,,,,,
14.00.02.270,-123.9,31.0,0,2.0,,75257.6,13.29,-0.21,0.63,0.45,-33.8,-10.8,-43.5,35.81,,,,,,,,,,
14.00.02.283,-110.7,27.7,0,2.0,,74810.7,13.37,-0.37,0.64,0.64,-32.2,-6.2,-30.6,35.81,,,,,,,,,,
14.00.02.291,-123.2,30.8,0,2.0,,77040.0,12.98,-0.28,0.69,0.54,-13.2,8.5,-19.3,35.81,,,,,,,,,,
14.00.02.303,-176.5,44.1,0,2.0,,72631.5,13.77,-0.31,0.65,0.57,-11.5,4.7,-16.8,35.81,,,,,,,,,,
14.00.02.315,-133.0,33.2,0,2.0,,72878.3,13.72,-0.33,0.72,0.6,-17.8,3.6,-17.1,35.81,,,,,,,,,,
14.00.02.324,-120.8,30.2,0,2.0,,73592.8,13.59,-0.33,0.69,0.61,-27.2,4.6,-22.2,35.81,,,,,,,,,,
14.00.02.336,-134.9,33.7,0,2.0,,76445.5,13.08,-0.34,0.66,0.58,-37.9,-2.7,-25.0,35.81,,,,,,,,,,
14.00.02.344,-162.6,40.6,0,2.0,,73384.7,13.63,-0.33,0.62,0.59,-43.6,-6.6,-25.5,35.81,,,,,,,,,,
14.00.02.356,-194.2,48.6,0,2.0,,70945.2,14.1,-0.35,0.62,0.6,-45.5,-6.1,-22.2,35.81,,,,,,,,,,
14.00.02.365,43.7,10.9,1,3.0,98.7,74864.8,13.36,-0.34,0.63,0.63,-44.2,-7.0,-15.8,35.81,,,,,,,,,,
14.00.02.377,88.1,22.0,0,3.0,,75887.8,13.18,-0.36,0.6,0.62,-43.3,-4.6,-9.6,35.81,,,,,,,,,,
14.00.02.389,204.9,51.2,0,3.0,,71129.2,14.06,-0.41,0.62,0.64,-39.7,-5.7,-4.0,35.81,,,,,,,,,,
14.00.02.397,227.4,56.8,0,3.0,,75135.7,13.31,-0.42,0.66,0.65,-36.1,-6.5,0.4,35.81,,,,,,,,,,
14.00.02.410,240.3,60.1,0,3.0,,75405.7,13.26,-0.41,0.65,0.65,-35.2,-3.5,0.2,35.81,,,,,,,,,,
14.00.02.418,349.1,87.3,0,3.0,,74047.2,13.5,-0.42,0.65,0.66,-35.0,-6.7,-1.7,35.81,,,,,,,,,,
14.00.02.430,333.7,83.4,0,3.0,,75722.8,13.21,-0.37,0.66,0.66,-35.9,-11.6,-2.9,35.81,,,,,,,,,,
14.00.02.438,348.4,87.1,0,3.0,,76515.8,13.07,-0.34,0.66,0.66,-35.4,-11.4,-3.8,35.81,,,,,,,,,,
14.00.02.451,359.1,89.8,0,3.0,,74573.1,13.41,-0.34,0.66,0.67,-33.8,-12.4,-2.8,35.81,,,,,,,,,,
14.00.02.459,380.0,95.0,0,3.0,,76059.9,13.15,-0.34,0.69,0.69,-31.3,-13.1,-0.3,35.81,,,,,,,,,,
14.00.02.471,410.9,102.7,0,3.0,,72575.5,13.78,-0.32,0.69,0.69,-29.4,-11.7,1.3,35.81,,,,,,,,,,
14.00.02.483,390.5,97.6,0,3.0,,71347.0,14.02,-0.32,0.64,0.71,-29.2,-13.5,1.4,35.81,,,,,,,,,,
14.00.02.492,370.2,92.6,0,3.0,,77263.1,12.94,-0.32,0.64,0.72,-26.2,-17.4,0.3,35.81,,,,,,,,,,
14.00.02.504,348.0,87.0,0,3.0,,72742.7,13.75,-0.32,0.64,0.71,-19.7,-14.3,-1.5,35.81,,,,,,,,,,
14.00.02.512,313.0,78.2,0,3.0,,73823.9,13.55,-0.31,0.64,0.71,-15.1,-8.3,-2.9,35.81,,,,,,,,,,
14.00.02.524,287.7,71.9,0,3.0,,72031.0,13.88,-0.29,0.65,0.7,-11.7,-12.3,-3.9,35.81,,,,,,,,,,
14.00.02.533,208.5,52.1,0,3.0,,71746.6,13.94,-0.28,0.68,0.7,-11.8,-12.1,-6.9,35.81,,,,,,,,,,
14.00.02.545,176.4,44.1,0,3.0,,74554.5,13.41,-0.28,0.67,0.68,-11.9,-11.9,-10.3,35.81,,,,,,,,,,
14.00.02.557,66.4,16.6,0,3.0,,73740.4,13.56,-0.28,0.69,0.69,-14.2,-15.6,-9.8,35.81,,,,,,,,,,
14.00.02.565,-4.0,1.0,0,3.0,,73994.2,13.51,-0.28,0.7,0.69,-16.5,-15.9,-9.0,35.81,,,,,,,,,,
14.00.02.578,19.0,4.8,0,3.0,,74072.0,13.5,-0.29,0.69,0.68,-17.1,-14.3,-9.0,35.81,,,,,,,,,,
14.00.02.614,61.1,15.3,0,3.0,,78288.2,12.77,-0.29,0.69,0.68,-18.5,-14.5,-9.2,35.81,,,,,,,,,,
14.00.02.623,85.2,21.3,0,3.0,,76983.3,12.99,-0.29,0.6,0.72,-18.8,-17.1,-9.4,35.81,,,,,,,,,,
14.00.02.635,92.4,23.1,0,3.0,,77219.5,12.95,-0.3,0.6,0.72,-15.8,-15.5,-7.2,35.81,,,,,,,,,,
14.00.02.643,67.7,16.9,0,3.0,,69832.2,14.32,-0.29,0.6,0.74,-13.7,-15.2,-4.6,35.81,,,,,,,,,,
14.00.02.656,74.4,18.6,0,3.0,,75535.7,13.24,-0.29,0.6,0.75,-13.1,-13.1,-4.1,35.81,,,,,,,,,,
14.00.02.668,56.7,14.2,0,3.0,,70342.3,14.22,-0.28,0.57,0.75,-12.8,-14.4,-4.9,35.81,,,,,,,,,,
14.00.02.676,27.0,6.8,0,3.0,,72474.6,13.8,-0.27,0.56,0.74,-10.9,-15.2,-6.4,35.81,,,,,,,,,,
14.00.02.688,1.1,0.3,0,3.0,,77681.5,12.87,-0.27,0.54,0.75,-5.8,-13.6,-6.8,35.81,,,,,,,,,,
14.00.02.696,-3.9,1.0,0,3.0,,77201.3,12.95,-0.27,0.55,0.74,0.0,-11.1,-5.1,35.81,,,,,,,,,,
14.00.02.709,-54.7,13.7,0,3.0,,76108.1,13.14,-0.25,0.57,0.74,5.7,-8.8,-0.4,35.81,,,,,,,,,,
14.00.02.717,-16.8,4.2,0,3.0,,75556.1,13.24,-0.26,0.6,0.75,8.7,-5.2,1.8,35.81,,,,,,,,,,
14.00.02.729,-31.6,7.9,0,3.0,,74698.3,13.39,-0.26,0.62,0.74,8.7,-3.8,2.0,35.81,,,,,,,,,,
14.00.02.737,-15.8,4.0,0,3.0,,75004.9,13.33,-0.26,0.63,0.74,6.0,-5.5,0.2,35.81,,,,,,,,,,
14.00.02.750,-33.8,8.4,0,3.0,,76413.0,13.09,-0.25,0.62,0.74,3.1,-4.7,-2.9,35.81,,,,,,,,,,
14.00.02.758,5.6,1.4,0,3.0,,70783.2,14.13,-0.25,0.63,0.74,2.2,-3.4,-4.3,35.81,,,,,,,,,,
14.00.02.771,-11.9,3.0,0,3.0,,74672.3,13.39,-0.25,0.62,0.75,2.8,-2.7,-3.4,35.81,,,,,,,,,,
14.00.02.778,-73.9,18.5,0,3.0,,72356.5,13.82,-0.24,0.62,0.74,3.6,-0.7,-1.8,35.81,,,,,,,,,,
14.00.02.791,-47.7,11.9,0,3.0,,73205.5,13.66,-0.24,0.62,0.73,4.1,0.8,-0.9,35.81,,,,,,,,,,
14.00.02.799,-57.3,14.3,0,3.0,,73582.5,13.59,-0.24,0.63,0.73,4.6,1.1,-0.5,35.81,,,,,,,,,,
14.00.02.811,-75.5,18.9,0,3.0,,74133.0,13.49,-0.24,0.64,0.74,3.4,2.6,-0.5,35.81,,,,,,,,,,
14.00.02.819,-103.8,26.0,0,3.0,,72738.9,13.75,-0.23,0.62,0.74,1.9,2.5,-1.9,35.81,,,,,,,,,,
14.00.02.832,-75.5,18.9,0,3.0,,68928.3,14.51,-0.24,0.61,0.74,0.8,1.9,-3.0,35.81,,,,,,,,,,
14.00.02.840,-85.5,21.4,0,3.0,,74213.7,13.47,-0.24,0.61,0.75,1.2,2.6,-4.2,35.81,,,,,,,,,,
14.00.02.852,-97.0,24.2,0,3.0,,72990.8,13.7,-0.25,0.6,0.75,2.7,4.6,-4.5,35.81,,,,,,,,,,
14.00.02.864,-131.4,32.8,0,3.0,,73318.8,13.64,-0.25,0.6,0.74,4.0,5.6,-3.5,35.81,,,,,,,,,,
14.00.02.872,-140.4,35.1,0,3.0,,75514.5,13.24,-0.25,0.62,0.74,5.2,6.7,-3.5,35.81,,,,,,,,,,
14.00.02.885,-107.2,26.8,0,3.0,,74481.0,13.43,-0.25,0.62,0.73,5.0,6.9,-3.1,35.81,,,,,,,,,,
14.00.02.897,-139.4,34.8,0,3.0,,74273.2,13.46,-0.25,0.63,0.73,4.1,6.1,-3.5,35.81,,,,,,,,,,
14.00.02.905,-147.8,37.0,0,3.0,,73668.7,13.57,-0.26,0.63,0.73,2.7,5.6,-3.6,35.81,,,,,,,,,,
14.00.02.918,-140.0,35.0,0,3.0,,73896.4,13.53,-0.27,0.63,0.73,2.0,5.6,-3.5,35.81,,,,,,,,,,
14.00.02.930,-134.7,33.7,0,3.0,,71707.5,13.95,-0.26,0.62,0.73,1.6,4.7,-3.2,35.81,,,,,,,,,,
14.00.02.943,-136.1,34.0,0,3.0,,74284.9,13.46,-0.27,0.61,0.74,1.7,4.8,-3.5,35.81,,,,,,,,,,
14.00.02.951,-126.9,31.7,0,3.0,,71976.1,13.89,-0.27,0.61,0.74,3.5,4.4,-3.3,35.81,,,,,,,,,,
14.00.02.963,49.9,12.5,1,4.0,98.1,72720.1,13.75,-0.27,0.6,0.74,5.0,4.4,-2.6,35.81,,,,,,,,,,
14.00.02.975,142.7,35.7,0,4.0,,71063.7,14.07,-0.26,0.61,0.74,6.0,4.4,-1.9,35.81,,,,,,,,,,
14.00.02.987,185.3,46.3,0,4.0,,75127.9,13.31,-0.26,0.62,0.72,6.4,4.3,-1.6,35.81,,,,,,,,,,
14.00.02.995,226.0,56.5,0,4.0,,78297.0,12.77,-0.27,0.63,0.72,6.2,4.2,-0.8,35.81,,,,,,,,,,
14.00.03.008,333.3,83.3,0,4.0,,75154.1,13.31,-0.26,0.63,0.73,5.6,4.2,-1.1,35.81,,,,,,,,,,
14.00.03.020,370.7,92.7,0,4.0,,67963.9,14.71,-0.26,0.64,0.72,4.4,2.8,-1.2,35.81,,,,,,,,,,
14.00.03.032,400.3,100.1,0,4.0,,74659.8,13.39,-0.26,0.64,0.73,2.7,2.1,-2.0,35.81,,,,,,,,,,
14.00.03.040,414.9,103.7,0,4.0,,73326.2,13.64,-0.25,0.63,0.73,1.6,1.8,-2.5,35.81,,,,,,,,,,
14.00.03.053,389.6,97.4,0,4.0,,74462.6,13.43,-0.24,0.62,0.73,1.5,2.2,-2.5,35.81,,,,,,,,,,
14.00.03.065,438.5,109.6,0,4.0,,76775.0,13.03,-0.25,0.63,0.74,1.9,3.0,-2.1,35.81,,,,,,,,,,
14.00.03.077,429.3,107.3,0,4.0,,74551.9,13.41,-0.25,0.62,0.74,2.0,3.8,-1.8,35.81,,,,,,,,,,
14.00.03.086,385.4,96.4,0,4.0,,75898.8,13.18,-0.25,0.63,0.73,1.7,4.7,-2.3,35.81,,,,,,,,,,
14.00.03.102,365.1,91.3,0,4.0,,74897.9,13.35,-0.25,0.63,0.73,0.9,4.6,-2.7,35.81,,,,,,,,,,
14.00.03.111,305.5,76.4,0,4.0,,71411.4,14.0,-0.25,0.63,0.73,0.2,5.0,-3.4,35.81,,,,,,,,,,
14.00.03.123,226.2,56.6,0,4.0,,75917.6,13.17,-0.25,0.62,0.72,-0.8,4.5,-3.7,35.81,,,,,,,,,,
14.00.03.131,210.6,52.6,0,4.0,,75780.0,13.2,-0.25,0.62,0.72,-1.0,4.0,-3.8,35.81,,,,,,,,,,
14.00.03.143,159.6,39.9,0,4.0,,74068.0,13.5,-0.25,0.62,0.74,-0.5,5.0,-4.0,35.81,,,,,,,,,,
14.00.03.151,65.3,16.3,0,4.0,,76070.1,13.15,-0.25,0.62,0.74,0.0,5.8,-4.0,35.81,,,,,,,,,,
14.00.03.163,-31.5,7.9,0,4.0,,75804.4,13.19,-0.25,0.62,0.73,0.3,5.7,-3.8,35.81,,,,,,,,,,
14.00.03.172,14.3,3.6,0,4.0,,73749.2,13.56,-0.25,0.62,0.73,-0.2,5.9,-4.4,35.81,,,,,,,,,,
14.00.03.184,23.7,5.9,0,4.0,,72302.7,13.83,-0.25,0.63,0.73,-1.0,6.1,-5.2,35.81,,,,,,,,,,
14.00.03.196,74.8,18.7,0,4.0,,72698.2,13.76,-0.25,0.62,0.74,-1.6,6.4,-5.6,35.81,,,,,,,,,,
14.00.03.204,31.4,7.8,0,4.0,,76781.5,13.02,-0.26,0.61,0.75,-1.2,6.7,-6.2,35.81,,,,,,,,,,
14.00.03.217,99.3,24.8,0,4.0,,73192.9,13.66,-0.24,0.6,0.74,0.3,10.0,-6.0,35.81,,,,,,,,,,
14.00.03.225,63.6,15.9,0,4.0,,75371.9,13.27,-0.23,0.61,0.73,3.8,14.1,-5.2,35.81,,,,,,,,,,
14.00.03.237,26.0,6.5,0,4.0,,72742.1,13.75,-0.23,0.62,0.75,7.7,17.3,-2.9,35.81,,,,,,,,,,
14.00.03.245,84.9,21.2,0,4.0,,73467.7,13.61,-0.24,0.62,0.75,10.4,20.2,-0.1,35.81,,,,,,,,,,
14.00.03.258,47.9,12.0,0,4.0,,75901.7,13.17,-0.23,0.64,0.74,10.4,22.3,1.7,35.81,,,,,,,,,,
14.00.03.266,-5.2,1.3,0,4.0,,75616.5,13.22,-0.25,0.64,0.73,10.0,24.7,1.2,35.81,,,,,,,,,,
14.00.03.278,8.0,2.0,0,4.0,,73646.0,13.58,-0.24,0.63,0.74,9.0,26.1,-0.9,35.81,,,,,,,,,,
14.00.03.290,-28.6,7.2,0,4.0,,77120.9,12.97,-0.23,0.63,0.74,9.5,29.9,-2.6,35.81,,,,,,,,,,
14.00.03.299,-15.0,3.8,0,4.0,,72440.0,13.8,-0.25,0.65,0.73,12.2,33.0,-3.5,35.81,,,,,,,,,,
14.00.03.311,-9.8,2.4,0,4.0,,72246.3,13.84,-0.25,0.66,0.72,13.4,36.0,-3.7,35.81,,,,,,,,,,
14.00.03.319,-15.7,3.9,0,4.0,,73955.1,13.52,-0.25,0.67,0.71,12.0,36.4,-5.1,35.81,,,,,,,,,,
14.00.03.331,-21.7,5.4,0,4.0,,75898.0,13.18,-0.26,0.68,0.71,7.0,31.0,-5.2,35.81,,,,,,,,,,
14.00.03.340,-30.5,7.6,0,4.0,,78917.8,12.67,-0.27,0.66,0.72,0.1,26.5,-8.5,35.81,,,,,,,,,,
14.00.03.352,-35.6,8.9,0,4.0,,70651.2,14.15,-0.28,0.67,0.7,-4.2,21.3,-10.3,35.81,,,,,,,,,,
14.00.03.360,-47.8,12.0,0,4.0,,74210.3,13.48,-0.31,0.66,0.71,-8.0,17.8,-11.5,35.81,,,,,,,,,,
14.00.03.372,-65.1,16.3,0,4.0,,76965.4,12.99,-0.33,0.66,0.7,-11.5,17.3,-11.6,35.81,,,,,,,,,,
14.00.03.381,-42.8,10.7,0,4.0,,74518.0,13.42,-0.35,0.66,0.71,-14.4,17.1,-11.7,35.81,,,,,,,,,,
14.00.03.417,-81.7,20.4,0,4.0,,72588.7,13.78,-0.35,0.65,0.71,-17.8,14.2,-12.7,35.75,,,,,,,,,,
14.00.03.434,-67.1,16.8,0,4.0,,73669.7,13.57,-0.29,0.59,0.74,-20.1,6.6,-12.1,35.75,,,,,,,,,,
14.00.03.442,-119.2,29.8,0,4.0,,73834.1,13.54,-0.34,0.58,0.7,-17.6,8.8,-10.0,35.75,,,,,,,,,,
14.00.03.454,-97.6,24.4,0,4.0,,77315.0,12.93,-0.31,0.59,0.73,-15.0,5.1,-7.9,35.75,,,,,,,,,,
14.00.03.463,-107.0,26.8,0,4.0,,77323.3,12.93,-0.32,0.59,0.74,-15.2,4.7,-8.8,35.75,,,,,,,,,,
14.00.03.475,-138.0,34.5,0,4.0,,72395.3,13.81,-0.31,0.58,0.73,-14.4,5.3,-9.1,35.75,,,,,,,,,,
14.00.03.483,-119.7,29.9,0,4.0,,78227.1,12.78,-0.31,0.5,0.74,-10.2,1.4,-11.5,35.75,,,,,,,,,,
14.00.03.495,-145.2,36.3,0,4.0,,73021.1,13.69,-0.33,0.57,0.78,-4.3,-7.3,-10.1,35.75,,,,,,,,,,
14.00.03.503,-127.4,31.8,0,4.0,,74879.0,13.35,-0.28,0.57,0.7,-5.2,14.2,-8.5,35.75,,,,,,,,,,
14.00.03.516,-166.2,41.6,0,4.0,,74983.1,13.34,-0.27,0.58,0.75,-1.5,4.5,-5.2,35.75,,,,,,,,,,
14.00.03.528,-152.3,38.1,0,4.0,,72666.6,13.76,-0.28,0.55,0.77,4.4,-8.1,-4.1,35.75,,,,,,,,,,
14.00.03.536,-164.7,41.2,0,4.0,,76076.6,13.14,-0.29,0.59,0.71,-2.5,14.8,-5.8,35.75,,,,,,,,,,
14.00.03.549,-155.1,38.8,0,4.0,,70899.5,14.1,-0.32,0.57,0.75,4.8,-3.8,-8.7,35.75,,,,,,,,,,
14.00.03.557,25.4,6.4,1,5.0,102.1,75108.0,13.31,-0.31,0.64,0.73,-5.8,1.7,-6.2,35.75,,,,,,,,,,
14.00.03.569,157.5,39.4,0,5.0,,75852.2,13.18,-0.34,0.57,0.75,2.2,2.0,-11.7,35.75,,,,,,,,,,
14.00.03.577,176.5,44.1,0,5.0,,75568.5,13.23,-0.35,0.65,0.74,-5.4,0.2,-9.9,35.75,,,,,,,,,,
14.00.03.589,282.0,70.5,0,5.0,,77403.0,12.92,-0.34,0.59,0.75,-5.7,-3.7,-10.7,35.75,,,,,,,,,,
14.00.03.598,280.0,70.0,0,5.0,,74000.1,13.51,-0.34,0.63,0.73,-9.2,-1.7,-13.4,35.75,,,,,,,,,,
14.00.03.610,308.3,77.1,0,5.0,,69476.9,14.39,-0.35,0.58,0.74,-12.7,-2.0,-16.0,35.75,,,,,,,,,,
14.00.03.618,296.7,74.2,0,5.0,,77751.9,12.86,-0.34,0.62,0.73,-12.8,-1.9,-16.0,35.75,,,,,,,,,,
14.00.03.630,369.0,92.2,0,5.0,,73518.4,13.6,-0.35,0.6,0.74,-13.1,1.0,-16.0,35.75,,,,,,,,,,
14.00.03.639,400.9,100.2,0,5.0,,73141.8,13.67,-0.33,0.59,0.74,-13.9,0.9,-15.6,35.75,,,,,,,,,,
14.00.03.651,424.7,106.2,0,5.0,,72091.0,13.87,-0.34,0.59,0.75,-16.6,-2.8,-15.6,35.75,,,,,,,,,,
14.00.03.663,409.9,102.5,0,5.0,,71082.7,14.07,-0.32,0.58,0.72,-18.5,-3.0,-16.4,35.75,,,,,,,,,,
14.00.03.671,403.0,100.8,0,5.0,,70300.4,14.22,-0.33,0.55,0.73,-19.2,-4.8,-16.5,35.75,,,,,,,,,,
14.00.03.684,336.1,84.0,0,5.0,,74509.4,13.42,-0.32,0.54,0.72,-17.0,-3.0,-15.5,35.75,,,,,,,,,,
14.00.03.692,307.6,76.9,0,5.0,,76547.1,13.06,-0.32,0.54,0.74,-16.1,-2.1,-13.0,35.75,,,,,,,,,,
14.00.03.704,285.0,71.2,0,5.0,,73072.3,13.69,-0.31,0.54,0.74,-13.3,-2.2,-11.6,35.75,,,,,,,,,,
14.00.03.712,279.9,70.0,0,5.0,,74963.2,13.34,-0.32,0.54,0.74,-12.8,2.4,-12.0,35.75,,,,,,,,,,
14.00.03.725,195.0,48.8,0,5.0,,77837.5,12.85,-0.33,0.56,0.76,-12.3,-0.6,-12.5,35.75,,,,,,,,,,
14.00.03.737,118.8,29.7,0,5.0,,74386.6,13.44,-0.31,0.53,0.76,-13.1,-1.3,-13.5,35.75,,,,,,,,,,
14.00.03.745,92.2,23.0,0,5.0,,71919.2,13.9,-0.31,0.52,0.75,-12.4,-1.5,-12.3,35.75,,,,,,,,,,
14.00.03.757,-27.1,6.8,0,5.0,,74622.5,13.4,-0.32,0.52,0.74,-8.3,0.2,-8.9,35.75,,,,,,,,,,
14.00.03.766,21.3,5.3,0,5.0,,72471.0,13.8,-0.33,0.53,0.74,-5.5,3.8,-5.6,35.75,,,,,,,,,,
14.00.03.778,32.6,8.2,0,5.0,,75237.3,13.29,-0.33,0.54,0.75,-5.5,4.7,-3.5,35.75,,,,,,,,,,
14.00.03.786,42.2,10.6,0,5.0,,72104.4,13.87,-0.33,0.55,0.75,-8.5,2.5,-3.1,35.75,,,,,,,,,,
14.00.03.798,63.4,15.8,0,5.0,,70649.6,14.15,-0.32,0.55,0.75,-12.7,3.4,-4.2,35.75,,,,,,,,,,
14.00.03.811,34.2,8.6,0,5.0,,76377.3,13.09,-0.33,0.56,0.76,-14.5,1.7,-3.2,35.75,,,,,,,,,,
14.00.03.819,105.9,26.5,0,5.0,,74559.8,13.41,-0.32,0.55,0.74,-16.3,3.7,-1.7,35.75,,,,,,,,,,
14.00.03.831,90.2,22.6,0,5.0,,75478.0,13.25,-0.34,0.54,0.76,-19.4,3.9,-1.0,35.75,,,,,,,,,,
14.00.03.844,39.6,9.9,0,5.0,,72512.0,13.79,-0.34,0.53,0.76,-20.9,2.1,-1.0,35.75,,,,,,,,,,
14.00.03.852,46.8,11.7,0,5.0,,70717.9,14.14,-0.34,0.53,0.77,-22.6,1.4,-0.7,35.75,,,,,,,,,,
14.00.03.864,30.4,7.6,0,5.0,,76156.6,13.13,-0.34,0.52,0.78,-22.3,0.6,-0.1,35.75,,,,,,,,,,
14.00.03.876,0.3,0.1,0,5.0,,76385.1,13.09,-0.34,0.5,0.76,-21.7,0.3,1.4,35.75,,,,,,,,,,
14.00.03.884,-10.7,2.7,0,5.0,,72134.2,13.86,-0.34,0.49,0.78,-20.7,0.2,3.0,35.75,,,,,,,,,,
14.00.03.897,-49.2,12.3,0,5.0,,76635.1,13.05,-0.36,0.49,0.78,-18.8,-0.2,4.4,35.75,,,,,,,,,,
14.00.03.909,-26.6,6.6,0,5.0,,74411.7,13.44,-0.37,0.5,0.8,-17.7,-0.9,4.9,35.75,,,,,,,,,,
14.00.03.921,-19.0,4.8,0,5.0,,73723.4,13.56,-0.37,0.49,0.81,-16.7,-1.6,4.9,35.75,,,,,,,,,,
14.00.03.929,-39.4,9.8,0,5.0,,72231.4,13.84,-0.35,0.46,0.81,-16.1,-3.7,5.5,35.75,,,,,,,,,,
14.00.03.942,-38.3,9.6,0,5.0,,75489.2,13.25,-0.35,0.45,0.82,-13.1,-4.4,6.5,35.75,,,,,,,,,,
14.00.03.954,-81.4,20.4,0,5.0,,75296.2,13.28,-0.34,0.45,0.82,-8.9,-3.3,8.0,35.75,,,,,,,,,,
14.00.03.962,-51.7,12.9,0,5.0,,75164.1,13.3,-0.33,0.44,0.81,-4.3,-0.3,8.7,35.75,,,,,,,,,,
14.00.03.975,-90.1,22.5,0,5.0,,69153.0,14.46,-0.31,0.45,0.82,-0.3,-0.7,9.0,35.75,,,,,,,,,,
14.00.03.987,-75.8,19.0,0,5.0,,73104.2,13.68,-0.29,0.46,0.81,2.6,0.0,9.2,35.75,,,,,,,,,,
14.00.03.995,-83.6,20.9,0,5.0,,74394.2,13.44,-0.28,0.45,0.81,5.3,2.8,8.5,35.75,,,,,,,,,,
14.00.04.007,-70.9,17.7,0,5.0,,74352.1,13.45,-0.27,0.48,0.8,8.9,2.6,9.3,35.75,,,,,,,,,,
14.00.04.020,-112.4,28.1,0,5.0,,70745.7,14.14,-0.27,0.48,0.81,11.9,4.1,7.0,35.75,,,,,,,,,,
14.00.04.028,-103.9,26.0,0,5.0,,75142.9,13.31,-0.26,0.5,0.82,12.8,4.2,4.2,35.75,,,,,,,,,,
14.00.04.040,-58.1,14.5,0,5.0,,76372.6,13.09,-0.25,0.52,0.82,13.4,2.4,0.2,35.75,,,,,,,,,,
14.00.04.052,-111.3,27.8,0,5.0,,70097.7,14.27,-0.24,0.54,0.81,11.6,3.9,-3.8,35.75,,,,,,,,,,
14.00.04.061,-101.8,25.4,0,5.0,,74379.3,13.44,-0.24,0.56,0.81,8.4,4.8,-6.5,35.75,,,,,,,,,,
14.00.04.073,-153.0,38.2,0,5.0,,71816.1,13.92,-0.24,0.57,0.81,6.0,5.9,-7.4,35.75,,,,,,,,,,
14.00.04.085,-154.0,38.5,0,5.0,,74367.0,13.45,-0.25,0.56,0.81,4.0,7.2,-6.2,35.75,,,,,,,,,,
14.00.04.097,-122.9,30.7,0,5.0,,71629.5,13.96,-0.27,0.56,0.8,2.7,7.9,-4.8,35.75,,,,,,,,,,
14.00.04.106,-144.4,36.1,0,5.0,,74123.5,13.49,-0.28,0.54,0.8,1.1,8.5,-5.0,35.75,,,,,,,,,,
14.00.04.118,-130.5,32.6,0,5.0,,74037.8,13.51,-0.29,0.52,0.8,-1.5,7.6,-7.0,35.75,,,,,,,,,,
14.00.04.130,-165.2,41.3,0,5.0,,78015.5,12.82,-0.3,0.5,0.8,-3.3,4.6,-9.5,35.75,,,,,,,,,,
14.00.04.143,-128.6,32.2,0,5.0,,76572.4,13.06,-0.31,0.49,0.79,-3.0,3.2,-10.5,35.75,,,,,,,,,,
14.00.04.151,31.8,8.0,1,6.0,103.4,77762.4,12.86,-0.31,0.48,0.8,-1.7,2.3,-10.8,35.75,,,,,,,,,,
14.00.04.163,112.9,28.2,0,6.0,,72214.9,13.85,-0.33,0.48,0.81,0.9,0.9,-9.2,35.75,,,,,,,,,,
14.00.04.175,147.0,36.8,0,6.0,,69779.7,14.33,-0.34,0.48,0.81,3.4,2.4,-6.9,35.75,,,,,,,,,,
14.00.04.188,270.6,67.6,0,6.0,,71010.6,14.08,-0.34,0.5,0.8,5.2,2.2,-4.4,35.75,,,,,,,,,,
14.00.04.224,382.7,95.7,0,6.0,,71967.7,13.9,-0.31,0.52,0.79,4.9,-0.5,0.5,35.75,,,,,,,,,,
14.00.04.237,409.6,102.4,0,6.0,,74241.8,13.47,-0.29,0.51,0.79,5.0,-0.9,1.0,35.75,,,,,,,,,,
14.00.04.249,397.5,99.4,0,6.0,,77766.8,12.86,-0.29,0.51,0.8,6.1,-1.6,0.8,35.75,,,,,,,,,,
14.00.04.261,406.1,101.5,0,6.0,,73919.6,13.53,-0.28,0.51,0.81,6.4,-2.1,0.7,35.75,,,,,,,,,,
14.00.04.269,384.5,96.1,0,6.0,,75014.4,13.33,-0.28,0.52,0.81,6.3,-2.1,0.1,35.75,,,,,,,,,,
14.00.04.282,363.8,91.0,0,6.0,,76032.8,13.15,-0.28,0.52,0.81,6.0,-1.6,-0.8,35.75,,,,,,,,,,
14.00.04.294,309.7,77.4,0,6.0,,73006.6,13.7,-0.27,0.52,0.8,6.0,-1.8,-1.2,35.75,,,,,,,,,,
14.00.04.307,236.9,59.2,0,6.0,,74347.3,13.45,-0.28,0.52,0.8,5.8,-1.3,-1.5,35.75,,,,,,,,,,
14.00.04.315,209.9,52.5,0,6.0,,71625.8,13.96,-0.28,0.52,0.8,5.7,-0.9,-1.6,35.75,,,,,,,,,,
14.00.04.327,139.4,34.8,0,6.0,,69496.3,14.39,-0.28,0.53,0.8,5.7,-0.5,-1.5,35.75,,,,,,,,,,
14.00.04.339,101.9,25.5,0,6.0,,74618.8,13.4,-0.28,0.52,0.79,5.6,-0.3,-1.3,35.75,,,,,,,,,,
14.00.04.351,22.4,5.6,0,6.0,,74183.8,13.48,-0.29,0.52,0.79,6.0,0.4,-0.4,35.75,,,,,,,,,,
14.00.04.360,0.5,0.1,0,6.0,,74457.4,13.43,-0.29,0.52,0.79,5.6,1.4,0.5,35.75,,,,,,,,,,
14.00.04.372,37.7,9.4,0,6.0,,76345.5,13.1,-0.29,0.52,0.8,5.4,1.3,0.5,35.75,,,,,,,,,,
14.00.04.384,41.6,10.4,0,6.0,,77222.5,12.95,-0.29,0.52,0.8,5.1,2.3,0.7,35.75,,,,,,,,,,
14.00.04.397,92.3,23.1,0,6.0,,73892.7,13.53,-0.3,0.52,0.8,4.5,2.7,0.6,35.75,,,,,,,,,,
14.00.04.405,40.1,10.0,0,6.0,,71982.8,13.89,-0.3,0.53,0.8,4.9,2.5,0.7,35.75,,,,,,,,,,
14.00.04.417,80.2,20.0,0,6.0,,72351.2,13.82,-0.28,0.54,0.79,4.4,3.5,0.5,35.75,,,,,,,,,,
14.00.04.429,59.0,14.8,0,6.0,,70496.1,14.19,-0.27,0.53,0.8,3.3,3.2,0.0,35.75,,,,,,,,,,
14.00.04.437,64.8,16.2,0,6.0,,77724.9,12.87,-0.28,0.54,0.79,2.6,2.6,-0.5,35.75,,,,,,,,,,
14.00.04.450,50.3,12.6,0,6.0,,71617.8,13.96,-0.27,0.54,0.79,2.2,3.2,-0.6,35.75,,,,,,,,,,
14.00.04.462,13.4,3.4,0,6.0,,74370.7,13.45,-0.26,0.53,0.81,2.0,3.3,-0.4,35.75,,,,,,,,,,
14.00.04.475,4.3,1.1,0,6.0,,70407.1,14.2,-0.27,0.53,0.8,1.9,3.8,-0.8,35.75,,,,,,,,,,
14.00.04.483,10.4,2.6,0,6.0,,74515.6,13.42,-0.26,0.52,0.8,1.9,5.1,-1.1,35.75,,,,,,,,,,
14.00.04.495,-20.2,5.0,0,6.0,,73390.5,13.63,-0.26,0.51,0.8,1.7,3.7,-2.0,35.75,,,,,,,,,,
14.00.04.507,-44.3,11.1,0,6.0,,70509.5,14.18,-0.26,0.52,0.8,3.1,6.3,-1.9,35.75,,,,,,,,,,
14.00.04.515,-18.9,4.7,0,6.0,,71887.5,13.91,-0.28,0.52,0.8,5.2,6.5,-1.6,35.75,,,,,,,,,,
14.00.04.528,-42.8,10.7,0,6.0,,72064.2,13.88,-0.28,0.53,0.79,6.3,7.3,-1.5,35.75,,,,,,,,,,
14.00.04.540,-62.3,15.6,0,6.0,,74798.5,13.37,-0.29,0.53,0.79,5.9,7.7,-1.9,35.75,,,,,,,,,,
14.00.04.548,-36.3,9.1,0,6.0,,75543.3,13.24,-0.29,0.54,0.78,4.8,6.4,-2.2,35.75,,,,,,,,,,
14.00.04.560,-66.2,16.6,0,6.0,,74721.0,13.38,-0.29,0.54,0.79,4.4,6.2,-2.3,35.75,,,,,,,,,,
14.00.04.573,-68.2,17.0,0,6.0,,73966.3,13.52,-0.29,0.53,0.79,4.2,5.5,-1.9,35.75,,,,,,,,,,
14.00.04.581,-70.6,17.6,0,6.0,,74683.9,13.39,-0.3,0.53,0.79,4.3,5.5,-1.1,35.75,,,,,,,,,,
14.00.04.593,-52.7,13.2,0,6.0,,72040.2,13.88,-0.3,0.53,0.79,4.1,4.8,-0.6,35.75,,,,,,,,,,
14.00.04.605,-90.0,22.5,0,6.0,,74361.6,13.45,-0.29,0.53,0.79,4.0,4.1,0.4,35.75,,,,,,,,,,
14.00.04.618,-113.4,28.4,0,6.0,,73639.4,13.58,-0.29,0.53,0.79,4.3,3.5,1.0,35.75,,,,,,,,,,
14.00.04.626,-81.4,20.4,0,6.0,,73559.2,13.59,-0.29,0.53,0.79,4.9,3.7,1.5,35.75,,,,,,,,,,
14.00.04.639,-122.9,30.7,0,6.0,,74419.5,13.44,-0.28,0.54,0.79,5.1,3.3,2.0,35.75,,,,,,,,,,
14.00.04.646,-81.2,20.3,0,6.0,,71088.5,14.07,-0.28,0.54,0.79,4.9,2.7,2.0,35.75,,,,,,,,,,
14.00.04.659,-114.8,28.7,0,6.0,,70867.5,14.11,-0.26,0.54,0.8,4.5,2.2,2.2,35.75,,,,,,,,,,
14.00.04.667,-109.1,27.3,0,6.0,,75708.6,13.21,-0.25,0.55,0.78,3.6,3.7,3.1,35.75,,,,,,,,,,
14.00.04.679,-92.3,23.1,0,6.0,,72785.8,13.74,-0.26,0.54,0.79,4.2,1.8,3.2,35.75,,,,,,,,,,
14.00.04.687,-122.5,30.6,0,6.0,,75600.6,13.23,-0.26,0.55,0.79,4.4,2.5,2.9,35.75,,,,,,,,,,
14.00.04.700,-157.2,39.3,0,6.0,,73725.4,13.56,-0.26,0.54,0.79,4.0,2.6,1.5,35.75,,,,,,,,,,
14.00.04.708,-158.3,39.6,0,6.0,,73880.8,13.54,-0.26,0.54,0.79,4.4,2.4,0.3,35.75,,,,,,,,,,
14.00.04.720,-159.3,39.8,0,6.0,,76869.9,13.01,-0.26,0.55,0.8,4.6,3.5,-0.5,35.75,,,,,,,,,,
14.00.04.728,-144.7,36.2,0,6.0,,74118.4,13.49,-0.26,0.56,0.8,5.1,4.4,-0.8,35.75,,,,,,,,,,
14.00.04.741,-6.9,1.7,1,7.0,99.2,72729.9,13.75,-0.26,0.56,0.79,4.7,4.7,-0.9,35.75,,,,,,,,,,
14.00.04.749,69.1,17.3,0,7.0,,72983.3,13.7,-0.25,0.55,0.79,4.1,4.6,-1.2,35.75,,,,,,,,,,
14.00.04.761,170.1,42.5,0,7.0,,75317.7,13.28,-0.26,0.55,0.79,3.6,4.5,-1.0,35.75,,,,,,,,,,
14.00.04.769,186.7,46.7,0,7.0,,70866.6,14.11,-0.26,0.55,0.78,3.9,5.4,-1.0,35.75,,,,,,,,,,
14.00.04.782,229.5,57.4,0,7.0,,72272.0,13.84,-0.27,0.55,0.79,4.1,5.2,-0.7,35.75,,,,,,,,,,
14.00.04.790,330.5,82.6,0,7.0,,70927.3,14.1,-0.28,0.54,0.79,3.3,5.8,-1.5,35.75,,,,,,,,,,
14.00.04.802,316.6,79.2,0,7.0,,72461.0,13.8,-0.28,0.55,0.78,2.4,5.0,-1.7,35.75,,,,,,,,,,
14.00.04.810,350.3,87.6,0,7.0,,73535.0,13.6,-0.28,0.54,0.78,2.1,4.0,-1.8,35.75,,,,,,,,,,
14.00.04.823,428.0,107.0,0,7.0,,73099.4,13.68,-0.28,0.55,0.78,1.9,4.9,-1.3,35.75,,,,,,,,,,
14.00.04.831,376.2,94.0,0,7.0,,71055.5,14.07,-0.28,0.56,0.79,1.7,5.1,-0.2,35.75,,,,,,,,,,
14.00.04.843,420.1,105.0,0,7.0,,74110.3,13.49,-0.27,0.56,0.78,0.8,6.0,0.3,35.75,,,,,,,,,,
14.00.04.851,378.7,94.7,0,7.0,,74703.8,13.39,-0.27,0.56,0.78,0.2,6.7,-0.5,35.75,,,,,,,,,,
14.00.04.864,384.9,96.2,0,7.0,,74318.4,13.46,-0.26,0.55,0.78,-1.3,6.0,-0.7,35.75,,,,,,,,,,
14.00.04.872,409.6,102.4,0,7.0,,77000.1,12.99,-0.26,0.55,0.8,-2.8,5.1,-0.8,35.75,,,,,,,,,,
14.00.04.884,294.0,73.5,0,7.0,,75418.5,13.26,-0.26,0.55,0.8,-3.1,6.3,-0.6,35.75,,,,,,,,,,
14.00.04.892,310.4,77.6,0,7.0,,73186.6,13.66,-0.27,0.55,0.81,-3.0,6.5,-0.7,35.75,,,,,,,,,,
14.00.04.904,206.8,51.7,0,7.0,,80961.3,12.35,-0.25,0.53,0.79,-3.6,7.1,-1.8,35.75,,,,,,,,,,
14.00.04.917,166.2,41.6,0,7.0,,70992.9,14.09,-0.26,0.52,0.79,-3.3,7.1,-2.8,35.75,,,,,,,,,,
14.00.04.925,139.3,34.8,0,7.0,,71957.2,13.9,-0.26,0.53,0.79,-0.3,7.8,-3.0,35.75,,,,,,,,,,
14.00.04.937,39.8,10.0,0,7.0,,73160.4,13.67,-0.25,0.54,0.78,3.5,9.0,-1.6,35.75,,,,,,,,,,
14.00.04.945,29.7,7.4,0,7.0,,70011.6,14.28,-0.25,0.55,0.77,5.2,10.8,-0.1,35.75,,,,,,,,,,
14.00.04.958,19.5,4.9,0,7.0,,77286.1,12.94,-0.25,0.57,0.78,4.3,10.5,0.0,35.75,,,,,,,,,,
14.00.04.966,24.7,6.2,0,7.0,,71508.3,13.98,-0.28,0.57,0.78,1.1,9.2,-1.6,35.75,,,,,,,,,,
14.00.04.979,41.6,10.4,0,7.0,,72067.6,13.88,-0.28,0.56,0.79,-2.8,7.9,-3.2,35.75,,,,,,,,,,
14.00.04.987,72.7,18.2,0,7.0,,73921.5,13.53,-0.29,0.54,0.8,-4.8,5.8,-3.8,35.75,,,,,,,,,,
14.00.05.023,43.8,11.0,0,7.0,,74706.3,13.39,-0.29,0.52,0.79,-3.5,5.7,-3.7,35.75,,,,,,,,,,
14.00.05.036,68.6,17.2,0,7.0,,71394.2,14.01,-0.28,0.54,0.79,6.7,4.8,1.4,35.75,,,,,,,,,,
14.00.05.044,23.2,5.8,0,7.0,,71666.8,13.95,-0.27,0.56,0.79,5.9,4.6,1.0,35.75,,,,,,,,,,
14.00.05.056,9.8,2.4,0,7.0,,74182.9,13.48,-0.27,0.57,0.78,4.0,3.6,0.6,35.75,,,,,,,,,,
14.00.05.064,-12.0,3.0,0,7.0,,74024.4,13.51,-0.27,0.56,0.79,2.3,1.5,-0.3,35.75,,,,,,,,,,
14.00.05.077,5.5,1.4,0,7.0,,76809.9,13.02,-0.27,0.55,0.79,0.7,1.4,-1.4,35.75,,,,,,,,,,
14.00.05.089,-22.5,5.6,0,7.0,,74613.5,13.4,-0.26,0.55,0.78,1.1,0.8,-0.9,35.75,,,,,,,,,,
14.00.05.097,-30.1,7.5,0,7.0,,74665.3,13.39,-0.26,0.55,0.79,3.0,1.8,-0.2,35.75,,,,,,,,,,
14.00.05.109,-63.2,15.8,0,7.0,,74799.3,13.37,-0.26,0.55,0.78,3.6,3.2,-0.2,35.75,,,,,,,,,,
14.00.05.122,-20.1,5.0,0,7.0,,74175.0,13.48,-0.25,0.56,0.79,3.1,2.8,-0.4,35.75,,,,,,,,,,
14.00.05.130,-16.0,4.0,0,7.0,,71468.3,13.99,-0.26,0.57,0.79,1.9,4.0,-0.6,35.75,,,,,,,,,,
14.00.05.142,-62.3,15.6,0,7.0,,74164.4,13.48,-0.26,0.56,0.79,0.9,4.6,-1.6,35.75,,,,,,,,,,
14.00.05.154,-79.9,20.0,0,7.0,,73135.7,13.67,-0.25,0.54,0.79,-1.2,4.4,-3.0,35.75,,,,,,,,,,
14.00.05.163,-79.8,20.0,0,7.0,,70984.7,14.09,-0.26,0.54,0.79,-1.5,4.4,-4.1,35.75,,,,,,,,,,
14.00.05.175,-45.5,11.4,0,7.0,,74165.9,13.48,-0.26,0.53,0.79,-0.6,4.5,-3.7,35.75,,,,,,,,,,
14.00.05.187,-69.8,17.4,0,7.0,,71673.3,13.95,-0.26,0.53,0.79,1.6,5.9,-2.6,35.75,,,,,,,,,,
14.00.05.195,-41.9,10.5,0,7.0,,75889.4,13.18,-0.28,0.53,0.78,3.5,7.9,-1.4,35.75,,,,,,,,,,
14.00.05.208,-99.5,24.9,0,7.0,,72929.9,13.71,-0.28,0.55,0.78,4.6,8.4,-0.6,35.75,,,,,,,,,,
14.00.05.220,-111.4,27.8,0,7.0,,76211.2,13.12,-0.28,0.55,0.79,4.5,8.6,-0.2,35.75,,,,,,,,,,
14.00.05.232,-104.5,26.1,0,7.0,,72480.8,13.8,-0.29,0.55,0.78,3.0,7.4,-0.5,35.75,,,,,,,,,,
14.00.05.240,-113.0,28.2,0,7.0,,74614.2,13.4,-0.28,0.55,0.78,2.4,6.8,-0.6,35.75,,,,,,,,,,
14.00.05.253,-134.3,33.6,0,7.0,,73674.4,13.57,-0.28,0.54,0.78,2.1,6.2,-0.5,35.75,,,,,,,,,,
14.00.05.265,-118.5,29.6,0,7.0,,72219.8,13.85,-0.27,0.55,0.78,2.2,5.1,-0.5,35.75,,,,,,,,,,
14.00.05.273,-152.6,38.2,0,7.0,,73480.1,13.61,-0.27,0.55,0.78,2.2,4.4,0.2,35.75,,,,,,,,,,
14.00.05.285,-157.9,39.5,0,7.0,,74041.0,13.51,-0.27,0.56,0.79,2.6,3.9,0.6,35.75,,,,,,,,,,
14.00.05.298,-160.0,40.0,0,7.0,,74437.3,13.43,-0.26,0.56,0.78,3.1,4.3,0.8,35.75,,,,,,,,,,
14.00.05.306,-149.7,37.4,0,7.0,,70881.9,14.11,-0.26,0.56,0.78,2.8,4.4,1.0,35.75,,,,,,,,,,
14.00.05.319,-177.3,44.3,0,7.0,,75042.1,13.33,-0.25,0.56,0.78,2.3,4.0,0.7,35.75,,,,,,,,,,
14.00.05.327,-141.1,35.3,0,7.0,,73914.1,13.53,-0.25,0.55,0.78,1.9,3.8,0.2,35.75,,,,,,,,,,
14.00.05.339,28.9,7.2,1,8.0,97.8,74410.1,13.44,-0.25,0.56,0.8,1.9,3.9,-0.3,35.75,,,,,,,,,,
14.00.05.351,117.9,29.5,0,8.0,,72192.3,13.85,-0.25,0.57,0.78,2.1,4.8,-0.5,35.75,,,,,,,,,,
14.00.05.359,184.0,46.0,0,8.0,,71010.9,14.08,-0.25,0.57,0.79,1.9,6.0,-1.0,35.75,,,,,,,,,,
14.00.05.371,229.4,57.4,0,8.0,,72052.0,13.88,-0.25,0.57,0.78,0.4,6.3,-1.9,35.75,,,,,,,,,,
14.00.05.384,248.2,62.0,0,8.0,,75719.9,13.21,-0.25,0.56,0.78,-0.9,6.3,-2.2,35.75,,,,,,,,,,
14.00.05.392,314.1,78.5,0,8.0,,68880.1,14.52,-0.25,0.56,0.78,-2.4,6.3,-2.9,35.75,,,,,,,,,,
14.00.05.404,358.3,89.6,0,8.0,,73135.4,13.67,-0.26,0.55,0.79,-2.3,6.6,-3.2,35.75,,,,,,,,,,
14.00.05.417,393.6,98.4,0,8.0,,76506.4,13.07,-0.27,0.54,0.78,-2.0,7.4,-2.9,35.75,,,,,,,,,,
14.00.05.425,425.4,106.4,0,8.0,,73295.2,13.64,-0.27,0.54,0.78,-1.3,7.6,-2.9,35.75,,,,,,,,,,
14.00.05.437,393.0,98.2,0,8.0,,73820.9,13.55,-0.28,0.53,0.79,0.0,8.0,-2.5,35.75,,,,,,,,,,
14.00.05.449,454.4,113.6,0,8.0,,71221.2,14.04,-0.28,0.53,0.78,1.6,8.3,-1.6,35.75,,,,,,,,,,
14.00.05.457,418.9,104.7,0,8.0,,74960.8,13.34,-0.27,0.54,0.79,2.8,7.6,-0.2,35.75,,,,,,,,,,
14.00.05.470,367.0,91.8,0,8.0,,74786.5,13.37,-0.28,0.54,0.78,3.4,7.5,0.2,35.75,,,,,,,,,,
14.00.05.482,317.4,79.4,0,8.0,,72752.9,13.75,-0.28,0.54,0.79,3.9,7.2,0.4,35.75,,,,,,,,,,
14.00.05.491,289.8,72.4,0,8.0,,72971.6,13.7,-0.27,0.56,0.78,3.8,6.5,0.9,35.75,,,,,,,,,,
14.00.05.503,173.9,43.5,0,8.0,,72335.0,13.82,-0.27,0.56,0.79,3.7,6.1,0.7,35.75,,,,,,,,,,
14.00.05.515,144.6,36.2,0,8.0,,76829.4,13.02,-0.27,0.57,0.78,2.9,5.0,0.4,35.75,,,,,,,,,,
14.00.05.523,113.0,28.2,0,8.0,,77280.0,12.94,-0.27,0.57,0.78,1.6,4.3,0.0,35.75,,,,,,,,,,
14.00.05.535,52.5,13.1,0,8.0,,75298.2,13.28,-0.26,0.57,0.78,0.9,4.2,-0.3,35.75,,,,,,,,,,
14.00.05.548,9.9,2.5,0,8.0,,75519.1,13.24,-0.25,0.57,0.78,0.3,3.8,-0.4,35.75,,,,,,,,,,
14.00.05.556,12.3,3.1,0,8.0,,73599.6,13.59,-0.25,0.57,0.78,0.1,4.7,-0.9,35.75,,,,,,,,,,
14.00.05.568,42.4,10.6,0,8.0,,74125.1,13.49,-0.25,0.56,0.79,-0.4,4.4,-1.4,35.75,,,,,,,,,,
14.00.05.580,89.7,22.4,0,8.0,,76652.1,13.05,-0.25,0.55,0.79,-1.1,5.0,-2.2,35.75,96.0,,,,,,,,,
14.00.05.589,97.8,24.4,0,8.0,,70082.5,14.27,-0.25,0.55,0.79,-0.8,5.8,-2.6,35.75,,,,,,,,,,
14.00.05.601,74.6,18.6,0,8.0,,72531.5,13.79,-0.25,0.55,0.79,-0.9,6.8,-2.5,35.75,,,,,,,,,,
14.00.05.613,74.3,18.6,0,8.0,,72796.3,13.74,-0.26,0.56,0.79,-0.7,7.4,-2.6,35.75,,,,,,,,,,
14.00.05.621,52.9,13.2,0,8.0,,73156.6,13.67,-0.26,0.55,0.79,-0.7,8.0,-2.7,35.75,,,,,,,,,,
14.00.05.634,37.4,9.4,0,8.0,,75676.7,13.21,-0.26,0.55,0.78,-1.3,8.3,-3.0,35.75,,,,,,,,,,
14.00.05.646,14.3,3.6,0,8.0,,74774.9,13.37,-0.27,0.54,0.79,-0.9,8.1,-3.2,35.75,,,,,,,,,,
14.00.05.654,11.7,2.9,0,8.0,,74849.3,13.36,-0.27,0.54,0.79,-0.3,8.6,-2.7,35.75,,,,,,,,,,
14.00.05.666,13.6,3.4,0,8.0,,75504.6,13.24,-0.28,0.54,0.79,1.1,9.3,-2.3,35.75,,,,,,,,,,
14.00.05.675,-37.8,9.4,0,8.0,,74959.5,13.34,-0.28,0.55,0.79,1.4,9.5,-1.5,35.75,,,,,,,,,,
14.00.05.687,-7.5,1.9,0,8.0,,71889.0,13.91,-0.28,0.55,0.78,1.7,9.3,-1.3,35.75,,,,,,,,,,
14.00.05.699,-65.6,16.4,0,8.0,,74895.4,13.35,-0.28,0.55,0.78,1.3,8.6,-1.0,35.75,,,,,,,,,,
14.00.05.707,-44.2,11.0,0,8.0,,70500.6,14.18,-0.28,0.55,0.78,0.8,7.5,-1.3,35.75,,,,,,,,,,
14.00.05.720,-51.3,12.8,0,8.0,,74574.1,13.41,-0.28,0.55,0.78,1.2,7.8,-0.4,35.75,,,,,,,,,,
14.00.05.732,-14.6,3.6,0,8.0,,74235.5,13.47,-0.27,0.55,0.78,1.5,7.5,-0.1,35.75,,,,,,,,,,
14.00.05.740,-47.9,12.0,0,8.0,,72798.6,13.74,-0.27,0.55,0.79,1.7,7.0,-0.1,35.75,,,,,,,,,,
14.00.05.752,-51.2,12.8,0,8.0,,74114.2,13.49,-0.26,0.55,0.77,1.2,6.5,-0.1,35.75,,,,,,,,,,
14.00.05.765,-72.6,18.2,0,8.0,,70158.0,14.25,-0.27,0.56,0.78,1.1,6.8,-0.4,35.75,,,,,,,,,,
14.00.05.773,-73.5,18.4,0,8.0,,76447.2,13.08,-0.26,0.56,0.78,0.6,7.0,-1.0,35.75,,,,,,,,,,
14.00.05.785,-129.4,32.4,0,8.0,,74174.6,13.48,-0.26,0.57,0.78,0.3,6.9,-0.8,35.75,,,,,,,,,,
14.00.05.826,-126.9,31.7,0,8.0,,76298.0,13.11,-0.26,0.56,0.79,-0.1,7.4,-1.0,35.81,,,,,,,,,,
14.00.05.834,-81.6,20.4,0,8.0,,69270.3,14.44,-0.26,0.55,0.78,-1.8,7.3,-2.7,35.81,,,,,,,,,,
14.00.05.847,-78.3,19.6,0,8.0,,71617.3,13.96,-0.26,0.55,0.78,-2.0,7.4,-3.2,35.81,,,,,,,,,,
14.00.05.855,-145.5,36.4,0,8.0,,74342.0,13.45,-0.27,0.55,0.79,-1.9,6.8,-3.4,35.81,,,,,,,,,,
14.00.05.867,-106.6,26.6,0,8.0,,74169.7,13.48,-0.27,0.55,0.78,-1.7,7.9,-3.6,35.81,,,,,,,,,,
14.00.05.876,-142.4,35.6,0,8.0,,69622.9,14.36,-0.27,0.54,0.78,-0.9,8.7,-3.4,35.81,,,,,,,,,,
14.00.05.888,-152.6,38.2,0,8.0,,73179.5,13.67,-0.28,0.54,0.79,-0.2,8.2,-3.1,35.81,,,,,,,,,,
14.00.05.897,-148.7,37.2,0,8.0,,72167.5,13.86,-0.29,0.54,0.79,0.7,8.8,-1.9,35.81,,,,,,,,,,
14.00.05.908,-148.0,37.0,0,8.0,,75934.5,13.17,-0.29,0.54,0.77,1.1,8.6,-1.4,35.81,,,,,,,,,,
14.00.05.916,-139.6,34.9,0,8.0,,76561.8,13.06,-0.28,0.54,0.78,1.2,8.0,-1.4,35.81,,,,,,,,,,
14.00.05.929,20.3,5.1,1,9.0,100.1,77731.7,12.86,-0.29,0.54,0.78,1.2,7.2,-1.3,35.81,,,,,,,,,,
14.00.05.937,23.7,5.9,0,9.0,,73418.1,13.62,-0.29,0.54,0.77,1.7,7.0,-0.7,35.81,,,,,,,,,,
14.00.05.949,87.1,21.8,0,9.0,,73649.3,13.58,-0.28,0.54,0.78,2.1,6.2,-0.1,35.81,,,,,,,,,,
14.00.05.957,167.3,41.8,0,9.0,,71207.4,14.04,-0.27,0.55,0.78,2.2,5.9,0.2,35.81,,,,,,,,,,
14.00.05.970,275.2,68.8,0,9.0,,78807.7,12.69,-0.28,0.55,0.78,2.6,5.0,0.6,35.81,,,,,,,,,,
14.00.05.978,300.7,75.2,0,9.0,,77208.6,12.95,-0.27,0.55,0.78,3.1,4.9,0.4,35.81,,,,,,,,,,
14.00.05.990,368.7,92.2,0,9.0,,71668.6,13.95,-0.28,0.55,0.78,3.7,5.2,0.4,35.81,,,,,,,,,,
14.00.05.998,354.1,88.5,0,9.0,,75605.5,13.23,-0.27,0.56,0.78,4.1,5.1,0.3,35.81,,,,,,,,,,
14.00.06.011,404.6,101.2,0,9.0,,78539.8,12.73,-0.27,0.57,0.78,3.4,5.4,0.0,35.81,,,,,,,,,,
14.00.06.019,368.2,92.0,0,9.0,,71415.8,14.0,-0.27,0.57,0.78,2.4,5.0,-0.3,35.81,,,,,,,,,,
14.00.06.031,409.1,102.3,0,9.0,,71668.3,13.95,-0.26,0.56,0.78,1.3,4.9,-1.1,35.81,,,,,,,,,,
14.00.06.039,377.2,94.3,0,9.0,,74279.9,13.46,-0.26,0.57,0.78,0.6,5.0,-1.4,35.81,,,,,,,,,,
14.00.06.052,377.9,94.5,0,9.0,,73772.5,13.56,-0.27,0.56,0.78,-0.1,5.7,-1.7,35.81,,,,,,,,,,
14.00.06.060,393.6,98.4,0,9.0,,74411.9,13.44,-0.26,0.55,0.78,-0.6,5.7,-2.1,35.81,,,,,,,,,,
14.00.06.072,328.1,82.0,0,9.0,,77843.5,12.85,-0.26,0.56,0.78,-1.1,5.8,-2.4,35.81,,,,,,,,,,
14.00.06.080,303.3,75.8,0,9.0,,74300.1,13.46,-0.26,0.55,0.78,-1.7,5.9,-2.8,35.81,,,,,,,,,,
14.00.06.093,220.7,55.2,0,9.0,,73175.7,13.67,-0.26,0.54,0.78,-1.6,5.8,-3.0,35.81,,,,,,,,,,
14.00.06.105,154.7,38.7,0,9.0,,74147.7,13.49,-0.27,0.53,0.78,-0.2,6.5,-2.8,35.81,,,,,,,,,,
14.00.06.113,158.0,39.5,0,9.0,,74026.8,13.51,-0.28,0.53,0.78,1.3,6.6,-2.2,35.81,,,,,,,,,,
14.00.06.125,75.0,18.8,0,9.0,,73939.9,13.52,-0.28,0.53,0.78,2.8,7.3,-1.6,35.81,,,,,,,,,,
14.00.06.134,6.8,1.7,0,9.0,,72793.2,13.74,-0.28,0.54,0.78,4.3,6.9,-0.7,35.81,,,,,,,,,,
14.00.06.146,9.6,2.4,0,9.0,,72992.3,13.7,-0.29,0.54,0.77,4.6,6.5,0.0,35.81,,,,,,,,,,
14.00.06.154,44.6,11.2,0,9.0,,73057.5,13.69,-0.29,0.55,0.77,5.3,5.9,0.8,35.81,,,,,,,,,,
14.00.06.166,69.7,17.4,0,9.0,,73002.2,13.7,-0.29,0.56,0.78,5.0,4.9,1.2,35.81,,,,,,,,,,
14.00.06.174,49.0,12.2,0,9.0,,75607.3,13.23,-0.28,0.56,0.77,4.6,3.9,1.1,35.81,,,,,,,,,,
14.00.06.187,66.1,16.5,0,9.0,,72226.1,13.85,-0.29,0.56,0.78,3.9,2.2,1.5,35.81,,,,,,,,,,
14.00.06.195,95.0,23.8,0,9.0,,72446.7,13.8,-0.28,0.57,0.78,3.6,1.8,1.3,35.81,,,,,,,,,,
14.00.06.207,86.5,21.6,0,9.0,,75800.8,13.19,-0.27,0.56,0.77,4.1,1.4,1.5,35.81,,,,,,,,,,
14.00.06.216,69.8,17.4,0,9.0,,73585.0,13.59,-0.27,0.56,0.77,3.4,1.2,1.6,35.81,,,,,,,,,,
14.00.06.228,43.4,10.8,0,9.0,,72423.9,13.81,-0.26,0.57,0.78,2.9,0.6,1.4,35.81,,,,,,,,,,
14.00.06.236,31.1,7.8,0,9.0,,75255.7,13.29,-0.26,0.57,0.78,2.1,0.5,0.9,35.81,,,,,,,,,,
14.00.06.248,28.3,7.1,0,9.0,,80952.4,12.35,-0.25,0.56,0.78,1.8,0.9,0.1,35.81,,,,,,,,,,
14.00.06.256,-30.4,7.6,0,9.0,,75320.4,13.28,-0.25,0.57,0.78,1.8,1.3,0.0,35.81,,,,,,,,,,
14.00.06.269,8.8,2.2,0,9.0,,73444.0,13.62,-0.25,0.57,0.78,1.6,2.2,-0.5,35.81,,,,,,,,,,
14.00.06.281,-14.3,3.6,0,9.0,,75829.5,13.19,-0.25,0.56,0.78,1.1,2.4,-1.1,35.81,,,,,,,,,,
14.00.06.289,-35.6,8.9,0,9.0,,77399.0,12.92,-0.26,0.56,0.79,1.1,2.7,-1.3,35.81,,,,,,,,,,
14.00.06.301,-25.1,6.3,0,9.0,,70903.7,14.1,-0.26,0.56,0.78,0.8,3.6,-1.5,35.81,,,,,,,,,,
14.00.06.314,-25.4,6.4,0,9.0,,75298.8,13.28,-0.26,0.55,0.78,1.3,5.0,-1.5,35.81,,,,,,,,,,
14.00.06.322,-74.7,18.7,0,9.0,,74861.1,13.36,-0.26,0.55,0.78,1.7,5.7,-1.5,35.81,,,,,,,,,,
14.00.06.334,-61.2,15.3,0,9.0,,75998.9,13.16,-0.27,0.55,0.78,1.6,5.8,-1.2,35.81,,,,,,,,,,
14.00.06.346,-79.5,19.9,0,9.0,,70857.2,14.11,-0.27,0.55,0.78,1.7,6.1,-1.5,35.81,,,,,,,,,,
14.00.06.359,-45.0,11.2,0,9.0,,72544.6,13.78,-0.27,0.55,0.78,1.7,6.0,-1.6,35.81,,,,,,,,,,
14.00.06.367,-59.8,15.0,0,9.0,,73966.8,13.52,-0.28,0.55,0.77,2.2,6.2,-0.9,35.81,,,,,,,,,,
14.00.06.379,-90.8,22.7,0,9.0,,75184.1,13.3,-0.27,0.56,0.77,2.5,5.8,-0.2,35.81,,,,,,,,,,
14.00.06.392,-120.1,30.0,0,9.0,,71919.3,13.9,-0.27,0.56,0.77,2.8,5.1,0.3,35.81,,,,,,,,,,
14.00.06.400,-137.1,34.3,0,9.0,,75384.7,13.27,-0.27,0.56,0.78,2.5,4.1,0.2,35.81,,,,,,,,,,
14.00.06.412,-82.3,20.6,0,9.0,,73449.9,13.61,-0.27,0.56,0.78,3.0,4.3,0.6,35.81,,,,,,,,,,
14.00.06.424,-94.5,23.6,0,9.0,,71712.8,13.94,-0.27,0.56,0.78,2.8,3.8,0.8,35.81,,,,,,,,,,
14.00.06.433,-109.8,27.4,0,9.0,,77444.7,12.91,-0.26,0.57,0.78,2.9,4.2,0.9,35.81,,,,,,,,,,
14.00.06.445,-171.5,42.9,0,9.0,,74572.0,13.41,-0.26,0.57,0.78,2.4,2.9,0.7,35.81,,,,,,,,,,
14.00.06.457,-123.9,31.0,0,9.0,,75276.8,13.28,-0.25,0.57,0.77,1.9,3.1,0.3,35.81,,,,,,,,,,
14.00.06.465,-108.9,27.2,0,9.0,,76909.3,13.0,-0.25,0.58,0.77,1.6,3.2,0.1,35.81,,,,,,,,,,
14.00.06.478,-136.9,34.2,0,9.0,,74045.6,13.51,-0.25,0.57,0.78,0.9,3.0,-0.4,35.81,,,,,,,,,,
14.00.06.490,-134.6,33.6,0,9.0,,73888.1,13.53,-0.24,0.57,0.78,0.3,3.1,-1.4,35.81,,,,,,,,,,
14.00.06.498,-162.6,40.6,0,9.0,,75268.6,13.29,-0.25,0.57,0.78,-0.3,3.2,-1.8,35.81,,,,,,,,,,
14.00.06.510,-136.7,34.2,0,9.0,,73962.7,13.52,-0.24,0.57,0.79,-0.4,3.4,-2.3,35.81,,,,,,,,,,
14.00.06.523,20.1,5.0,1,10.0,102.2,74112.4,13.49,-0.25,0.57,0.78,-0.6,4.9,-2.2,35.81,,,,,,,,,,
14.00.06.531,40.1,10.0,0,10.0,,75777.2,13.2,-0.25,0.56,0.78,-0.8,5.9,-2.2,35.81,,,,,,,,,,
14.00.06.543,130.2,32.6,0,10.0,,74485.9,13.43,-0.25,0.56,0.78,-1.2,6.5,-2.7,35.81,,,,,,,,,,
14.00.06.555,160.4,40.1,0,10.0,,72875.0,13.72,-0.26,0.55,0.78,-1.2,6.9,-2.4,35.81,,,,,,,,,,
14.00.06.568,303.4,75.8,0,10.0,,71513.1,13.98,-0.26,0.55,0.78,-0.7,7.1,-2.4,35.81,,,,,,,,,,
14.00.06.576,311.0,77.8,0,10.0,,71141.0,14.06,-0.27,0.55,0.78,0.2,7.4,-2.4,35.81,,,,,,,,,,
14.00.06.588,335.0,83.8,0,10.0,,73866.2,13.54,-0.27,0.54,0.78,0.8,7.0,-1.8,35.81,,,,,,,,,,
14.00.06.629,388.1,97.0,0,10.0,,73117.0,13.68,-0.27,0.56,0.78,2.5,6.1,0.3,35.81,,,,,,,,,,
14.00.06.641,385.4,96.4,0,10.0,,70157.7,14.25,-0.27,0.57,0.77,2.0,5.2,0.4,35.81,,,,,,,,,,
14.00.06.650,369.9,92.5,0,10.0,,73714.2,13.57,-0.26,0.57,0.78,1.8,4.8,0.2,35.81,,,,,,,,,,
14.00.06.662,278.5,69.6,0,10.0,,76874.2,13.01,-0.26,0.58,0.78,1.3,4.1,-0.1,35.81,,,,,,,,,,
14.00.06.675,289.0,72.2,0,10.0,,73148.2,13.67,-0.26,0.57,0.79,1.4,3.9,0.0,35.81,,,,,,,,,,
14.00.06.682,232.4,58.1,0,10.0,,73671.6,13.57,-0.25,0.57,0.78,1.0,3.9,-0.3,35.81,,,,,,,,,,
14.00.06.695,242.9,60.7,0,10.0,,73370.9,13.63,-0.24,0.57,0.78,0.4,3.5,-0.5,35.81,,,,,,,,,,
14.00.06.707,134.1,33.5,0,10.0,,78009.9,12.82,-0.24,0.57,0.77,-0.2,3.7,-1.5,35.81,,,,,,,,,,
14.00.06.715,78.1,19.5,0,10.0,,74337.7,13.45,-0.25,0.57,0.78,-0.5,3.9,-2.0,35.81,,,,,,,,,,
14.00.06.728,4.5,1.1,0,10.0,,72838.7,13.73,-0.25,0.57,0.78,0.0,5.1,-2.0,35.81,,,,,,,,,,
14.00.06.740,21.0,5.2,0,10.0,,74602.2,13.4,-0.25,0.57,0.78,0.1,5.3,-2.4,35.81,,,,,,,,,,
14.00.06.752,47.7,11.9,0,10.0,,73459.9,13.61,-0.25,0.57,0.78,-0.6,6.1,-2.6,35.81,,,,,,,,,,
14.00.06.760,34.8,8.7,0,10.0,,69401.4,14.41,-0.25,0.57,0.77,-1.4,6.5,-2.6,35.81,,,,,,,,,,
14.00.06.773,76.9,19.2,0,10.0,,72972.6,13.7,-0.25,0.56,0.78,-1.9,6.9,-2.9,35.81,,,,,,,,,,
14.00.06.785,72.2,18.0,0,10.0,,73402.6,13.62,-0.26,0.55,0.78,-1.7,7.6,-2.9,35.81,,,,,,,,,,
14.00.06.793,59.8,15.0,0,10.0,,71283.7,14.03,-0.26,0.54,0.79,-1.2,7.7,-2.2,35.81,,,,,,,,,,
14.00.06.805,48.8,12.2,0,10.0,,73262.5,13.65,-0.26,0.54,0.78,0.1,7.8,-1.8,35.81,,,,,,,,,,
14.00.06.818,44.0,11.0,0,10.0,,72305.9,13.83,-0.27,0.55,0.78,1.6,8.1,-1.1,35.81,,,,,,,,,,
14.00.06.830,26.3,6.6,0,10.0,,71709.5,13.95,-0.27,0.55,0.78,2.5,8.0,-0.7,35.81,,,,,,,,,,
14.00.06.838,4.8,1.2,0,10.0,,73493.2,13.61,-0.27,0.56,0.78,3.1,7.4,-0.2,35.81,,,,,,,,,,
14.00.06.850,11.1,2.8,0,10.0,,74482.0,13.43,-0.27,0.56,0.78,3.3,6.7,0.4,35.81,,,,,,,,,,
14.00.06.863,22.8,5.7,0,10.0,,76149.2,13.13,-0.27,0.56,0.77,3.5,5.8,0.7,35.81,,,,,,,,,,
14.00.06.871,-32.3,8.1,0,10.0,,73190.7,13.66,-0.26,0.57,0.77,3.2,5.1,0.6,35.81,,,,,,,,,,
14.00.06.883,-13.3,3.3,0,10.0,,76181.5,13.13,-0.26,0.58,0.78,3.3,4.7,0.7,35.81,,,,,,,,,,
14.00.06.895,-18.8,4.7,0,10.0,,72847.1,13.73,-0.26,0.58,0.77,3.3,4.6,0.9,35.81,,,,,,,,,,
14.00.06.908,-13.4,3.4,0,10.0,,67426.0,14.83,-0.26,0.58,0.78,2.4,3.9,0.5,35.81,,,,,,,,,,
14.00.06.916,-57.4,14.4,0,10.0,,76845.4,13.01,-0.25,0.58,0.77,1.3,2.9,-0.1,35.81,,,,,,,,,,
14.00.06.928,-72.1,18.0,0,10.0,,76512.5,13.07,-0.24,0.58,0.78,0.0,2.7,-1.0,35.81,,,,,,,,,,
14.00.06.941,-61.6,15.4,0,10.0,,71080.9,14.07,-0.24,0.58,0.78,-1.1,2.4,-1.3,35.81,,,,,,,,,,
14.00.06.949,-55.0,13.8,0,10.0,,75574.8,13.23,-0.24,0.57,0.78,-1.0,2.9,-2.0,35.81,,,,,,,,,,
14.00.06.961,-90.4,22.6,0,10.0,,74934.7,13.34,-0.25,0.57,0.79,-1.0,4.0,-2.2,35.81,,,,,,,,,,
14.00.06.973,-40.5,10.1,0,10.0,,73217.9,13.66,-0.25,0.56,0.78,-0.8,4.3,-2.5,35.81,,,,,,,,,,
14.00.06.986,-66.7,16.7,0,10.0,,75803.2,13.19,-0.25,0.56,0.78,-0.8,5.1,-2.6,35.81,,,,,,,,,,
14.00.06.994,-82.1,20.5,0,10.0,,73370.4,13.63,-0.25,0.56,0.78,-0.5,5.8,-2.5,35.81,,,,,,,,,,
14.00.07.007,-104.6,26.2,0,10.0,,75062.8,13.32,-0.25,0.55,0.78,0.1,6.6,-2.5,35.81,,,,,,,,,,
14.00.07.018,-113.9,28.5,0,10.0,,74143.9,13.49,-0.26,0.55,0.78,0.5,7.2,-2.1,35.81,,,,,,,,,,
14.00.07.027,-93.3,23.3,0,10.0,,75516.7,13.24,-0.26,0.55,0.78,0.6,7.7,-1.9,35.81,,,,,,,,,,
14.00.07.039,-78.2,19.6,0,10.0,,72173.9,13.86,-0.27,0.55,0.78,1.5,7.5,-1.4,35.81,,,,,,,,,,
14.00.07.051,-174.2,43.6,0,10.0,,76097.6,13.14,-0.27,0.55,0.78,2.3,7.7,-1.1,35.81,,,,,,,,,,
14.00.07.059,-109.7,27.4,0,10.0,,75280.2,13.28,-0.27,0.56,0.77,2.7,7.5,-0.6,35.81,,,,,,,,,,
14.00.07.072,-116.8,29.2,0,10.0,,76616.6,13.05,-0.26,0.55,0.77,3.2,6.9,0.1,35.81,,,,,,,,,,
14.00.07.084,-165.2,41.3,0,10.0,,73533.8,13.6,-0.26,0.56,0.77,3.2,6.3,0.3,35.81,,,,,,,,,,
14.00.07.092,-166.9,41.7,0,10.0,,76455.8,13.08,-0.27,0.57,0.77,3.3,5.7,1.0,35.81,,,,,,,,,,
14.00.07.104,-141.3,35.3,0,10.0,,73411.0,13.62,-0.26,0.58,0.77,2.8,6.0,0.4,35.81,,,,,,,,,,
14.00.07.117,15.0,3.8,1,11.0,100.3,72726.2,13.75,-0.26,0.58,0.78,2.2,4.9,0.2,35.81,,,,,,,,,,
14.00.07.125,75.4,18.8,0,11.0,,71946.8,13.9,-0.25,0.59,0.77,1.3,5.0,0.2,35.81,,,,,,,,,,
14.00.07.137,105.1,26.3,0,11.0,,74709.4,13.39,-0.25,0.58,0.77,0.2,4.3,-0.3,35.81,,,,,,,,,,
14.00.07.149,218.6,54.6,0,11.0,,75291.9,13.28,-0.25,0.58,0.78,-0.5,4.0,-0.6,35.81,,,,,,,,,,
14.00.07.162,255.0,63.8,0,11.0,,67924.2,14.72,-0.24,0.57,0.78,-0.9,4.5,-1.6,35.81,,,,,,,,,,
14.00.07.170,324.3,81.1,0,11.0,,77596.6,12.89,-0.24,0.57,0.78,-1.0,4.5,-1.9,35.81,,,,,,,,,,
14.00.07.182,391.2,97.8,0,11.0,,74565.9,13.41,-0.25,0.57,0.78,-0.2,5.3,-2.0,35.81,,,,,,,,,,
14.00.07.194,414.2,103.6,0,11.0,,75405.9,13.26,-0.25,0.56,0.78,-0.1,6.5,-1.8,35.81,,,,,,,,,,
14.00.07.203,371.0,92.8,0,11.0,,71869.1,13.91,-0.25,0.56,0.79,0.0,6.9,-2.2,35.81,,,,,,,,,,
14.00.07.215,409.6,102.4,0,11.0,,74115.8,13.49,-0.25,0.56,0.78,-0.4,6.4,-2.3,35.81,,,,,,,,,,
14.00.07.227,395.9,99.0,0,11.0,,74746.6,13.38,-0.25,0.55,0.78,0.0,7.1,-2.1,35.81,,,,,,,,,,
14.00.07.240,401.8,100.4,0,11.0,,71794.2,13.93,-0.26,0.55,0.78,1.1,7.2,-2.1,35.81,,,,,,,,,,
14.00.07.248,293.5,73.4,0,11.0,,79020.4,12.65,-0.26,0.55,0.78,2.5,7.2,-1.5,35.81,,,,,,,,,,
14.00.07.260,335.1,83.8,0,11.0,,72220.3,13.85,-0.27,0.55,0.78,3.6,7.4,-1.0,35.81,,,,,,,,,,
14.00.07.272,326.1,81.5,0,11.0,,74030.3,13.51,-0.27,0.56,0.77,4.1,7.4,-0.4,35.81,,,,,,,,,,
14.00.07.281,294.6,73.6,0,11.0,,75708.0,13.21,-0.27,0.56,0.77,4.1,7.1,0.1,35.81,,,,,,,,,,
14.00.07.293,217.3,54.3,0,11.0,,73421.0,13.62,-0.26,0.56,0.76,3.9,6.2,0.6,35.81,,,,,,,,,,
14.00.07.305,119.9,30.0,0,11.0,,71773.9,13.93,-0.26,0.56,0.77,3.7,4.8,0.8,35.81,,,,,,,,,,
14.00.07.313,86.3,21.6,0,11.0,,73013.3,13.7,-0.25,0.56,0.77,3.7,3.8,0.6,35.81,,,,,,,,,,
14.00.07.326,-5.3,1.3,0,11.0,,72663.9,13.76,-0.25,0.57,0.78,4.3,3.6,0.7,35.81,,,,,,,,,,
14.00.07.338,25.4,6.4,0,11.0,,72688.5,13.76,-0.26,0.57,0.78,4.8,3.6,0.8,35.81,,,,,,,,,,
14.00.07.350,50.2,12.6,0,11.0,,73987.9,13.52,-0.25,0.57,0.77,5.1,3.3,1.0,35.81,,,,,,,,,,
14.00.07.358,46.5,11.6,0,11.0,,75171.8,13.3,-0.24,0.58,0.78,5.3,3.9,0.9,35.81,,,,,,,,,,
14.00.07.371,46.9,11.7,0,11.0,,74823.0,13.36,-0.25,0.58,0.78,4.6,4.0,0.7,35.81,,,,,,,,,,
14.00.07.379,83.0,20.8,0,11.0,,72184.9,13.85,-0.25,0.59,0.77,3.9,4.5,-0.1,35.81,,,,,,,,,,
14.00.07.391,58.8,14.7,0,11.0,,74566.5,13.41,-0.25,0.6,0.78,2.4,5.1,-1.0,35.81,,,,,,,,,,
14.00.07.432,39.3,9.8,0,11.0,,72171.7,13.86,-0.25,0.57,0.77,-4.1,5.3,-3.4,35.81,,,,,,,,,,
14.00.07.444,-25.6,6.4,0,11.0,,76470.8,13.08,-0.25,0.56,0.78,-4.6,6.0,-3.5,35.81,,,,,,,,,,
14.00.07.457,-19.2,4.8,0,11.0,,75236.0,13.29,-0.25,0.55,0.78,-3.7,6.7,-3.3,35.81,,,,,,,,,,
14.00.07.465,-8.7,2.2,0,11.0,,75067.6,13.32,-0.25,0.55,0.78,-2.0,7.5,-2.4,35.81,,,,,,,,,,
14.00.07.477,-31.6,7.9,0,11.0,,71807.7,13.93,-0.26,0.55,0.78,0.1,8.2,-1.8,35.81,,,,,,,,,,
14.00.07.489,-26.4,6.6,0,11.0,,75875.8,13.18,-0.26,0.55,0.77,1.5,8.6,-1.2,35.81,,,,,,,,,,
14.00.07.498,-41.8,10.4,0,11.0,,76077.0,13.14,-0.27,0.56,0.77,2.3,8.5,-0.4,35.81,,,,,,,,,,
14.00.07.510,-23.7,5.9,0,11.0,,72745.5,13.75,-0.26,0.56,0.77,2.5,7.6,-0.2,35.81,,,,,,,,,,
14.00.07.522,-20.5,5.1,0,11.0,,72385.8,13.81,-0.26,0.57,0.77,2.2,6.3,-0.1,35.81,,,,,,,,,,
14.00.07.535,-46.3,11.6,0,11.0,,74087.9,13.5,-0.26,0.57,0.77,2.0,5.4,0.0,35.81,,,,,,,,,,
14.00.07.543,-68.6,17.2,0,11.0,,72959.1,13.71,-0.26,0.58,0.77,1.7,4.9,-0.3,35.81,,,,,,,,,,
14.00.07.555,-75.2,18.8,0,11.0,,74323.5,13.45,-0.26,0.58,0.78,1.8,4.6,-0.4,35.81,,,,,,,,,,
14.00.07.567,-60.1,15.0,0,11.0,,72981.8,13.7,-0.25,0.59,0.78,1.4,4.4,-0.2,35.81,,,,,,,,,,
14.00.07.575,-90.9,22.7,0,11.0,,73989.9,13.52,-0.25,0.58,0.77,1.2,3.7,-0.3,35.81,,,,,,,,,,
14.00.07.588,-51.4,12.8,0,11.0,,70959.8,14.09,-0.24,0.58,0.77,0.5,3.3,-0.7,35.81,,,,,,,,,,
14.00.07.600,-106.6,26.6,0,11.0,,73574.2,13.59,-0.24,0.58,0.78,-0.7,3.2,-1.4,35.81,,,,,,,,,,
14.00.07.612,-94.1,23.5,0,11.0,,72756.8,13.74,-0.24,0.58,0.78,-0.8,3.1,-2.0,35.81,,,,,,,,,,
14.00.07.621,-102.1,25.5,0,11.0,,73282.8,13.65,-0.24,0.58,0.78,-0.6,3.9,-2.3,35.81,,,,,,,,,,
14.00.07.633,-83.2,20.8,0,11.0,,74882.8,13.35,-0.25,0.58,0.78,-0.4,5.1,-2.5,35.81,,,,,,,,,,
14.00.07.645,-97.3,24.3,0,11.0,,72396.1,13.81,-0.25,0.57,0.78,-0.7,5.5,-2.8,35.81,,,,,,,,,,
14.00.07.657,-113.2,28.3,0,11.0,,78861.2,12.68,-0.24,0.57,0.78,-1.4,6.0,-2.7,35.81,,,,,,,,,,
14.00.07.666,-136.7,34.2,0,11.0,,77673.4,12.87,-0.25,0.56,0.78,-1.6,6.5,-2.8,35.81,,,,,,,,,,
14.00.07.682,-146.2,36.6,0,11.0,,77394.1,12.92,-0.25,0.56,0.79,-1.5,7.1,-3.0,35.81,,,,,,,,,,
14.00.07.690,-113.8,28.4,0,11.0,,70751.7,14.13,-0.26,0.56,0.78,-0.6,7.5,-2.6,35.81,,,,,,,,,,
14.00.07.703,-151.5,37.9,0,11.0,,74484.6,13.43,-0.26,0.55,0.78,0.2,8.4,-2.2,35.81,,,,,,,,,,
14.00.07.711,-157.0,39.2,0,11.0,,70178.7,14.25,-0.26,0.55,0.78,1.0,8.0,-1.5,35.81,,,,,,,,,,
14.00.07.723,98.2,24.6,1,12.0,104.5,70873.0,14.11,-0.26,0.55,0.77,1.9,8.1,-0.9,35.81,,,,,,,,,,
14.00.07.731,86.9,21.7,0,12.0,,70634.2,14.16,-0.26,0.56,0.77,2.6,8.3,-0.5,35.81,,,,,,,,,,
14.00.07.744,181.1,45.3,0,12.0,,75261.2,13.29,-0.26,0.56,0.76,2.8,7.9,-0.1,35.81,,,,,,,,,,
14.00.07.752,235.4,58.8,0,12.0,,71991.4,13.89,-0.26,0.57,0.77,2.7,7.0,0.1,35.81,,,,,,,,,,
14.00.07.764,268.4,67.1,0,12.0,,71341.0,14.02,-0.26,0.57,0.77,2.6,6.4,0.2,35.81,,,,,,,,,,
14.00.07.772,345.5,86.4,0,12.0,,72485.5,13.8,-0.26,0.57,0.77,2.4,6.1,0.0,35.81,,,,,,,,,,
14.00.07.784,365.0,91.2,0,12.0,,74978.1,13.34,-0.25,0.58,0.78,2.2,5.6,0.1,35.81,,,,,,,,,,
14.00.07.793,411.4,102.8,0,12.0,,73222.1,13.66,-0.25,0.59,0.78,1.2,5.2,-0.2,35.81,,,,,,,,,,
14.00.07.805,448.7,112.2,0,12.0,,76546.1,13.06,-0.25,0.59,0.77,0.5,5.0,-0.3,35.81,,,,,,,,,,
14.00.07.813,433.0,108.2,0,12.0,,75434.4,13.26,-0.25,0.58,0.77,-0.3,3.9,-1.0,35.81,,,,,,,,,,
14.00.07.825,410.5,102.6,0,12.0,,74891.9,13.35,-0.24,0.58,0.78,-1.0,4.1,-1.3,35.81,,,,,,,,,,
14.00.07.834,368.4,92.1,0,12.0,,77678.2,12.87,-0.24,0.57,0.77,-1.7,3.9,-2.2,35.81,,,,,,,,,,
14.00.07.846,353.4,88.4,0,12.0,,75394.8,13.26,-0.24,0.57,0.78,-1.3,4.6,-2.3,35.81,,,,,,,,,,
14.00.07.854,312.6,78.2,0,12.0,,71376.8,14.01,-0.24,0.57,0.79,-0.2,5.6,-2.2,35.81,,,,,,,,,,
14.00.07.867,263.0,65.8,0,12.0,,73506.2,13.6,-0.25,0.56,0.78,0.4,6.6,-2.2,35.81,,,,,,,,,,
14.00.07.875,276.5,69.1,0,12.0,,76553.4,13.06,-0.25,0.57,0.78,-0.1,6.9,-2.1,35.81,,,,,,,,,,
14.00.07.887,170.3,42.6,0,12.0,,77585.5,12.89,-0.25,0.57,0.77,-0.4,6.4,-2.6,35.81,,,,,,,,,,
14.00.07.895,149.4,37.4,0,12.0,,71779.1,13.93,-0.25,0.56,0.77,-0.3,7.1,-2.6,35.81,,,,,,,,,,
14.00.07.907,91.3,22.8,0,12.0,,74108.2,13.49,-0.25,0.56,0.77,0.2,7.4,-2.3,35.81,,,,,,,,,,
14.00.07.916,53.7,13.4,0,12.0,,79225.9,12.62,-0.26,0.56,0.78,0.9,7.7,-2.1,35.81,,,,,,,,,,
14.00.07.928,47.7,11.9,0,12.0,,69175.1,14.46,-0.26,0.55,0.77,1.5,8.1,-2.1,35.81,,,,,,,,,,
14.00.07.936,3.2,0.8,0,12.0,,71473.5,13.99,-0.26,0.56,0.77,2.3,8.4,-1.6,35.81,,,,,,,,,,
14.00.07.948,51.3,12.8,0,12.0,,69595.9,14.37,-0.27,0.56,0.78,3.2,8.3,-1.1,35.81,,,,,,,,,,
14.00.07.957,63.1,15.8,0,12.0,,75836.2,13.19,-0.26,0.56,0.77,3.3,8.0,-0.5,35.81,,,,,,,,,,
14.00.07.969,67.0,16.8,0,12.0,,70905.1,14.1,-0.27,0.56,0.77,3.2,7.4,-0.3,35.81,,,,,,,,,,
14.00.07.977,98.0,24.5,0,12.0,,73600.6,13.59,-0.26,0.57,0.77,3.0,6.5,0.1,35.81,,,,,,,,,,
14.00.07.989,81.3,20.3,0,12.0,,77733.6,12.86,-0.26,0.57,0.77,2.8,5.7,0.1,35.81,,,,,,,,,,
14.00.07.998,75.6,18.9,0,12.0,,73149.2,13.67,-0.26,0.57,0.77,2.5,5.7,0.0,35.81,,,,,,,,,,
14.00.08.010,21.1,5.3,0,12.0,,72550.0,13.78,-0.26,0.58,0.77,2.5,5.3,-0.4,35.81,,,,,,,,,,
14.00.08.018,44.6,11.2,0,12.0,,75198.6,13.3,-0.26,0.59,0.78,1.5,4.7,-0.5,35.81,,,,,,,,,,
14.00.08.030,1.6,0.4,0,12.0,,74104.0,13.49,-0.25,0.59,0.77,1.2,4.5,-0.9,35.81,,,,,,,,,,
14.00.08.038,32.3,8.1,0,12.0,,76208.1,13.12,-0.24,0.58,0.77,0.3,4.8,-1.2,35.81,,,,,,,,,,
14.00.08.051,-23.4,5.8,0,12.0,,79432.0,12.59,-0.24,0.58,0.78,-0.3,4.4,-1.5,35.81,,,,,,,,,,
14.00.08.059,-5.7,1.4,0,12.0,,73625.3,13.58,-0.24,0.58,0.78,-0.5,5.1,-2.0,35.81,,,,,,,,,,
14.00.08.071,28.5,7.1,0,12.0,,72348.8,13.82,-0.25,0.58,0.78,-0.7,5.4,-2.5,35.81,,,,,,,,,,
14.00.08.079,-9.3,2.3,0,12.0,,80022.2,12.5,-0.25,0.57,0.77,-0.7,5.9,-2.3,35.81,,,,,,,,,,
14.00.08.092,-4.2,1.0,0,12.0,,76546.7,13.06,-0.25,0.57,0.78,-1.1,6.3,-2.4,35.81,,,,,,,,,,
14.00.08.100,-30.6,7.6,0,12.0,,77621.3,12.88,-0.25,0.57,0.78,-1.1,6.7,-2.5,35.81,,,,,,,,,,
14.00.08.112,-39.1,9.8,0,12.0,,74848.1,13.36,-0.25,0.56,0.78,-1.4,7.1,-2.8,35.81,,,,,,,,,,
14.00.08.120,-48.3,12.1,0,12.0,,70057.6,14.27,-0.26,0.56,0.78,-1.0,7.6,-2.7,35.81,,,,,,,,,,
14.00.08.133,-59.5,14.9,0,12.0,,72526.9,13.79,-0.25,0.55,0.78,-0.3,8.1,-2.9,35.81,,,,,,,,,,
14.00.08.141,-46.4,11.6,0,12.0,,72826.3,13.73,-0.26,0.55,0.78,0.9,8.6,-2.2,35.81,,,,,,,,,,
14.00.08.153,-52.9,13.2,0,12.0,,77390.5,12.92,-0.26,0.56,0.78,1.7,8.9,-1.9,35.81,,,,,,,,,,
14.00.08.161,-62.5,15.6,0,12.0,,73548.9,13.6,-0.27,0.56,0.77,2.5,9.0,-1.1,35.81,,,,,,,,,,
14.00.08.174,-62.8,15.7,0,12.0,,74455.2,13.43,-0.27,0.56,0.77,2.9,8.8,-1.0,35.81,,,,,,,,,,
14.00.08.186,-107.7,26.9,0,12.0,,71567.3,13.97,-0.27,0.57,0.77,2.5,8.3,-0.5,35.81,,,,,,,,,,
14.00.08.195,-109.2,27.3,0,12.0,,76143.5,13.13,-0.27,0.57,0.77,2.4,7.7,-0.5,35.81,,,,,,,,,,
14.00.08.231,-107.3,26.8,0,12.0,,76858.8,13.01,-0.26,0.57,0.76,2.2,6.6,-0.3,35.81,,,,,,,,,,
14.00.08.243,-102.2,25.6,0,12.0,,74145.1,13.49,-0.26,0.57,0.77,4.0,5.3,0.4,35.81,,,,,,,,,,
14.00.08.252,-137.3,34.3,0,12.0,,74119.0,13.49,-0.26,0.57,0.77,4.5,4.9,0.1,35.81,,,,,,,,,,
14.00.08.264,-161.9,40.5,0,12.0,,74937.1,13.34,-0.25,0.58,0.77,4.5,4.9,0.3,35.81,,,,,,,,,,
14.00.08.272,-135.8,34.0,0,12.0,,74190.6,13.48,-0.25,0.58,0.77,4.6,5.7,-0.2,35.81,,,,,,,,,,
14.00.08.284,-218.5,54.6,0,12.0,,75968.0,13.16,-0.25,0.59,0.77,3.7,5.3,-0.6,35.81,,,,,,,,,,
14.00.08.292,-121.2,30.3,0,12.0,,74811.8,13.37,-0.25,0.6,0.77,2.1,5.9,-1.4,35.81,,,,,,,,,,
14.00.08.305,-191.0,47.8,0,12.0,,74540.4,13.42,-0.25,0.6,0.77,0.6,5.8,-2.2,35.81,,,,,,,,,,
14.00.08.313,46.1,11.5,1,13.0,96.0,73593.8,13.59,-0.25,0.59,0.77,-1.5,5.2,-2.7,35.81,,,,,,,,,,
14.00.08.325,116.9,29.2,0,13.0,,74463.2,13.43,-0.24,0.58,0.77,-2.9,5.2,-3.1,35.81,,,,,,,,,,
14.00.08.333,160.3,40.1,0,13.0,,73416.6,13.62,-0.26,0.57,0.77,-3.5,4.9,-3.7,35.81,,,,,,,,,,
14.00.08.346,223.1,55.8,0,13.0,,74690.7,13.39,-0.25,0.57,0.78,-3.5,5.5,-3.6,35.81,,,,,,,,,,
14.00.08.354,259.4,64.8,0,13.0,,72978.3,13.7,-0.26,0.56,0.78,-2.7,7.0,-3.1,35.81,,,,,,,,,,
14.00.08.366,289.5,72.4,0,13.0,,72969.1,13.7,-0.26,0.56,0.78,-1.4,7.1,-2.7,35.81,,,,,,,,,,
14.00.08.374,336.2,84.0,0,13.0,,74635.5,13.4,-0.26,0.55,0.77,-0.3,8.1,-2.0,35.81,,,,,,,,,,
14.00.08.387,425.2,106.3,0,13.0,,75686.7,13.21,-0.27,0.55,0.77,0.9,7.7,-1.7,35.81,,,,,,,,,,
14.00.08.395,411.9,103.0,0,13.0,,68834.5,14.53,-0.27,0.55,0.77,1.5,7.4,-1.0,35.81,,,,,,,,,,
14.00.08.407,367.9,92.0,0,13.0,,73037.1,13.69,-0.27,0.56,0.76,2.4,7.2,-0.5,35.81,,,,,,,,,,
14.00.08.420,401.0,100.2,0,13.0,,73043.7,13.69,-0.27,0.57,0.76,2.4,6.8,-0.6,35.81,,,,,,,,,,
14.00.08.428,404.0,101.0,0,13.0,,74625.6,13.4,-0.27,0.57,0.76,2.2,6.0,-0.2,35.81,,,,,,,,,,
14.00.08.440,337.6,84.4,0,13.0,,75017.7,13.33,-0.27,0.59,0.76,1.5,5.1,0.2,35.81,,,,,,,,,,
14.00.08.452,338.0,84.5,0,13.0,,78324.1,12.77,-0.26,0.59,0.76,0.7,4.5,0.0,35.81,,,,,,,,,,
14.00.08.460,299.0,74.8,0,13.0,,72437.7,13.8,-0.27,0.58,0.77,-0.5,3.3,-0.9,35.81,,,,,,,,,,
14.00.08.473,230.2,57.6,0,13.0,,77866.4,12.84,-0.26,0.58,0.77,-1.4,2.7,-0.7,35.81,,,,,,,,,,
14.00.08.485,177.5,44.4,0,13.0,,69389.0,14.41,-0.25,0.58,0.77,-1.3,2.8,-0.7,35.81,,,,,,,,,,
14.00.08.493,155.1,38.8,0,13.0,,70450.9,14.19,-0.25,0.57,0.78,-0.9,3.1,-1.0,35.81,,,,,,,,,,
14.00.08.505,45.9,11.5,0,13.0,,71182.1,14.05,-0.25,0.57,0.78,-0.2,3.2,-1.2,35.81,,,,,,,,,,
14.00.08.518,-3.2,0.8,0,13.0,,76860.4,13.01,-0.24,0.58,0.77,-0.3,3.4,-1.2,35.81,,,,,,,,,,
14.00.08.530,4.1,1.0,0,13.0,,74898.7,13.35,-0.25,0.57,0.77,-0.5,3.8,-1.7,35.81,,,,,,,,,,
14.00.08.538,31.0,7.8,0,13.0,,76713.6,13.04,-0.25,0.57,0.78,-0.2,4.0,-1.9,35.81,,,,,,,,,,
14.00.08.551,68.8,17.2,0,13.0,,77575.3,12.89,-0.26,0.57,0.78,-0.1,4.5,-2.1,35.81,,,,,,,,,,
14.00.08.563,55.7,13.9,0,13.0,,73687.5,13.57,-0.25,0.57,0.78,0.2,5.3,-1.7,35.81,,,,,,,,,,
14.00.08.575,84.6,21.2,0,13.0,,74147.0,13.49,-0.25,0.56,0.78,0.3,6.3,-1.9,35.81,,,,,,,,,,
14.00.08.583,97.8,24.4,0,13.0,,73920.9,13.53,-0.26,0.57,0.77,0.8,6.3,-1.3,35.81,,,,,,,,,,
14.00.08.596,89.9,22.5,0,13.0,,74777.7,13.37,-0.27,0.56,0.77,0.8,6.6,-1.4,35.81,,,,,,,,,,
14.00.08.608,50.0,12.5,0,13.0,,76365.8,13.09,-0.26,0.56,0.77,1.2,6.3,-1.1,35.81,,,,,,,,,,
14.00.08.616,38.9,9.7,0,13.0,,73673.5,13.57,-0.27,0.56,0.77,1.0,6.2,-0.9,35.81,,,,,,,,,,
14.00.08.628,-3.8,1.0,0,13.0,,75919.1,13.17,-0.26,0.56,0.77,1.2,5.7,-0.8,35.81,,,,,,,,,,
14.00.08.641,-7.4,1.8,0,13.0,,74724.5,13.38,-0.26,0.57,0.77,1.6,5.4,-0.3,35.81,,,,,,,,,,
14.00.08.649,-0.8,0.2,0,13.0,,77210.5,12.95,-0.26,0.57,0.77,2.4,5.4,-0.2,35.81,,,,,,,,,,
14.00.08.661,-21.2,5.3,0,13.0,,71641.2,13.96,-0.26,0.58,0.77,2.5,4.8,0.1,35.81,,,,,,,,,,
14.00.08.673,-12.8,3.2,0,13.0,,75347.1,13.27,-0.26,0.58,0.77,2.3,4.9,-0.1,35.81,,,,,,,,,,
14.00.08.686,-24.5,6.1,0,13.0,,69738.5,14.34,-0.26,0.58,0.77,1.5,4.6,-0.1,35.81,,,,,,,,,,
14.00.08.694,-14.1,3.5,0,13.0,,72015.1,13.89,-0.25,0.58,0.78,0.8,4.4,-0.1,35.81,,,,,,,,,,
14.00.08.706,-59.1,14.8,0,13.0,,72598.0,13.77,-0.25,0.58,0.77,0.5,3.9,-0.2,35.81,,,,,,,,,,
14.00.08.718,-28.6,7.2,0,13.0,,73852.0,13.54,-0.25,0.58,0.77,0.1,3.4,-1.0,35.81,,,,,,,,,,
14.00.08.727,-52.7,13.2,0,13.0,,77014.5,12.98,-0.25,0.58,0.78,0.0,3.5,-1.5,35.81,,,,,,,,,,
14.00.08.739,-72.6,18.2,0,13.0,,73440.9,13.62,-0.24,0.58,0.78,-0.3,3.7,-2.1,35.81,,,,,,,,,,
14.00.08.751,-82.1,20.5,0,13.0,,71235.6,14.04,-0.25,0.57,0.78,-0.4,3.8,-2.1,35.81,,,,,,,,,,
14.00.08.764,-85.0,21.2,0,13.0,,77218.4,12.95,-0.25,0.57,0.78,-0.3,4.3,-2.1,35.81,,,,,,,,,,
14.00.08.772,-78.4,19.6,0,13.0,,71450.4,14.0,-0.25,0.57,0.78,-0.4,4.8,-2.0,35.81,,,,,,,,,,
14.00.08.784,-66.2,16.6,0,13.0,,76118.8,13.14,-0.25,0.57,0.78,-0.5,4.9,-2.6,35.81,,,,,,,,,,
14.00.08.796,-91.7,22.9,0,13.0,,69962.6,14.29,-0.26,0.57,0.77,-0.5,5.2,-2.3,35.81,,,,,,,,,,
14.00.08.809,-138.6,34.6,0,13.0,,72177.1,13.85,-0.25,0.56,0.78,0.5,6.1,-2.1,35.81,,,,,,,,,,
14.00.08.817,-140.7,35.2,0,13.0,,73031.3,13.69,-0.26,0.56,0.78,1.0,6.4,-1.9,35.81,,,,,,,,,,
14.00.08.829,-109.9,27.5,0,13.0,,72092.6,13.87,-0.25,0.56,0.77,1.4,6.7,-1.5,35.81,,,,,,,,,,
14.00.08.841,-125.6,31.4,0,13.0,,75834.0,13.19,-0.25,0.56,0.77,1.3,6.6,-1.0,35.81,,,,,,,,,,
14.00.08.854,-123.2,30.8,0,13.0,,69918.9,14.3,-0.26,0.57,0.77,1.8,6.9,-1.0,35.81,,,,,,,,,,
14.00.08.862,-138.1,34.5,0,13.0,,73929.5,13.53,-0.26,0.56,0.77,2.0,6.3,-0.6,35.81,,,,,,,,,,
14.00.08.875,-158.1,39.5,0,13.0,,73370.7,13.63,-0.25,0.57,0.78,2.3,5.9,-0.6,35.81,,,,,,,,,,
14.00.08.882,,,0,13.0,,,,,,,,,,,,,,,,,,,,
14.00.08.899,,,0,13.0,,,,,,,,,,,,35.79,,,,,,,,
14.00.08.911,79.1,19.8,1,14.0,102.6,74121.1,13.49,-0.25,0.57,0.78,2.5,5.6,-0.5,35.81,,,,,,,,,,
14.00.08.923,108.4,27.1,0,14.0,,71976.7,13.89,-0.25,0.58,0.78,2.3,5.5,-0.3,35.81,,,,,,,,,,
14.00.08.932,184.9,46.2,0,14.0,,73370.8,13.63,-0.25,0.58,0.78,2.0,5.6,-0.5,35.81,,,,,,,,,,
14.00.08.944,243.1,60.8,0,14.0,,74106.8,13.49,-0.25,0.58,0.78,1.6,6.1,-0.6,35.81,,,,,,,,,,
14.00.08.952,260.4,65.1,0,14.0,,74993.0,13.33,-0.25,0.59,0.78,1.3,6.8,-0.8,35.81,,,,,,,,,,
14.00.08.964,331.9,83.0,0,14.0,,78087.4,12.81,-0.25,0.59,0.77,0.5,6.8,-1.5,35.81,,,,,,,,,,
14.00.08.973,390.8,97.7,0,14.0,,74453.2,13.43,-0.25,0.58,0.77,-0.7,6.6,-2.1,35.81,,,,,,,,,,
14.00.08.985,395.1,98.8,0,14.0,,77862.9,12.84,-0.24,0.58,0.78,-1.8,6.4,-2.6,35.81,,,,,,,,,,
14.00.08.997,436.3,109.1,0,14.0,,73194.1,13.66,-0.25,0.57,0.78,-2.5,6.3,-2.9,35.81,,,,,,,,,,
14.00.09.034,349.6,87.4,0,14.0,,72671.9,13.76,-0.25,0.56,0.78,-2.3,6.1,-2.9,35.81,,,,,,,,,,
14.00.09.046,292.2,73.0,0,14.0,,72014.1,13.89,-0.26,0.55,0.77,2.3,7.1,-0.8,35.81,,,,,,,,,,
14.00.09.055,295.8,74.0,0,14.0,,72608.3,13.77,-0.26,0.56,0.77,3.2,6.4,-0.5,35.81,,,,,,,,,,
14.00.09.067,249.3,62.3,0,14.0,,71366.4,14.01,-0.26,0.57,0.77,3.8,6.5,-0.2,35.81,,,,,,,,,,
14.00.09.075,204.8,51.2,0,14.0,,68280.4,14.65,-0.26,0.57,0.78,3.6,5.8,0.1,35.81,,,,,,,,,,
14.00.09.087,176.7,44.2,0,14.0,,73025.7,13.69,-0.26,0.58,0.77,3.1,4.8,0.3,35.81,,,,,,,,,,
14.00.09.095,85.3,21.3,0,14.0,,76230.3,13.12,-0.26,0.58,0.77,2.4,4.1,0.1,35.81,,,,,,,,,,
14.00.09.108,-2.4,0.6,0,14.0,,77370.4,12.92,-0.25,0.58,0.78,2.3,3.2,-0.3,35.81,,,,,,,,,,
14.00.09.120,50.9,12.7,0,14.0,,75126.0,13.31,-0.26,0.58,0.77,1.9,3.1,-0.5,35.81,,,,,,,,,,
14.00.09.128,41.3,10.3,0,14.0,,71465.3,13.99,-0.25,0.58,0.78,1.6,2.4,-0.3,35.81,,,,,,,,,,
14.00.09.140,60.2,15.0,0,14.0,,71635.5,13.96,-0.25,0.58,0.77,1.4,2.8,-0.5,35.81,,,,,,,,,,
14.00.09.153,60.1,15.0,0,14.0,,73726.7,13.56,-0.25,0.58,0.77,1.3,2.5,-0.1,35.81,,,,,,,,,,
14.00.09.161,47.7,11.9,0,14.0,,74115.1,13.49,-0.24,0.57,0.77,1.6,2.7,-0.5,35.81,,,,,,,,,,
14.00.09.173,65.0,16.2,0,14.0,,74822.1,13.37,-0.24,0.58,0.77,1.3,3.6,-0.9,35.81,,,,,,,,,,
14.00.09.186,62.3,15.6,0,14.0,,71045.3,14.08,-0.25,0.58,0.78,1.6,3.5,-1.2,35.81,,,,,,,,,,
14.00.09.198,75.6,18.9,0,14.0,,72740.1,13.75,-0.24,0.58,0.77,1.1,4.3,-1.5,35.81,,,,,,,,,,
14.00.09.206,30.1,7.5,0,14.0,,73004.3,13.7,-0.25,0.58,0.77,0.4,5.3,-1.7,35.81,,,,,,,,,,
14.00.09.218,32.7,8.2,0,14.0,,74464.2,13.43,-0.25,0.58,0.78,0.1,5.4,-1.5,35.81,,,,,,,,,,
14.00.09.231,-26.0,6.5,0,14.0,,75138.6,13.31,-0.25,0.58,0.77,-0.6,6.1,-2.0,35.81,,,,,,,,,,
14.00.09.239,-20.5,5.1,0,14.0,,75693.5,13.21,-0.25,0.57,0.77,-0.8,6.4,-2.2,35.81,,,,,,,,,,
14.00.09.251,13.9,3.5,0,14.0,,75908.9,13.17,-0.25,0.57,0.77,-0.9,6.8,-1.9,35.81,,,,,,,,,,
14.00.09.263,-19.6,4.9,0,14.0,,73826.9,13.55,-0.26,0.56,0.78,-0.1,6.8,-1.7,35.81,,,,,,,,,,
14.00.09.276,-31.8,8.0,0,14.0,,72769.1,13.74,-0.26,0.56,0.77,0.9,7.4,-0.7,35.81,,,,,,,,,,
14.00.09.284,-30.1,7.5,0,14.0,,76145.9,13.13,-0.26,0.56,0.77,1.6,7.5,-0.8,35.81,,,,,,,,,,
14.00.09.296,-44.5,11.1,0,14.0,,74339.0,13.45,-0.25,0.57,0.77,2.3,7.2,-0.5,35.81,,,,,,,,,,
14.00.09.308,-54.7,13.7,0,14.0,,72276.8,13.84,-0.26,0.58,0.77,2.5,7.4,0.1,35.81,,,,,,,,,,
14.00.09.317,-65.3,16.3,0,14.0,,77576.6,12.89,-0.25,0.58,0.77,2.5,6.8,0.4,35.81,,,,,,,,,,
14.00.09.329,-78.2,19.6,0,14.0,,74978.6,13.34,-0.25,0.58,0.77,2.2,6.5,-0.1,35.81,,,,,,,,,,
14.00.09.341,-72.5,18.1,0,14.0,,71597.8,13.97,-0.25,0.59,0.77,1.5,5.9,-0.2,35.81,,,,,,,,,,
14.00.09.349,-58.1,14.5,0,14.0,,76338.8,13.1,-0.24,0.58,0.77,1.1,5.8,-0.6,35.81,,,,,,,,,,
14.00.09.362,-103.3,25.8,0,14.0,,73430.5,13.62,-0.24,0.58,0.77,0.8,5.7,-0.7,35.81,,,,,,,,,,
14.00.09.374,-73.3,18.3,0,14.0,,73876.0,13.54,-0.24,0.58,0.77,0.9,5.6,-1.0,35.81,,,,,,,,,,
14.00.09.382,-98.0,24.5,0,14.0,,72506.5,13.79,-0.24,0.58,0.78,1.0,6.1,-1.3,35.81,,,,,,,,,,
14.00.09.394,-95.3,23.8,0,14.0,,76725.3,13.03,-0.24,0.58,0.77,1.0,6.8,-1.5,35.81,,,,,,,,,,
14.00.09.407,-140.0,35.0,0,14.0,,73587.8,13.59,-0.24,0.58,0.77,0.3,6.6,-2.1,35.81,,,,,,,,,,
14.00.09.419,-144.1,36.0,0,14.0,,74185.6,13.48,-0.25,0.58,0.77,-0.2,6.8,-2.2,35.81,,,,,,,,,,
14.00.09.427,-147.1,36.8,0,14.0,,75512.9,13.24,-0.25,0.58,0.77,-0.7,6.4,-2.1,35.81,,,,,,,,,,
14.00.09.439,-112.7,28.2,0,14.0,,72055.2,13.88,-0.25,0.57,0.76,-1.2,6.7,-2.4,35.81,,,,,,,,,,
14.00.09.452,-156.4,39.1,0,14.0,,72739.0,13.75,-0.25,0.57,0.77,-1.3,6.3,-2.3,35.81,,,,,,,,,,
14.00.09.460,-116.1,29.0,0,14.0,,73596.0,13.59,-0.25,0.57,0.77,-0.9,6.6,-2.2,35.81,,,,,,,,,,
14.00.09.472,-152.0,38.0,0,14.0,,69920.7,14.3,-0.25,0.57,0.78,-0.5,6.6,-2.2,35.81,,,,,,,,,,
14.00.09.485,-150.2,37.6,0,14.0,,79599.1,12.56,-0.26,0.56,0.78,0.5,6.6,-1.6,35.81,,,,,,,,,,
14.00.09.497,-12.3,3.1,1,15.0,102.3,72882.3,13.72,-0.26,0.56,0.77,0.9,6.7,-1.3,35.81,,,,,,,,,,
14.00.09.505,58.0,14.5,0,15.0,,72521.6,13.79,-0.26,0.56,0.77,1.4,6.2,-0.8,35.81,,,,,,,,,,
14.00.09.517,106.7,26.7,0,15.0,,74199.8,13.48,-0.25,0.56,0.77,1.9,5.5,0.0,35.81,,,,,,,,,,
14.00.09.530,174.5,43.6,0,15.0,,75158.4,13.31,-0.25,0.57,0.77,2.3,5.1,0.3,35.81,,,,,,,,,,
14.00.09.542,250.7,62.7,0,15.0,,73516.7,13.6,-0.25,0.58,0.77,2.5,5.2,-0.1,35.81,,,,,,,,,,
14.00.09.550,295.7,73.9,0,15.0,,74336.1,13.45,-0.25,0.58,0.77,2.1,4.9,-0.4,35.81,,,,,,,,,,
14.00.09.563,332.0,83.0,0,15.0,,74165.5,13.48,-0.25,0.58,0.77,1.3,4.6,-0.5,35.81,,,,,,,,,,
14.00.09.575,381.9,95.5,0,15.0,,74323.1,13.45,-0.25,0.59,0.78,0.3,4.4,-1.2,35.81,,,,,,,,,,
14.00.09.587,427.6,106.9,0,15.0,,75014.9,13.33,-0.25,0.59,0.77,-0.3,4.2,-1.5,35.81,,,,,,,,,,
14.00.09.595,388.4,97.1,0,15.0,,79511.2,12.58,-0.24,0.58,0.78,-0.3,4.9,-1.5,35.81,,,,,,,,,,
14.00.09.608,421.7,105.4,0,15.0,,77821.1,12.85,-0.24,0.58,0.77,-0.1,5.4,-1.9,35.81,,,,,,,,,,
14.00.09.620,465.2,116.3,0,15.0,,75264.3,13.29,-0.25,0.58,0.77,-0.2,6.2,-1.8,35.81,,,,,,,,,,
14.00.09.632,375.1,93.8,0,15.0,,74832.7,13.36,-0.25,0.58,0.77,-0.4,6.5,-2.1,35.81,,,,,,,,,,
14.00.09.640,328.2,82.0,0,15.0,,72337.7,13.82,-0.25,0.58,0.77,-1.1,6.6,-2.1,35.81,,,,,,,,,,
14.00.09.653,294.0,73.5,0,15.0,,70285.9,14.23,-0.25,0.57,0.77,-1.7,6.8,-2.6,35.81,,,,,,,,,,
14.00.09.665,195.9,49.0,0,15.0,,75244.6,13.29,-0.25,0.56,0.77,-1.5,6.3,-2.7,35.81,,,,,,,,,,
14.00.09.677,151.8,38.0,0,15.0,,75554.9,13.24,-0.25,0.55,0.78,-0.7,6.7,-2.4,35.81,,,,,,,,,,
14.00.09.685,76.8,19.2,0,15.0,,74224.5,13.47,-0.25,0.56,0.77,0.8,6.9,-1.6,35.81,,,,,,,,,,
14.00.09.698,28.6,7.2,0,15.0,,67836.6,14.74,-0.25,0.56,0.77,1.3,6.5,-1.1,35.81,,,,,,,,,,
14.00.09.710,24.8,6.2,0,15.0,,72620.6,13.77,-0.25,0.57,0.77,2.4,6.4,-0.7,35.81,,,,,,,,,,
14.00.09.718,47.5,11.9,0,15.0,,74320.5,13.46,-0.25,0.57,0.77,3.0,6.0,0.2,35.81,,,,,,,,,,
14.00.09.730,58.2,14.6,0,15.0,,70651.3,14.15,-0.25,0.58,0.77,3.1,5.5,0.5,35.81,,,,,,,,,,
14.00.09.743,65.6,16.4,0,15.0,,76012.5,13.16,-0.25,0.59,0.76,3.0,5.0,0.2,35.81,,,,,,,,,,
14.00.09.751,50.9,12.7,0,15.0,,74025.6,13.51,-0.25,0.59,0.77,2.8,4.4,-0.1,35.81,,,,,,,,,,
14.00.09.763,61.4,15.4,0,15.0,,71565.1,13.97,-0.24,0.59,0.77,2.2,3.9,-0.1,35.81,,,,,,,,,,
14.00.09.776,66.5,16.6,0,15.0,,70647.4,14.15,-0.25,0.59,0.77,1.8,3.3,-0.5,35.81,,,,,,,,,,
14.00.09.784,81.0,20.2,0,15.0,,73969.0,13.52,-0.24,0.59,0.77,1.6,3.5,-0.4,35.81,,,,,,,,,,
14.00.09.796,25.5,6.4,0,15.0,,75090.6,13.32,-0.24,0.59,0.77,0.8,3.3,-1.0,35.81,,,,,,,,,,
14.00.09.837,-21.4,5.4,0,15.0,,70693.3,14.15,-0.25,0.57,0.77,-1.1,4.3,-2.4,35.81,,,,,,,,,,
14.00.09.849,-18.4,4.6,0,15.0,,73090.8,13.68,-0.24,0.57,0.78,-1.2,4.9,-2.3,35.81,,,,,,,,,,
14.00.09.857,-35.3,8.8,0,15.0,,74926.5,13.35,-0.24,0.57,0.78,-1.3,5.0,-2.5,35.81,,,,,,,,,,
14.00.09.870,-9.7,2.4,0,15.0,,71268.7,14.03,-0.25,0.57,0.78,-1.4,5.9,-2.6,35.81,,,,,,,,,,
14.00.09.882,14.0,3.5,0,15.0,,75990.0,13.16,-0.25,0.56,0.77,-1.1,6.7,-2.2,35.81,,,,,,,,,,
14.00.09.890,-50.3,12.6,0,15.0,,73905.7,13.53,-0.25,0.56,0.78,-0.1,7.3,-2.0,35.81,,,,,,,,,,
14.00.09.902,-14.7,3.7,0,15.0,,73552.9,13.6,-0.25,0.56,0.77,0.8,8.1,-1.6,35.81,,,,,,,,,,
14.00.09.915,-72.0,18.0,0,15.0,,75977.1,13.16,-0.26,0.56,0.78,1.5,8.2,-1.1,35.81,,,,,,,,,,
14.00.09.923,-55.7,13.9,0,15.0,,76483.4,13.07,-0.26,0.56,0.77,2.1,8.2,-0.8,35.81,,,,,,,,,,
14.00.09.935,-68.4,17.1,0,15.0,,71320.9,14.02,-0.26,0.57,0.77,2.1,7.9,-0.5,35.81,,,,,,,,,,
14.00.09.948,-62.6,15.6,0,15.0,,76408.9,13.09,-0.26,0.57,0.76,2.3,7.1,0.0,35.81,,,,,,,,,,
14.00.09.956,-95.2,23.8,0,15.0,,77174.8,12.96,-0.26,0.58,0.77,2.8,6.6,0.1,35.81,,,,,,,,,,
14.00.09.968,-105.4,26.4,0,15.0,,72287.7,13.83,-0.25,0.58,0.76,2.6,6.0,0.4,35.81,,,,,,,,,,
14.00.09.980,-99.3,24.8,0,15.0,,75285.2,13.28,-0.25,0.58,0.77,2.5,5.6,0.0,35.81,,,,,,,,,,
14.00.09.993,-117.6,29.4,0,15.0,,73391.4,13.63,-0.25,0.59,0.77,2.0,5.1,0.0,35.81,,,,,,,,,,
14.00.10.001,-72.6,18.2,0,15.0,,73775.0,13.55,-0.25,0.58,0.77,1.8,4.6,0.0,35.81,,,,,,,,,,
14.00.10.013,-129.5,32.4,0,15.0,,74429.9,13.44,-0.24,0.59,0.77,1.6,4.5,-0.4,35.81,,,,,,,,,,
14.00.10.025,-162.8,40.7,0,15.0,,69959.6,14.29,-0.24,0.59,0.77,0.9,4.0,-1.0,35.81,,,,,,,,,,
14.00.10.033,-152.3,38.1,0,15.0,,69789.8,14.33,-0.24,0.59,0.77,-0.1,4.1,-1.8,35.81,,,,,,,,,,
14.00.10.046,-106.7,26.7,0,15.0,,70064.7,14.27,-0.24,0.59,0.78,0.0,4.0,-1.8,35.81,,,,,,,,,,
14.00.10.058,-169.2,42.3,0,15.0,,76664.5,13.04,-0.24,0.58,0.77,-0.3,4.9,-2.0,35.81,,,,,,,,,,
14.00.10.071,-147.2,36.8,0,15.0,,74666.4,13.39,-0.24,0.58,0.78,-0.3,5.2,-2.2,35.81,,,,,,,,,,
14.00.10.079,-148.3,37.1,0,15.0,,73051.3,13.69,-0.24,0.57,0.78,-0.4,5.4,-2.4,35.81,,,,,,,,,,
14.00.10.091,-161.2,40.3,0,15.0,,77045.2,12.98,-0.24,0.57,0.78,-0.6,5.8,-2.0,35.81,,,,,,,,,,
14.00.10.103,55.4,13.8,1,16.0,97.5,75184.9,13.3,-0.24,0.57,0.78,0.0,6.4,-2.1,35.81,,,,,,,,,,
14.00.10.116,127.1,31.8,0,16.0,,75863.2,13.18,-0.25,0.56,0.77,0.3,6.7,-1.8,35.81,,,,,,,,,,
14.00.10.124,167.7,41.9,0,16.0,,77261.9,12.94,-0.25,0.56,0.78,1.0,7.2,-1.5,35.81,,,,,,,,,,
14.00.10.136,278.7,69.7,0,16.0,,67750.3,14.76,-0.26,0.57,0.77,1.5,7.4,-1.0,35.81,,,,,,,,,,
14.00.10.148,332.9,83.2,0,16.0,,73393.4,13.63,-0.26,0.57,0.77,2.3,7.5,-0.8,35.81,,,,,,,,,,
14.00.10.156,329.8,82.4,0,16.0,,76304.9,13.11,-0.26,0.57,0.77,2.3,6.8,-0.3,35.81,,,,,,,,,,
14.00.10.169,347.7,86.9,0,16.0,,75923.2,13.17,-0.26,0.57,0.77,2.0,6.6,0.0,35.81,,,,,,,,,,
14.00.10.181,383.4,95.8,0,16.0,,71818.3,13.92,-0.26,0.57,0.77,2.0,5.9,0.4,35.81,,,,,,,,,,
14.00.10.193,413.6,103.4,0,16.0,,72926.2,13.71,-0.25,0.58,0.77,2.0,5.4,0.0,35.81,,,,,,,,,,
14.00.10.201,415.4,103.8,0,16.0,,74229.0,13.47,-0.25,0.58,0.77,2.0,5.3,0.1,35.81,,,,,,,,,,
14.00.10.214,371.3,92.8,0,16.0,,74758.3,13.38,-0.25,0.58,0.77,1.5,5.4,-0.6,35.81,,,,,,,,,,
14.00.10.226,329.2,82.3,0,16.0,,74905.2,13.35,-0.24,0.59,0.77,1.2,5.0,-0.5,35.81,,,,,,,,,,
14.00.10.235,332.2,83.0,0,16.0,,73705.0,13.57,-0.24,0.59,0.77,0.7,5.8,-1.1,35.81,,,,,,,,,,
14.00.10.247,310.9,77.7,0,16.0,,72878.4,13.72,-0.24,0.59,0.77,0.2,5.3,-1.0,35.81,,,,,,,,,,
14.00.10.259,229.0,57.2,0,16.0,,73241.0,13.65,-0.24,0.59,0.77,-0.4,5.5,-1.4,35.81,,,,,,,,,,
14.00.10.271,169.9,42.5,0,16.0,,78930.9,12.67,-0.24,0.58,0.77,-0.9,6.0,-2.1,35.81,,,,,,,,,,
14.00.10.279,169.1,42.3,0,16.0,,71894.8,13.91,-0.24,0.58,0.78,-1.3,6.2,-2.4,35.81,,,,,,,,,,
14.00.10.292,59.8,15.0,0,16.0,,72946.7,13.71,-0.25,0.58,0.78,-1.9,6.8,-2.7,35.81,,,,,,,,,,
14.00.10.300,2.1,0.5,0,16.0,,76206.0,13.12,-0.25,0.57,0.78,-1.9,7.0,-2.6,35.81,,,,,,,,,,
14.00.10.312,35.8,9.0,0,16.0,,73597.3,13.59,-0.24,0.57,0.77,-2.1,6.9,-2.7,35.81,,,,,,,,,,
14.00.10.320,39.9,10.0,0,16.0,,73104.5,13.68,-0.25,0.56,0.77,-1.6,7.0,-2.7,35.81,,,,,,,,,,
14.00.10.333,39.2,9.8,0,16.0,,72609.2,13.77,-0.25,0.56,0.77,-1.0,7.5,-2.5,35.81,,,,,,,,,,
14.00.10.341,88.3,22.1,0,16.0,,76071.5,13.15,-0.25,0.56,0.77,0.4,7.6,-2.0,35.81,,,,,,,,,,
14.00.10.353,96.4,24.1,0,16.0,,74928.7,13.35,-0.25,0.56,0.77,1.5,7.4,-1.2,35.81,,,,,,,,,,
14.00.10.361,61.8,15.4,0,16.0,,76494.0,13.07,-0.25,0.56,0.77,2.3,7.4,-0.8,35.81,,,,,,,,,,
14.00.10.374,72.4,18.1,0,16.0,,73168.4,13.67,-0.26,0.57,0.77,2.9,7.1,-0.4,35.81,,,,,,,,,,
14.00.10.382,65.8,16.4,0,16.0,,78208.1,12.79,-0.25,0.57,0.76,3.1,6.7,-0.2,35.81,,,,,,,,,,
14.00.10.394,75.0,18.8,0,16.0,,72983.9,13.7,-0.25,0.57,0.76,3.4,5.8,0.0,35.81,,,,,,,,,,
14.00.10.402,23.4,5.8,0,16.0,,73518.9,13.6,-0.25,0.58,0.77,3.1,4.9,0.0,35.81,,,,,,,,,,
14.00.10.415,14.5,3.6,0,16.0,,77874.8,12.84,-0.25,0.58,0.77,3.5,4.8,-0.2,35.81,,,,,,,,,,
14.00.10.423,-5.9,1.5,0,16.0,,74202.5,13.48,-0.25,0.58,0.77,3.2,5.0,0.2,35.81,,,,,,,,,,
14.00.10.435,-8.1,2.0,0,16.0,,73890.1,13.53,-0.25,0.59,0.76,3.1,4.7,-0.4,35.81,,,,,,,,,,
14.00.10.443,-34.8,8.7,0,16.0,,70512.5,14.18,-0.25,0.59,0.77,2.2,3.8,-0.9,35.81,,,,,,,,,,
14.00.10.456,-7.7,1.9,0,16.0,,73658.2,13.58,-0.24,0.59,0.77,1.0,4.2,-1.3,35.81,,,,,,,,,,
14.00.10.464,-29.5,7.4,0,16.0,,76947.8,13.0,-0.25,0.59,0.77,0.2,3.9,-2.0,35.81,,,,,,,,,,
14.00.10.476,-39.1,9.8,0,16.0,,71950.4,13.9,-0.24,0.59,0.77,-0.6,4.2,-2.1,35.81,,,,,,,,,,
14.00.10.484,-40.2,10.0,0,16.0,,69096.8,14.47,-0.24,0.59,0.77,-1.0,4.5,-2.6,35.81,,,,,,,,,,
14.00.10.496,-47.2,11.8,0,16.0,,74021.6,13.51,-0.25,0.58,0.77,-1.3,5.1,-2.6,35.81,,,,,,,,,,
14.00.10.509,-53.3,13.3,0,16.0,,69692.3,14.35,-0.24,0.58,0.77,-1.6,5.6,-2.8,35.81,,,,,,,,,,
14.00.10.517,-49.1,12.3,0,16.0,,75563.7,13.23,-0.24,0.58,0.78,-1.9,6.6,-3.4,35.81,,,,,,,,,,
14.00.10.529,-54.7,13.7,0,16.0,,75657.8,13.22,-0.24,0.57,0.78,-1.6,7.0,-3.1,35.81,,,,,,,,,,
14.00.10.537,-66.1,16.5,0,16.0,,78685.8,12.71,-0.25,0.57,0.77,-1.4,7.5,-2.9,35.81,,,,,,,,,,
14.00.10.550,-85.9,21.5,0,16.0,,75534.7,13.24,-0.25,0.56,0.77,-0.9,8.6,-2.8,35.81,,,,,,,,,,
14.00.10.558,-69.0,17.2,0,16.0,,75304.8,13.28,-0.26,0.56,0.78,0.0,8.6,-2.2,35.81,,,,,,,,,,
14.00.10.571,-95.9,24.0,0,16.0,,72329.1,13.83,-0.26,0.56,0.77,1.0,9.0,-1.9,35.81,,,,,,,,,,
14.00.10.578,-98.1,24.5,0,16.0,,70109.9,14.26,-0.26,0.56,0.77,1.6,9.2,-1.1,35.81,,,,,,,,,,
14.00.10.591,-109.6,27.4,0,16.0,,72879.4,13.72,-0.26,0.57,0.75,2.1,8.9,-1.2,35.81,101.3,,,,,,,,,
14.00.10.599,-95.1,23.8,0,16.0,,75156.4,13.31,-0.26,0.57,0.77,2.3,8.4,-0.7,35.81,,,,,,,,,,
14.00.10.636,-146.7,36.7,0,16.0,,76400.0,13.09,-0.26,0.57,0.76,2.0,7.6,-0.7,35.81,,,,,,,,,,
14.00.10.648,-150.8,37.7,0,16.0,,75123.2,13.31,-0.25,0.58,0.76,1.3,5.7,-0.8,35.81,,,,,,,,,,
14.00.10.656,-110.0,27.5,0,16.0,,74541.6,13.42,-0.25,0.59,0.77,1.3,5.5,-1.1,35.81,,,,,,,,,,
14.00.10.669,-175.0,43.8,0,16.0,,77072.0,12.97,-0.24,0.59,0.78,0.6,5.4,-1.1,35.81,,,,,,,,,,
14.00.10.681,-174.4,43.6,0,16.0,,73681.9,13.57,-0.24,0.59,0.77,0.0,5.2,-1.5,35.81,,,,,,,,,,
14.00.10.689,12.8,3.2,1,17.0,105.6,76198.7,13.12,-0.24,0.59,0.77,-0.7,5.4,-2.1,35.81,,,,,,,,,,
14.00.10.701,62.1,15.5,0,17.0,,72358.2,13.82,-0.25,0.59,0.78,-1.3,5.3,-2.6,35.81,,,,,,,,,,
14.00.10.710,149.3,37.3,0,17.0,,75994.7,13.16,-0.25,0.58,0.78,-1.4,6.0,-2.7,35.81,,,,,,,,,,
14.00.10.722,215.8,54.0,0,17.0,,73113.2,13.68,-0.25,0.58,0.77,-1.5,6.3,-2.9,35.81,,,,,,,,,,
14.00.10.730,227.6,56.9,0,17.0,,73577.7,13.59,-0.24,0.58,0.78,-2.1,6.2,-2.9,35.81,,,,,,,,,,
14.00.10.742,310.3,77.6,0,17.0,,75026.8,13.33,-0.25,0.57,0.76,-2.1,6.7,-3.0,35.81,,,,,,,,,,
14.00.10.751,350.7,87.7,0,17.0,,76369.3,13.09,-0.24,0.56,0.78,-1.9,7.1,-3.3,35.81,,,,,,,,,,
14.00.10.763,380.9,95.2,0,17.0,,75397.4,13.26,-0.25,0.56,0.78,-1.4,7.5,-2.8,35.81,,,,,,,,,,
14.00.10.771,378.8,94.7,0,17.0,,75261.8,13.29,-0.25,0.56,0.77,-0.2,9.1,-2.3,35.81,,,,,,,,,,
14.00.10.783,430.3,107.6,0,17.0,,73998.8,13.51,-0.26,0.56,0.78,1.0,9.3,-2.0,35.81,,,,,,,,,,
14.00.10.792,422.2,105.6,0,17.0,,74852.2,13.36,-0.26,0.56,0.77,1.4,9.1,-1.5,35.81,,,,,,,,,,
14.00.10.804,419.6,104.9,0,17.0,,71281.8,14.03,-0.27,0.56,0.77,1.9,8.5,-1.5,35.81,,,,,,,,,,
14.00.10.812,373.7,93.4,0,17.0,,75372.0,13.27,-0.27,0.57,0.77,1.7,8.1,-1.0,35.81,,,,,,,,,,
14.00.10.824,339.5,84.9,0,17.0,,74261.1,13.47,-0.27,0.57,0.76,2.3,7.6,-0.8,35.81,,,,,,,,,,
14.00.10.837,316.8,79.2,0,17.0,,71014.5,14.08,-0.27,0.57,0.76,2.2,7.5,-0.4,35.81,,,,,,,,,,
14.00.10.845,283.0,70.8,0,17.0,,71151.2,14.05,-0.26,0.57,0.77,2.0,6.0,-0.4,35.81,,,,,,,,,,
14.00.10.857,200.6,50.2,0,17.0,,78313.9,12.77,-0.27,0.58,0.77,2.0,5.3,-0.3,35.81,,,,,,,,,,
14.00.10.865,155.3,38.8,0,17.0,,75652.4,13.22,-0.26,0.58,0.77,1.7,4.7,-0.4,35.81,,,,,,,,,,
14.00.10.877,117.8,29.4,0,17.0,,75076.1,13.32,-0.26,0.58,0.77,1.8,4.5,-0.6,35.81,,,,,,,,,,
14.00.10.886,67.2,16.8,0,17.0,,71925.6,13.9,-0.25,0.59,0.77,1.6,4.3,-0.4,35.81,,,,,,,,,,
14.00.10.898,-8.0,2.0,0,17.0,,77708.5,12.87,-0.25,0.58,0.77,1.2,3.8,-0.8,35.81,,,,,,,,,,
14.00.10.906,23.9,6.0,0,17.0,,71875.6,13.91,-0.25,0.58,0.77,0.5,4.0,-1.4,35.81,,,,,,,,,,
14.00.10.918,22.3,5.6,0,17.0,,74116.4,13.49,-0.24,0.58,0.77,0.0,3.9,-1.7,35.81,,,,,,,,,,
14.00.10.927,49.8,12.4,0,17.0,,74289.2,13.46,-0.24,0.59,0.77,-0.1,4.9,-1.9,35.81,,,,,,,,,,
14.00.10.939,87.1,21.8,0,17.0,,67938.7,14.72,-0.25,0.58,0.78,-0.2,5.3,-2.4,35.81,,,,,,,,,,
14.00.10.947,99.5,24.9,0,17.0,,73281.7,13.65,-0.25,0.58,0.77,-0.6,6.0,-2.5,35.81,,,,,,,,,,
14.00.10.959,52.4,13.1,0,17.0,,75693.6,13.21,-0.25,0.58,0.77,-1.5,6.3,-2.7,35.81,,,,,,,,,,
14.00.10.968,78.1,19.5,0,17.0,,75376.4,13.27,-0.25,0.58,0.77,-2.1,6.8,-2.9,35.81,,,,,,,,,,
14.00.10.980,34.6,8.6,0,17.0,,73151.5,13.67,-0.26,0.57,0.77,-2.4,6.9,-3.1,35.81,,,,,,,,,,
14.00.10.988,53.2,13.3,0,17.0,,73191.3,13.66,-0.25,0.56,0.78,-2.5,7.2,-2.9,35.81,,,,,,,,,,
14.00.11.000,18.5,4.6,0,17.0,,73559.5,13.59,-0.26,0.55,0.77,-1.8,8.0,-2.8,35.81,,,,,,,,,,
14.00.11.013,24.8,6.2,0,17.0,,74051.6,13.5,-0.26,0.55,0.78,-0.6,8.4,-2.4,35.81,,,,,,,,,,
14.00.11.021,6.0,1.5,0,17.0,,72952.0,13.71,-0.27,0.55,0.76,0.9,8.4,-1.6,35.81,,,,,,,,,,
14.00.11.033,2.6,0.6,0,17.0,,74822.8,13.36,-0.27,0.56,0.77,1.8,8.4,-1.4,35.81,,,,,,,,,,
14.00.11.041,-12.9,3.2,0,17.0,,75164.9,13.3,-0.27,0.57,0.77,2.1,8.3,-0.8,35.81,,,,,,,,,,
14.00.11.054,-14.7,3.7,0,17.0,,75906.1,13.17,-0.26,0.57,0.76,2.3,7.5,-0.3,35.81,,,,,,,,,,
14.00.11.062,-53.1,13.3,0,17.0,,75615.2,13.22,-0.26,0.57,0.77,2.8,7.1,-0.3,35.81,,,,,,,,,,
14.00.11.074,-42.6,10.6,0,17.0,,77368.2,12.93,-0.26,0.58,0.77,2.6,6.2,-0.2,35.81,,,,,,,,,,
14.00.11.082,-32.7,8.2,0,17.0,,72750.1,13.75,-0.26,0.58,0.77,2.0,5.1,-0.4,35.81,,,,,,,,,,
14.00.11.095,-20.0,5.0,0,17.0,,74459.2,13.43,-0.26,0.58,0.77,1.7,4.3,-0.5,35.81,,,,,,,,,,
14.00.11.107,-17.5,4.4,0,17.0,,72388.8,13.81,-0.26,0.59,0.77,1.4,3.9,-0.5,35.81,,,,,,,,,,
14.00.11.115,-56.9,14.2,0,17.0,,73223.8,13.66,-0.26,0.59,0.77,1.1,3.6,-0.8,35.81,,,,,,,,,,
14.00.11.128,-62.4,15.6,0,17.0,,73630.9,13.58,-0.25,0.59,0.77,0.6,3.1,-1.1,35.81,,,,,,,,,,
14.00.11.136,-65.5,16.4,0,17.0,,72746.4,13.75,-0.25,0.59,0.77,0.0,2.6,-1.3,35.81,,,,,,,,,,
14.00.11.148,-81.1,20.3,0,17.0,,76321.8,13.1,-0.25,0.58,0.77,-0.6,3.1,-1.7,35.81,,,,,,,,,,
14.00.11.156,-83.5,20.9,0,17.0,,74199.9,13.48,-0.25,0.58,0.77,-0.9,3.3,-2.0,35.81,,,,,,,,,,
14.00.11.168,-125.0,31.2,0,17.0,,74043.7,13.51,-0.25,0.58,0.77,-0.8,3.6,-2.4,35.81,,,,,,,,,,
14.00.11.177,-97.9,24.5,0,17.0,,75354.6,13.27,-0.25,0.57,0.78,-0.7,4.0,-2.3,35.81,,,,,,,,,,
14.00.11.189,-137.0,34.2,0,17.0,,75228.7,13.29,-0.25,0.57,0.78,-0.5,4.5,-2.5,35.81,,,,,,,,,,
14.00.11.197,-131.4,32.8,0,17.0,,73758.6,13.56,-0.25,0.57,0.77,-1.1,5.4,-2.6,35.81,,,,,,,,,,
14.00.11.209,-112.8,28.2,0,17.0,,73944.4,13.52,-0.26,0.57,0.78,-0.7,6.0,-2.4,35.81,,,,,,,,,,
14.00.11.217,-129.8,32.4,0,17.0,,79273.1,12.61,-0.26,0.56,0.78,-0.6,5.9,-2.2,35.81,,,,,,,,,,
14.00.11.230,-153.7,38.4,0,17.0,,72888.6,13.72,-0.26,0.56,0.78,-0.3,6.5,-2.3,35.81,,,,,,,,,,
14.00.11.238,-96.2,24.0,0,17.0,,73365.4,13.63,-0.26,0.56,0.77,0.6,6.4,-1.7,35.81,,,,,,,,,,
14.00.11.251,-158.6,39.6,0,17.0,,71857.4,13.92,-0.27,0.5,0.73,1.4,8.0,-3.4,35.81,,,,,,,,,,
14.00.11.259,-147.0,36.8,0,17.0,,76349.8,13.1,-0.3,0.58,0.79,2.0,5.7,-0.7,35.81,,,,,,,,,,
14.00.11.271,-187.9,47.0,0,17.0,,71084.4,14.07,-0.25,0.55,0.76,4.7,7.4,0.2,35.81,,,,,,,,,,
14.00.11.279,-179.9,45.0,0,17.0,,74716.7,13.38,-0.27,0.58,0.77,3.2,4.9,0.7,35.81,,,,,,,,,,
14.00.11.291,66.3,16.6,1,18.0,96.3,71388.4,14.01,-0.27,0.58,0.78,3.0,3.8,1.2,35.81,,,,,,,,,,
14.00.11.300,121.6,30.4,0,18.0,,78126.2,12.8,-0.27,0.57,0.76,2.4,4.1,1.1,35.81,,,,,,,,,,
14.00.11.312,175.8,44.0,0,18.0,,69651.8,14.36,-0.26,0.58,0.77,2.1,0.7,1.3,35.81,,,,,,,,,,
14.00.11.320,209.0,52.2,0,18.0,,72121.2,13.87,-0.25,0.57,0.78,3.1,2.2,1.8,35.81,,,,,,,,,,
14.00.11.332,255.1,63.8,0,18.0,,73469.2,13.61,-0.25,0.58,0.76,3.3,0.5,2.0,35.81,,,,,,,,,,
14.00.11.340,302.0,75.5,0,18.0,,76781.9,13.02,-0.24,0.59,0.78,4.4,-0.2,1.9,35.81,,,,,,,,,,
14.00.11.353,394.8,98.7,0,18.0,,69952.3,14.3,-0.23,0.6,0.77,3.9,1.8,1.7,35.81,,,,,,,,,,
14.00.11.361,360.4,90.1,0,18.0,,73802.0,13.55,-0.22,0.59,0.76,2.6,1.3,1.1,35.81,,,,,,,,,,
14.00.11.373,410.8,102.7,0,18.0,,72065.2,13.88,-0.23,0.6,0.77,1.0,1.0,-0.5,35.81,,,,,,,,,,
14.00.11.381,422.6,105.6,0,18.0,,74733.4,13.38,-0.23,0.59,0.78,-0.4,2.3,-1.2,35.81,,,,,,,,,,
14.00.11.394,349.4,87.4,0,18.0,,74059.7,13.5,-0.24,0.58,0.78,-0.2,2.2,-2.0,35.81,,,,,,,,,,
14.00.11.402,400.7,100.2,0,18.0,,73731.2,13.56,-0.24,0.58,0.78,-0.4,3.1,-2.0,35.81,,,,,,,,,,
14.00.11.438,310.2,77.6,0,18.0,,73496.8,13.61,-0.24,0.58,0.78,0.1,4.0,-2.1,35.81,,,,,,,,,,
14.00.11.451,208.1,52.0,0,18.0,,73378.3,13.63,-0.25,0.57,0.78,-0.9,6.6,-2.2,35.81,,,,,,,,,,
14.00.11.459,157.0,39.2,0,18.0,,71387.5,14.01,-0.25,0.56,0.77,-0.9,7.6,-2.6,35.81,,,,,,,,,,
14.00.11.472,103.6,25.9,0,18.0,,68748.2,14.55,-0.26,0.55,0.77,-0.2,7.6,-2.2,35.81,,,,,,,,,,
14.00.11.484,62.5,15.6,0,18.0,,73028.0,13.69,-0.26,0.56,0.77,1.1,7.5,-1.7,35.81,,,,,,,,,,
14.00.11.492,16.9,4.2,0,18.0,,74559.0,13.41,-0.26,0.56,0.77,2.3,8.6,-0.6,35.81,,,,,,,,,,
14.00.11.504,64.9,16.2,0,18.0,,75367.4,13.27,-0.26,0.56,0.75,2.9,8.2,0.1,35.81,,,,,,,,,,
14.00.11.512,40.9,10.2,0,18.0,,72516.4,13.79,-0.26,0.57,0.76,3.2,7.3,-0.1,35.81,,,,,,,,,,
14.00.11.525,41.5,10.4,0,18.0,,76057.0,13.15,-0.26,0.57,0.77,3.7,8.1,0.2,35.81,,,,,,,,,,
14.00.11.533,90.1,22.5,0,18.0,,70346.7,14.22,-0.25,0.58,0.76,3.4,6.5,0.8,35.81,,,,,,,,,,
14.00.11.541,45.5,11.4,0,18.0,,74862.6,13.36,-0.25,0.58,0.77,2.9,6.2,0.8,35.81,,,,,,,,,,
14.00.11.553,64.2,16.0,0,18.0,,76316.8,13.1,-0.25,0.58,0.76,2.3,5.2,0.7,35.81,,,,,,,,,,
14.00.11.562,54.7,13.7,0,18.0,,73686.7,13.57,-0.25,0.59,0.77,2.3,4.7,0.2,35.81,,,,,,,,,,
14.00.11.574,52.4,13.1,0,18.0,,73564.8,13.59,-0.24,0.59,0.77,1.0,4.1,-0.4,35.81,,,,,,,,,,
14.00.11.586,59.9,15.0,0,18.0,,74344.2,13.45,-0.24,0.59,0.77,-0.2,4.3,-0.5,35.81,,,,,,,,,,
14.00.11.594,60.5,15.1,0,18.0,,72566.9,13.78,-0.24,0.59,0.77,-0.4,4.2,-1.5,35.81,,,,,,,,,,
14.00.11.607,3.9,1.0,0,18.0,,77482.0,12.91,-0.24,0.58,0.77,-0.8,3.6,-1.5,35.81,,,,,,,,,,
14.00.11.619,0.1,0.0,0,18.0,,72569.7,13.78,-0.24,0.58,0.77,-0.2,4.7,-1.5,35.81,,,,,,,,,,
14.00.11.632,-15.1,3.8,0,18.0,,72708.8,13.75,-0.24,0.58,0.78,0.7,5.0,-1.4,35.81,,,,,,,,,,
14.00.11.639,-13.1,3.3,0,18.0,,75976.1,13.16,-0.23,0.58,0.77,1.0,5.9,-1.2,35.81,,,,,,,,,,
14.00.11.652,14.7,3.7,0,18.0,,74316.7,13.46,-0.24,0.59,0.77,0.2,5.6,-1.3,35.81,,,,,,,,,,
14.00.11.664,-41.0,10.2,0,18.0,,74336.7,13.45,-0.24,0.57,0.77,-0.6,6.1,-2.0,35.81,,,,,,,,,,
14.00.11.672,-82.6,20.6,0,18.0,,72287.2,13.83,-0.25,0.57,0.78,-0.6,6.6,-2.2,35.81,,,,,,,,,,
14.00.11.684,-22.6,5.6,0,18.0,,71666.9,13.95,-0.25,0.56,0.77,-0.3,7.0,-1.8,35.81,,,,,,,,,,
14.00.11.697,-37.0,9.2,0,18.0,,73809.3,13.55,-0.26,0.56,0.78,0.8,7.3,-1.4,35.81,,,,,,,,,,
14.00.11.705,-25.7,6.4,0,18.0,,71151.0,14.05,-0.26,0.56,0.77,1.6,7.1,-0.9,35.81,,,,,,,,,,
14.00.11.717,-70.3,17.6,0,18.0,,75365.1,13.27,-0.26,0.57,0.77,2.5,6.5,-0.4,35.81,,,,,,,,,,
14.00.11.730,-83.1,20.8,0,18.0,,72832.2,13.73,-0.26,0.57,0.76,2.8,6.3,0.0,35.81,,,,,,,,,,
14.00.11.738,-83.1,20.8,0,18.0,,72220.6,13.85,-0.26,0.57,0.75,3.3,5.8,0.0,35.81,,,,,,,,,,
14.00.11.750,-75.3,18.8,0,18.0,,77150.6,12.96,-0.26,0.58,0.77,3.0,5.6,0.7,35.81,,,,,,,,,,
14.00.11.762,-87.5,21.9,0,18.0,,75515.2,13.24,-0.26,0.58,0.77,2.7,5.5,0.9,35.81,,,,,,,,,,
14.00.11.775,-98.9,24.7,0,18.0,,71617.4,13.96,-0.25,0.59,0.77,2.1,4.3,0.9,35.81,,,,,,,,,,
14.00.11.783,-125.8,31.4,0,18.0,,71472.0,13.99,-0.25,0.59,0.76,1.4,3.9,0.7,35.81,,,,,,,,,,
14.00.11.795,-90.4,22.6,0,18.0,,71518.9,13.98,-0.24,0.59,0.77,0.8,3.7,0.6,35.81,,,,,,,,,,
14.00.11.808,-120.6,30.2,0,18.0,,75770.2,13.2,-0.23,0.59,0.77,0.0,2.9,0.3,35.81,,,,,,,,,,
14.00.11.816,-89.2,22.3,0,18.0,,72619.0,13.77,-0.23,0.59,0.77,-0.5,3.4,-0.4,35.81,,,,,,,,,,
14.00.11.828,-145.7,36.4,0,18.0,,75729.2,13.2,-0.23,0.58,0.77,-0.9,3.1,-1.1,35.81,,,,,,,,,,
14.00.11.840,-154.5,38.6,0,18.0,,71911.5,13.91,-0.22,0.59,0.78,-1.0,4.0,-2.0,35.81,,,,,,,,,,
14.00.11.853,-120.2,30.0,0,18.0,,75161.6,13.3,-0.24,0.58,0.78,-0.6,4.8,-2.0,35.81,,,,,,,,,,
14.00.11.861,-163.9,41.0,0,18.0,,78672.5,12.71,-0.23,0.58,0.78,-0.6,6.3,-2.5,35.81,,,,,,,,,,
14.00.11.873,-183.3,45.8,0,18.0,,73762.9,13.56,-0.24,0.58,0.77,-0.4,7.0,-2.4,35.81,,,,,,,,,,
14.00.11.885,19.4,4.8,1,19.0,99.1,72400.7,13.81,-0.24,0.58,0.77,-0.9,7.4,-2.6,35.81,,,,,,,,,,
14.00.11.898,118.0,29.5,0,19.0,,72628.7,13.77,-0.25,0.58,0.77,-1.5,7.7,-2.6,35.81,,,,,,,,,,
14.00.11.906,177.3,44.3,0,19.0,,75649.8,13.22,-0.24,0.56,0.77,-1.9,7.6,-2.8,35.81,,,,,,,,,,
14.00.11.918,253.8,63.4,0,19.0,,71826.2,13.92,-0.25,0.56,0.78,-1.2,7.6,-2.8,35.81,,,,,,,,,,
14.00.11.930,304.0,76.0,0,19.0,,74555.4,13.41,-0.25,0.55,0.77,-0.1,7.8,-2.2,35.81,,,,,,,,,,
14.00.11.943,330.1,82.5,0,19.0,,78733.3,12.7,-0.26,0.55,0.76,1.2,8.0,-1.1,35.81,,,,,,,,,,
14.00.11.951,393.6,98.4,0,19.0,,77632.0,12.88,-0.27,0.57,0.77,2.8,7.5,-0.6,35.81,,,,,,,,,,
14.00.11.963,394.0,98.5,0,19.0,,76257.2,13.11,-0.25,0.57,0.76,3.5,6.6,-0.1,35.81,,,,,,,,,,
14.00.11.975,437.3,109.3,0,19.0,,74576.3,13.41,-0.26,0.58,0.77,3.2,5.5,0.3,35.81,,,,,,,,,,
14.00.11.988,387.6,96.9,0,19.0,,72697.0,13.76,-0.25,0.58,0.77,2.7,5.2,0.1,35.81,,,,,,,,,,
14.00.12.000,406.2,101.6,0,19.0,,73840.8,13.54,-0.25,0.58,0.77,2.3,4.2,-0.1,35.81,,,,,,,,,,
14.00.12.008,419.3,104.8,0,19.0,,69145.6,14.46,-0.24,0.59,0.78,1.9,3.8,-0.2,35.81,,,,,,,,,,
14.00.12.020,321.1,80.3,0,19.0,,72246.0,13.84,-0.24,0.59,0.77,2.5,3.9,-0.1,35.81,,,,,,,,,,
14.00.12.033,300.7,75.2,0,19.0,,77658.9,12.88,-0.24,0.6,0.77,2.6,3.2,0.5,35.81,,,,,,,,,,
14.00.12.041,229.6,57.4,0,19.0,,79789.9,12.53,-0.23,0.6,0.76,1.4,5.2,0.7,35.81,,,,,,,,,,
14.00.12.053,176.0,44.0,0,19.0,,73616.3,13.58,-0.23,0.6,0.77,-0.2,2.0,-0.3,35.81,,,,,,,,,,
14.00.12.061,137.2,34.3,0,19.0,,66903.5,14.95,-0.24,0.58,0.78,-2.7,3.0,-2.9,35.81,,,,,,,,,,
14.00.12.074,71.4,17.8,0,19.0,,73609.6,13.59,-0.24,0.58,0.78,-3.6,3.6,-4.3,35.81,,,,,,,,,,
14.00.12.082,63.6,15.9,0,19.0,,77333.4,12.93,-0.23,0.56,0.77,-2.0,3.2,-4.0,35.81,,,,,,,,,,
14.00.12.094,17.2,4.3,0,19.0,,76101.1,13.14,-0.23,0.58,0.78,-0.5,5.5,-3.0,35.81,,,,,,,,,,
14.00.12.102,64.5,16.1,0,19.0,,77287.8,12.94,-0.24,0.57,0.78,0.4,6.5,-1.8,35.81,,,,,,,,,,
14.00.12.115,56.9,14.2,0,19.0,,73857.5,13.54,-0.24,0.57,0.77,-0.3,6.0,-1.8,35.81,,,,,,,,,,
14.00.12.123,47.4,11.8,0,19.0,,74170.9,13.48,-0.25,0.57,0.78,-0.9,6.5,-2.9,35.81,,,,,,,,,,
14.00.12.135,76.2,19.0,0,19.0,,72185.4,13.85,-0.25,0.57,0.78,-1.2,7.1,-3.0,35.81,,,,,,,,,,
14.00.12.147,82.3,20.6,0,19.0,,75317.0,13.28,-0.25,0.57,0.77,-0.1,7.9,-2.4,35.81,,,,,,,,,,
14.00.12.156,55.3,13.8,0,19.0,,73455.5,13.61,-0.26,0.57,0.77,0.6,8.8,-1.4,35.81,,,,,,,,,,
14.00.12.168,52.8,13.2,0,19.0,,74551.8,13.41,-0.25,0.56,0.77,1.2,7.6,-1.0,35.81,,,,,,,,,,
14.00.12.176,33.9,8.5,0,19.0,,74875.7,13.36,-0.25,0.57,0.78,1.3,6.5,-0.7,35.81,,,,,,,,,,
14.00.12.188,13.9,3.5,0,19.0,,73335.8,13.64,-0.25,0.57,0.77,1.7,6.7,-0.1,35.81,,,,,,,,,,
14.00.12.197,24.6,6.2,0,19.0,,77485.5,12.91,-0.25,0.58,0.76,2.7,6.6,-0.1,35.81,,,,,,,,,,
14.00.12.209,3.2,0.8,0,19.0,,75484.8,13.25,-0.25,0.59,0.77,2.7,6.4,0.0,35.81,,,,,,,,,,
14.00.12.246,-16.3,4.1,0,19.0,,73568.9,13.59,-0.26,0.58,0.77,1.6,6.0,-0.1,35.81,,,,,,,,,,
14.00.12.254,-16.0,4.0,0,19.0,,72242.4,13.84,-0.24,0.58,0.77,2.2,3.4,-0.2,35.81,,,,,,,,,,
14.00.12.267,-33.7,8.4,0,19.0,,71628.7,13.96,-0.24,0.58,0.77,2.7,3.7,0.1,35.81,,,,,,,,,,
14.00.12.275,-68.2,17.0,0,19.0,,72249.2,13.84,-0.24,0.59,0.77,2.3,3.8,-0.1,35.81,,,,,,,,,,
14.00.12.287,-36.2,9.0,0,19.0,,73080.2,13.68,-0.22,0.58,0.77,0.5,4.1,-0.5,35.81,,,,,,,,,,
14.00.12.295,-81.8,20.4,0,19.0,,72353.6,13.82,-0.24,0.6,0.78,-1.2,5.0,-1.9,35.81,,,,,,,,,,
14.00.12.307,-67.8,17.0,0,19.0,,71122.8,14.06,-0.23,0.59,0.77,-2.4,5.0,-3.1,35.81,,,,,,,,,,
14.00.12.320,-79.4,19.8,0,19.0,,76748.4,13.03,-0.24,0.59,0.78,-2.2,4.7,-3.1,35.81,,,,,,,,,,
14.00.12.328,-66.7,16.7,0,19.0,,73293.7,13.64,-0.24,0.57,0.78,-2.0,7.0,-3.4,35.81,,,,,,,,,,
14.00.12.340,-89.4,22.4,0,19.0,,75730.5,13.2,-0.23,0.57,0.76,-1.3,6.5,-2.4,35.81,,,,,,,,,,
14.00.12.348,-67.2,16.8,0,19.0,,73236.4,13.65,-0.24,0.57,0.78,-0.6,7.4,-1.6,35.81,,,,,,,,,,
14.00.12.361,-98.9,24.7,0,19.0,,70501.2,14.18,-0.24,0.57,0.77,-0.5,9.2,-1.9,35.81,,,,,,,,,,
14.00.12.369,-143.9,36.0,0,19.0,,70270.5,14.23,-0.24,0.57,0.77,-0.5,8.3,-1.9,35.81,,,,,,,,,,
14.00.12.382,-116.7,29.2,0,19.0,,71663.5,13.95,-0.25,0.56,0.78,-0.7,8.9,-2.5,35.81,,,,,,,,,,
14.00.12.393,-96.4,24.1,0,19.0,,75453.9,13.25,-0.25,0.56,0.77,0.2,8.5,-1.8,35.81,,,,,,,,,,
14.00.12.406,-149.1,37.3,0,19.0,,74068.5,13.5,-0.26,0.56,0.77,1.6,8.1,-1.0,35.81,,,,,,,,,,
14.00.12.414,-127.0,31.8,0,19.0,,76060.5,13.15,-0.25,0.56,0.77,2.7,8.1,-0.9,35.81,,,,,,,,,,
14.00.12.426,-154.0,38.5,0,19.0,,73816.3,13.55,-0.25,0.57,0.76,3.5,6.5,-0.2,35.81,,,,,,,,,,
14.00.12.438,-147.0,36.8,0,19.0,,72904.9,13.72,-0.25,0.58,0.76,4.1,6.6,0.3,35.81,,,,,,,,,,
14.00.12.447,-162.5,40.6,0,19.0,,75837.3,13.19,-0.26,0.59,0.76,3.9,5.5,0.4,35.81,,,,,,,,,,
14.00.12.459,-115.9,29.0,0,19.0,,75501.0,13.24,-0.25,0.59,0.77,2.9,4.7,0.1,35.81,,,,,,,,,,
14.00.12.471,-139.4,34.8,0,19.0,,74655.9,13.39,-0.25,0.59,0.77,1.6,3.9,-0.6,35.81,,,,,,,,,,
14.00.12.479,39.3,9.8,1,20.0,99.0,75749.4,13.2,-0.24,0.59,0.77,0.6,2.7,-0.6,35.81,,,,,,,,,,
14.00.12.492,123.2,30.8,0,20.0,,71583.3,13.97,-0.23,0.58,0.76,0.2,2.7,-0.9,35.81,,,,,,,,,,
14.00.12.504,205.7,51.4,0,20.0,,73517.5,13.6,-0.23,0.58,0.78,0.2,2.2,-1.4,35.81,,,,,,,,,,
14.00.12.512,213.0,53.2,0,20.0,,76234.4,13.12,-0.23,0.59,0.78,0.5,2.9,-1.7,35.81,,,,,,,,,,
14.00.12.524,289.5,72.4,0,20.0,,74037.2,13.51,-0.23,0.58,0.77,0.3,3.6,-1.9,35.81,,,,,,,,,,
14.00.12.537,325.4,81.4,0,20.0,,76506.3,13.07,-0.23,0.58,0.78,0.3,4.0,-2.2,35.81,,,,,,,,,,
14.00.12.549,396.1,99.0,0,20.0,,75875.3,13.18,-0.24,0.59,0.78,-0.2,5.5,-2.1,35.81,,,,,,,,,,
14.00.12.557,408.8,102.2,0,20.0,,76740.6,13.03,-0.24,0.58,0.78,-1.0,6.0,-2.8,35.81,,,,,,,,,,
14.00.12.569,424.8,106.2,0,20.0,,77676.0,12.87,-0.24,0.57,0.77,-1.8,6.2,-2.9,35.81,,,,,,,,,,
14.00.12.582,391.1,97.8,0,20.0,,72498.5,13.79,-0.24,0.57,0.77,-1.9,6.7,-3.0,35.81,,,,,,,,,,
14.00.12.590,416.2,104.0,0,20.0,,79882.1,12.52,-0.24,0.56,0.78,-1.6,7.7,-2.4,35.81,,,,,,,,,,
14.00.12.602,375.5,93.9,0,20.0,,74229.1,13.47,-0.25,0.56,0.77,-0.5,8.2,-2.3,35.81,,,,,,,,,,
14.00.12.614,360.9,90.2,0,20.0,,74810.0,13.37,-0.25,0.56,0.78,0.4,8.4,-1.8,35.81,,,,,,,,,,
14.00.12.623,305.9,76.5,0,20.0,,77000.4,12.99,-0.26,0.56,0.78,1.2,8.5,-1.1,35.81,,,,,,,,,,
14.00.12.635,259.0,64.8,0,20.0,,74649.5,13.4,-0.26,0.56,0.77,1.9,7.8,-1.0,35.81,,,,,,,,,,
14.00.12.647,154.0,38.5,0,20.0,,75110.5,13.31,-0.25,0.57,0.76,1.6,7.5,-0.6,35.81,,,,,,,,,,
14.00.12.660,159.3,39.8,0,20.0,,77004.8,12.99,-0.25,0.57,0.77,1.7,6.3,-0.2,35.81,,,,,,,,,,
14.00.12.668,62.9,15.7,0,20.0,,70275.7,14.23,-0.25,0.58,0.77,2.0,5.4,-0.4,35.81,,,,,,,,,,
14.00.12.680,26.4,6.6,0,20.0,,76229.5,13.12,-0.25,0.58,0.77,2.3,5.3,-0.5,35.81,,,,,,,,,,
14.00.12.692,44.4,11.1,0,20.0,,73866.0,13.54,-0.25,0.59,0.77,2.2,4.8,-0.4,35.81,,,,,,,,,,
14.00.12.700,21.7,5.4,0,20.0,,74873.8,13.36,-0.24,0.59,0.77,1.8,4.6,-0.3,35.81,,,,,,,,,,
14.00.12.713,57.3,14.3,0,20.0,,76251.2,13.11,-0.24,0.59,0.77,1.5,4.1,-0.8,35.81,,,,,,,,,,
14.00.12.725,82.8,20.7,0,20.0,,70857.5,14.11,-0.24,0.6,0.78,0.4,3.4,-1.0,35.81,,,,,,,,,,
14.00.12.733,51.0,12.8,0,20.0,,69540.6,14.38,-0.23,0.59,0.77,-0.3,3.2,-2.0,35.81,,,,,,,,,,
14.00.12.746,78.3,19.6,0,20.0,,78287.1,12.77,-0.23,0.58,0.77,-1.4,3.1,-2.5,35.81,,,,,,,,,,
14.00.12.758,40.6,10.2,0,20.0,,75615.8,13.22,-0.24,0.58,0.78,-1.7,3.8,-2.6,35.81,,,,,,,,,,
14.00.12.766,46.7,11.7,0,20.0,,70224.3,14.24,-0.24,0.57,0.78,-0.9,4.9,-2.5,35.81,,,,,,,,,,
14.00.12.778,37.8,9.4,0,20.0,,79369.8,12.6,-0.23,0.57,0.78,-0.2,6.0,-2.1,35.81,,,,,,,,,,
14.00.12.791,17.7,4.4,0,20.0,,73988.2,13.52,-0.24,0.57,0.77,0.1,6.9,-2.5,35.81,,,,,,,,,,
14.00.12.799,-0.5,0.1,0,20.0,,74566.1,13.41,-0.24,0.57,0.78,-0.1,7.4,-2.3,35.81,,,,,,,,,,
14.00.12.811,-31.4,7.8,0,20.0,,76152.7,13.13,-0.25,0.57,0.77,0.0,7.3,-2.5,35.81,,,,,,,,,,
14.00.12.823,-4.6,1.2,0,20.0,,74815.9,13.37,-0.25,0.57,0.78,-0.1,8.3,-2.3,35.81,,,,,,,,,,
14.00.12.836,-30.4,7.6,0,20.0,,69685.1,14.35,-0.26,0.56,0.77,0.7,8.5,-2.0,35.81,,,,,,,,,,
14.00.12.844,-18.3,4.6,0,20.0,,69035.8,14.49,-0.26,0.56,0.77,1.3,8.5,-1.4,35.81,,,,,,,,,,
14.00.12.856,-51.7,12.9,0,20.0,,80425.0,12.43,-0.26,0.57,0.77,1.6,8.2,-1.1,35.81,,,,,,,,,,
14.00.12.869,-23.9,6.0,0,20.0,,76466.4,13.08,-0.25,0.57,0.77,2.5,7.9,-0.8,35.81,,,,,,,,,,
14.00.12.877,-28.6,7.2,0,20.0,,74896.7,13.35,-0.25,0.57,0.77,2.5,7.0,-0.3,35.81,,,,,,,,,,
14.00.12.889,-72.5,18.1,0,20.0,,72234.9,13.84,-0.25,0.58,0.77,2.7,6.8,-0.4,35.81,,,,,,,,,,
14.00.12.901,-80.5,20.1,0,20.0,,74281.7,13.46,-0.25,0.58,0.77,2.8,6.3,-0.5,35.81,,,,,,,,,,
14.00.12.909,-59.2,14.8,0,20.0,,71208.3,14.04,-0.25,0.58,0.77,2.4,5.6,-0.2,35.81,,,,,,,,,,
14.00.12.922,-77.0,19.2,0,20.0,,75959.3,13.16,-0.25,0.59,0.77,1.9,5.4,-0.5,35.81,,,,,,,,,,
14.00.12.934,-79.6,19.9,0,20.0,,71919.2,13.9,-0.24,0.59,0.77,1.3,4.9,-0.9,35.81,,,,,,,,,,
14.00.12.946,-99.4,24.8,0,20.0,,72711.6,13.75,-0.24,0.6,0.77,0.1,4.2,-1.4,35.81,,,,,,,,,,
14.00.12.954,-82.2,20.6,0,20.0,,77771.9,12.86,-0.24,0.59,0.76,-0.6,4.1,-1.8,35.81,,,,,,,,,,
14.00.12.967,-88.2,22.0,0,20.0,,73166.8,13.67,-0.23,0.59,0.78,-0.8,4.2,-2.2,35.81,,,,,,,,,,
14.00.12.979,-111.4,27.8,0,20.0,,74687.2,13.39,-0.24,0.58,0.78,-0.8,5.2,-2.5,35.81,,,,,,,,,,
14.00.12.987,-143.0,35.8,0,20.0,,72591.7,13.78,-0.23,0.58,0.77,-0.9,5.7,-2.5,35.81,,,,,,,,,,
14.00.13.000,-162.0,40.5,0,20.0,,73533.2,13.6,-0.24,0.58,0.77,-1.2,6.7,-2.5,35.81,,,,,,,,,,
14.00.13.012,-143.3,35.8,0,20.0,,71962.2,13.9,-0.24,0.58,0.78,-1.3,7.3,-2.6,35.81,,,,,,,,,,
14.00.13.053,-129.2,32.3,0,20.0,,79662.2,12.55,-0.25,0.56,0.78,-2.0,8.6,-2.8,35.81,,,,,,,,,,
14.00.13.061,-175.9,44.0,0,20.0,,71703.1,13.95,-0.26,0.55,0.77,-0.5,9.3,-2.3,35.81,,,,,,,,,,
14.00.13.073,49.3,12.3,1,21.0,97.5,75182.1,13.3,-0.26,0.56,0.77,1.0,9.8,-1.8,35.81,,,,,,,,,,
14.00.13.086,130.1,32.5,0,21.0,,75673.2,13.21,-0.26,0.56,0.76,1.5,9.1,-1.4,35.81,,,,,,,,,,
14.00.13.098,163.6,40.9,0,21.0,,74982.7,13.34,-0.26,0.57,0.77,1.8,8.8,-1.0,35.81,,,,,,,,,,
14.00.13.106,266.2,66.6,0,21.0,,73835.2,13.54,-0.26,0.57,0.77,2.4,8.1,-0.7,35.81,,,,,,,,,,
14.00.13.118,282.0,70.5,0,21.0,,74300.8,13.46,-0.26,0.58,0.76,2.5,7.5,-0.5,35.81,,,,,,,,,,
14.00.13.131,296.2,74.0,0,21.0,,75687.6,13.21,-0.26,0.58,0.76,2.1,6.9,-1.0,35.81,,,,,,,,,,
14.00.13.139,373.4,93.4,0,21.0,,70771.7,14.13,-0.26,0.58,0.76,0.9,6.6,-1.8,35.81,,,,,,,,,,
14.00.13.151,362.2,90.6,0,21.0,,70805.9,14.12,-0.26,0.59,0.77,0.2,6.2,-3.3,35.81,,,,,,,,,,
14.00.13.163,366.1,91.5,0,21.0,,72727.6,13.75,-0.26,0.59,0.77,-0.6,6.6,-4.1,35.81,,,,,,,,,,
14.00.13.172,356.6,89.2,0,21.0,,73262.2,13.65,-0.25,0.6,0.78,-1.2,5.8,-3.3,35.81,,,,,,,,,,
14.00.13.184,368.5,92.1,0,21.0,,72819.6,13.73,-0.25,0.6,0.77,-1.5,6.7,-2.9,35.81,,,,,,,,,,
14.00.13.196,362.0,90.5,0,21.0,,74059.4,13.5,-0.25,0.58,0.78,-2.0,7.0,-2.4,35.81,,,,,,,,,,
14.00.13.209,319.1,79.8,0,21.0,,73435.1,13.62,-0.26,0.58,0.78,-1.7,10.5,-2.2,35.81,,,,,,,,,,
14.00.13.217,338.4,84.6,0,21.0,,73375.1,13.63,-0.25,0.56,0.78,-2.3,11.1,-2.8,35.81,,,,,,,,,,
14.00.13.229,282.4,70.6,0,21.0,,72568.2,13.78,-0.24,0.56,0.77,-3.0,11.3,-4.3,35.81,,,,,,,,,,
14.00.13.241,230.6,57.6,0,21.0,,74520.5,13.42,-0.26,0.57,0.79,-3.4,13.1,-5.2,35.81,,,,,,,,,,
14.00.13.254,143.3,35.8,0,21.0,,74292.8,13.46,-0.27,0.56,0.8,-1.9,17.1,-4.9,35.81,,,,,,,,,,
14.00.13.262,92.1,23.0,0,21.0,,76072.3,13.15,-0.29,0.56,0.8,2.3,23.1,-5.4,35.81,,,,,,,,,,
14.00.13.274,28.7,7.2,0,21.0,,72442.9,13.8,-0.27,0.55,0.81,6.4,29.7,-5.9,35.81,,,,,,,,,,
14.00.13.286,25.7,6.4,0,21.0,,73642.5,13.58,-0.25,0.55,0.78,9.2,36.9,-5.5,35.81,,,,,,,,,,
14.00.13.295,44.5,11.1,0,21.0,,70277.9,14.23,-0.26,0.52,0.79,13.7,42.0,-3.9,35.81,,,,,,,,,,
14.00.13.307,74.8,18.7,0,21.0,,76894.9,13.0,-0.31,0.54,0.81,21.2,49.5,-0.4,35.81,,,,,,,,,,
14.00.13.319,97.9,24.5,0,21.0,,75838.1,13.19,-0.32,0.58,0.84,22.0,57.4,10.7,35.81,,,,,,,,,,
14.00.13.331,72.6,18.2,0,21.0,,77708.3,12.87,-0.38,0.56,0.73,33.5,60.2,15.1,35.81,,,,,,,,,,
14.00.13.340,47.6,11.9,0,21.0,,75847.6,13.18,-0.35,0.62,0.82,34.2,62.0,29.4,35.81,,,,,,,,,,
14.00.13.352,100.5,25.1,0,21.0,,74831.3,13.36,-0.4,0.62,0.74,33.0,65.2,38.6,35.81,,,,,,,,,,
14.00.13.364,49.8,12.4,0,21.0,,74850.2,13.36,-0.39,0.68,0.71,28.9,64.7,45.4,35.81,,,,,,,,,,
14.00.13.372,-3.3,0.8,0,21.0,,76156.9,13.13,-0.38,0.7,0.69,22.4,49.7,39.6,35.81,,,,,,,,,,
14.00.13.385,23.5,5.9,0,21.0,,72914.3,13.71,-0.53,0.6,0.58,0.5,33.4,26.8,35.81,,,,,,,,,,
14.00.13.397,26.5,6.6,0,21.0,,75300.5,13.28,-0.23,0.86,0.78,-3.4,18.6,18.2,35.81,,,,,,,,,,
14.00.13.409,-31.7,7.9,0,21.0,,76528.5,13.07,-0.39,0.8,0.73,-10.6,48.2,5.4,35.81,,,,,,,,,,
14.00.13.417,-3.4,0.8,0,21.0,,73330.8,13.64,-0.35,0.81,0.64,-16.0,4.1,11.7,35.81,,,,,,,,,,
14.00.13.430,-17.9,4.5,0,21.0,,73382.2,13.63,-0.32,0.83,0.72,-16.7,3.5,8.9,35.81,,,,,,,,,,
14.00.13.442,1.1,0.3,0,21.0,,69053.3,14.48,-0.31,0.78,0.64,-9.9,17.5,4.1,35.81,,,,,,,,,,
14.00.13.450,-43.2,10.8,0,21.0,,75286.5,13.28,-0.25,0.76,0.61,0.3,6.2,9.8,35.81,,,,,,,,,,
14.00.13.462,-46.3,11.6,0,21.0,,77757.4,12.86,-0.2,0.76,0.63,16.0,20.2,17.0,35.81,,,,,,,,,,
14.00.13.475,-67.1,16.8,0,21.0,,74573.5,13.41,-0.18,0.77,0.62,28.6,27.5,26.3,35.81,,,,,,,,,,
14.00.13.483,-43.9,11.0,0,21.0,,74003.8,13.51,-0.17,0.8,0.62,36.2,30.0,32.9,35.81,,,,,,,,,,
14.00.13.495,-83.4,20.8,0,21.0,,71738.9,13.94,-0.16,0.81,0.61,35.6,35.3,31.3,35.81,,,,,,,,,,
14.00.13.508,-46.9,11.7,0,21.0,,76896.3,13.0,-0.17,0.8,0.6,26.1,33.6,26.3,35.81,,,,,,,,,,
14.00.13.520,-132.8,33.2,0,21.0,,76640.0,13.05,-0.18,0.79,0.59,14.0,32.0,23.3,35.81,,,,,,,,,,
14.00.13.528,-127.4,31.8,0,21.0,,77224.1,12.95,-0.19,0.74,0.58,4.4,33.2,19.8,35.81,,,,,,,,,,
14.00.13.540,-95.2,23.8,0,21.0,,76743.2,13.03,-0.2,0.73,0.62,-2.0,35.0,17.6,35.81,,,,,,,,,,
14.00.13.553,-88.1,22.0,0,21.0,,76104.6,13.14,-0.23,0.69,0.64,-7.3,35.9,14.4,35.81,,,,,,,,,,
14.00.13.561,-71.6,17.9,0,21.0,,71718.1,13.94,-0.28,0.72,0.66,-23.9,37.9,14.3,35.81,,,,,,,,,,
14.00.13.573,-101.7,25.4,0,21.0,,71017.5,14.08,-0.33,0.74,0.64,-25.6,32.9,7.1,35.81,,,,,,,,,,
14.00.13.585,-98.2,24.6,0,21.0,,74573.8,13.41,-0.36,0.69,0.73,-30.0,32.2,-4.0,35.81,,,,,,,,,,
14.00.13.594,-106.2,26.6,0,21.0,,74656.5,13.39,-0.33,0.61,0.75,-43.1,26.9,-10.6,35.81,,,,,,,,,,
14.00.13.606,-136.7,34.2,0,21.0,,69270.9,14.44,-0.37,0.6,0.76,-51.6,31.7,-12.2,35.81,,,,,,,,,,
14.00.13.618,-137.2,34.3,0,21.0,,75905.0,13.17,-0.34,0.57,0.82,-55.6,23.1,-7.7,35.81,,,,,,,,,,
14.00.13.630,-163.4,40.8,0,21.0,,78073.7,12.81,-0.36,0.54,0.81,-54.6,22.4,-5.9,35.81,,,,,,,,,,
14.00.13.639,-124.6,31.2,0,21.0,,76913.0,13.0,-0.36,0.52,0.82,-55.6,23.3,-7.3,35.81,,,,,,,,,,
14.00.13.651,-171.1,42.8,0,21.0,,75586.4,13.23,-0.37,0.45,0.82,-59.5,15.3,-13.5,35.81,,,,,,,,,,
14.00.13.663,-27.7,6.9,1,22.0,100.0,72637.7,13.77,-0.37,0.46,0.77,-56.6,12.0,-22.6,35.81,,,,,,,,,,
14.00.13.676,61.0,15.2,0,22.0,,71901.5,13.91,-0.37,0.4,0.77,-49.5,11.3,-30.1,35.81,,,,,,,,,,
14.00.13.684,100.7,25.2,0,22.0,,74093.3,13.5,-0.36,0.38,0.78,-38.0,7.9,-35.3,35.81,,,,,,,,,,
14.00.13.696,197.0,49.2,0,22.0,,77443.9,12.91,-0.33,0.37,0.79,-27.8,6.3,-41.5,35.81,,,,,,,,,,
14.00.13.708,241.9,60.5,0,22.0,,76667.7,13.04,-0.35,0.37,0.77,-22.7,3.6,-47.9,35.81,,,,,,,,,,
14.00.13.717,333.1,83.3,0,22.0,,70121.7,14.26,-0.33,0.4,0.77,-19.6,-0.7,-50.2,35.81,,,,,,,,,,
14.00.13.729,318.6,79.6,0,22.0,,72472.2,13.8,-0.31,0.4,0.8,-25.0,-5.8,-48.8,35.81,,,,,,,,,,
14.00.13.741,384.2,96.0,0,22.0,,68551.1,14.59,-0.32,0.4,0.75,-26.1,-8.6,-44.0,35.81,,,,,,,,,,
14.00.13.753,379.7,94.9,0,22.0,,71512.5,13.98,-0.42,0.4,0.72,-24.2,2.6,-37.0,35.81,,,,,,,,,,
14.00.13.766,410.1,102.5,0,22.0,,73463.8,13.61,-0.48,0.46,0.8,-13.7,1.9,-27.6,35.81,,,,,,,,,,
14.00.13.774,424.1,106.0,0,22.0,,71985.8,13.89,-0.45,0.49,0.81,-8.0,14.3,-21.4,35.81,,,,,,,,,,
14.00.13.786,391.4,97.8,0,22.0,,75252.1,13.29,-0.42,0.46,0.81,-13.7,14.1,-19.9,35.81,,,,,,,,,,
14.00.13.794,400.3,100.1,0,22.0,,75225.2,13.29,-0.44,0.45,0.75,-16.1,0.7,-26.6,35.81,,,,,,,,,,
14.00.13.807,317.2,79.3,0,22.0,,75008.6,13.33,-0.39,0.44,0.74,-22.1,-4.0,-35.0,35.81,,,,,,,,,,
14.00.13.819,268.0,67.0,0,22.0,,77759.3,12.86,-0.38,0.44,0.72,-24.6,-7.5,-41.3,35.81,,,,,,,,,,
14.00.13.856,90.9,22.7,0,22.0,,75179.3,13.3,-0.39,0.46,0.73,-23.3,-11.2,-40.0,35.88,,,,,,,,,,
14.00.13.864,41.0,10.2,0,22.0,,74025.8,13.51,-0.35,0.44,0.69,-7.8,2.5,-24.1,35.88,,,,,,,,,,
14.00.13.876,53.4,13.4,0,22.0,,73961.0,13.52,-0.38,0.43,0.67,-9.1,7.6,-23.4,35.88,,,,,,,,,,
14.00.13.885,44.3,11.1,0,22.0,,75683.9,13.21,-0.39,0.43,0.71,-8.0,4.8,-26.6,35.88,,,,,,,,,,
14.00.13.897,82.0,20.5,0,22.0,,75280.7,13.28,-0.35,0.49,0.74,-21.5,7.7,-19.6,35.88,,,,,,,,,,
14.00.13.909,87.1,21.8,0,22.0,,76786.1,13.02,-0.39,0.45,0.75,-16.8,7.6,-25.5,35.88,,,,,,,,,,
14.00.13.917,60.6,15.2,0,22.0,,69839.4,14.32,-0.45,0.45,0.77,-16.7,10.1,-26.1,35.88,,,,,,,,,,
14.00.13.930,53.3,13.3,0,22.0,,77493.2,12.9,-0.43,0.47,0.77,-21.5,9.5,-26.0,35.88,,,,,,,,,,
14.00.13.938,25.0,6.2,0,22.0,,71129.8,14.06,-0.42,0.44,0.74,-26.3,9.4,-29.6,35.88,,,,,,,,,,
14.00.13.950,49.3,12.3,0,22.0,,75226.3,13.29,-0.43,0.41,0.76,-32.3,6.4,-31.4,35.88,,,,,,,,,,
14.00.13.958,56.3,14.1,0,22.0,,76072.6,13.15,-0.46,0.45,0.87,-39.6,-3.2,-26.2,35.88,,,,,,,,,,
14.00.13.970,36.7,9.2,0,22.0,,75440.0,13.26,-0.45,0.46,0.82,-39.7,0.3,-25.2,35.88,,,,,,,,,,
14.00.13.983,32.3,8.1,0,22.0,,74745.5,13.38,-0.44,0.41,0.8,-38.2,0.0,-26.3,35.88,,,,,,,,,,
14.00.13.991,-16.7,4.2,0,22.0,,75064.3,13.32,-0.42,0.38,0.8,-37.8,-3.9,-24.4,35.88,,,,,,,,,,
14.00.14.003,-13.4,3.4,0,22.0,,72489.5,13.8,-0.41,0.35,0.82,-38.1,-2.3,-24.9,35.88,,,,,,,,,,
14.00.14.012,-33.2,8.3,0,22.0,,74708.6,13.39,-0.42,0.36,0.83,-36.3,-2.2,-21.9,35.88,,,,,,,,,,
14.00.14.024,-10.5,2.6,0,22.0,,75583.4,13.23,-0.44,0.36,0.85,-32.4,0.0,-19.0,35.88,,,,,,,,,,
14.00.14.036,-63.5,15.9,0,22.0,,75895.7,13.18,-0.42,0.36,0.84,-26.4,3.2,-16.2,35.88,,,,,,,,,,
14.00.14.044,-27.3,6.8,0,22.0,,74795.3,13.37,-0.41,0.34,0.84,-23.4,4.6,-13.1,35.88,,,,,,,,,,
14.00.14.057,-38.4,9.6,0,22.0,,76507.0,13.07,-0.41,0.33,0.85,-19.6,4.7,-11.2,35.88,,,,,,,,,,
14.00.14.065,-63.8,16.0,0,22.0,,76741.6,13.03,-0.42,0.34,0.84,-18.3,5.7,-11.8,35.88,,,,,,,,,,
14.00.14.077,-59.0,14.8,0,22.0,,75701.2,13.21,-0.42,0.33,0.85,-21.9,3.5,-11.7,35.88,,,,,,,,,,
14.00.14.085,-73.9,18.5,0,22.0,,75204.6,13.3,-0.43,0.3,0.86,-24.4,0.3,-12.7,35.88,,,,,,,,,,
14.00.14.097,-56.4,14.1,0,22.0,,71361.8,14.01,-0.43,0.24,0.87,-22.2,-3.0,-14.2,35.88,,,,,,,,,,
14.00.14.110,-56.0,14.0,0,22.0,,71628.4,13.96,-0.41,0.25,0.86,-16.5,-1.4,-11.6,35.88,,,,,,,,,,
14.00.14.118,-67.9,17.0,0,22.0,,77493.1,12.9,-0.41,0.27,0.89,-7.5,3.4,-5.6,35.88,,,,,,,,,,
14.00.14.130,-70.2,17.6,0,22.0,,74505.0,13.42,-0.41,0.29,0.87,-3.8,6.2,-0.6,35.88,,,,,,,,,,
14.00.14.139,-67.4,16.8,0,22.0,,76373.5,13.09,-0.4,0.25,0.83,-3.9,7.5,0.6,35.88,,,,,,,,,,
14.00.14.151,-66.8,16.7,0,22.0,,78030.9,12.82,-0.43,0.27,0.83,-1.8,6.9,1.5,35.88,,,,,,,,,,
14.00.14.159,-73.6,18.4,0,22.0,,74010.9,13.51,-0.42,0.29,0.82,1.1,8.8,3.0,35.88,,,,,,,,,,
14.00.14.171,-138.3,34.6,0,22.0,,77182.3,12.96,-0.41,0.31,0.81,4.6,13.4,6.0,35.88,,,,,,,,,,
14.00.14.179,-67.2,16.8,0,22.0,,73644.6,13.58,-0.41,0.34,0.82,6.3,12.8,10.0,35.88,,,,,,,,,,
14.00.14.192,-155.8,39.0,0,22.0,,71336.0,14.02,-0.43,0.38,0.83,4.9,13.8,11.4,35.88,,,,,,,,,,
14.00.14.200,-156.7,39.2,0,22.0,,75620.1,13.22,-0.43,0.37,0.82,-0.1,11.7,10.3,35.88,,,,,,,,,,
14.00.14.212,-120.0,30.0,0,22.0,,77169.3,12.96,-0.44,0.37,0.82,-6.2,6.1,8.5,35.88,,,,,,,,,,
14.00.14.220,-110.1,27.5,0,22.0,,77516.4,12.9,-0.43,0.36,0.84,-10.4,1.1,5.7,35.88,,,,,,,,,,
14.00.14.233,-164.3,41.1,0,22.0,,74685.0,13.39,-0.42,0.35,0.84,-11.0,0.2,4.3,35.88,,,,,,,,,,
14.00.14.241,-150.1,37.5,0,22.0,,73372.3,13.63,-0.39,0.35,0.85,-9.1,0.3,5.2,35.88,,,,,,,,,,
14.00.14.253,-172.3,43.1,0,22.0,,72180.9,13.85,-0.39,0.33,0.86,-6.9,2.2,6.1,35.88,,,,,,,,,,
14.00.14.265,43.1,10.8,1,23.0,103.0,72267.6,13.84,-0.41,0.32,0.85,-5.6,4.6,7.4,35.88,,,,,,,,,,
14.00.14.274,92.7,23.2,0,23.0,,75007.8,13.33,-0.42,0.32,0.85,-2.6,5.4,6.8,35.88,,,,,,,,,,
14.00.14.286,177.8,44.4,0,23.0,,80937.8,12.36,-0.43,0.33,0.86,-1.0,6.4,6.5,35.88,,,,,,,,,,
14.00.14.294,227.2,56.8,0,23.0,,75457.2,13.25,-0.44,0.34,0.86,1.1,8.2,5.4,35.88,,,,,,,,,,
14.00.14.307,208.2,52.0,0,23.0,,75118.3,13.31,-0.44,0.34,0.86,1.8,8.1,4.5,35.88,,,,,,,,,,
14.00.14.315,335.3,83.8,0,23.0,,75597.9,13.23,-0.45,0.34,0.85,2.8,6.8,4.3,35.88,,,,,,,,,,
14.00.14.323,320.0,80.0,0,23.0,,73875.0,13.54,-0.45,0.34,0.85,3.3,5.1,3.3,35.88,,,,,,,,,,
14.00.14.335,373.7,93.4,0,23.0,,76152.0,13.13,-0.44,0.34,0.84,3.1,5.3,3.7,35.88,,,,,,,,,,
14.00.14.344,468.8,117.2,0,23.0,,73697.9,13.57,-0.44,0.34,0.83,3.7,5.4,3.5,35.88,,,,,,,,,,
14.00.14.356,393.8,98.4,0,23.0,,77760.2,12.86,-0.44,0.34,0.83,3.7,5.1,3.8,35.88,,,,,,,,,,
14.00.14.368,423.6,105.9,0,23.0,,73045.9,13.69,-0.44,0.35,0.82,3.2,6.3,2.8,35.88,,,,,,,,,,
14.00.14.376,430.4,107.6,0,23.0,,73300.6,13.64,-0.43,0.35,0.81,1.9,4.8,2.3,35.88,,,,,,,,,,
14.00.14.389,369.7,92.4,0,23.0,,74964.3,13.34,-0.45,0.35,0.81,0.7,3.7,0.8,35.88,,,,,,,,,,
14.00.14.401,362.0,90.5,0,23.0,,74026.6,13.51,-0.44,0.35,0.82,-1.0,4.5,-0.7,35.88,,,,,,,,,,
14.00.14.409,346.3,86.6,0,23.0,,76339.9,13.1,-0.45,0.35,0.84,-2.0,2.9,-1.4,35.88,,,,,,,,,,
14.00.14.421,267.4,66.8,0,23.0,,75911.0,13.17,-0.47,0.36,0.85,-3.1,3.5,-3.6,35.88,,,,,,,,,,
14.00.14.433,181.1,45.3,0,23.0,,74578.2,13.41,-0.45,0.31,0.84,-2.0,4.3,-5.8,35.88,,,,,,,,,,
14.00.14.442,156.7,39.2,0,23.0,,74641.6,13.4,-0.46,0.32,0.88,2.3,2.0,-4.7,35.88,,,,,,,,,,
14.00.14.454,68.3,17.1,0,23.0,,74103.9,13.49,-0.44,0.29,0.88,6.2,4.8,-2.8,35.88,,,,,,,,,,
14.00.14.466,20.2,5.0,0,23.0,,74490.8,13.42,-0.45,0.29,0.88,7.9,5.5,-1.6,35.88,,,,,,,,,,
14.00.14.479,30.3,7.6,0,23.0,,70157.3,14.25,-0.46,0.29,0.89,6.6,2.7,-1.5,35.88,,,,,,,,,,
14.00.14.487,35.3,8.8,0,23.0,,70305.8,14.22,-0.47,0.28,0.88,6.1,5.1,-2.7,35.88,,,,,,,,,,
14.00.14.499,73.6,18.4,0,23.0,,69742.6,14.34,-0.45,0.27,0.87,8.2,3.2,-0.7,35.88,,,,,,,,,,
14.00.14.511,58.0,14.5,0,23.0,,75152.9,13.31,-0.45,0.29,0.86,11.0,5.8,1.0,35.88,,,,,,,,,,
14.00.14.520,101.8,25.4,0,23.0,,76201.1,13.12,-0.44,0.31,0.84,11.2,6.3,0.6,35.88,,,,,,,,,,
14.00.14.532,83.1,20.8,0,23.0,,72281.9,13.83,-0.43,0.3,0.82,6.6,2.5,-3.0,35.88,,,,,,,,,,
14.00.14.544,58.6,14.6,0,23.0,,75079.5,13.32,-0.42,0.32,0.81,1.6,1.6,-6.5,35.88,,,,,,,,,,
14.00.14.556,78.5,19.6,0,23.0,,77724.8,12.87,-0.42,0.32,0.82,-0.9,-1.1,-7.9,35.88,,,,,,,,,,
14.00.14.564,13.5,3.4,0,23.0,,75850.9,13.18,-0.42,0.31,0.81,-1.3,2.3,-9.5,35.88,,,,,,,,,,
14.00.14.577,13.1,3.3,0,23.0,,72860.8,13.72,-0.42,0.33,0.8,-2.5,2.0,-9.7,35.88,,,,,,,,,,
14.00.14.589,24.8,6.2,0,23.0,,70562.6,14.17,-0.42,0.33,0.81,-4.2,0.2,-10.9,35.88,,,,,,,,,,
14.00.14.601,6.1,1.5,0,23.0,,74559.0,13.41,-0.42,0.32,0.82,-3.9,-0.4,-12.3,35.88,,,,,,,,,,
14.00.14.610,-9.9,2.5,0,23.0,,75091.8,13.32,-0.43,0.32,0.82,-1.6,1.1,-11.7,35.88,,,,,,,,,,
14.00.14.622,-16.8,4.2,0,23.0,,73999.7,13.51,-0.43,0.33,0.83,3.2,3.7,-9.3,35.88,,,,,,,,,,
14.00.14.663,-61.8,15.4,0,23.0,,72159.7,13.86,-0.44,0.38,0.84,4.8,4.2,-9.9,35.81,,,,,,,,,,
14.00.14.675,-18.0,4.5,0,23.0,,76821.9,13.02,-0.44,0.37,0.85,3.2,4.2,-10.1,35.81,,,,,,,,,,
14.00.14.687,-53.2,13.3,0,23.0,,76959.7,12.99,-0.44,0.37,0.85,1.4,1.4,-10.4,35.81,,,,,,,,,,
14.00.14.696,-84.0,21.0,0,23.0,,75540.1,13.24,-0.42,0.35,0.84,1.1,-0.8,-10.8,35.81,,,,,,,,,,
14.00.14.708,-67.8,17.0,0,23.0,,70680.1,14.15,-0.41,0.34,0.85,1.3,-2.9,-11.5,35.81,,,,,,,,,,
14.00.14.716,-71.2,17.8,0,23.0,,72594.5,13.78,-0.4,0.34,0.84,2.3,-2.8,-11.1,35.81,,,,,,,,,,
14.00.14.728,-67.4,16.8,0,23.0,,76240.9,13.12,-0.41,0.33,0.85,3.3,-1.8,-10.8,35.81,,,,,,,,,,
14.00.14.737,-78.0,19.5,0,23.0,,74415.6,13.44,-0.39,0.32,0.84,5.2,-0.2,-10.9,35.81,,,,,,,,,,
14.00.14.749,-105.3,26.3,0,23.0,,71771.9,13.93,-0.39,0.32,0.85,6.8,0.2,-10.7,35.81,,,,,,,,,,
14.00.14.757,-100.5,25.1,0,23.0,,74023.4,13.51,-0.38,0.32,0.83,9.3,1.0,-9.6,35.81,,,,,,,,,,
14.00.14.769,-91.4,22.8,0,23.0,,76290.3,13.11,-0.38,0.32,0.85,13.3,2.4,-8.0,35.81,,,,,,,,,,
14.00.14.782,-131.9,33.0,0,23.0,,72608.4,13.77,-0.37,0.31,0.84,15.8,3.0,-6.9,35.81,,,,,,,,,,
14.00.14.790,-140.9,35.2,0,23.0,,78298.9,12.77,-0.37,0.3,0.84,18.6,4.3,-6.5,35.81,,,,,,,,,,
14.00.14.802,-118.7,29.7,0,23.0,,73750.6,13.56,-0.38,0.31,0.85,21.6,4.1,-5.6,35.81,,,,,,,,,,
14.00.14.815,-141.4,35.4,0,23.0,,73748.8,13.56,-0.37,0.3,0.84,25.5,7.1,-3.9,35.81,,,,,,,,,,
14.00.14.827,-170.7,42.7,0,23.0,,75135.7,13.31,-0.36,0.29,0.83,31.1,8.3,-1.7,35.81,,,,,,,,,,
14.00.14.835,-174.1,43.5,0,23.0,,75180.0,13.3,-0.36,0.29,0.82,39.3,12.3,1.2,35.81,,,,,,,,,,
14.00.14.847,-138.0,34.5,0,23.0,,73231.9,13.66,-0.34,0.31,0.82,47.7,14.7,5.2,35.81,,,,,,,,,,
14.00.14.860,27.0,6.8,1,24.0,103.8,71155.2,14.05,-0.33,0.33,0.81,53.5,18.2,8.9,35.81,,,,,,,,,,
14.00.14.868,95.0,23.8,0,24.0,,74411.5,13.44,-0.31,0.36,0.8,56.0,19.3,14.2,35.81,,,,,,,,,,
14.00.14.880,166.3,41.6,0,24.0,,75687.7,13.21,-0.31,0.37,0.77,56.9,19.4,20.1,35.81,,,,,,,,,,
14.00.14.892,235.4,58.8,0,24.0,,74369.2,13.45,-0.34,0.36,0.78,58.1,23.7,24.6,35.81,,,,,,,,,,
14.00.14.905,291.7,72.9,0,24.0,,71297.7,14.03,-0.45,0.33,0.86,65.8,20.1,23.1,35.81,,,,,,,,,,
14.00.14.913,307.4,76.8,0,24.0,,72718.1,13.75,-0.49,0.39,0.97,70.3,15.7,25.3,35.81,,,,,,,,,,
14.00.14.925,350.8,87.7,0,24.0,,76917.5,13.0,-0.45,0.39,0.89,67.5,12.2,22.9,35.81,,,,,,,,,,
14.00.14.937,380.0,95.0,0,24.0,,73594.1,13.59,-0.48,0.38,0.83,67.9,11.4,17.9,35.81,,,,,,,,,,
14.00.14.945,416.2,104.0,0,24.0,,72202.4,13.85,-0.54,0.39,0.85,69.5,0.1,12.8,35.81,,,,,,,,,,
14.00.14.958,432.1,108.0,0,24.0,,73745.6,13.56,-0.56,0.46,0.91,70.3,-1.2,4.4,35.81,,,,,,,,,,
14.00.14.970,407.8,102.0,0,24.0,,71951.4,13.9,-0.5,0.46,0.88,68.6,-4.3,-2.4,35.81,,,,,,,,,,
14.00.14.982,407.3,101.8,0,24.0,,74125.0,13.49,-0.48,0.45,0.87,64.8,-12.8,-1.6,35.81,,,,,,,,,,
14.00.14.990,423.3,105.8,0,24.0,,74298.7,13.46,-0.48,0.45,0.86,65.4,-17.1,0.5,35.81,,,,,,,,,,
14.00.15.003,290.7,72.7,0,24.0,,76516.2,13.07,-0.47,0.46,0.85,67.9,-19.9,4.8,35.81,,,,,,,,,,
14.00.15.015,262.0,65.5,0,24.0,,73733.3,13.56,-0.47,0.49,0.85,71.0,-20.1,10.9,35.81,,,,,,,,,,
14.00.15.028,206.7,51.7,0,24.0,,73179.8,13.66,-0.5,0.45,0.82,72.1,-20.5,12.9,35.81,,,,,,,,,,
14.00.15.040,96.3,24.1,0,24.0,,69383.6,14.41,-0.5,0.49,0.83,77.0,-22.7,12.1,35.81,,,,,,,,,,
14.00.15.048,92.4,23.1,0,24.0,,78547.5,12.73,-0.49,0.5,0.83,80.6,-25.5,8.3,35.81,,,,,,,,,,
14.00.15.060,-4.2,1.0,0,24.0,,76031.7,13.15,-0.48,0.53,0.83,83.1,-27.2,3.3,35.81,,,,,,,,,,
14.00.15.072,9.8,2.4,0,24.0,,76579.6,13.06,-0.47,0.53,0.82,80.2,-35.1,-1.1,35.81,,,,,,,,,,
14.00.15.085,53.8,13.4,0,24.0,,74990.9,13.33,-0.45,0.56,0.82,74.0,-41.7,-5.6,35.81,,,,,,,,,,
14.00.15.093,22.1,5.5,0,24.0,,74013.0,13.51,-0.42,0.58,0.8,65.0,-47.5,-8.3,35.81,,,,,,,,,,
14.00.15.105,84.6,21.2,0,24.0,,73585.5,13.59,-0.42,0.56,0.76,55.9,-51.3,-10.9,35.81,,,,,,,,,,
14.00.15.117,113.3,28.3,0,24.0,,70970.8,14.09,-0.46,0.54,0.74,54.6,-55.9,-17.1,35.81,,,,,,,,,,
14.00.15.130,45.3,11.3,0,24.0,,68168.7,14.67,-0.44,0.56,0.75,55.4,-57.4,-18.4,35.81,,,,,,,,,,
14.00.15.138,50.9,12.7,0,24.0,,74253.6,13.47,-0.41,0.59,0.74,57.5,-53.7,-20.3,35.81,,,,,,,,,,
14.00.15.151,49.7,12.4,0,24.0,,75206.6,13.3,-0.38,0.6,0.71,57.9,-49.5,-23.2,35.81,,,,,,,,,,
14.00.15.159,46.2,11.6,0,24.0,,73265.0,13.65,-0.36,0.61,0.66,53.8,-53.8,-26.2,35.81,,,,,,,,,,
14.00.15.171,2.8,0.7,0,24.0,,75215.6,13.3,-0.33,0.63,0.64,47.8,-57.8,-30.8,35.81,,,,,,,,,,
14.00.15.183,14.6,3.6,0,24.0,,72807.6,13.73,-0.29,0.65,0.59,42.4,-59.2,-34.3,35.81,,,,,,,,,,
14.00.15.191,-24.1,6.0,0,24.0,,75959.1,13.16,-0.25,0.65,0.56,36.7,-58.8,-33.6,35.81,,,,,,,,,,
14.00.15.204,-17.6,4.4,0,24.0,,74061.6,13.5,-0.19,0.65,0.5,33.9,-54.6,-28.9,35.81,,,,,,,,,,
14.00.15.212,-28.9,7.2,0,24.0,,75898.9,13.18,-0.16,0.63,0.43,37.0,-49.6,-25.3,35.81,,,,,,,,,,
14.00.15.224,-24.5,6.1,0,24.0,,74966.4,13.34,-0.12,0.61,0.36,48.3,-45.2,-22.0,35.81,,,,,,,,,,
14.00.15.236,-43.6,10.9,0,24.0,,69498.6,14.39,-0.09,0.61,0.34,63.3,-41.5,-20.4,35.81,,,,,,,,,,
14.00.15.245,-40.1,10.0,0,24.0,,72643.4,13.77,-0.08,0.6,0.28,72.6,-31.3,-16.6,35.81,,,,,,,,,,
