timestamp,ppg,threshold,beat,beat_count,inst_bpm,gsr_resistance_ohm,gsr_conductance_us,accel_x,accel_y,accel_z,gyro_x,gyro_y,gyro_z,temp_c,window_bpm,window_temp_c,status_message,SpO2,bmi,age,height,weight,env_temp_c,env_humidity_pct
15.45.01.486,,,0,,,,,,0.59,0.16,0.7,6.2,-1.3,35.38,104.4,,,,26.7,22.0,152.4,61.9,36.0,66.0
15.45.01.490,62.0,15.5,0,,,62323.0,16.05,-0.78,0.59,0.16,1.2,6.0,-1.4,35.38,,,,,,,,,,
15.45.01.499,42.4,10.6,0,,,56199.7,17.79,-0.78,0.59,0.16,1.7,6.0,-1.5,35.38,,,,,,,,,,
15.45.01.511,189.1,47.3,0,,,62815.9,15.92,-0.78,0.6,0.15,1.7,5.5,-1.2,35.38,,,,,,,,,,
15.45.01.519,203.0,50.8,0,,,57601.7,17.36,-0.78,0.6,0.16,1.1,5.6,-1.2,35.38,,,,,,,,,,
15.45.01.531,299.4,74.8,0,,,58773.7,17.01,-0.78,0.6,0.15,0.5,5.7,-1.3,35.38,,,,,,,,,,
15.45.01.539,340.1,85.0,0,,,56514.6,17.69,-0.78,0.6,0.15,0.6,5.7,-1.7,35.38,,,,,,,,,,
15.45.01.552,392.0,98.0,0,,,62521.6,15.99,-0.78,0.6,0.16,1.0,5.2,-1.4,35.38,,,,,,,,,,
15.45.01.560,448.6,112.2,0,,,57723.6,17.32,-0.78,0.6,0.16,1.1,5.3,-1.3,35.38,,,,,,,,,,
15.45.01.572,429.1,107.3,0,,,57453.3,17.41,-0.78,0.6,0.16,1.2,5.2,-1.1,35.38,,,,,,,,,,
15.45.01.580,491.0,122.8,0,,,61444.8,16.27,-0.78,0.6,0.16,1.4,5.2,-0.9,35.38,,,,,,,,,,
15.45.01.593,460.6,115.2,0,,,62698.4,15.95,-0.78,0.6,0.16,1.0,5.1,-0.8,35.38,,,,,,,,,,
15.45.01.605,395.0,98.8,0,,,58869.0,16.99,-0.78,0.61,0.15,1.0,5.0,-0.5,35.38,,,,,,,,,,
15.45.01.613,462.5,115.6,0,,,55312.8,18.08,-0.78,0.6,0.16,0.8,5.0,-0.2,35.38,,,,,,,,,,
15.45.01.626,450.0,112.5,0,,,62104.0,16.1,-0.78,0.6,0.15,0.7,4.9,-0.3,35.38,,,,,,,,,,
15.45.01.634,417.6,104.4,0,,,56513.0,17.7,-0.77,0.6,0.15,0.9,4.9,-0.5,35.38,,,,,,,,,,
15.45.01.646,332.5,83.1,0,,,57833.8,17.29,-0.77,0.6,0.15,1.2,4.8,-0.3,35.38,,,,,,,,,,
15.45.01.654,253.0,63.2,0,,,58278.8,17.16,-0.77,0.6,0.16,0.8,4.6,0.1,35.38,,,,,,,,,,
15.45.01.666,178.3,44.6,0,,,57688.3,17.33,-0.77,0.6,0.16,0.5,4.7,-0.1,35.38,,,,,,,,,,
15.45.01.675,136.4,34.1,0,,,58113.0,17.21,-0.77,0.59,0.16,0.4,4.3,-0.2,35.38,,,,,,,,,,
15.45.01.687,11.2,2.8,0,,,60101.7,16.64,-0.77,0.59,0.15,0.4,4.4,-0.5,35.38,,,,,,,,,,
15.45.01.695,-38.3,9.6,0,,,57294.1,17.45,-0.77,0.59,0.15,0.4,4.7,-0.5,35.38,,,,,,,,,,
15.45.01.707,10.5,2.6,0,,,57174.2,17.49,-0.78,0.6,0.15,0.2,4.7,-0.4,35.38,,,,,,,,,,
15.45.01.716,67.2,16.8,0,,,59451.0,16.82,-0.78,0.6,0.15,-0.1,5.0,-0.6,35.38,,,,,,,,,,
15.45.01.728,51.8,13.0,0,,,61437.6,16.28,-0.78,0.59,0.15,-0.2,5.4,-0.7,35.38,,,,,,,,,,
15.45.01.736,104.8,26.2,0,,,58134.8,17.2,-0.79,0.59,0.15,0.1,6.3,-1.5,35.38,,,,,,,,,,
15.45.01.748,76.3,19.1,0,,,58038.0,17.23,-0.78,0.59,0.15,0.3,6.5,-1.7,35.38,,,,,,,,,,
15.45.01.757,116.0,29.0,0,,,61306.8,16.31,-0.78,0.59,0.16,0.4,7.0,-2.5,35.38,,,,,,,,,,
15.45.01.769,66.4,16.6,0,,,58789.0,17.01,-0.78,0.59,0.16,0.0,7.1,-3.2,35.38,,,,,,,,,,
15.45.01.777,28.7,7.2,0,,,56197.6,17.79,-0.78,0.59,0.16,0.4,7.3,-3.5,35.38,,,,,,,,,,
15.45.01.789,87.3,21.8,0,,,53657.8,18.64,-0.78,0.59,0.16,0.2,7.1,-3.7,35.38,,,,,,,,,,
15.45.01.798,-15.2,3.8,0,,,56205.7,17.79,-0.78,0.6,0.17,0.4,6.9,-3.8,35.38,,,,,,,,,,
15.45.01.810,-56.6,14.2,0,,,56403.3,17.73,-0.78,0.6,0.16,0.6,6.6,-3.8,35.38,,,,,,,,,,
15.45.01.818,10.0,2.5,0,,,56493.4,17.7,-0.78,0.6,0.17,0.9,6.8,-3.4,35.38,,,,,,,,,,
15.45.01.830,-78.6,19.6,0,,,58181.5,17.19,-0.78,0.6,0.16,1.1,6.3,-3.3,35.38,,,,,,,,,,
15.45.01.839,-27.1,6.8,0,,,51780.8,19.31,-0.79,0.61,0.16,1.4,6.0,-2.8,35.38,,,,,,,,,,
15.45.01.851,-25.6,6.4,0,,,59479.2,16.81,-0.78,0.61,0.15,1.5,5.5,-1.8,35.38,,,,,,,,,,
15.45.01.863,-55.4,13.8,0,,,57286.6,17.46,-0.78,0.61,0.16,1.6,4.9,-1.3,35.38,,,,,,,,,,
15.45.01.871,-78.4,19.6,0,,,60476.1,16.54,-0.78,0.61,0.16,1.8,4.7,-0.6,35.38,,,,,,,,,,
15.45.01.884,-77.3,19.3,0,,,61664.5,16.22,-0.78,0.61,0.15,2.2,4.4,0.0,35.38,,,,,,,,,,
15.45.01.892,-98.2,24.6,0,,,55627.4,17.98,-0.78,0.61,0.15,1.9,4.2,0.6,35.38,,,,,,,,,,
15.45.01.904,-4.3,1.1,0,,,56637.9,17.66,-0.78,0.61,0.15,1.7,4.0,0.9,35.38,,,,,,,,,,
15.45.01.912,-91.2,22.8,0,,,58940.1,16.97,-0.78,0.6,0.15,1.8,4.0,1.2,35.38,,,,,,,,,,
15.45.01.925,-57.6,14.4,0,,,58222.2,17.18,-0.78,0.6,0.15,1.8,4.1,1.9,35.38,,,,,,,,,,
15.45.01.937,-117.9,29.5,0,,,55198.2,18.12,-0.78,0.6,0.16,1.1,4.2,1.9,35.38,,,,,,,,,,
15.45.01.945,-42.4,10.6,0,,,57529.1,17.38,-0.78,0.59,0.16,0.8,4.2,1.8,35.38,,,,,,,,,,
15.45.01.957,-124.9,31.2,0,,,59204.6,16.89,-0.78,0.59,0.15,1.2,4.5,2.1,35.38,,,,,,,,,,
15.45.01.970,-120.1,30.0,0,,,54906.0,18.21,-0.78,0.59,0.16,1.6,4.8,1.7,35.38,,,,,,,,,,
15.45.01.978,-129.7,32.4,0,,,54469.1,18.36,-0.78,0.59,0.16,1.4,5.3,0.8,35.38,,,,,,,,,,
15.45.01.990,-96.0,24.0,0,,,54320.5,18.41,-0.78,0.58,0.16,1.1,5.6,0.0,35.38,,,,,,,,,,
15.45.02.002,-138.1,34.5,0,,,52768.9,18.95,-0.78,0.58,0.15,0.9,5.9,-0.6,35.38,,,,,,,,,,
15.45.02.044,-159.8,40.0,0,,,56578.5,17.67,-0.78,0.58,0.16,0.4,6.1,-1.7,35.38,,,,,,,,,,
15.45.02.052,-175.9,44.0,0,,,59008.4,16.95,-0.78,0.59,0.16,0.3,6.8,-3.4,35.38,,,,,,,,,,
15.45.02.064,-264.7,66.2,0,,,58067.6,17.22,-0.77,0.59,0.15,0.8,6.8,-3.5,35.38,,,,,,,,,,
15.45.02.072,-14.6,3.6,1,1.0,108.3,51893.4,19.27,-0.78,0.6,0.16,1.5,7.0,-3.7,35.38,,,,,,,,,,
15.45.02.085,80.5,20.1,0,1.0,,52578.8,19.02,-0.78,0.61,0.16,1.2,7.2,-3.6,35.38,,,,,,,,,,
15.45.02.093,190.5,47.6,0,1.0,,54337.1,18.4,-0.77,0.61,0.16,1.1,7.1,-3.3,35.38,,,,,,,,,,
15.45.02.105,262.8,65.7,0,1.0,,57056.8,17.53,-0.78,0.61,0.16,1.4,6.9,-2.7,35.38,,,,,,,,,,
15.45.02.113,341.8,85.4,0,1.0,,55169.4,18.13,-0.77,0.61,0.16,0.7,6.7,-2.6,35.38,,,,,,,,,,
15.45.02.125,364.4,91.1,0,1.0,,52442.1,19.07,-0.78,0.61,0.16,0.9,6.3,-1.9,35.38,,,,,,,,,,
15.45.02.134,399.8,100.0,0,1.0,,54684.7,18.29,-0.78,0.61,0.16,1.1,6.5,-1.9,35.38,,,,,,,,,,
15.45.02.146,475.0,118.8,0,1.0,,56155.5,17.81,-0.78,0.61,0.15,1.7,5.9,-1.0,35.38,,,,,,,,,,
15.45.02.154,513.4,128.4,0,1.0,,57413.0,17.42,-0.77,0.61,0.15,2.0,5.6,-0.8,35.38,,,,,,,,,,
15.45.02.166,494.6,123.6,0,1.0,,51033.1,19.6,-0.77,0.61,0.16,2.2,5.4,-0.3,35.38,,,,,,,,,,
15.45.02.174,478.1,119.5,0,1.0,,60751.0,16.46,-0.77,0.61,0.15,2.3,5.3,-0.1,35.38,,,,,,,,,,
15.45.02.187,467.7,116.9,0,1.0,,54949.0,18.2,-0.78,0.61,0.16,1.9,5.2,0.4,35.38,,,,,,,,,,
15.45.02.195,433.2,108.3,0,1.0,,61696.8,16.21,-0.77,0.61,0.15,1.5,5.1,0.5,35.38,,,,,,,,,,
15.45.02.207,370.0,92.5,0,1.0,,60835.6,16.44,-0.78,0.6,0.16,1.3,5.1,0.5,35.38,,,,,,,,,,
15.45.02.215,407.8,102.0,0,1.0,,54616.6,18.31,-0.78,0.6,0.16,1.8,5.0,0.9,35.38,,,,,,,,,,
15.45.02.228,258.6,64.6,0,1.0,,60196.5,16.61,-0.77,0.6,0.16,1.5,4.8,0.8,35.38,,,,,,,,,,
15.45.02.236,278.0,69.5,0,1.0,,60003.0,16.67,-0.78,0.59,0.16,1.3,5.3,0.5,35.38,,,,,,,,,,
15.45.02.248,200.5,50.1,0,1.0,,56158.2,17.81,-0.78,0.59,0.15,2.4,4.7,1.4,35.38,,,,,,,,,,
15.45.02.256,124.9,31.2,0,1.0,,58405.6,17.12,-0.77,0.6,0.16,2.4,6.2,0.4,35.38,,,,,,,,,,
15.45.02.269,35.2,8.8,0,1.0,,59180.4,16.9,-0.78,0.6,0.16,2.0,5.1,0.0,35.38,,,,,,,,,,
15.45.02.277,62.5,15.6,0,1.0,,59275.0,16.87,-0.78,0.6,0.16,1.7,5.1,-0.5,35.38,,,,,,,,,,
15.45.02.289,35.9,9.0,0,1.0,,55321.5,18.08,-0.78,0.6,0.15,1.3,5.7,-0.7,35.38,,,,,,,,,,
15.45.02.298,18.2,4.6,0,1.0,,60270.9,16.59,-0.78,0.59,0.16,0.7,4.5,-1.1,35.38,,,,,,,,,,
15.45.02.310,29.1,7.3,0,1.0,,58123.3,17.2,-0.78,0.59,0.15,0.7,5.1,-1.1,35.38,,,,,,,,,,
15.45.02.318,89.1,22.3,0,1.0,,57816.1,17.3,-0.78,0.6,0.15,0.8,5.1,-0.9,35.38,,,,,,,,,,
15.45.02.330,92.1,23.0,0,1.0,,47500.9,21.05,-0.78,0.6,0.16,0.8,5.0,-1.1,35.38,,,,,,,,,,
15.45.02.338,70.6,17.6,0,1.0,,63149.6,15.84,-0.78,0.6,0.16,1.1,5.8,-1.2,35.38,,,,,,,,,,
15.45.02.351,63.4,15.8,0,1.0,,53370.3,18.74,-0.78,0.6,0.16,1.2,5.1,-1.5,35.38,,,,,,,,,,
15.45.02.359,34.1,8.5,0,1.0,,59972.0,16.67,-0.77,0.6,0.16,0.7,5.6,-1.6,35.38,,,,,,,,,,
15.45.02.371,34.9,8.7,0,1.0,,59997.9,16.67,-0.78,0.6,0.16,0.5,5.8,-1.8,35.38,,,,,,,,,,
15.45.02.379,,,0,1.0,,,,,,,,,,,,,,,,,,,,
15.45.02.396,,,0,1.0,,,,,,,,,,,,35.38,,,,,,,,
15.45.02.408,39.0,9.8,0,1.0,,55661.1,17.97,-0.78,0.6,0.15,0.7,6.1,-1.8,35.38,,,,,,,,,,
15.45.02.416,0.8,0.2,0,1.0,,58567.1,17.07,-0.78,0.6,0.15,0.8,6.2,-1.8,35.38,,,,,,,,,,
15.45.02.433,-86.8,21.7,0,1.0,,57770.7,17.31,-0.78,0.61,0.16,1.2,5.6,-1.6,35.38,,,,,,,,,,
15.45.02.441,-41.3,10.3,0,1.0,,52368.8,19.1,-0.78,0.6,0.15,0.9,5.6,-1.2,35.38,,,,,,,,,,
15.45.02.453,-62.6,15.6,0,1.0,,56776.5,17.61,-0.78,0.61,0.15,0.9,5.3,-1.2,35.38,,,,,,,,,,
15.45.02.461,-49.9,12.5,0,1.0,,55631.6,17.98,-0.78,0.61,0.15,0.7,5.4,-1.1,35.38,,,,,,,,,,
15.45.02.469,-33.1,8.3,0,1.0,,58140.9,17.2,-0.78,0.61,0.15,0.8,5.5,-1.1,35.38,,,,,,,,,,
15.45.02.482,-47.9,12.0,0,1.0,,62340.6,16.04,-0.77,0.61,0.15,0.6,5.7,-0.9,35.38,,,,,,,,,,
15.45.02.490,-80.7,20.2,0,1.0,,59680.4,16.76,-0.78,0.61,0.15,0.9,5.4,-0.7,35.38,,,,,,,,,,
15.45.02.502,-78.7,19.7,0,1.0,,55457.1,18.03,-0.77,0.6,0.16,1.4,5.5,-0.4,35.38,,,,,,,,,,
15.45.02.510,-109.1,27.3,0,1.0,,57659.5,17.34,-0.77,0.6,0.15,1.0,5.5,-0.4,35.38,,,,,,,,,,
15.45.02.523,-152.1,38.0,0,1.0,,52196.4,19.16,-0.77,0.61,0.16,1.1,5.2,0.0,35.38,,,,,,,,,,
15.45.02.535,-68.9,17.2,0,1.0,,58871.2,16.99,-0.77,0.6,0.16,1.0,5.4,0.1,35.38,,,,,,,,,,
15.45.02.543,-101.1,25.3,0,1.0,,57022.9,17.54,-0.77,0.6,0.15,1.2,5.2,-0.2,35.38,,,,,,,,,,
15.45.02.555,-125.1,31.3,0,1.0,,52200.7,19.16,-0.77,0.6,0.15,0.6,5.5,-0.1,35.38,,,,,,,,,,
15.45.02.568,-163.2,40.8,0,1.0,,65570.5,15.25,-0.77,0.6,0.16,0.6,5.4,-0.4,35.38,,,,,,,,,,
15.45.02.576,-166.8,41.7,0,1.0,,62454.2,16.01,-0.77,0.59,0.15,1.0,5.5,-0.4,35.38,,,,,,,,,,
15.45.02.588,-167.1,41.8,0,1.0,,53702.2,18.62,-0.78,0.6,0.15,1.1,5.9,-0.8,35.38,,,,,,,,,,
15.45.02.600,-151.1,37.8,0,1.0,,56195.4,17.8,-0.78,0.6,0.15,0.9,5.9,-1.5,35.38,,,,,,,,,,
15.45.02.609,-197.8,49.4,0,1.0,,56714.0,17.63,-0.78,0.6,0.15,0.8,5.8,-1.2,35.38,,,,,,,,,,
15.45.02.621,-162.3,40.6,0,1.0,,63944.8,15.64,-0.78,0.6,0.16,1.0,6.2,-1.5,35.38,,,,,,,,,,
15.45.02.634,-184.9,46.2,0,1.0,,58932.0,16.97,-0.78,0.6,0.16,0.7,5.9,-1.4,35.38,,,,,,,,,,
15.45.02.641,-153.9,38.5,0,1.0,,54369.3,18.39,-0.78,0.6,0.15,1.3,6.4,-1.4,35.38,,,,,,,,,,
15.45.02.654,31.3,7.8,1,2.0,105.7,56886.8,17.58,-0.77,0.6,0.16,0.9,5.9,-1.5,35.38,,,,,,,,,,
15.45.02.666,86.9,21.7,0,2.0,,58435.8,17.11,-0.77,0.6,0.15,0.2,5.8,-1.7,35.38,,,,,,,,,,
15.45.02.678,261.8,65.4,0,2.0,,54048.5,18.5,-0.77,0.61,0.16,0.6,5.8,-1.8,35.38,,,,,,,,,,
15.45.02.687,206.8,51.7,0,2.0,,61883.2,16.16,-0.77,0.6,0.15,0.8,6.1,-1.8,35.38,,,,,,,,,,
15.45.02.699,317.7,79.4,0,2.0,,57000.0,17.54,-0.77,0.61,0.15,0.9,6.0,-1.5,35.38,,,,,,,,,,
15.45.02.711,356.3,89.1,0,2.0,,57384.7,17.43,-0.77,0.6,0.15,0.8,5.9,-1.4,35.38,,,,,,,,,,
15.45.02.719,377.8,94.4,0,2.0,,59315.4,16.86,-0.77,0.6,0.15,0.9,5.8,-1.5,35.38,,,,,,,,,,
15.45.02.732,457.0,114.2,0,2.0,,52973.1,18.88,-0.77,0.61,0.15,1.1,6.0,-1.3,35.38,,,,,,,,,,
15.45.02.744,412.7,103.2,0,2.0,,51965.7,19.24,-0.77,0.61,0.16,1.2,5.9,-1.2,35.38,,,,,,,,,,
15.45.02.752,584.8,146.2,0,2.0,,57793.9,17.3,-0.77,0.61,0.15,0.8,5.7,-1.1,35.38,,,,,,,,,,
15.45.02.764,471.8,118.0,0,2.0,,57427.5,17.41,-0.77,0.61,0.16,0.6,5.7,-1.1,35.38,,,,,,,,,,
15.45.02.777,440.9,110.2,0,2.0,,57892.3,17.27,-0.77,0.61,0.15,0.6,5.9,-0.8,35.38,,,,,,,,,,
15.45.02.785,389.7,97.4,0,2.0,,56813.9,17.6,-0.77,0.6,0.14,0.8,6.0,-0.9,35.38,,,,,,,,,,
15.45.02.797,436.8,109.2,0,2.0,,58904.0,16.98,-0.77,0.6,0.15,1.0,6.1,-0.6,35.38,,,,,,,,,,
15.45.02.809,316.1,79.0,0,2.0,,54193.1,18.45,-0.77,0.61,0.16,1.3,5.9,-0.8,35.38,,,,,,,,,,
15.45.02.851,32.7,8.2,0,2.0,,58315.4,17.15,-0.78,0.6,0.15,0.3,6.0,-1.1,35.31,,,,,,,,,,
15.45.02.859,57.1,14.3,0,2.0,,55353.5,18.07,-0.78,0.6,0.15,0.7,6.2,-1.2,35.31,,,,,,,,,,
15.45.02.871,40.8,10.2,0,2.0,,55463.1,18.03,-0.77,0.6,0.15,0.6,6.5,-1.3,35.31,,,,,,,,,,
15.45.02.883,58.2,14.6,0,2.0,,55734.6,17.94,-0.78,0.6,0.15,0.9,6.5,-1.5,35.31,,,,,,,,,,
15.45.02.891,38.9,9.7,0,2.0,,56250.0,17.78,-0.78,0.6,0.16,1.5,5.9,-1.2,35.31,,,,,,,,,,
15.45.02.904,114.0,28.5,0,2.0,,52563.6,19.02,-0.78,0.6,0.16,0.9,6.3,-1.4,35.31,,,,,,,,,,
15.45.02.916,66.2,16.6,0,2.0,,56167.3,17.8,-0.78,0.6,0.16,-0.3,5.9,-1.5,35.31,,,,,,,,,,
15.45.02.928,83.9,21.0,0,2.0,,58800.7,17.01,-0.78,0.6,0.15,-0.4,6.5,-1.9,35.31,,,,,,,,,,
15.45.02.936,79.8,20.0,0,2.0,,55806.3,17.92,-0.77,0.6,0.16,0.1,6.4,-1.7,35.31,,,,,,,,,,
15.45.02.950,84.7,21.2,0,2.0,,54363.6,18.39,-0.77,0.6,0.15,0.4,6.6,-1.8,35.31,,,,,,,,,,
15.45.02.961,-28.8,7.2,0,2.0,,56777.1,17.61,-0.77,0.6,0.15,0.9,6.5,-1.5,35.31,,,,,,,,,,
15.45.02.969,-43.2,10.8,0,2.0,,53655.4,18.64,-0.77,0.6,0.15,1.2,6.4,-1.2,35.31,,,,,,,,,,
15.45.02.981,-18.6,4.6,0,2.0,,56980.8,17.55,-0.78,0.61,0.16,0.7,6.7,-1.7,35.31,,,,,,,,,,
15.45.02.994,1.7,0.4,0,2.0,,60722.3,16.47,-0.78,0.61,0.15,-0.2,6.1,-1.5,35.31,,,,,,,,,,
15.45.03.006,-50.2,12.6,0,2.0,,59971.0,16.67,-0.78,0.6,0.16,-0.4,6.3,-1.7,35.31,,,,,,,,,,
15.45.03.015,13.0,3.2,0,2.0,,62393.2,16.03,-0.77,0.6,0.15,-0.3,5.7,-1.8,35.31,,,,,,,,,,
15.45.03.027,8.5,2.1,0,2.0,,56048.5,17.84,-0.78,0.6,0.15,0.2,5.9,-1.6,35.31,,,,,,,,,,
15.45.03.035,-20.0,5.0,0,2.0,,57586.1,17.37,-0.78,0.6,0.15,1.2,6.4,-1.6,35.31,,,,,,,,,,
15.45.03.047,-50.8,12.7,0,2.0,,57839.2,17.29,-0.78,0.6,0.15,1.1,6.1,-1.6,35.31,,,,,,,,,,
15.45.03.055,-95.0,23.8,0,2.0,,54950.5,18.2,-0.78,0.61,0.15,1.1,6.5,-1.8,35.31,,,,,,,,,,
15.45.03.068,-79.5,19.9,0,2.0,,53554.3,18.67,-0.78,0.61,0.15,0.8,6.4,-1.9,35.31,,,,,,,,,,
15.45.03.076,-85.8,21.4,0,2.0,,54964.1,18.19,-0.77,0.61,0.15,0.2,6.2,-1.8,35.31,,,,,,,,,,
15.45.03.088,-115.8,29.0,0,2.0,,64639.4,15.47,-0.77,0.61,0.15,-0.2,6.3,-1.7,35.31,,,,,,,,,,
15.45.03.097,-97.0,24.2,0,2.0,,61637.6,16.22,-0.77,0.61,0.16,0.1,5.9,-1.2,35.31,,,,,,,,,,
15.45.03.109,-112.1,28.0,0,2.0,,54191.7,18.45,-0.78,0.61,0.16,0.3,6.1,-1.0,35.31,,,,,,,,,,
15.45.03.117,-177.5,44.4,0,2.0,,57755.4,17.31,-0.78,0.61,0.15,0.8,6.2,-0.7,35.31,,,,,,,,,,
15.45.03.129,-120.2,30.0,0,2.0,,56755.9,17.62,-0.78,0.6,0.15,1.1,6.4,-0.9,35.31,,,,,,,,,,
15.45.03.137,-130.5,32.6,0,2.0,,55539.8,18.01,-0.78,0.6,0.15,0.8,6.0,-0.5,35.31,,,,,,,,,,
15.45.03.149,-88.8,22.2,0,2.0,,57208.9,17.48,-0.78,0.6,0.15,0.7,6.5,-0.7,35.31,,,,,,,,,,
15.45.03.158,-117.8,29.4,0,2.0,,57741.7,17.32,-0.78,0.6,0.15,0.6,5.8,-1.0,35.31,,,,,,,,,,
15.45.03.170,-113.9,28.5,0,2.0,,64386.2,15.53,-0.78,0.6,0.15,0.0,6.4,-0.8,35.31,,,,,,,,,,
15.45.03.178,-126.3,31.6,0,2.0,,59323.1,16.86,-0.77,0.6,0.15,-0.1,6.4,-1.5,35.31,,,,,,,,,,
15.45.03.190,-165.0,41.2,0,2.0,,59204.8,16.89,-0.78,0.59,0.15,0.2,6.2,-1.6,35.31,,,,,,,,,,
15.45.03.203,-158.5,39.6,0,2.0,,58595.2,17.07,-0.77,0.6,0.15,0.0,6.6,-1.8,35.31,,,,,,,,,,
15.45.03.211,-226.7,56.7,0,2.0,,61635.0,16.22,-0.78,0.6,0.15,0.4,6.6,-1.9,35.31,,,,,,,,,,
15.45.03.223,-243.8,61.0,0,2.0,,55623.2,17.98,-0.78,0.6,0.16,0.2,6.6,-2.2,35.31,,,,,,,,,,
15.45.03.231,-157.7,39.4,0,2.0,,55959.7,17.87,-0.78,0.6,0.15,0.6,7.0,-2.4,35.31,,,,,,,,,,
15.45.03.244,100.9,25.2,1,3.0,99.5,56933.8,17.56,-0.77,0.61,0.15,0.0,6.5,-2.3,35.31,,,,,,,,,,
15.45.03.252,41.5,10.4,0,3.0,,60823.8,16.44,-0.77,0.61,0.15,-0.2,6.8,-2.7,35.31,,,,,,,,,,
15.45.03.264,165.5,41.4,0,3.0,,56649.8,17.65,-0.77,0.61,0.15,-0.6,6.6,-2.4,35.31,,,,,,,,,,
15.45.03.272,297.6,74.4,0,3.0,,53323.1,18.75,-0.77,0.61,0.15,-0.5,6.0,-2.3,35.31,,,,,,,,,,
15.45.03.285,365.6,91.4,0,3.0,,58667.8,17.05,-0.77,0.6,0.15,-0.8,6.5,-2.0,35.31,,,,,,,,,,
15.45.03.293,368.3,92.1,0,3.0,,60062.8,16.65,-0.77,0.6,0.14,-0.9,6.3,-2.0,35.31,,,,,,,,,,
15.45.03.305,433.9,108.5,0,3.0,,53573.6,18.67,-0.77,0.6,0.15,-0.5,6.6,-2.0,35.31,,,,,,,,,,
15.45.03.313,418.5,104.6,0,3.0,,59036.9,16.94,-0.77,0.6,0.15,-0.3,6.8,-1.7,35.31,,,,,,,,,,
15.45.03.326,445.1,111.3,0,3.0,,59405.0,16.83,-0.78,0.59,0.14,-0.4,7.2,-1.9,35.31,,,,,,,,,,
15.45.03.338,525.3,131.3,0,3.0,,57552.4,17.38,-0.78,0.6,0.15,-0.2,7.6,-2.1,35.31,,,,,,,,,,
15.45.03.346,465.8,116.4,0,3.0,,59837.1,16.71,-0.78,0.6,0.15,0.1,8.0,-2.9,35.31,,,,,,,,,,
15.45.03.358,415.8,104.0,0,3.0,,60918.3,16.42,-0.79,0.59,0.15,-0.2,8.3,-3.7,35.31,,,,,,,,,,
15.45.03.367,400.8,100.2,0,3.0,,58269.0,17.16,-0.8,0.6,0.15,-0.2,8.6,-4.4,35.31,,,,,,,,,,
15.45.03.379,413.3,103.3,0,3.0,,60296.4,16.58,-0.79,0.6,0.16,-0.5,8.6,-5.3,35.31,,,,,,,,,,
15.45.03.387,364.4,91.1,0,3.0,,55544.7,18.0,-0.79,0.6,0.16,-0.8,8.9,-5.4,35.31,,,,,,,,,,
15.45.03.399,341.8,85.4,0,3.0,,53869.4,18.56,-0.79,0.6,0.16,-0.9,8.6,-5.3,35.31,,,,,,,,,,
15.45.03.408,211.3,52.8,0,3.0,,61936.8,16.15,-0.79,0.6,0.16,-0.4,8.4,-5.5,35.31,,,,,,,,,,
15.45.03.420,143.5,35.9,0,3.0,,55772.3,17.93,-0.78,0.6,0.16,0.3,7.8,-4.8,35.31,,,,,,,,,,
15.45.03.428,90.3,22.6,0,3.0,,57246.6,17.47,-0.79,0.6,0.16,1.2,7.7,-4.1,35.31,,,,,,,,,,
15.45.03.440,-15.7,3.9,0,3.0,,54801.7,18.25,-0.78,0.61,0.16,1.5,6.4,-3.0,35.31,,,,,,,,,,
15.45.03.449,50.7,12.7,0,3.0,,54413.8,18.38,-0.78,0.61,0.16,1.4,5.8,-2.4,35.31,,,,,,,,,,
15.45.03.461,25.8,6.4,0,3.0,,58242.5,17.17,-0.79,0.61,0.15,2.0,5.1,-1.3,35.31,,,,,,,,,,
15.45.03.469,82.0,20.5,0,3.0,,57132.3,17.5,-0.78,0.62,0.15,1.8,4.0,-0.4,35.31,,,,,,,,,,
15.45.03.481,102.3,25.6,0,3.0,,57478.2,17.4,-0.78,0.61,0.14,1.3,3.4,0.2,35.31,,,,,,,,,,
15.45.03.490,76.9,19.2,0,3.0,,57584.1,17.37,-0.78,0.61,0.15,1.0,2.6,0.9,35.31,,,,,,,,,,
15.45.03.502,64.4,16.1,0,3.0,,63333.0,15.79,-0.78,0.6,0.15,1.1,2.6,1.8,35.31,,,,,,,,,,
15.45.03.510,64.7,16.2,0,3.0,,61553.6,16.25,-0.78,0.6,0.15,1.0,2.7,2.0,35.31,,,,,,,,,,
15.45.03.522,57.4,14.4,0,3.0,,61875.4,16.16,-0.78,0.59,0.15,1.3,2.5,2.1,35.31,,,,,,,,,,
15.45.03.531,39.4,9.8,0,3.0,,51801.8,19.3,-0.77,0.59,0.14,1.5,3.1,2.1,35.31,,,,,,,,,,
15.45.03.544,24.6,6.2,0,3.0,,59579.1,16.78,-0.78,0.6,0.14,1.2,3.7,1.5,35.31,,,,,,,,,,
15.45.03.551,-7.2,1.8,0,3.0,,52497.1,19.05,-0.78,0.59,0.15,0.7,4.1,1.0,35.31,,,,,,,,,,
15.45.03.563,-11.3,2.8,0,3.0,,55404.7,18.05,-0.77,0.59,0.15,0.6,4.8,0.4,35.31,,,,,,,,,,
15.45.03.571,-26.9,6.7,0,3.0,,62504.8,16.0,-0.78,0.59,0.15,0.5,5.2,0.0,35.31,,,,,,,,,,
15.45.03.584,-6.1,1.5,0,3.0,,61849.9,16.17,-0.78,0.59,0.14,0.2,5.7,-0.8,35.31,,,,,,,,,,
15.45.03.592,-11.1,2.8,0,3.0,,60359.1,16.57,-0.78,0.58,0.15,0.3,5.8,-1.3,35.31,,,,,,,,,,
15.45.03.604,-58.8,14.7,0,3.0,,59606.2,16.78,-0.78,0.59,0.15,0.3,6.2,-1.7,35.31,,,,,,,,,,
15.45.03.617,-104.1,26.0,0,3.0,,58436.3,17.11,-0.78,0.59,0.15,0.1,6.3,-2.1,35.31,,,,,,,,,,
15.45.03.653,-15.2,3.8,0,3.0,,58854.3,16.99,-0.78,0.59,0.15,-0.3,6.3,-2.2,35.38,,,,,,,,,,
15.45.03.663,-87.2,21.8,0,3.0,,60774.2,16.45,-0.78,0.59,0.15,0.4,6.3,-2.3,35.38,,,,,,,,,,
15.45.03.674,-55.9,14.0,0,3.0,,53097.2,18.83,-0.77,0.6,0.15,0.9,6.7,-2.2,35.38,,,,,,,,,,
15.45.03.683,-136.3,34.1,0,3.0,,58400.4,17.12,-0.78,0.6,0.15,0.9,6.4,-1.8,35.38,,,,,,,,,,
15.45.03.694,-104.8,26.2,0,3.0,,55242.4,18.1,-0.78,0.61,0.16,0.4,6.6,-1.5,35.38,,,,,,,,,,
15.45.03.703,-155.0,38.8,0,3.0,,56399.8,17.73,-0.78,0.6,0.16,0.3,6.0,-1.3,35.38,,,,,,,,,,
15.45.03.715,-82.6,20.6,0,3.0,,56913.9,17.57,-0.78,0.6,0.15,0.5,5.8,-1.4,35.38,,,,,,,,,,
15.45.03.727,-131.9,33.0,0,3.0,,57664.4,17.34,-0.77,0.61,0.15,0.8,5.6,-0.9,35.38,,,,,,,,,,
15.45.03.735,-124.5,31.1,0,3.0,,55763.3,17.93,-0.77,0.61,0.16,0.8,4.8,-0.6,35.38,,,,,,,,,,
15.45.03.748,-125.5,31.4,0,3.0,,50566.9,19.78,-0.78,0.61,0.15,1.2,4.8,-0.3,35.38,,,,,,,,,,
15.45.03.756,-139.4,34.8,0,3.0,,57774.1,17.31,-0.78,0.61,0.15,1.8,4.8,-0.1,35.38,,,,,,,,,,
15.45.03.768,-153.5,38.4,0,3.0,,56106.4,17.82,-0.78,0.6,0.15,2.1,4.4,0.2,35.38,,,,,,,,,,
15.45.03.776,-163.8,41.0,0,3.0,,56553.5,17.68,-0.78,0.61,0.15,1.9,4.8,0.1,35.38,,,,,,,,,,
15.45.03.789,-163.4,40.8,0,3.0,,59547.5,16.79,-0.78,0.61,0.14,1.6,4.5,0.1,35.38,,,,,,,,,,
15.45.03.797,-219.1,54.8,0,3.0,,58138.0,17.2,-0.77,0.61,0.14,1.4,4.7,0.0,35.38,,,,,,,,,,
15.45.03.809,-213.4,53.4,0,3.0,,57854.5,17.28,-0.78,0.61,0.14,1.6,4.8,0.3,35.38,,,,,,,,,,
15.45.03.817,39.9,10.0,1,4.0,99.6,57030.1,17.53,-0.77,0.61,0.15,1.9,4.8,0.2,35.38,,,,,,,,,,
15.45.03.831,132.9,33.2,0,4.0,,57340.4,17.44,-0.77,0.61,0.15,2.5,4.8,0.3,35.38,,,,,,,,,,
15.45.03.838,145.3,36.3,0,4.0,,54355.5,18.4,-0.78,0.6,0.14,1.8,5.2,0.4,35.38,,,,,,,,,,
15.45.03.850,221.2,55.3,0,4.0,,57869.9,17.28,-0.78,0.6,0.15,1.7,4.9,0.4,35.38,,,,,,,,,,
15.45.03.862,305.5,76.4,0,4.0,,54721.4,18.27,-0.77,0.61,0.15,1.4,5.0,0.3,35.38,,,,,,,,,,
15.45.03.870,367.0,91.8,0,4.0,,55735.9,17.94,-0.78,0.6,0.15,0.9,5.2,0.4,35.38,,,,,,,,,,
15.45.03.883,354.1,88.5,0,4.0,,53476.9,18.7,-0.77,0.6,0.15,0.5,5.2,0.3,35.38,,,,,,,,,,
15.45.03.895,369.4,92.4,0,4.0,,59018.8,16.94,-0.78,0.59,0.15,1.0,5.2,0.2,35.38,,,,,,,,,,
15.45.03.903,483.9,121.0,0,4.0,,63340.3,15.79,-0.78,0.59,0.16,1.6,5.1,0.0,35.38,,,,,,,,,,
15.45.03.916,559.5,139.9,0,4.0,,59054.3,16.93,-0.78,0.6,0.15,0.9,5.0,0.1,35.38,,,,,,,,,,
15.45.03.929,444.5,111.1,0,4.0,,49249.3,20.3,-0.78,0.59,0.15,0.3,5.1,-0.5,35.38,,,,,,,,,,
15.45.03.940,457.8,114.4,0,4.0,,58380.0,17.13,-0.78,0.59,0.15,0.4,5.5,-0.9,35.38,,,,,,,,,,
15.45.03.948,460.3,115.1,0,4.0,,56561.3,17.68,-0.78,0.59,0.15,-0.1,5.2,-1.2,35.38,,,,,,,,,,
15.45.03.961,373.3,93.3,0,4.0,,58110.8,17.21,-0.78,0.59,0.15,0.1,5.2,-1.8,35.38,,,,,,,,,,
15.45.03.973,389.6,97.4,0,4.0,,61263.9,16.32,-0.78,0.59,0.15,0.8,5.7,-2.3,35.38,,,,,,,,,,
15.45.03.981,262.7,65.7,0,4.0,,58232.3,17.17,-0.77,0.6,0.14,1.5,5.8,-2.4,35.38,,,,,,,,,,
15.45.03.993,222.1,55.5,0,4.0,,60068.9,16.65,-0.78,0.6,0.15,0.7,5.6,-3.0,35.38,,,,,,,,,,
15.45.04.006,91.5,22.9,0,4.0,,58703.8,17.03,-0.78,0.61,0.15,0.1,5.9,-3.2,35.38,,,,,,,,,,
15.45.04.014,100.3,25.1,0,4.0,,53949.4,18.54,-0.77,0.6,0.15,-0.1,6.0,-3.2,35.38,,,,,,,,,,
15.45.04.026,59.7,14.9,0,4.0,,60094.1,16.64,-0.78,0.61,0.15,-0.4,6.1,-2.9,35.38,,,,,,,,,,
15.45.04.038,44.2,11.0,0,4.0,,59906.4,16.69,-0.78,0.61,0.15,0.2,6.2,-2.8,35.38,,,,,,,,,,
15.45.04.051,43.1,10.8,0,4.0,,57571.6,17.37,-0.77,0.61,0.15,0.7,6.4,-2.4,35.38,,,,,,,,,,
15.45.04.059,117.4,29.4,0,4.0,,60301.7,16.58,-0.78,0.61,0.15,0.8,5.9,-2.1,35.38,,,,,,,,,,
15.45.04.071,85.0,21.2,0,4.0,,59939.2,16.68,-0.78,0.61,0.15,1.0,5.6,-1.7,35.38,,,,,,,,,,
15.45.04.084,145.6,36.4,0,4.0,,57136.6,17.5,-0.78,0.61,0.15,0.4,5.8,-1.6,35.38,,,,,,,,,,
15.45.04.092,36.2,9.0,0,4.0,,55163.9,18.13,-0.78,0.61,0.15,0.1,5.7,-1.5,35.38,,,,,,,,,,
15.45.04.104,61.8,15.4,0,4.0,,55703.0,17.95,-0.77,0.61,0.15,-0.2,5.5,-1.0,35.38,,,,,,,,,,
15.45.04.116,30.0,7.5,0,4.0,,61271.1,16.32,-0.77,0.6,0.16,0.1,6.0,-1.2,35.38,,,,,,,,,,
15.45.04.124,-19.3,4.8,0,4.0,,56377.4,17.74,-0.77,0.6,0.15,0.9,5.4,-0.8,35.38,,,,,,,,,,
15.45.04.137,-44.0,11.0,0,4.0,,59348.6,16.85,-0.77,0.61,0.16,0.7,5.6,-0.9,35.38,,,,,,,,,,
15.45.04.149,-47.8,12.0,0,4.0,,55762.3,17.93,-0.77,0.6,0.15,1.0,5.6,-0.9,35.38,,,,,,,,,,
15.45.04.157,-61.5,15.4,0,4.0,,56751.7,17.62,-0.78,0.6,0.15,0.4,5.5,-0.7,35.38,,,,,,,,,,
15.45.04.170,-88.1,22.0,0,4.0,,60070.7,16.65,-0.78,0.6,0.15,0.4,5.7,-1.2,35.38,,,,,,,,,,
15.45.04.182,-24.8,6.2,0,4.0,,59681.7,16.76,-0.77,0.6,0.15,0.0,5.5,-1.1,35.38,,,,,,,,,,
15.45.04.190,-97.4,24.4,0,4.0,,56994.5,17.55,-0.77,0.59,0.15,0.3,5.4,-1.3,35.38,,,,,,,,,,
15.45.04.202,-63.2,15.8,0,4.0,,61732.8,16.2,-0.78,0.59,0.15,0.8,5.6,-1.7,35.38,,,,,,,,,,
15.45.04.215,-84.8,21.2,0,4.0,,55349.6,18.07,-0.78,0.6,0.15,1.3,5.8,-1.9,35.38,,,,,,,,,,
15.45.04.223,-83.5,20.9,0,4.0,,55085.4,18.15,-0.78,0.6,0.15,1.1,5.7,-1.9,35.38,,,,,,,,,,
15.45.04.235,-96.5,24.1,0,4.0,,57415.5,17.42,-0.78,0.6,0.15,0.7,5.9,-2.3,35.38,,,,,,,,,,
15.45.04.247,-91.7,22.9,0,4.0,,60064.7,16.65,-0.78,0.6,0.15,0.1,6.0,-2.6,35.38,,,,,,,,,,
15.45.04.261,-74.1,18.5,0,4.0,,64182.6,15.58,-0.78,0.61,0.15,-0.4,6.0,-2.6,35.38,,,,,,,,,,
15.45.04.268,-171.1,42.8,0,4.0,,52909.8,18.9,-0.78,0.6,0.15,0.0,6.2,-2.4,35.38,,,,,,,,,,
15.45.04.280,-125.1,31.3,0,4.0,,57762.9,17.31,-0.78,0.6,0.15,0.3,6.0,-2.0,35.38,,,,,,,,,,
15.45.04.292,-39.5,9.9,0,4.0,,61519.8,16.25,-0.78,0.6,0.15,1.2,6.0,-1.5,35.38,,,,,,,,,,
15.45.04.301,-146.2,36.6,0,4.0,,58182.2,17.19,-0.78,0.6,0.15,1.4,5.9,-1.0,35.38,,,,,,,,,,
15.45.04.313,-104.7,26.2,0,4.0,,55550.9,18.0,-0.78,0.61,0.16,1.2,5.5,-1.0,35.38,,,,,,,,,,
15.45.04.325,-125.1,31.3,0,4.0,,57024.9,17.54,-0.78,0.61,0.16,0.3,5.7,-1.3,35.38,,,,,,,,,,
15.45.04.338,-202.9,50.7,0,4.0,,57248.9,17.47,-0.78,0.6,0.16,-0.3,5.8,-1.2,35.38,,,,,,,,,,
15.45.04.347,-169.8,42.4,0,4.0,,61995.4,16.13,-0.78,0.59,0.15,-0.2,5.4,-1.0,35.38,,,,,,,,,,
15.45.04.358,-191.6,47.9,0,4.0,,62006.7,16.13,-0.78,0.59,0.16,0.5,5.8,-1.4,35.38,,,,,,,,,,
15.45.04.370,-230.7,57.7,0,4.0,,55286.5,18.09,-0.78,0.6,0.15,1.1,5.5,-1.2,35.38,,,,,,,,,,
15.45.04.378,-157.2,39.3,0,4.0,,63238.9,15.81,-0.78,0.6,0.15,1.2,5.8,-1.0,35.38,,,,,,,,,,
15.45.04.391,-211.6,52.9,0,4.0,,56139.7,17.81,-0.78,0.6,0.15,1.3,6.0,-1.5,35.38,,,,,,,,,,
15.45.04.403,71.7,17.9,1,5.0,109.8,58673.0,17.04,-0.78,0.6,0.15,0.4,5.7,-1.1,35.38,,,,,,,,,,
15.45.04.415,116.6,29.2,0,5.0,,58814.8,17.0,-0.78,0.6,0.15,0.1,5.8,-1.6,35.38,,,,,,,,,,
15.45.04.452,366.2,91.6,0,5.0,,55655.9,17.97,-0.78,0.6,0.15,-0.1,5.6,-1.2,35.31,,,,,,,,,,
15.45.04.465,479.2,119.8,0,5.0,,60305.7,16.58,-0.78,0.6,0.15,1.6,5.5,-0.6,35.31,,,,,,,,,,
15.45.04.473,419.2,104.8,0,5.0,,53245.8,18.78,-0.78,0.6,0.16,1.7,5.8,-0.7,35.31,,,,,,,,,,
15.45.04.485,498.5,124.6,0,5.0,,58984.6,16.95,-0.78,0.6,0.15,1.7,5.6,-0.9,35.31,,,,,,,,,,
15.45.04.493,519.1,129.8,0,5.0,,59999.2,16.67,-0.78,0.6,0.16,1.2,5.9,-0.8,35.31,,,,,,,,,,
15.45.04.506,488.1,122.0,0,5.0,,59612.3,16.78,-0.77,0.6,0.16,0.5,5.3,-1.1,35.31,,,,,,,,,,
15.45.04.514,486.5,121.6,0,5.0,,62113.8,16.1,-0.78,0.6,0.15,-0.2,5.7,-1.2,35.31,,,,,,,,,,
15.45.04.526,425.4,106.4,0,5.0,,57473.3,17.4,-0.78,0.6,0.15,0.4,5.7,-1.1,35.31,,,,,,,,,,
15.45.04.534,397.1,99.3,0,5.0,,51305.2,19.49,-0.77,0.6,0.16,1.0,5.9,-1.1,35.31,,,,,,,,,,
15.45.04.547,387.0,96.8,0,5.0,,62589.2,15.98,-0.78,0.6,0.15,1.4,5.8,-0.9,35.31,,,,,,,,,,
15.45.04.556,379.6,94.9,0,5.0,,56816.1,17.6,-0.78,0.6,0.15,1.8,5.9,-0.9,35.31,,,,,,,,,,
15.45.04.567,190.6,47.6,0,5.0,,56302.4,17.76,-0.77,0.6,0.15,1.8,5.6,-1.0,35.31,,,,,,,,,,
15.45.04.575,178.8,44.7,0,5.0,,54869.3,18.23,-0.78,0.6,0.15,1.0,5.6,-0.9,35.31,,,,,,,,,,
15.45.04.587,93.2,23.3,0,5.0,,53494.3,18.69,-0.78,0.61,0.15,0.7,5.8,-1.1,35.31,,,,,,,,,,
15.45.04.596,-9.2,2.3,0,5.0,,52427.4,19.07,-0.78,0.6,0.15,0.6,5.2,-1.3,35.31,,,,,,,,,,
15.45.04.608,18.7,4.7,0,5.0,,58166.8,17.19,-0.77,0.6,0.14,0.5,5.6,-0.6,35.31,,,,,,,,,,
15.45.04.616,7.5,1.9,0,5.0,,60945.3,16.41,-0.78,0.6,0.15,0.8,5.2,-0.4,35.31,,,,,,,,,,
15.45.04.628,67.1,16.8,0,5.0,,56206.9,17.79,-0.78,0.6,0.14,1.2,5.3,-0.4,35.31,,,,,,,,,,
15.45.04.637,75.3,18.8,0,5.0,,58785.3,17.01,-0.78,0.6,0.15,1.6,5.5,-0.3,35.31,,,,,,,,,,
15.45.04.649,43.2,10.8,0,5.0,,62704.6,15.95,-0.77,0.6,0.15,1.2,5.7,-0.5,35.31,,,,,,,,,,
15.45.04.657,151.7,37.9,0,5.0,,57998.7,17.24,-0.78,0.6,0.15,0.8,5.7,-0.4,35.31,,,,,,,,,,
15.45.04.669,74.9,18.7,0,5.0,,54633.9,18.3,-0.78,0.6,0.15,0.5,5.3,-0.4,35.31,,,,,,,,,,
15.45.04.678,91.7,22.9,0,5.0,,58320.1,17.15,-0.78,0.6,0.15,0.7,5.8,-0.5,35.31,,,,,,,,,,
15.45.04.690,58.4,14.6,0,5.0,,55386.1,18.06,-0.78,0.6,0.15,0.7,5.6,-0.6,35.31,,,,,,,,,,
15.45.04.702,11.7,2.9,0,5.0,,59158.2,16.9,-0.78,0.6,0.14,0.8,6.0,-0.5,35.31,,,,,,,,,,
15.45.04.710,35.3,8.8,0,5.0,,54886.0,18.22,-0.78,0.6,0.15,1.0,5.8,-0.7,35.31,,,,,,,,,,
15.45.04.723,24.1,6.0,0,5.0,,52902.0,18.9,-0.77,0.6,0.15,0.9,6.2,-1.0,35.31,,,,,,,,,,
15.45.04.731,17.5,4.4,0,5.0,,60712.3,16.47,-0.77,0.6,0.15,0.3,5.9,-1.2,35.31,,,,,,,,,,
15.45.04.743,-57.9,14.5,0,5.0,,58233.8,17.17,-0.77,0.6,0.15,-0.2,5.8,-1.0,35.31,,,,,,,,,,
15.45.04.751,-34.1,8.5,0,5.0,,59485.7,16.81,-0.78,0.6,0.15,-0.1,6.3,-0.9,35.31,,,,,,,,,,
15.45.04.764,-90.1,22.5,0,5.0,,55441.1,18.04,-0.78,0.6,0.15,-0.2,6.3,-1.2,35.31,,,,,,,,,,
15.45.04.772,-26.1,6.5,0,5.0,,52994.5,18.87,-0.77,0.6,0.15,0.3,6.5,-1.2,35.31,,,,,,,,,,
15.45.04.784,-79.7,19.9,0,5.0,,60410.7,16.55,-0.78,0.6,0.14,0.8,6.8,-1.6,35.31,,,,,,,,,,
15.45.04.797,-34.8,8.7,0,5.0,,60722.1,16.47,-0.78,0.61,0.15,0.8,6.9,-1.5,35.31,,,,,,,,,,
15.45.04.805,-13.1,3.3,0,5.0,,54925.3,18.21,-0.78,0.61,0.14,0.1,6.6,-2.1,35.31,,,,,,,,,,
15.45.04.817,-51.9,13.0,0,5.0,,61062.8,16.38,-0.78,0.6,0.15,-0.4,6.5,-1.8,35.31,,,,,,,,,,
15.45.04.829,-57.7,14.4,0,5.0,,58030.8,17.23,-0.78,0.6,0.15,-0.4,6.3,-1.9,35.31,,,,,,,,,,
15.45.04.838,-68.1,17.0,0,5.0,,57091.9,17.52,-0.78,0.6,0.15,-0.3,6.3,-1.6,35.31,,,,,,,,,,
15.45.04.850,-81.5,20.4,0,5.0,,55057.3,18.16,-0.78,0.6,0.14,0.1,6.5,-1.8,35.31,,,,,,,,,,
15.45.04.858,-76.3,19.1,0,5.0,,59499.6,16.81,-0.78,0.6,0.15,0.4,6.6,-1.5,35.31,,,,,,,,,,
15.45.04.870,-154.2,38.6,0,5.0,,59236.4,16.88,-0.77,0.6,0.15,0.5,6.6,-1.5,35.31,,,,,,,,,,
15.45.04.878,-117.0,29.2,0,5.0,,59056.0,16.93,-0.78,0.6,0.15,0.5,6.6,-1.3,35.31,,,,,,,,,,
15.45.04.891,-72.2,18.0,0,5.0,,50858.9,19.66,-0.77,0.6,0.16,0.4,6.5,-1.3,35.31,,,,,,,,,,
15.45.04.899,-155.4,38.8,0,5.0,,56246.8,17.78,-0.78,0.6,0.15,0.2,6.6,-1.3,35.31,,,,,,,,,,
15.45.04.907,-160.9,40.2,0,5.0,,58005.8,17.24,-0.78,0.6,0.15,-0.1,6.3,-1.1,35.31,,,,,,,,,,
15.45.04.919,-138.2,34.6,0,5.0,,57948.3,17.26,-0.78,0.6,0.15,0.2,5.9,-1.4,35.31,,,,,,,,,,
15.45.04.927,-160.5,40.1,0,5.0,,53030.3,18.86,-0.78,0.6,0.15,0.1,6.1,-1.2,35.31,,,,,,,,,,
15.45.04.940,-213.7,53.4,0,5.0,,59026.4,16.94,-0.78,0.6,0.15,0.2,6.2,-1.3,35.31,,,,,,,,,,
15.45.04.949,-216.5,54.1,0,5.0,,60703.0,16.47,-0.77,0.6,0.15,0.1,6.2,-1.5,35.31,,,,,,,,,,
15.45.04.960,-151.9,38.0,0,5.0,,52146.2,19.18,-0.78,0.6,0.15,-0.1,6.6,-1.9,35.31,,,,,,,,,,
15.45.04.968,-195.4,48.8,0,5.0,,57984.6,17.25,-0.77,0.6,0.15,0.0,6.4,-1.8,35.31,,,,,,,,,,
15.45.04.981,-224.3,56.1,0,5.0,,54489.2,18.35,-0.78,0.6,0.15,0.1,6.4,-2.1,35.31,,,,,,,,,,
15.45.04.989,72.6,18.2,1,6.0,95.5,57967.6,17.25,-0.78,0.6,0.15,0.4,6.3,-2.0,35.31,,,,,,,,,,
15.45.05.001,194.0,48.5,0,6.0,,54234.5,18.44,-0.78,0.6,0.15,0.4,6.7,-2.0,35.31,,,,,,,,,,
15.45.05.009,215.7,53.9,0,6.0,,57635.3,17.35,-0.78,0.61,0.14,0.5,6.1,-1.8,35.31,,,,,,,,,,
15.45.05.022,314.8,78.7,0,6.0,,57518.2,17.39,-0.78,0.61,0.15,0.6,6.7,-1.6,35.31,,,,,,,,,,
15.45.05.030,365.6,91.4,0,6.0,,62942.2,15.89,-0.77,0.6,0.15,0.7,6.6,-1.9,35.31,,,,,,,,,,
15.45.05.042,369.7,92.4,0,6.0,,60974.2,16.4,-0.77,0.6,0.15,0.5,6.3,-1.8,35.31,,,,,,,,,,
15.45.05.050,474.9,118.7,0,6.0,,62596.9,15.98,-0.78,0.6,0.14,0.8,6.4,-1.5,35.31,,,,,,,,,,
15.45.05.063,490.3,122.6,0,6.0,,55032.0,18.17,-0.77,0.6,0.15,0.8,6.5,-1.6,35.31,,,,,,,,,,
15.45.05.075,558.8,139.7,0,6.0,,51711.1,19.34,-0.77,0.6,0.15,0.7,6.6,-1.7,35.31,,,,,,,,,,
15.45.05.083,417.5,104.4,0,6.0,,53389.3,18.73,-0.78,0.6,0.15,1.0,6.5,-1.3,35.31,,,,,,,,,,
15.45.05.096,446.1,111.5,0,6.0,,54694.1,18.28,-0.77,0.6,0.15,0.7,6.5,-1.6,35.31,,,,,,,,,,
15.45.05.104,478.1,119.5,0,6.0,,57794.9,17.3,-0.78,0.6,0.15,0.5,6.3,-1.5,35.31,,,,,,,,,,
15.45.05.116,446.4,111.6,0,6.0,,62601.6,15.97,-0.78,0.6,0.15,0.7,6.5,-1.1,35.31,,,,,,,,,,
15.45.05.124,412.7,103.2,0,6.0,,57355.3,17.44,-0.78,0.61,0.15,0.8,6.4,-1.1,35.31,,,,,,,,,,
15.45.05.136,355.0,88.8,0,6.0,,58848.1,16.99,-0.78,0.6,0.15,0.8,6.2,-1.4,35.31,,,,,,,,,,
15.45.05.145,296.2,74.0,0,6.0,,60236.7,16.6,-0.78,0.6,0.15,0.7,6.3,-1.4,35.31,,,,,,,,,,
15.45.05.157,189.3,47.3,0,6.0,,56109.9,17.82,-0.78,0.6,0.14,0.4,6.5,-1.3,35.31,,,,,,,,,,
15.45.05.165,71.1,17.8,0,6.0,,57938.0,17.26,-0.78,0.6,0.14,0.5,6.1,-1.2,35.31,,,,,,,,,,
15.45.05.177,120.7,30.2,0,6.0,,54226.7,18.44,-0.78,0.6,0.15,0.3,6.5,-1.7,35.31,,,,,,,,,,
15.45.05.186,50.3,12.6,0,6.0,,51322.7,19.48,-0.78,0.6,0.15,0.8,6.7,-1.4,35.31,,,,,,,,,,
15.45.05.198,74.9,18.7,0,6.0,,58307.8,17.15,-0.77,0.6,0.15,0.9,6.5,-1.2,35.31,,,,,,,,,,
15.45.05.206,12.5,3.1,0,6.0,,57714.4,17.33,-0.78,0.61,0.15,0.6,6.3,-1.3,35.31,,,,,,,,,,
15.45.05.218,31.3,7.8,0,6.0,,58087.3,17.22,-0.78,0.6,0.15,0.3,6.5,-1.5,35.31,,,,,,,,,,
15.45.05.255,153.2,38.3,0,6.0,,60662.0,16.48,-0.78,0.59,0.15,0.0,6.1,-1.5,35.38,,,,,,,,,,
15.45.05.263,76.3,19.1,0,6.0,,61857.7,16.17,-0.77,0.6,0.14,0.4,6.4,-1.9,35.38,,,,,,,,,,
15.45.05.276,30.5,7.6,0,6.0,,57316.9,17.45,-0.78,0.6,0.15,0.5,6.0,-1.9,35.38,,,,,,,,,,
15.45.05.284,37.1,9.3,0,6.0,,54712.4,18.28,-0.78,0.6,0.15,0.6,6.3,-1.5,35.38,,,,,,,,,,
15.45.05.296,37.9,9.5,0,6.0,,55214.6,18.11,-0.78,0.61,0.15,0.6,6.5,-1.9,35.38,,,,,,,,,,
15.45.05.304,2.1,0.5,0,6.0,,52684.8,18.98,-0.79,0.6,0.15,0.3,6.0,-1.6,35.38,,,,,,,,,,
15.45.05.317,-99.4,24.8,0,6.0,,62542.1,15.99,-0.78,0.61,0.15,1.2,5.6,-1.5,35.38,,,,,,,,,,
15.45.05.325,-46.8,11.7,0,6.0,,54214.0,18.45,-0.78,0.6,0.13,-0.1,6.9,-1.8,35.38,,,,,,,,,,
15.45.05.337,-82.1,20.5,0,6.0,,57967.9,17.25,-0.78,0.6,0.15,0.8,5.7,-1.6,35.38,,,,,,,,,,
15.45.05.345,-54.5,13.6,0,6.0,,52562.8,19.02,-0.78,0.6,0.15,1.0,6.9,-1.4,35.38,,,,,,,,,,
15.45.05.358,-33.3,8.3,0,6.0,,58165.3,17.19,-0.78,0.61,0.15,0.5,6.1,-1.2,35.38,,,,,,,,,,
15.45.05.366,-50.8,12.7,0,6.0,,56630.9,17.66,-0.77,0.61,0.15,0.6,5.7,-1.1,35.38,,,,,,,,,,
15.45.05.378,-106.3,26.6,0,6.0,,52702.1,18.97,-0.78,0.61,0.15,1.3,5.9,-0.9,35.38,,,,,,,,,,
15.45.05.386,-67.8,17.0,0,6.0,,54581.0,18.32,-0.77,0.61,0.15,1.2,5.8,-1.0,35.38,,,,,,,,,,
15.45.05.399,-70.9,17.7,0,6.0,,54821.8,18.24,-0.77,0.61,0.15,1.0,5.3,-1.0,35.38,,,,,,,,,,
15.45.05.411,-37.7,9.4,0,6.0,,58550.3,17.08,-0.78,0.6,0.15,1.3,5.4,-0.2,35.38,,,,,,,,,,
15.45.05.419,-102.8,25.7,0,6.0,,59565.9,16.79,-0.78,0.61,0.15,1.2,5.3,-0.2,35.38,,,,,,,,,,
15.45.05.432,-101.5,25.4,0,6.0,,58444.3,17.11,-0.78,0.6,0.15,0.6,4.8,-0.3,35.38,,,,,,,,,,
15.45.05.440,-73.8,18.4,0,6.0,,57415.1,17.42,-0.78,0.6,0.15,0.9,5.0,-0.1,35.38,,,,,,,,,,
15.45.05.453,-99.6,24.9,0,6.0,,58393.5,17.13,-0.78,0.6,0.14,1.1,4.8,0.1,35.38,,,,,,,,,,
15.45.05.460,-148.4,37.1,0,6.0,,54788.3,18.25,-0.78,0.61,0.15,1.2,4.5,0.1,35.38,,,,,,,,,,
15.45.05.472,-156.9,39.2,0,6.0,,57953.8,17.26,-0.78,0.6,0.14,1.2,4.5,0.3,35.38,,,,,,,,,,
15.45.05.481,-119.9,30.0,0,6.0,,56968.7,17.55,-0.78,0.6,0.14,1.4,4.9,0.5,35.38,,,,,,,,,,
15.45.05.493,-140.7,35.2,0,6.0,,56859.2,17.59,-0.78,0.6,0.15,1.1,4.7,0.8,35.38,,,,,,,,,,
15.45.05.501,-167.4,41.8,0,6.0,,58032.3,17.23,-0.78,0.6,0.15,1.5,4.7,0.6,35.38,,,,,,,,,,
15.45.05.513,-161.0,40.2,0,6.0,,53489.8,18.7,-0.78,0.6,0.14,1.6,4.4,0.8,35.38,,,,,,,,,,
15.45.05.521,-222.2,55.6,0,6.0,,53188.3,18.8,-0.78,0.6,0.15,1.5,4.1,0.7,35.38,,,,,,,,,,
15.45.05.534,-163.0,40.8,0,6.0,,59789.7,16.73,-0.79,0.6,0.15,1.2,4.0,0.5,35.38,,,,,,,,,,
15.45.05.542,-201.0,50.2,0,6.0,,55804.0,17.92,-0.78,0.6,0.15,1.4,4.0,0.6,35.38,,,,,,,,,,
15.45.05.554,-120.3,30.1,0,6.0,,59642.2,16.77,-0.78,0.6,0.15,1.1,4.1,0.6,35.38,,,,,,,,,,
15.45.05.567,16.5,4.1,1,7.0,103.5,57084.9,17.52,-0.78,0.6,0.15,1.1,4.3,0.4,35.38,,,,,,,,,,
15.45.05.575,70.6,17.6,0,7.0,,57296.8,17.45,-0.78,0.59,0.15,1.8,4.6,0.1,35.38,,,,,,,,,,
15.45.05.587,186.5,46.6,0,7.0,,61372.7,16.29,-0.78,0.6,0.15,1.8,4.8,0.1,35.38,,,,,,,,,,
15.45.05.600,240.1,60.0,0,7.0,,57620.6,17.35,-0.78,0.6,0.16,1.8,4.9,-0.4,35.38,,,,,,,,,,
15.45.05.607,322.7,80.7,0,7.0,,55726.9,17.94,-0.78,0.6,0.16,1.7,4.7,-0.2,35.38,,,,,,,,,,
15.45.05.620,371.8,93.0,0,7.0,,56072.4,17.83,-0.78,0.6,0.15,1.8,4.9,-0.7,35.38,,,,,,,,,,
15.45.05.632,402.4,100.6,0,7.0,,59255.5,16.88,-0.78,0.61,0.15,1.4,4.6,-0.5,35.38,,,,,,,,,,
15.45.05.645,412.3,103.1,0,7.0,,53185.8,18.8,-0.78,0.6,0.15,1.5,5.1,-0.8,35.38,,,,,,,,,,
15.45.05.653,513.3,128.3,0,7.0,,55102.1,18.15,-0.77,0.61,0.15,1.2,5.1,-0.8,35.38,,,,,,,,,,
15.45.05.666,536.9,134.2,0,7.0,,53268.2,18.77,-0.77,0.61,0.14,1.0,5.0,-1.2,35.38,,,,,,,,,,
15.45.05.677,447.5,111.9,0,7.0,,55359.5,18.06,-0.77,0.61,0.14,1.4,5.2,-1.1,35.38,,,,,,,,,,
15.45.05.685,480.1,120.0,0,7.0,,56824.0,17.6,-0.77,0.61,0.14,1.4,4.8,-0.8,35.38,,,,,,,,,,
15.45.05.698,400.6,100.2,0,7.0,,56229.8,17.78,-0.77,0.61,0.15,1.2,5.2,-0.8,35.38,,,,,,,,,,
15.45.05.710,422.0,105.5,0,7.0,,53442.5,18.71,-0.77,0.61,0.14,1.1,4.9,-0.2,35.38,,,,,,,,,,
15.45.05.718,322.3,80.6,0,7.0,,57608.1,17.36,-0.77,0.61,0.14,1.2,5.4,-0.2,35.38,,,,,,,,,,
15.45.05.730,259.2,64.8,0,7.0,,58417.2,17.12,-0.77,0.61,0.15,1.4,5.5,-0.4,35.38,,,,,,,,,,
15.45.05.743,288.4,72.1,0,7.0,,57891.5,17.27,-0.77,0.61,0.14,1.2,5.5,-0.1,35.38,,,,,,,,,,
15.45.05.755,80.5,20.1,0,7.0,,61548.3,16.25,-0.77,0.6,0.14,1.4,5.3,-0.2,35.38,,,,,,,,,,
15.45.05.763,-11.5,2.9,0,7.0,,59391.4,16.84,-0.78,0.61,0.15,1.5,5.9,-0.1,35.38,,,,,,,,,,
15.45.05.775,-1.4,0.4,0,7.0,,56347.9,17.75,-0.78,0.61,0.16,1.6,5.7,-0.4,35.38,,,,,,,,,,
15.45.05.788,60.7,15.2,0,7.0,,66949.5,14.94,-0.77,0.61,0.16,0.8,5.1,-0.4,35.38,,,,,,,,,,
15.45.05.796,68.6,17.2,0,7.0,,53356.1,18.74,-0.78,0.61,0.16,0.5,5.0,-0.7,35.38,,,,,,,,,,
15.45.05.808,76.8,19.2,0,7.0,,54671.0,18.29,-0.78,0.6,0.15,0.6,4.6,-0.3,35.38,,,,,,,,,,
15.45.05.821,91.3,22.8,0,7.0,,56311.5,17.76,-0.77,0.61,0.15,1.0,5.0,-0.2,35.38,,,,,,,,,,
15.45.05.829,97.9,24.5,0,7.0,,52017.6,19.22,-0.77,0.6,0.15,1.6,4.7,-0.3,35.38,,,,,,,,,,
15.45.05.841,96.3,24.1,0,7.0,,61937.3,16.15,-0.77,0.61,0.15,1.2,4.6,-0.3,35.38,,,,,,,,,,
15.45.05.853,23.3,5.8,0,7.0,,54058.3,18.5,-0.77,0.61,0.15,1.1,4.5,-0.1,35.38,,,,,,,,,,
15.45.05.861,102.9,25.7,0,7.0,,54820.8,18.24,-0.77,0.61,0.15,1.3,4.2,0.3,35.38,,,,,,,,,,
15.45.05.874,-16.7,4.2,0,7.0,,57348.8,17.44,-0.77,0.61,0.14,0.9,4.0,0.3,35.38,,,,,,,,,,
15.45.05.886,12.1,3.0,0,7.0,,58418.5,17.12,-0.77,0.6,0.14,1.2,4.1,0.3,35.38,,,,,,,,,,
15.45.05.894,1.7,0.4,0,7.0,,53901.9,18.55,-0.77,0.6,0.14,1.0,5.0,0.2,35.38,,,,,,,,,,
15.45.05.907,-8.7,2.2,0,7.0,,54273.5,18.43,-0.77,0.6,0.14,0.7,4.5,0.0,35.38,,,,,,,,,,
15.45.05.919,-4.1,1.0,0,7.0,,57704.4,17.33,-0.77,0.61,0.14,1.0,5.1,-0.5,35.38,,,,,,,,,,
15.45.05.927,-67.7,16.9,0,7.0,,57488.2,17.39,-0.77,0.6,0.15,0.6,5.8,-0.6,35.38,,,,,,,,,,
15.45.05.939,-19.0,4.8,0,7.0,,61286.5,16.32,-0.77,0.6,0.15,0.2,5.5,-1.4,35.38,,,,,,,,,,
15.45.05.952,-83.4,20.8,0,7.0,,58291.1,17.16,-0.77,0.6,0.15,0.6,5.7,-1.8,35.38,,,,,,,,,,
15.45.05.960,-66.3,16.6,0,7.0,,58361.7,17.13,-0.77,0.6,0.16,0.6,5.9,-1.7,35.38,,,,,,,,,,
15.45.05.972,-43.1,10.8,0,7.0,,58544.2,17.08,-0.77,0.61,0.15,0.1,6.3,-2.6,35.38,,,,,,,,,,
15.45.05.984,-78.9,19.7,0,7.0,,57692.8,17.33,-0.77,0.61,0.16,-0.2,6.2,-2.9,35.38,,,,,,,,,,
15.45.05.993,-81.5,20.4,0,7.0,,54001.8,18.52,-0.77,0.6,0.15,-0.1,6.6,-3.3,35.38,,,,,,,,,,
15.45.06.005,-81.7,20.4,0,7.0,,57678.1,17.34,-0.77,0.6,0.15,-0.2,6.8,-3.3,35.38,,,,,,,,,,
15.45.06.018,-109.8,27.4,0,7.0,,56275.1,17.77,-0.77,0.61,0.15,0.1,6.4,-3.4,35.38,,,,,,,,,,
15.45.06.054,-157.0,39.2,0,7.0,,53341.9,18.75,-0.77,0.61,0.15,0.8,6.3,-3.3,35.38,,,,,,,,,,
15.45.06.066,-149.9,37.5,0,7.0,,57679.8,17.34,-0.77,0.62,0.15,0.1,5.9,-2.5,35.38,,,,,,,,,,
15.45.06.075,-142.8,35.7,0,7.0,,54280.5,18.42,-0.77,0.62,0.14,0.1,5.6,-2.3,35.38,,,,,,,,,,
15.45.06.087,-87.4,21.8,0,7.0,,60029.6,16.66,-0.77,0.61,0.14,-0.2,5.7,-1.9,35.38,,,,,,,,,,
15.45.06.099,-188.1,47.0,0,7.0,,55993.8,17.86,-0.77,0.6,0.15,-0.1,5.7,-1.6,35.38,,,,,,,,,,
15.45.06.107,-169.9,42.5,0,7.0,,60468.3,16.54,-0.77,0.6,0.14,0.7,5.8,-1.1,35.38,,,,,,,,,,
15.45.06.120,-203.3,50.8,0,7.0,,55381.1,18.06,-0.77,0.6,0.15,0.9,5.6,-0.8,35.38,,,,,,,,,,
15.45.06.128,-158.8,39.7,0,7.0,,58290.3,17.16,-0.77,0.61,0.15,0.8,5.7,-1.1,35.38,,,,,,,,,,
15.45.06.140,-184.5,46.1,0,7.0,,57008.5,17.54,-0.77,0.61,0.16,0.6,5.6,-0.6,35.38,,,,,,,,,,
15.45.06.148,-23.4,5.8,1,8.0,98.7,55024.9,18.17,-0.78,0.6,0.16,0.0,5.5,-0.9,35.38,,,,,,,,,,
15.45.06.161,172.5,43.1,0,8.0,,56743.3,17.62,-0.78,0.6,0.15,0.1,5.5,-1.1,35.38,,,,,,,,,,
15.45.06.169,166.2,41.6,0,8.0,,57508.0,17.39,-0.78,0.6,0.16,0.2,5.6,-1.6,35.38,,,,,,,,,,
15.45.06.182,227.4,56.8,0,8.0,,58048.2,17.23,-0.78,0.6,0.16,0.3,5.8,-2.0,35.38,,,,,,,,,,
15.45.06.189,274.6,68.6,0,8.0,,53199.9,18.8,-0.78,0.6,0.16,0.4,5.8,-2.3,35.38,,,,,,,,,,
15.45.06.202,410.7,102.7,0,8.0,,58872.7,16.99,-0.78,0.6,0.15,0.3,5.8,-2.8,35.38,,,,,,,,,,
15.45.06.210,442.7,110.7,0,8.0,,57334.5,17.44,-0.78,0.6,0.15,0.6,6.1,-2.9,35.38,,,,,,,,,,
15.45.06.222,472.2,118.0,0,8.0,,58010.6,17.24,-0.77,0.6,0.15,0.3,6.3,-3.3,35.38,,,,,,,,,,
15.45.06.230,470.6,117.6,0,8.0,,54986.3,18.19,-0.77,0.61,0.15,0.1,5.9,-3.1,35.38,,,,,,,,,,
15.45.06.243,521.0,130.2,0,8.0,,53375.2,18.74,-0.77,0.6,0.15,-0.2,5.8,-2.9,35.38,,,,,,,,,,
15.45.06.251,440.3,110.1,0,8.0,,54794.6,18.25,-0.77,0.61,0.15,-0.1,6.2,-3.0,35.38,,,,,,,,,,
15.45.06.263,485.2,121.3,0,8.0,,59796.2,16.72,-0.77,0.61,0.14,0.0,6.2,-2.9,35.38,,,,,,,,,,
15.45.06.271,468.5,117.1,0,8.0,,50469.1,19.81,-0.77,0.6,0.14,-0.2,6.2,-2.9,35.38,,,,,,,,,,
15.45.06.283,456.4,114.1,0,8.0,,56271.6,17.77,-0.77,0.6,0.14,0.2,6.4,-2.4,35.38,,,,,,,,,,
15.45.06.292,444.5,111.1,0,8.0,,60868.2,16.43,-0.77,0.6,0.14,0.4,6.7,-2.6,35.38,,,,,,,,,,
15.45.06.304,363.9,91.0,0,8.0,,56489.2,17.7,-0.77,0.61,0.15,-0.1,6.5,-2.5,35.38,,,,,,,,,,
15.45.06.312,284.1,71.0,0,8.0,,57206.0,17.48,-0.77,0.61,0.15,0.0,6.5,-2.3,35.38,,,,,,,,,,
15.45.06.324,170.9,42.7,0,8.0,,53660.8,18.64,-0.78,0.6,0.15,-0.3,6.2,-2.5,35.38,,,,,,,,,,
15.45.06.337,85.7,21.4,0,8.0,,58760.2,17.02,-0.77,0.6,0.15,-0.1,6.2,-2.1,35.38,,,,,,,,,,
15.45.06.345,80.3,20.1,0,8.0,,58522.3,17.09,-0.77,0.6,0.15,0.3,6.1,-2.5,35.38,,,,,,,,,,
15.45.06.357,27.0,6.8,0,8.0,,55749.0,17.94,-0.77,0.61,0.15,0.2,5.8,-2.2,35.38,,,,,,,,,,
15.45.06.365,87.5,21.9,0,8.0,,56047.2,17.84,-0.78,0.6,0.16,0.3,6.0,-2.1,35.38,,,,,,,,,,
15.45.06.378,46.5,11.6,0,8.0,,55179.0,18.12,-0.78,0.61,0.16,0.6,6.0,-1.5,35.38,,,,,,,,,,
15.45.06.386,51.6,12.9,0,8.0,,61307.5,16.31,-0.78,0.61,0.15,0.3,6.0,-1.8,35.38,,,,,,,,,,
15.45.06.398,92.7,23.2,0,8.0,,61921.9,16.15,-0.78,0.61,0.15,-0.1,5.8,-1.9,35.38,,,,,,,,,,
15.45.06.406,14.6,3.6,0,8.0,,59219.3,16.89,-0.77,0.61,0.15,0.3,6.0,-1.6,35.38,,,,,,,,,,
15.45.06.419,81.2,20.3,0,8.0,,59520.4,16.8,-0.77,0.61,0.15,0.7,5.7,-1.6,35.38,,,,,,,,,,
15.45.06.427,96.0,24.0,0,8.0,,56902.7,17.57,-0.77,0.6,0.15,0.8,5.8,-1.3,35.38,,,,,,,,,,
15.45.06.439,55.2,13.8,0,8.0,,57619.1,17.36,-0.77,0.6,0.15,0.5,5.3,-1.3,35.38,,,,,,,,,,
15.45.06.447,15.4,3.8,0,8.0,,61064.9,16.38,-0.77,0.61,0.15,0.5,5.8,-1.0,35.38,,,,,,,,,,
15.45.06.460,-7.6,1.9,0,8.0,,52106.2,19.19,-0.78,0.61,0.15,0.3,5.6,-1.4,35.38,,,,,,,,,,
15.45.06.468,49.8,12.4,0,8.0,,55445.6,18.04,-0.77,0.6,0.15,0.3,5.6,-1.3,35.38,,,,,,,,,,
15.45.06.480,-21.3,5.3,0,8.0,,55806.6,17.92,-0.78,0.6,0.14,0.5,5.8,-1.2,35.38,,,,,,,,,,
15.45.06.488,56.7,14.2,0,8.0,,56297.8,17.76,-0.78,0.6,0.15,0.5,5.9,-1.2,35.38,104.7,,,,,,,,,
15.45.06.501,-38.1,9.5,0,8.0,,59734.2,16.74,-0.78,0.6,0.15,0.3,6.0,-1.5,35.38,,,,,,,,,,
15.45.06.509,-54.7,13.7,0,8.0,,58504.3,17.09,-0.78,0.6,0.15,0.8,6.3,-1.2,35.38,,,,,,,,,,
15.45.06.521,-15.5,3.9,0,8.0,,58605.7,17.06,-0.78,0.6,0.15,0.6,6.2,-1.6,35.38,,,,,,,,,,
15.45.06.529,-82.8,20.7,0,8.0,,59499.0,16.81,-0.78,0.6,0.16,0.4,6.3,-1.6,35.38,,,,,,,,,,
15.45.06.542,-75.1,18.8,0,8.0,,58755.6,17.02,-0.78,0.6,0.15,0.0,6.3,-1.5,35.38,,,,,,,,,,
15.45.06.551,-32.3,8.1,0,8.0,,54568.5,18.33,-0.78,0.6,0.16,0.3,6.1,-1.4,35.38,,,,,,,,,,
15.45.06.562,-139.0,34.8,0,8.0,,58667.9,17.05,-0.78,0.6,0.16,0.6,5.9,-1.4,35.38,,,,,,,,,,
15.45.06.570,-59.5,14.9,0,8.0,,52675.0,18.98,-0.78,0.6,0.15,0.3,5.6,-1.5,35.38,,,,,,,,,,
15.45.06.583,-137.4,34.4,0,8.0,,58229.5,17.17,-0.78,0.59,0.15,0.7,5.5,-1.7,35.38,,,,,,,,,,
15.45.06.591,-135.8,34.0,0,8.0,,57767.7,17.31,-0.78,0.6,0.16,1.1,5.5,-1.5,35.38,,,,,,,,,,
15.45.06.603,-147.6,36.9,0,8.0,,55808.2,17.92,-0.77,0.61,0.15,0.7,5.3,-1.8,35.38,,,,,,,,,,
15.45.06.615,-94.5,23.6,0,8.0,,57602.0,17.36,-0.78,0.6,0.15,0.5,5.5,-1.7,35.38,,,,,,,,,,
15.45.06.624,-83.6,20.9,0,8.0,,52207.0,19.15,-0.77,0.6,0.15,0.7,5.4,-1.5,35.38,,,,,,,,,,
15.45.06.636,-118.7,29.7,0,8.0,,60783.1,16.45,-0.78,0.61,0.14,0.8,5.7,-1.5,35.38,,,,,,,,,,
15.45.06.644,-104.2,26.0,0,8.0,,57684.0,17.34,-0.78,0.61,0.15,0.8,5.6,-1.4,35.38,,,,,,,,,,
15.45.06.656,-121.6,30.4,0,8.0,,60579.0,16.51,-0.78,0.61,0.15,0.9,5.5,-1.3,35.38,,,,,,,,,,
15.45.06.670,-112.0,28.0,0,8.0,,50995.7,19.61,-0.77,0.61,0.14,0.7,5.6,-0.9,35.38,,,,,,,,,,
15.45.06.681,-194.9,48.7,0,8.0,,54195.9,18.45,-0.78,0.61,0.15,0.3,5.9,-0.9,35.38,,,,,,,,,,
15.45.06.689,-164.9,41.2,0,8.0,,57911.4,17.27,-0.78,0.6,0.14,0.2,5.8,-0.6,35.38,,,,,,,,,,
15.45.06.701,-189.4,47.4,0,8.0,,57676.3,17.34,-0.78,0.6,0.15,0.7,5.7,-0.5,35.38,,,,,,,,,,
15.45.06.715,-170.9,42.7,0,8.0,,51476.0,19.43,-0.77,0.6,0.16,0.7,5.5,-0.3,35.38,,,,,,,,,,
15.45.06.722,-246.7,61.7,0,8.0,,56325.8,17.75,-0.77,0.6,0.15,0.3,5.0,-0.1,35.38,,,,,,,,,,
15.45.06.734,35.9,9.0,1,9.0,101.6,54945.6,18.2,-0.77,0.6,0.15,0.3,5.4,-0.5,35.38,,,,,,,,,,
15.45.06.747,175.9,44.0,0,9.0,,60082.3,16.64,-0.78,0.6,0.16,0.2,5.6,-0.2,35.38,,,,,,,,,,
15.45.06.755,157.1,39.3,0,9.0,,60937.6,16.41,-0.77,0.59,0.15,0.5,5.5,-0.8,35.38,,,,,,,,,,
15.45.06.767,269.9,67.5,0,9.0,,62532.8,15.99,-0.78,0.6,0.15,0.7,5.6,-0.7,35.38,,,,,,,,,,
15.45.06.779,350.5,87.6,0,9.0,,56650.5,17.65,-0.78,0.6,0.15,1.0,5.8,-1.3,35.38,,,,,,,,,,
15.45.06.791,346.1,86.5,0,9.0,,56965.5,17.55,-0.77,0.6,0.15,0.9,6.3,-1.5,35.38,,,,,,,,,,
15.45.06.800,393.2,98.3,0,9.0,,53635.6,18.64,-0.77,0.6,0.15,0.5,6.4,-1.9,35.38,,,,,,,,,,
15.45.06.812,505.5,126.4,0,9.0,,63999.6,15.63,-0.77,0.6,0.16,0.5,6.2,-1.5,35.38,,,,,,,,,,
15.45.06.824,491.0,122.8,0,9.0,,61818.8,16.18,-0.77,0.6,0.15,0.5,6.2,-1.5,35.38,,,,,,,,,,
15.45.06.861,406.1,101.5,0,9.0,,54264.1,18.43,-0.77,0.61,0.15,0.3,6.4,-1.4,35.38,,,,,,,,,,
15.45.06.873,344.8,86.2,0,9.0,,59632.5,16.77,-0.77,0.6,0.15,0.3,6.2,-1.4,35.38,,,,,,,,,,
15.45.06.887,348.3,87.1,0,9.0,,63633.7,15.71,-0.77,0.61,0.14,0.7,6.5,-1.3,35.38,,,,,,,,,,
15.45.06.898,307.1,76.8,0,9.0,,53919.0,18.55,-0.78,0.61,0.15,0.8,6.5,-1.2,35.38,,,,,,,,,,
15.45.06.906,204.1,51.0,0,9.0,,54263.2,18.43,-0.77,0.6,0.15,0.5,6.3,-1.3,35.38,,,,,,,,,,
15.45.06.919,100.5,25.1,0,9.0,,57824.4,17.29,-0.77,0.61,0.16,0.0,6.5,-1.1,35.38,,,,,,,,,,
15.45.06.931,-8.2,2.0,0,9.0,,57132.4,17.5,-0.77,0.6,0.15,0.0,6.4,-1.0,35.38,,,,,,,,,,
15.45.06.939,53.5,13.4,0,9.0,,58004.1,17.24,-0.78,0.6,0.15,0.0,6.1,-1.1,35.38,,,,,,,,,,
15.45.06.951,30.1,7.5,0,9.0,,62683.4,15.95,-0.78,0.6,0.15,0.4,6.2,-1.4,35.38,,,,,,,,,,
15.45.06.963,21.0,5.2,0,9.0,,57851.4,17.29,-0.78,0.6,0.15,0.6,6.3,-1.3,35.38,,,,,,,,,,
15.45.06.972,74.8,18.7,0,9.0,,56317.9,17.76,-0.77,0.6,0.15,1.0,6.7,-1.3,35.38,,,,,,,,,,
15.45.06.984,107.4,26.8,0,9.0,,57643.2,17.35,-0.77,0.6,0.15,0.8,6.5,-1.6,35.38,,,,,,,,,,
15.45.06.996,77.5,19.4,0,9.0,,57478.3,17.4,-0.77,0.6,0.15,0.2,6.5,-1.7,35.38,,,,,,,,,,
15.45.07.009,88.1,22.0,0,9.0,,57359.7,17.43,-0.77,0.6,0.14,-0.1,6.7,-1.9,35.38,,,,,,,,,,
15.45.07.017,12.6,3.2,0,9.0,,55795.9,17.92,-0.77,0.6,0.14,-0.6,6.5,-1.8,35.38,,,,,,,,,,
15.45.07.029,35.9,9.0,0,9.0,,56067.2,17.84,-0.78,0.6,0.15,-0.2,6.4,-1.8,35.38,,,,,,,,,,
15.45.07.041,29.2,7.3,0,9.0,,56156.1,17.81,-0.77,0.6,0.15,0.1,6.6,-1.8,35.38,,,,,,,,,,
15.45.07.050,18.9,4.7,0,9.0,,56080.4,17.83,-0.78,0.6,0.15,0.7,6.8,-1.8,35.38,,,,,,,,,,
15.45.07.063,25.2,6.3,0,9.0,,59632.8,16.77,-0.78,0.6,0.15,0.4,6.9,-1.7,35.38,,,,,,,,,,
15.45.07.074,-27.2,6.8,0,9.0,,55021.9,18.17,-0.78,0.6,0.15,0.5,6.7,-1.8,35.38,,,,,,,,,,
15.45.07.086,-47.6,11.9,0,9.0,,55322.6,18.08,-0.78,0.6,0.15,0.0,6.6,-1.9,35.38,,,,,,,,,,
15.45.07.095,-27.8,7.0,0,9.0,,59896.2,16.7,-0.78,0.6,0.15,-0.5,6.5,-2.0,35.38,,,,,,,,,,
15.45.07.107,-58.9,14.7,0,9.0,,56874.6,17.58,-0.78,0.6,0.15,-0.6,6.7,-2.1,35.38,,,,,,,,,,
15.45.07.119,-89.0,22.2,0,9.0,,55291.1,18.09,-0.78,0.6,0.14,0.1,7.0,-2.2,35.38,,,,,,,,,,
15.45.07.127,-48.6,12.2,0,9.0,,59152.5,16.91,-0.78,0.6,0.15,0.4,7.0,-2.1,35.38,,,,,,,,,,
15.45.07.140,-79.8,20.0,0,9.0,,66920.6,14.94,-0.78,0.6,0.15,0.6,6.9,-2.2,35.38,,,,,,,,,,
15.45.07.152,-89.7,22.4,0,9.0,,59240.6,16.88,-0.78,0.6,0.15,0.3,6.6,-2.2,35.38,,,,,,,,,,
15.45.07.160,-60.7,15.2,0,9.0,,56681.6,17.64,-0.78,0.6,0.15,-0.2,6.3,-2.0,35.38,,,,,,,,,,
15.45.07.172,-82.4,20.6,0,9.0,,59934.5,16.68,-0.78,0.6,0.15,-0.2,5.9,-1.9,35.38,,,,,,,,,,
15.45.07.185,-86.3,21.6,0,9.0,,62074.6,16.11,-0.78,0.6,0.15,0.1,6.3,-1.9,35.38,,,,,,,,,,
15.45.07.197,-134.6,33.6,0,9.0,,53217.2,18.79,-0.78,0.6,0.14,0.2,6.3,-1.5,35.38,,,,,,,,,,
15.45.07.206,-128.3,32.1,0,9.0,,59210.3,16.89,-0.77,0.6,0.14,0.6,6.2,-1.8,35.38,,,,,,,,,,
15.45.07.218,-176.6,44.2,0,9.0,,58613.3,17.06,-0.78,0.6,0.14,0.7,6.4,-1.7,35.38,,,,,,,,,,
15.45.07.226,-105.3,26.3,0,9.0,,60164.8,16.62,-0.78,0.6,0.15,0.5,6.6,-1.6,35.38,,,,,,,,,,
15.45.07.238,-143.1,35.8,0,9.0,,53153.3,18.81,-0.78,0.6,0.14,0.1,6.2,-1.6,35.38,,,,,,,,,,
15.45.07.246,-192.5,48.1,0,9.0,,55454.0,18.03,-0.78,0.6,0.14,-0.3,6.5,-1.6,35.38,,,,,,,,,,
15.45.07.258,-163.3,40.8,0,9.0,,57393.4,17.42,-0.78,0.6,0.14,0.0,6.5,-1.7,35.38,,,,,,,,,,
15.45.07.267,-126.5,31.6,0,9.0,,59053.2,16.93,-0.78,0.6,0.15,0.2,6.8,-1.9,35.38,,,,,,,,,,
15.45.07.279,-198.4,49.6,0,9.0,,54600.9,18.31,-0.78,0.6,0.14,0.3,6.8,-1.8,35.38,,,,,,,,,,
15.45.07.287,-154.2,38.6,0,9.0,,59326.4,16.86,-0.78,0.59,0.15,0.4,6.9,-1.9,35.38,,,,,,,,,,
15.45.07.299,-125.5,31.4,0,9.0,,56687.9,17.64,-0.78,0.6,0.15,0.3,6.5,-1.5,35.38,,,,,,,,,,
15.45.07.308,-170.5,42.6,0,9.0,,54318.9,18.41,-0.78,0.6,0.15,0.4,6.4,-1.7,35.38,,,,,,,,,,
15.45.07.320,5.6,1.4,1,10.0,100.2,62135.1,16.09,-0.78,0.6,0.15,-0.2,6.5,-1.8,35.38,,,,,,,,,,
15.45.07.332,121.4,30.4,0,10.0,,58217.6,17.18,-0.78,0.59,0.15,-0.4,6.2,-1.5,35.38,,,,,,,,,,
15.45.07.340,183.3,45.8,0,10.0,,59178.6,16.9,-0.78,0.6,0.15,-0.3,6.5,-1.5,35.38,,,,,,,,,,
15.45.07.353,273.9,68.5,0,10.0,,61404.6,16.29,-0.78,0.6,0.14,-0.2,6.3,-1.7,35.38,,,,,,,,,,
15.45.07.361,297.6,74.4,0,10.0,,57499.4,17.39,-0.78,0.6,0.15,0.2,6.3,-2.0,35.38,,,,,,,,,,
15.45.07.373,411.4,102.8,0,10.0,,57284.5,17.46,-0.78,0.59,0.15,0.9,6.4,-2.0,35.38,,,,,,,,,,
15.45.07.381,430.0,107.5,0,10.0,,59166.9,16.9,-0.78,0.59,0.15,1.0,6.3,-2.0,35.38,,,,,,,,,,
15.45.07.394,419.9,105.0,0,10.0,,57386.0,17.43,-0.78,0.6,0.16,0.4,6.5,-1.8,35.38,,,,,,,,,,
15.45.07.402,449.3,112.3,0,10.0,,57589.9,17.36,-0.78,0.61,0.16,0.1,6.5,-2.1,35.38,,,,,,,,,,
15.45.07.414,518.7,129.7,0,10.0,,59860.0,16.71,-0.78,0.6,0.15,-0.1,6.3,-2.0,35.38,,,,,,,,,,
15.45.07.423,500.3,125.1,0,10.0,,58098.9,17.21,-0.78,0.6,0.15,0.2,6.2,-2.1,35.38,,,,,,,,,,
15.45.07.435,462.2,115.6,0,10.0,,55902.2,17.89,-0.78,0.6,0.16,0.3,6.3,-2.0,35.38,,,,,,,,,,
15.45.07.443,456.7,114.2,0,10.0,,54044.8,18.5,-0.78,0.6,0.15,0.9,6.6,-1.9,35.38,,,,,,,,,,
15.45.07.455,441.7,110.4,0,10.0,,53537.4,18.68,-0.78,0.61,0.14,1.1,6.1,-1.9,35.38,,,,,,,,,,
15.45.07.464,363.6,90.9,0,10.0,,57253.4,17.47,-0.77,0.61,0.15,0.7,6.3,-1.5,35.38,,,,,,,,,,
15.45.07.476,231.9,58.0,0,10.0,,56231.3,17.78,-0.78,0.6,0.15,0.2,6.0,-1.5,35.38,,,,,,,,,,
15.45.07.484,215.8,54.0,0,10.0,,52195.7,19.16,-0.78,0.6,0.14,0.4,5.8,-1.3,35.38,,,,,,,,,,
15.45.07.496,88.0,22.0,0,10.0,,57045.3,17.53,-0.78,0.61,0.14,0.7,5.5,-0.9,35.38,,,,,,,,,,
15.45.07.508,59.9,15.0,0,10.0,,61354.2,16.3,-0.78,0.6,0.14,1.2,5.9,-0.8,35.38,,,,,,,,,,
15.45.07.517,7.2,1.8,0,10.0,,56273.2,17.77,-0.78,0.6,0.15,1.4,5.7,-0.8,35.38,,,,,,,,,,
15.45.07.529,52.9,13.2,0,10.0,,56986.8,17.55,-0.78,0.6,0.14,1.4,5.6,-0.5,35.38,,,,,,,,,,
15.45.07.537,66.9,16.7,0,10.0,,56576.7,17.68,-0.78,0.6,0.14,1.3,5.4,-0.5,35.38,,,,,,,,,,
15.45.07.549,71.8,18.0,0,10.0,,62902.4,15.9,-0.78,0.6,0.15,1.0,5.3,-0.5,35.38,,,,,,,,,,
15.45.07.558,74.1,18.5,0,10.0,,57894.7,17.27,-0.78,0.6,0.15,1.2,5.6,-0.6,35.38,,,,,,,,,,
15.45.07.570,94.8,23.7,0,10.0,,55850.5,17.9,-0.78,0.6,0.15,1.6,5.1,-0.5,35.38,,,,,,,,,,
15.45.07.579,80.2,20.0,0,10.0,,58255.2,17.17,-0.78,0.6,0.15,1.5,5.0,-0.6,35.38,,,,,,,,,,
15.45.07.590,74.3,18.6,0,10.0,,56697.3,17.64,-0.78,0.6,0.15,1.9,5.0,-0.7,35.38,,,,,,,,,,
15.45.07.600,83.3,20.8,0,10.0,,51162.9,19.55,-0.78,0.6,0.15,1.7,4.8,-0.1,35.38,,,,,,,,,,
15.45.07.611,5.7,1.4,0,10.0,,56032.5,17.85,-0.78,0.6,0.15,1.8,4.4,-0.2,35.38,,,,,,,,,,
15.45.07.619,58.2,14.6,0,10.0,,56618.7,17.66,-0.77,0.61,0.15,1.6,3.6,0.0,35.38,,,,,,,,,,
15.45.07.631,20.6,5.2,0,10.0,,53729.2,18.61,-0.77,0.6,0.15,1.8,3.5,0.4,35.38,,,,,,,,,,
15.45.07.668,-107.0,26.8,0,10.0,,56427.5,17.72,-0.77,0.6,0.14,2.4,3.1,1.2,35.31,,,,,,,,,,
15.45.07.676,-47.2,11.8,0,10.0,,55122.9,18.14,-0.78,0.6,0.14,1.7,3.6,2.0,35.31,,,,,,,,,,
15.45.07.689,-83.9,21.0,0,10.0,,54309.4,18.41,-0.78,0.6,0.14,0.5,4.2,1.5,35.31,,,,,,,,,,
15.45.07.697,-33.7,8.4,0,10.0,,56741.6,17.62,-0.78,0.6,0.14,0.4,4.7,0.7,35.31,,,,,,,,,,
15.45.07.709,-32.2,8.0,0,10.0,,58089.8,17.21,-0.78,0.6,0.15,0.9,5.3,0.4,35.31,,,,,,,,,,
15.45.07.721,-100.5,25.1,0,10.0,,60363.1,16.57,-0.77,0.59,0.15,1.0,5.9,-0.2,35.31,,,,,,,,,,
15.45.07.730,-49.4,12.4,0,10.0,,56328.7,17.75,-0.78,0.6,0.15,0.8,5.8,-0.1,35.31,,,,,,,,,,
15.45.07.742,-91.2,22.8,0,10.0,,60406.9,16.55,-0.78,0.6,0.15,0.6,6.3,-0.5,35.31,,,,,,,,,,
15.45.07.754,-112.7,28.2,0,10.0,,55859.9,17.9,-0.79,0.6,0.15,-0.4,6.2,-0.7,35.31,,,,,,,,,,
15.45.07.762,-121.3,30.3,0,10.0,,48467.3,20.63,-0.78,0.6,0.15,-0.1,6.2,-1.4,35.31,,,,,,,,,,
15.45.07.775,-98.3,24.6,0,10.0,,61311.8,16.31,-0.78,0.6,0.14,0.2,6.2,-1.9,35.31,,,,,,,,,,
15.45.07.787,-83.7,20.9,0,10.0,,60857.7,16.43,-0.78,0.6,0.15,0.0,6.2,-2.0,35.31,,,,,,,,,,
15.45.07.800,-133.1,33.3,0,10.0,,53450.8,18.71,-0.77,0.6,0.15,0.7,6.3,-2.1,35.31,,,,,,,,,,
15.45.07.812,-119.0,29.8,0,10.0,,59578.8,16.78,-0.77,0.6,0.15,1.0,5.9,-1.7,35.31,,,,,,,,,,
15.45.07.820,-107.2,26.8,0,10.0,,58705.8,17.03,-0.78,0.61,0.15,1.1,5.5,-1.5,35.31,,,,,,,,,,
15.45.07.832,-163.0,40.8,0,10.0,,56364.6,17.74,-0.78,0.6,0.15,0.7,5.5,-1.1,35.31,,,,,,,,,,
15.45.07.844,-178.9,44.7,0,10.0,,59889.8,16.7,-0.79,0.61,0.15,0.9,5.0,-1.1,35.31,,,,,,,,,,
15.45.07.852,-176.3,44.1,0,10.0,,56572.2,17.68,-0.78,0.61,0.16,0.2,5.1,-1.3,35.31,,,,,,,,,,
15.45.07.865,-121.6,30.4,0,10.0,,58879.8,16.98,-0.78,0.61,0.15,0.0,4.8,-1.6,35.31,,,,,,,,,,
15.45.07.877,-221.6,55.4,0,10.0,,57626.7,17.35,-0.78,0.6,0.16,0.5,5.0,-1.6,35.31,,,,,,,,,,
15.45.07.889,-165.6,41.4,0,10.0,,59498.6,16.81,-0.78,0.6,0.14,1.1,5.2,-1.6,35.31,,,,,,,,,,
15.45.07.898,76.0,19.0,1,11.0,104.3,54940.0,18.2,-0.77,0.61,0.14,1.9,4.8,-1.3,35.31,,,,,,,,,,
15.45.07.910,146.3,36.6,0,11.0,,60290.4,16.59,-0.77,0.61,0.14,1.9,4.6,-0.8,35.31,,,,,,,,,,
15.45.07.922,223.7,55.9,0,11.0,,59175.7,16.9,-0.77,0.62,0.14,1.5,4.3,-1.1,35.31,,,,,,,,,,
15.45.07.930,195.6,48.9,0,11.0,,60997.9,16.39,-0.78,0.62,0.15,0.5,3.9,-0.4,35.31,,,,,,,,,,
15.45.07.943,329.3,82.3,0,11.0,,56793.9,17.61,-0.77,0.61,0.14,0.2,4.3,-0.5,35.31,,,,,,,,,,
15.45.07.955,392.4,98.1,0,11.0,,60778.3,16.45,-0.77,0.61,0.14,0.0,4.7,-0.7,35.31,,,,,,,,,,
15.45.07.967,449.8,112.4,0,11.0,,56626.2,17.66,-0.77,0.61,0.14,0.5,4.8,-0.4,35.31,,,,,,,,,,
15.45.07.975,445.8,111.4,0,11.0,,55692.3,17.96,-0.77,0.61,0.14,0.6,5.2,-0.3,35.31,,,,,,,,,,
15.45.07.988,424.5,106.1,0,11.0,,54629.2,18.31,-0.77,0.61,0.14,0.2,5.5,-0.3,35.31,,,,,,,,,,
15.45.08.000,436.3,109.1,0,11.0,,58396.4,17.12,-0.77,0.61,0.15,-0.3,5.9,-0.3,35.31,,,,,,,,,,
15.45.08.008,485.4,121.4,0,11.0,,59190.5,16.89,-0.78,0.6,0.15,-0.5,6.1,-0.4,35.31,,,,,,,,,,
15.45.08.020,472.0,118.0,0,11.0,,49143.5,20.35,-0.78,0.6,0.14,-1.1,6.0,-1.2,35.31,,,,,,,,,,
15.45.08.033,479.1,119.8,0,11.0,,62333.0,16.04,-0.78,0.59,0.16,-1.3,6.6,-2.5,35.31,,,,,,,,,,
15.45.08.041,474.4,118.6,0,11.0,,58200.2,17.18,-0.78,0.59,0.15,-1.6,6.9,-3.0,35.31,,,,,,,,,,
15.45.08.053,351.8,88.0,0,11.0,,59345.5,16.85,-0.78,0.59,0.15,-1.9,7.6,-4.2,35.31,,,,,,,,,,
15.45.08.066,195.3,48.8,0,11.0,,54522.4,18.34,-0.78,0.59,0.16,-2.5,8.2,-4.9,35.31,,,,,,,,,,
15.45.08.078,118.9,29.7,0,11.0,,57585.8,17.37,-0.78,0.6,0.15,-2.5,8.3,-5.4,35.31,,,,,,,,,,
15.45.08.086,139.7,34.9,0,11.0,,58445.9,17.11,-0.79,0.6,0.15,-2.4,9.0,-5.3,35.31,,,,,,,,,,
15.45.08.098,27.5,6.9,0,11.0,,54419.8,18.38,-0.8,0.6,0.15,-2.1,9.4,-5.2,35.31,,,,,,,,,,
15.45.08.111,28.7,7.2,0,11.0,,64273.5,15.56,-0.81,0.61,0.14,-2.4,10.3,-5.3,35.31,,,,,,,,,,
15.45.08.123,42.0,10.5,0,11.0,,55000.6,18.18,-0.81,0.61,0.15,-2.8,10.7,-5.6,35.31,,,,,,,,,,
15.45.08.131,58.5,14.6,0,11.0,,57468.6,17.4,-0.81,0.59,0.15,-4.2,11.2,-6.0,35.31,,,,,,,,,,
15.45.08.143,106.1,26.5,0,11.0,,59756.3,16.73,-0.81,0.6,0.15,-3.6,12.3,-4.8,35.31,,,,,,,,,,
15.45.08.156,98.3,24.6,0,11.0,,56637.5,17.66,-0.8,0.6,0.15,-2.9,13.9,-3.8,35.31,,,,,,,,,,
15.45.08.168,89.3,22.3,0,11.0,,54391.3,18.39,-0.81,0.6,0.15,-4.9,12.6,-4.1,35.31,,,,,,,,,,
15.45.08.176,102.7,25.7,0,11.0,,56081.3,17.83,-0.79,0.6,0.15,-6.7,11.9,-4.6,35.31,,,,,,,,,,
15.45.08.188,26.7,6.7,0,11.0,,55604.6,17.98,-0.78,0.59,0.15,-7.9,10.3,-4.5,35.31,,,,,,,,,,
15.45.08.201,35.8,9.0,0,11.0,,55638.1,17.97,-0.77,0.58,0.15,-8.7,9.2,-3.9,35.31,,,,,,,,,,
15.45.08.209,-2.7,0.7,0,11.0,,57409.9,17.42,-0.77,0.57,0.15,-8.7,8.6,-3.1,35.31,,,,,,,,,,
15.45.08.221,52.4,13.1,0,11.0,,59024.1,16.94,-0.76,0.56,0.16,-8.7,8.6,-2.8,35.31,,,,,,,,,,
15.45.08.233,28.1,7.0,0,11.0,,58548.3,17.08,-0.76,0.56,0.14,-6.4,7.8,-1.9,35.31,,,,,,,,,,
15.45.08.246,-38.6,9.6,0,11.0,,54950.8,18.2,-0.77,0.55,0.17,-6.6,7.8,-3.0,35.31,,,,,,,,,,
15.45.08.254,-40.9,10.2,0,11.0,,58198.3,17.18,-0.78,0.55,0.16,-8.6,7.5,-5.2,35.31,,,,,,,,,,
15.45.08.267,-20.2,5.0,0,11.0,,54932.1,18.2,-0.79,0.53,0.17,-6.2,6.8,-7.8,35.31,,,,,,,,,,
15.45.08.279,-69.2,17.3,0,11.0,,60794.4,16.45,-0.8,0.54,0.16,-3.8,7.7,-9.1,35.31,,,,,,,,,,
15.45.08.287,-14.0,3.5,0,11.0,,59110.5,16.92,-0.8,0.56,0.16,-5.9,6.9,-11.6,35.31,,,,,,,,,,
15.45.08.299,-115.5,28.9,0,11.0,,58880.7,16.98,-0.79,0.56,0.17,-5.9,6.4,-14.3,35.31,,,,,,,,,,
15.45.08.311,-80.9,20.2,0,11.0,,54435.3,18.37,-0.81,0.59,0.16,-4.0,8.3,-14.2,35.31,,,,,,,,,,
15.45.08.324,-69.4,17.4,0,11.0,,59982.5,16.67,-0.8,0.63,0.15,-5.3,7.6,-15.3,35.31,,,,,,,,,,
15.45.08.332,-110.0,27.5,0,11.0,,60256.7,16.6,-0.79,0.63,0.15,-7.6,5.4,-16.9,35.31,,,,,,,,,,
15.45.08.344,-153.2,38.3,0,11.0,,55713.6,17.95,-0.79,0.62,0.15,-4.8,7.0,-15.7,35.31,,,,,,,,,,
15.45.08.356,-173.1,43.3,0,11.0,,55223.0,18.11,-0.77,0.63,0.15,-1.2,7.2,-13.0,35.31,,,,,,,,,,
15.45.08.369,-128.4,32.1,0,11.0,,57543.8,17.38,-0.77,0.63,0.15,0.0,5.8,-10.0,35.31,,,,,,,,,,
15.45.08.377,-119.9,30.0,0,11.0,,56004.5,17.86,-0.77,0.64,0.15,0.8,4.1,-6.1,35.31,,,,,,,,,,
15.45.08.389,-98.2,24.6,0,11.0,,57864.8,17.28,-0.76,0.65,0.15,2.2,3.4,-2.2,35.31,,,,,,,,,,
15.45.08.397,-177.3,44.3,0,11.0,,56035.1,17.85,-0.76,0.66,0.15,1.1,2.7,1.3,35.31,,,,,,,,,,
15.45.08.410,-141.7,35.4,0,11.0,,57409.7,17.42,-0.77,0.66,0.14,-0.9,1.1,4.6,35.31,,,,,,,,,,
15.45.08.418,-126.1,31.5,0,11.0,,53277.6,18.77,-0.77,0.64,0.14,-2.0,0.9,8.1,35.31,,,,,,,,,,
15.45.08.430,-137.8,34.4,0,11.0,,56842.5,17.59,-0.78,0.61,0.13,-1.3,1.1,11.0,35.31,,,,,,,,,,
15.45.08.438,-218.2,54.6,0,11.0,,55727.7,17.94,-0.78,0.62,0.14,-0.3,2.9,13.6,35.31,,,,,,,,,,
15.45.08.475,-229.6,57.4,0,11.0,,56444.9,17.72,-0.78,0.62,0.16,-1.1,7.5,12.3,35.38,,,,,,,,,,
15.45.08.488,115.6,28.9,1,12.0,102.8,58626.6,17.06,-0.79,0.6,0.16,-19.0,6.1,4.0,35.38,,,,,,,,,,
15.45.08.496,126.8,31.7,0,12.0,,55235.5,18.1,-0.79,0.59,0.17,-22.7,7.3,2.6,35.38,,,,,,,,,,
15.45.08.508,226.7,56.7,0,12.0,,64051.4,15.61,-0.79,0.59,0.17,-24.1,6.2,1.6,35.38,,,,,,,,,,
15.45.08.517,243.0,60.8,0,12.0,,62431.5,16.02,-0.78,0.57,0.16,-25.8,5.7,0.9,35.38,,,,,,,,,,
15.45.08.528,349.4,87.4,0,12.0,,62050.5,16.12,-0.79,0.56,0.16,-25.8,6.1,0.6,35.38,,,,,,,,,,
15.45.08.537,420.3,105.1,0,12.0,,52992.6,18.87,-0.78,0.55,0.15,-25.3,6.5,0.1,35.38,,,,,,,,,,
15.45.08.549,392.2,98.0,0,12.0,,58082.6,17.22,-0.78,0.55,0.15,-23.5,8.5,-1.5,35.38,,,,,,,,,,
15.45.08.557,471.1,117.8,0,12.0,,52210.9,19.15,-0.78,0.55,0.16,-22.3,11.3,-3.5,35.38,,,,,,,,,,
15.45.08.569,468.0,117.0,0,12.0,,53157.6,18.81,-0.77,0.56,0.16,-19.5,12.3,-4.8,35.38,,,,,,,,,,
15.45.08.582,515.3,128.8,0,12.0,,52831.9,18.93,-0.77,0.55,0.16,-18.4,12.7,-6.5,35.38,,,,,,,,,,
15.45.08.590,476.8,119.2,0,12.0,,59141.2,16.91,-0.76,0.55,0.17,-17.8,13.9,-8.5,35.38,,,,,,,,,,
15.45.08.603,458.5,114.6,0,12.0,,54682.3,18.29,-0.77,0.55,0.17,-17.3,13.4,-9.7,35.38,,,,,,,,,,
15.45.08.610,472.0,118.0,0,12.0,,53795.2,18.59,-0.77,0.56,0.18,-17.7,13.1,-11.7,35.38,,,,,,,,,,
15.45.08.623,395.4,98.8,0,12.0,,55355.8,18.06,-0.77,0.57,0.19,-18.2,13.2,-14.5,35.38,,,,,,,,,,
15.45.08.635,252.1,63.0,0,12.0,,58754.7,17.02,-0.77,0.57,0.19,-18.5,13.3,-16.9,35.38,,,,,,,,,,
15.45.08.643,278.0,69.5,0,12.0,,56360.0,17.74,-0.77,0.57,0.19,-18.8,12.3,-18.9,35.38,,,,,,,,,,
15.45.08.655,159.9,40.0,0,12.0,,60892.6,16.42,-0.77,0.56,0.19,-20.5,11.8,-20.9,35.38,,,,,,,,,,
15.45.08.664,119.3,29.8,0,12.0,,59376.6,16.84,-0.77,0.56,0.18,-21.9,10.9,-22.5,35.38,,,,,,,,,,
15.45.08.676,65.3,16.3,0,12.0,,58636.5,17.05,-0.77,0.56,0.19,-22.3,10.3,-23.3,35.38,,,,,,,,,,
15.45.08.688,-2.3,0.6,0,12.0,,62436.0,16.02,-0.77,0.55,0.19,-22.2,10.5,-24.1,35.38,,,,,,,,,,
15.45.08.696,20.3,5.1,0,12.0,,59322.1,16.86,-0.78,0.55,0.19,-22.3,10.5,-24.1,35.38,,,,,,,,,,
15.45.08.709,68.8,17.2,0,12.0,,53843.0,18.57,-0.78,0.56,0.19,-21.2,10.6,-25.0,35.38,,,,,,,,,,
15.45.08.721,28.5,7.1,0,12.0,,56746.5,17.62,-0.79,0.56,0.19,-20.6,10.5,-25.5,35.38,,,,,,,,,,
15.45.08.729,88.5,22.1,0,12.0,,60901.7,16.42,-0.8,0.55,0.19,-20.7,10.2,-25.9,35.38,,,,,,,,,,
15.45.08.743,95.7,23.9,0,12.0,,62308.9,16.05,-0.81,0.55,0.18,-19.3,11.8,-26.1,35.38,,,,,,,,,,
15.45.08.750,65.1,16.3,0,12.0,,54391.0,18.39,-0.82,0.54,0.19,-18.0,11.9,-26.8,35.38,,,,,,,,,,
15.45.08.763,15.7,3.9,0,12.0,,57567.0,17.37,-0.83,0.55,0.2,-16.5,12.3,-26.6,35.38,,,,,,,,,,
15.45.08.774,30.1,7.5,0,12.0,,64545.4,15.49,-0.83,0.55,0.2,-15.9,11.4,-26.1,35.38,,,,,,,,,,
15.45.08.783,31.8,8.0,0,12.0,,50839.7,19.67,-0.84,0.55,0.2,-16.8,9.1,-24.5,35.38,,,,,,,,,,
15.45.08.795,-15.0,3.8,0,12.0,,53973.7,18.53,-0.84,0.54,0.2,-17.1,7.4,-23.2,35.38,,,,,,,,,,
15.45.08.803,37.5,9.4,0,12.0,,51413.2,19.45,-0.84,0.54,0.2,-16.6,6.5,-21.7,35.38,,,,,,,,,,
15.45.08.816,-55.7,13.9,0,12.0,,59922.6,16.69,-0.85,0.53,0.19,-16.7,6.2,-19.6,35.38,,,,,,,,,,
15.45.08.828,-59.5,14.9,0,12.0,,53198.3,18.8,-0.85,0.52,0.19,-16.0,7.2,-17.6,35.38,,,,,,,,,,
15.45.08.836,-73.8,18.4,0,12.0,,56873.8,17.58,-0.86,0.51,0.19,-15.2,8.6,-15.9,35.38,,,,,,,,,,
15.45.08.848,-39.6,9.9,0,12.0,,62509.5,16.0,-0.86,0.51,0.19,-14.6,8.9,-14.8,35.38,,,,,,,,,,
15.45.08.856,-32.5,8.1,0,12.0,,56258.0,17.78,-0.85,0.5,0.2,-14.8,7.3,-13.1,35.38,,,,,,,,,,
15.45.08.869,-21.0,5.2,0,12.0,,55440.8,18.04,-0.86,0.48,0.21,-15.0,6.9,-12.2,35.38,,,,,,,,,,
15.45.08.882,-86.0,21.5,0,12.0,,59052.4,16.93,-0.86,0.48,0.21,-14.7,6.9,-11.6,35.38,,,,,,,,,,
15.45.08.889,-93.5,23.4,0,12.0,,57559.7,17.37,-0.86,0.48,0.22,-14.0,8.1,-10.2,35.38,,,,,,,,,,
15.45.08.901,-0.4,0.1,0,12.0,,60428.8,16.55,-0.88,0.47,0.23,-14.3,9.1,-10.2,35.38,,,,,,,,,,
15.45.08.909,-97.3,24.3,0,12.0,,64824.8,15.43,-0.88,0.47,0.22,-14.1,8.3,-11.8,35.38,,,,,,,,,,
15.45.08.922,-148.1,37.0,0,12.0,,56906.5,17.57,-0.88,0.46,0.23,-15.5,8.6,-12.4,35.38,,,,,,,,,,
15.45.08.934,-69.2,17.3,0,12.0,,55165.6,18.13,-0.88,0.46,0.23,-17.1,7.2,-11.4,35.38,,,,,,,,,,
15.45.08.942,-152.4,38.1,0,12.0,,65629.3,15.24,-0.89,0.45,0.23,-18.8,6.7,-9.3,35.38,,,,,,,,,,
15.45.08.955,-122.0,30.5,0,12.0,,60889.8,16.42,-0.89,0.44,0.22,-16.5,7.5,-7.3,35.38,,,,,,,,,,
15.45.08.964,-162.3,40.6,0,12.0,,62355.0,16.04,-0.91,0.43,0.22,-15.6,4.9,-4.1,35.38,,,,,,,,,,
15.45.08.975,-136.7,34.2,0,12.0,,58573.3,17.07,-0.9,0.43,0.22,-11.7,5.1,-1.9,35.38,,,,,,,,,,
15.45.08.983,-105.5,26.4,0,12.0,,52040.7,19.22,-0.9,0.42,0.21,-9.9,4.9,-0.9,35.38,,,,,,,,,,
15.45.08.995,-122.7,30.7,0,12.0,,55407.7,18.05,-0.9,0.42,0.21,-7.1,4.7,0.0,35.38,,,,,,,,,,
15.45.09.004,-147.7,36.9,0,12.0,,55816.0,17.92,-0.89,0.42,0.21,-4.8,4.7,0.7,35.38,,,,,,,,,,
15.45.09.016,-146.8,36.7,0,12.0,,62039.6,16.12,-0.87,0.41,0.22,-3.8,4.9,1.6,35.38,,,,,,,,,,
15.45.09.024,-184.1,46.0,0,12.0,,56801.0,17.61,-0.88,0.41,0.22,-3.9,4.4,1.3,35.38,,,,,,,,,,
15.45.09.041,-267.5,66.9,0,12.0,,58036.8,17.23,-0.86,0.41,0.23,-5.4,5.0,0.0,35.38,,,,,,,,,,
15.45.09.049,-194.7,48.7,0,12.0,,54098.6,18.48,-0.86,0.41,0.22,-6.4,5.1,-1.7,35.38,,,,,,,,,,
15.45.09.061,9.5,2.4,1,13.0,97.3,60338.7,16.57,-0.86,0.4,0.23,-7.4,5.6,-2.6,35.38,,,,,,,,,,
15.45.09.069,87.4,21.8,0,13.0,,61313.7,16.31,-0.86,0.41,0.23,-7.0,5.8,-4.2,35.38,,,,,,,,,,
15.45.09.083,139.3,34.8,0,13.0,,57613.0,17.36,-0.85,0.4,0.24,-6.2,6.1,-4.6,35.38,,,,,,,,,,
15.45.09.090,261.7,65.4,0,13.0,,57577.3,17.37,-0.86,0.4,0.23,-5.0,6.2,-4.3,35.38,,,,,,,,,,
15.45.09.102,294.8,73.7,0,13.0,,58692.7,17.04,-0.86,0.42,0.24,-4.4,5.9,-4.5,35.38,,,,,,,,,,
15.45.09.110,356.0,89.0,0,13.0,,57674.7,17.34,-0.86,0.42,0.25,-3.8,5.9,-4.3,35.38,,,,,,,,,,
15.45.09.123,444.2,111.0,0,13.0,,60098.2,16.64,-0.86,0.42,0.25,-2.9,6.5,-4.7,35.38,,,,,,,,,,
15.45.09.131,445.2,111.3,0,13.0,,58521.5,17.09,-0.86,0.42,0.26,-2.2,6.2,-4.5,35.38,,,,,,,,,,
15.45.09.143,390.0,97.5,0,13.0,,58151.3,17.2,-0.87,0.42,0.26,-2.1,5.7,-4.0,35.38,,,,,,,,,,
15.45.09.151,505.8,126.4,0,13.0,,56860.4,17.59,-0.87,0.43,0.26,-1.6,5.3,-3.9,35.38,,,,,,,,,,
15.45.09.163,507.1,126.8,0,13.0,,58045.8,17.23,-0.87,0.43,0.26,-1.1,3.6,-3.7,35.38,,,,,,,,,,
15.45.09.172,470.9,117.7,0,13.0,,56618.4,17.66,-0.87,0.43,0.26,0.1,2.9,-3.7,35.38,,,,,,,,,,
15.45.09.184,453.1,113.3,0,13.0,,58355.7,17.14,-0.87,0.44,0.27,0.2,2.1,-3.8,35.38,,,,,,,,,,
15.45.09.192,414.9,103.7,0,13.0,,56020.5,17.85,-0.87,0.44,0.27,0.7,1.7,-4.3,35.38,,,,,,,,,,
15.45.09.204,374.4,93.6,0,13.0,,56007.8,17.85,-0.86,0.44,0.26,0.6,1.6,-4.7,35.38,,,,,,,,,,
15.45.09.214,326.6,81.6,0,13.0,,58280.1,17.16,-0.86,0.45,0.26,1.9,1.5,-4.1,35.38,,,,,,,,,,
15.45.09.225,241.8,60.4,0,13.0,,59713.4,16.75,-0.86,0.45,0.26,2.6,0.8,-3.4,35.38,,,,,,,,,,
15.45.09.237,215.3,53.8,0,13.0,,50369.4,19.85,-0.86,0.45,0.25,2.9,0.4,-2.8,35.38,,,,,,,,,,
15.45.09.245,146.2,36.6,0,13.0,,56100.0,17.83,-0.85,0.45,0.25,3.3,-0.9,-2.1,35.38,,,,,,,,,,
15.45.09.283,86.5,21.6,0,13.0,,56108.9,17.82,-0.85,0.45,0.25,3.2,-0.5,-1.7,35.31,,,,,,,,,,
15.45.09.295,11.1,2.8,0,13.0,,58266.0,17.16,-0.82,0.46,0.24,3.7,-0.9,0.4,35.31,,,,,,,,,,
15.45.09.303,79.7,19.9,0,13.0,,58800.5,17.01,-0.82,0.45,0.25,3.1,-0.1,0.7,35.31,,,,,,,,,,
15.45.09.315,119.5,29.9,0,13.0,,63309.0,15.8,-0.82,0.45,0.23,3.2,0.3,1.5,35.31,,,,,,,,,,
15.45.09.323,142.3,35.6,0,13.0,,55282.0,18.09,-0.81,0.45,0.23,3.5,0.5,2.3,35.31,,,,,,,,,,
15.45.09.336,57.5,14.4,0,13.0,,62684.7,15.95,-0.81,0.45,0.23,3.8,1.0,2.6,35.31,,,,,,,,,,
15.45.09.344,75.3,18.8,0,13.0,,51124.4,19.56,-0.8,0.45,0.22,4.0,1.4,2.3,35.31,,,,,,,,,,
15.45.09.356,54.5,13.6,0,13.0,,52572.3,19.02,-0.8,0.46,0.23,3.8,2.8,1.7,35.31,,,,,,,,,,
15.45.09.364,94.3,23.6,0,13.0,,53569.3,18.67,-0.8,0.47,0.22,2.8,4.1,1.0,35.31,,,,,,,,,,
15.45.09.376,-24.0,6.0,0,13.0,,61312.3,16.31,-0.8,0.47,0.22,1.7,4.8,0.5,35.31,,,,,,,,,,
15.45.09.385,-23.9,6.0,0,13.0,,58637.1,17.05,-0.81,0.47,0.21,0.8,5.4,0.2,35.31,,,,,,,,,,
15.45.09.397,8.3,2.1,0,13.0,,61111.8,16.36,-0.8,0.47,0.22,0.3,5.7,0.6,35.31,,,,,,,,,,
15.45.09.405,-13.3,3.3,0,13.0,,62286.7,16.05,-0.81,0.47,0.22,-0.1,6.8,0.7,35.31,,,,,,,,,,
15.45.09.417,-44.6,11.2,0,13.0,,56985.1,17.55,-0.82,0.46,0.21,0.3,8.1,1.1,35.31,,,,,,,,,,
15.45.09.426,-12.9,3.2,0,13.0,,57611.4,17.36,-0.82,0.46,0.21,0.9,8.8,1.2,35.31,,,,,,,,,,
15.45.09.438,-32.5,8.1,0,13.0,,57303.1,17.45,-0.83,0.46,0.21,1.4,9.4,1.1,35.31,,,,,,,,,,
15.45.09.447,-23.1,5.8,0,13.0,,58471.2,17.1,-0.83,0.46,0.22,1.6,9.9,1.5,35.31,,,,,,,,,,
15.45.09.458,-127.9,32.0,0,13.0,,60636.7,16.49,-0.83,0.47,0.22,1.4,10.5,2.0,35.31,,,,,,,,,,
15.45.09.467,-54.0,13.5,0,13.0,,56965.3,17.55,-0.84,0.47,0.22,1.3,10.7,2.2,35.31,,,,,,,,,,
15.45.09.479,-82.1,20.5,0,13.0,,60027.3,16.66,-0.84,0.47,0.23,1.0,11.2,2.4,35.31,,,,,,,,,,
15.45.09.488,-49.7,12.4,0,13.0,,58398.2,17.12,-0.85,0.47,0.23,0.6,11.7,2.7,35.31,,,,,,,,,,
15.45.09.499,-98.8,24.7,0,13.0,,61788.0,16.18,-0.85,0.47,0.24,-0.5,11.2,2.9,35.31,,,,,,,,,,
15.45.09.508,-116.2,29.0,0,13.0,,54193.3,18.45,-0.85,0.47,0.25,-1.4,11.7,3.0,35.31,,,,,,,,,,
15.45.09.520,-69.2,17.3,0,13.0,,59246.7,16.88,-0.86,0.48,0.26,-1.4,11.5,3.6,35.31,,,,,,,,,,
15.45.09.528,-131.0,32.8,0,13.0,,51598.5,19.38,-0.85,0.47,0.25,-1.3,11.2,4.0,35.31,,,,,,,,,,
15.45.09.540,-189.0,47.2,0,13.0,,54702.9,18.28,-0.86,0.47,0.26,-1.2,10.8,4.1,35.31,,,,,,,,,,
15.45.09.549,-129.7,32.4,0,13.0,,55497.5,18.02,-0.86,0.47,0.27,-0.5,10.2,4.9,35.31,,,,,,,,,,
15.45.09.561,-120.3,30.1,0,13.0,,57207.4,17.48,-0.85,0.46,0.26,1.3,8.7,6.3,35.31,,,,,,,,,,
15.45.09.569,-115.1,28.8,0,13.0,,61519.8,16.25,-0.86,0.47,0.27,3.2,8.4,7.5,35.31,,,,,,,,,,
15.45.09.582,-99.0,24.8,0,13.0,,56646.5,17.65,-0.86,0.47,0.27,4.0,8.7,7.5,35.31,,,,,,,,,,
15.45.09.594,-120.9,30.2,0,13.0,,53639.1,18.64,-0.86,0.48,0.26,4.0,7.8,7.3,35.31,,,,,,,,,,
15.45.09.606,-248.4,62.1,0,13.0,,61797.4,16.18,-0.86,0.48,0.27,4.5,7.0,8.3,35.31,,,,,,,,,,
15.45.09.614,-209.1,52.3,0,13.0,,53931.8,18.54,-0.87,0.48,0.26,4.9,5.9,9.2,35.31,,,,,,,,,,
15.45.09.626,-162.3,40.6,0,13.0,,60297.7,16.58,-0.86,0.48,0.26,4.4,5.5,9.9,35.31,,,,,,,,,,
15.45.09.635,-234.9,58.7,0,13.0,,51902.7,19.27,-0.86,0.48,0.25,4.5,5.0,10.0,35.31,,,,,,,,,,
15.45.09.647,53.3,13.3,1,14.0,102.8,54922.2,18.21,-0.86,0.49,0.24,3.9,3.8,10.1,35.31,,,,,,,,,,
15.45.09.655,157.1,39.3,0,14.0,,56087.0,17.83,-0.86,0.49,0.24,3.7,4.9,10.0,35.31,,,,,,,,,,
15.45.09.667,217.8,54.4,0,14.0,,54806.8,18.25,-0.85,0.49,0.24,2.8,4.6,10.6,35.31,,,,,,,,,,
15.45.09.676,195.2,48.8,0,14.0,,59908.6,16.69,-0.85,0.48,0.23,1.8,3.7,11.0,35.31,,,,,,,,,,
15.45.09.688,304.2,76.0,0,14.0,,51842.4,19.29,-0.84,0.48,0.23,2.3,4.3,12.6,35.31,,,,,,,,,,
15.45.09.696,375.8,94.0,0,14.0,,57311.3,17.45,-0.84,0.48,0.23,2.6,4.9,14.0,35.31,,,,,,,,,,
15.45.09.708,429.4,107.4,0,14.0,,56549.1,17.68,-0.84,0.48,0.22,3.1,4.5,15.0,35.31,,,,,,,,,,
15.45.09.718,431.8,108.0,0,14.0,,57668.6,17.34,-0.84,0.48,0.22,4.1,4.6,15.9,35.31,,,,,,,,,,
15.45.09.729,524.9,131.2,0,14.0,,56479.5,17.71,-0.84,0.48,0.22,5.2,4.2,15.6,35.31,,,,,,,,,,
15.45.09.737,439.4,109.8,0,14.0,,57571.9,17.37,-0.84,0.48,0.23,5.8,3.9,14.7,35.31,,,,,,,,,,
15.45.09.749,520.0,130.0,0,14.0,,54647.6,18.3,-0.84,0.48,0.24,5.6,4.8,13.1,35.31,,,,,,,,,,
15.45.09.757,499.7,124.9,0,14.0,,56548.5,17.68,-0.84,0.49,0.23,4.9,4.0,11.5,35.31,,,,,,,,,,
15.45.09.770,472.0,118.0,0,14.0,,57552.0,17.38,-0.83,0.49,0.24,4.6,4.1,10.1,35.31,,,,,,,,,,
15.45.09.778,421.5,105.4,0,14.0,,58760.4,17.02,-0.83,0.49,0.24,4.8,4.4,8.7,35.31,,,,,,,,,,
15.45.09.790,368.0,92.0,0,14.0,,62979.8,15.88,-0.83,0.48,0.24,5.7,3.2,7.6,35.31,,,,,,,,,,
15.45.09.798,273.2,68.3,0,14.0,,58024.1,17.23,-0.83,0.48,0.24,8.3,3.0,8.1,35.31,,,,,,,,,,
15.45.09.811,301.3,75.3,0,14.0,,62673.5,15.96,-0.83,0.49,0.24,11.1,2.2,7.8,35.31,,,,,,,,,,
15.45.09.819,197.2,49.3,0,14.0,,56306.8,17.76,-0.83,0.49,0.24,12.8,2.9,6.9,35.31,,,,,,,,,,
15.45.09.831,95.4,23.8,0,14.0,,55594.2,17.99,-0.82,0.5,0.24,13.8,2.8,6.1,35.31,,,,,,,,,,
15.45.09.839,60.1,15.0,0,14.0,,54697.1,18.28,-0.83,0.52,0.24,14.5,2.4,5.7,35.31,,,,,,,,,,
15.45.09.852,25.1,6.3,0,14.0,,55507.2,18.02,-0.82,0.53,0.24,14.1,1.6,5.2,35.31,,,,,,,,,,
15.45.09.860,80.6,20.2,0,14.0,,53813.5,18.58,-0.81,0.53,0.23,13.0,1.5,4.7,35.31,,,,,,,,,,
15.45.09.872,53.0,13.2,0,14.0,,49605.3,20.16,-0.81,0.53,0.23,11.8,0.7,5.2,35.31,,,,,,,,,,
15.45.09.880,48.3,12.1,0,14.0,,56076.0,17.83,-0.81,0.53,0.22,12.2,1.1,6.7,35.31,,,,,,,,,,
15.45.09.893,48.6,12.2,0,14.0,,60445.8,16.54,-0.81,0.53,0.23,12.6,0.6,8.4,35.31,,,,,,,,,,
15.45.09.901,94.9,23.7,0,14.0,,62000.3,16.13,-0.81,0.54,0.22,13.6,1.1,9.4,35.31,,,,,,,,,,
15.45.09.913,54.4,13.6,0,14.0,,58939.7,16.97,-0.8,0.54,0.22,14.8,0.4,11.3,35.31,,,,,,,,,,
15.45.09.925,69.7,17.4,0,14.0,,53947.7,18.54,-0.8,0.55,0.22,15.4,0.4,12.5,35.31,,,,,,,,,,
15.45.09.934,40.7,10.2,0,14.0,,54179.6,18.46,-0.81,0.55,0.23,15.9,0.8,13.1,35.31,,,,,,,,,,
15.45.09.947,41.2,10.3,0,14.0,,57031.1,17.53,-0.82,0.56,0.22,16.4,0.5,13.6,35.31,,,,,,,,,,
15.45.09.954,-13.7,3.4,0,14.0,,57560.7,17.37,-0.81,0.57,0.24,16.7,0.2,14.7,35.31,,,,,,,,,,
15.45.09.966,-19.5,4.9,0,14.0,,58524.6,17.09,-0.82,0.57,0.24,15.4,-0.6,14.7,35.31,,,,,,,,,,
15.45.09.975,9.5,2.4,0,14.0,,53374.2,18.74,-0.81,0.58,0.24,13.7,-1.0,14.5,35.31,,,,,,,,,,
15.45.09.987,-23.6,5.9,0,14.0,,55685.1,17.96,-0.81,0.57,0.24,12.6,-1.7,14.0,35.31,,,,,,,,,,
15.45.09.999,-62.2,15.6,0,14.0,,56045.4,17.84,-0.81,0.57,0.23,12.4,-2.5,15.0,35.31,,,,,,,,,,
15.45.10.007,-74.3,18.6,0,14.0,,58036.0,17.23,-0.8,0.57,0.23,12.8,-2.4,15.5,35.31,,,,,,,,,,
15.45.10.020,11.7,2.9,0,14.0,,58955.4,16.96,-0.8,0.57,0.23,13.0,-1.9,15.9,35.31,,,,,,,,,,
15.45.10.028,-63.9,16.0,0,14.0,,59712.0,16.75,-0.8,0.57,0.23,12.4,-1.2,15.9,35.31,,,,,,,,,,
15.45.10.040,-6.3,1.6,0,14.0,,60005.6,16.67,-0.79,0.57,0.23,11.1,-1.8,16.5,35.31,,,,,,,,,,
15.45.10.049,-24.4,6.1,0,14.0,,57166.3,17.49,-0.8,0.57,0.23,9.5,-1.8,17.7,35.31,,,,,,,,,,
15.45.10.085,-84.6,21.2,0,14.0,,55723.8,17.95,-0.79,0.57,0.21,8.2,-0.8,18.4,35.38,,,,,,,,,,
15.45.10.098,-62.3,15.6,0,14.0,,60328.3,16.58,-0.79,0.56,0.22,8.1,0.3,17.3,35.38,,,,,,,,,,
15.45.10.110,-140.7,35.2,0,14.0,,57864.2,17.28,-0.79,0.56,0.22,9.5,2.2,16.5,35.38,,,,,,,,,,
15.45.10.118,-103.1,25.8,0,14.0,,55052.1,18.16,-0.79,0.57,0.22,10.7,1.9,15.6,35.38,,,,,,,,,,
15.45.10.130,-82.9,20.7,0,14.0,,62278.9,16.06,-0.78,0.57,0.22,10.7,1.0,15.2,35.38,,,,,,,,,,
15.45.10.138,-105.4,26.4,0,14.0,,58736.0,17.03,-0.78,0.57,0.23,11.2,0.2,15.2,35.38,,,,,,,,,,
15.45.10.151,-218.8,54.7,0,14.0,,54125.7,18.48,-0.77,0.57,0.22,11.9,-0.8,15.7,35.38,,,,,,,,,,
15.45.10.159,-118.9,29.7,0,14.0,,60590.6,16.5,-0.77,0.57,0.23,13.1,-1.2,16.2,35.38,,,,,,,,,,
15.45.10.171,-137.4,34.4,0,14.0,,56624.6,17.66,-0.77,0.58,0.22,14.2,-0.8,15.8,35.38,,,,,,,,,,
15.45.10.179,-154.3,38.6,0,14.0,,57231.9,17.47,-0.77,0.59,0.22,15.0,-1.3,16.0,35.38,,,,,,,,,,
15.45.10.192,-201.4,50.4,0,14.0,,55364.4,18.06,-0.76,0.59,0.22,15.4,-1.3,15.5,35.38,,,,,,,,,,
15.45.10.204,-223.9,56.0,0,14.0,,61117.1,16.36,-0.75,0.6,0.22,15.1,-1.2,15.1,35.38,,,,,,,,,,
15.45.10.216,-226.5,56.6,0,14.0,,56838.5,17.59,-0.75,0.61,0.22,13.9,-1.0,14.9,35.38,,,,,,,,,,
15.45.10.225,1.5,0.4,1,15.0,106.5,57653.6,17.34,-0.74,0.61,0.21,12.8,-0.7,14.9,35.38,,,,,,,,,,
15.45.10.238,63.1,15.8,0,15.0,,59463.4,16.82,-0.74,0.61,0.21,12.4,-0.3,15.1,35.38,,,,,,,,,,
15.45.10.245,146.0,36.5,0,15.0,,54748.1,18.27,-0.74,0.61,0.21,12.4,0.6,14.9,35.38,,,,,,,,,,
15.45.10.257,278.0,69.5,0,15.0,,55680.4,17.96,-0.73,0.61,0.2,13.0,1.2,15.4,35.38,,,,,,,,,,
15.45.10.266,272.0,68.0,0,15.0,,56849.0,17.59,-0.73,0.62,0.2,12.4,1.7,15.0,35.38,,,,,,,,,,
15.45.10.278,397.1,99.3,0,15.0,,51837.2,19.29,-0.73,0.62,0.2,12.1,1.6,14.9,35.38,,,,,,,,,,
15.45.10.286,409.5,102.4,0,15.0,,65034.8,15.38,-0.73,0.63,0.2,11.4,2.3,14.6,35.38,,,,,,,,,,
15.45.10.299,443.2,110.8,0,15.0,,55875.3,17.9,-0.73,0.64,0.21,10.7,2.3,14.4,35.38,,,,,,,,,,
15.45.10.311,532.6,133.2,0,15.0,,55383.4,18.06,-0.73,0.64,0.2,9.4,2.2,14.6,35.38,,,,,,,,,,
15.45.10.319,576.9,144.2,0,15.0,,57671.7,17.34,-0.72,0.65,0.2,8.2,2.6,13.8,35.38,,,,,,,,,,
15.45.10.331,503.4,125.8,0,15.0,,58978.6,16.96,-0.73,0.64,0.2,7.6,3.2,13.0,35.38,,,,,,,,,,
15.45.10.339,500.0,125.0,0,15.0,,56739.9,17.62,-0.73,0.65,0.19,6.4,3.5,12.0,35.38,,,,,,,,,,
15.45.10.352,461.7,115.4,0,15.0,,57857.1,17.28,-0.73,0.65,0.2,6.5,4.1,11.6,35.38,,,,,,,,,,
15.45.10.360,457.6,114.4,0,15.0,,57624.3,17.35,-0.72,0.65,0.19,5.7,4.0,11.4,35.38,,,,,,,,,,
15.45.10.372,354.7,88.7,0,15.0,,57839.1,17.29,-0.72,0.65,0.2,5.0,4.3,11.1,35.38,,,,,,,,,,
15.45.10.380,377.2,94.3,0,15.0,,58782.3,17.01,-0.71,0.65,0.2,5.2,3.9,11.3,35.38,,,,,,,,,,
15.45.10.392,237.1,59.3,0,15.0,,64913.5,15.41,-0.71,0.65,0.2,5.7,4.1,11.9,35.38,,,,,,,,,,
15.45.10.401,253.1,63.3,0,15.0,,62608.7,15.97,-0.71,0.65,0.21,6.5,3.9,12.0,35.38,,,,,,,,,,
15.45.10.414,72.2,18.0,0,15.0,,59122.0,16.91,-0.71,0.65,0.2,8.0,4.5,12.3,35.38,,,,,,,,,,
15.45.10.421,25.3,6.3,0,15.0,,58533.3,17.08,-0.71,0.66,0.2,8.5,5.3,11.8,35.38,,,,,,,,,,
15.45.10.433,24.2,6.0,0,15.0,,55130.9,18.14,-0.71,0.65,0.21,8.7,5.3,11.8,35.38,,,,,,,,,,
15.45.10.442,77.3,19.3,0,15.0,,52332.8,19.11,-0.71,0.66,0.21,8.8,5.6,11.7,35.38,,,,,,,,,,
15.45.10.454,74.3,18.6,0,15.0,,59094.6,16.92,-0.71,0.67,0.21,8.6,5.6,10.9,35.38,,,,,,,,,,
15.45.10.462,112.5,28.1,0,15.0,,59517.6,16.8,-0.71,0.67,0.21,7.7,5.4,9.7,35.38,,,,,,,,,,
15.45.10.474,36.2,9.0,0,15.0,,57703.2,17.33,-0.7,0.68,0.21,6.5,5.2,8.8,35.38,,,,,,,,,,
15.45.10.483,80.5,20.1,0,15.0,,48992.3,20.41,-0.7,0.67,0.22,7.5,6.4,9.0,35.38,,,,,,,,,,
15.45.10.495,85.3,21.3,0,15.0,,55515.8,18.01,-0.7,0.68,0.21,7.0,5.6,7.7,35.38,,,,,,,,,,
15.45.10.504,69.9,17.5,0,15.0,,57833.8,17.29,-0.69,0.68,0.2,8.1,7.1,8.3,35.38,,,,,,,,,,
15.45.10.515,36.7,9.2,0,15.0,,52830.2,18.93,-0.69,0.68,0.2,7.8,7.5,7.5,35.38,,,,,,,,,,
15.45.10.524,74.2,18.6,0,15.0,,60140.8,16.63,-0.69,0.69,0.2,7.7,6.6,7.2,35.38,,,,,,,,,,
15.45.10.536,-4.9,1.2,0,15.0,,57431.2,17.41,-0.69,0.69,0.18,6.7,4.7,7.9,35.38,,,,,,,,,,
15.45.10.544,18.1,4.5,0,15.0,,54075.8,18.49,-0.69,0.68,0.19,5.8,4.3,8.4,35.38,,,,,,,,,,
15.45.10.557,-25.4,6.4,0,15.0,,52824.3,18.93,-0.69,0.69,0.19,7.5,7.2,9.4,35.38,,,,,,,,,,
15.45.10.565,-55.1,13.8,0,15.0,,57353.5,17.44,-0.68,0.69,0.18,6.8,5.5,9.0,35.38,,,,,,,,,,
15.45.10.577,-30.8,7.7,0,15.0,,58882.9,16.98,-0.68,0.69,0.18,6.5,7.8,8.6,35.38,,,,,,,,,,
15.45.10.585,-19.5,4.9,0,15.0,,52886.1,18.91,-0.69,0.7,0.18,7.3,6.1,8.7,35.38,,,,,,,,,,
15.45.10.597,-93.4,23.4,0,15.0,,56155.3,17.81,-0.68,0.7,0.17,7.1,6.1,9.0,35.38,,,,,,,,,,
15.45.10.606,-65.4,16.4,0,15.0,,58658.4,17.05,-0.68,0.7,0.18,5.3,5.0,8.3,35.38,,,,,,,,,,
15.45.10.618,-59.1,14.8,0,15.0,,53670.4,18.63,-0.67,0.7,0.18,6.7,5.8,9.2,35.38,,,,,,,,,,
15.45.10.626,-93.1,23.3,0,15.0,,60108.3,16.64,-0.67,0.69,0.18,6.6,2.9,9.4,35.38,,,,,,,,,,
15.45.10.638,-84.9,21.2,0,15.0,,57265.9,17.46,-0.67,0.7,0.18,6.1,4.6,9.6,35.38,,,,,,,,,,
15.45.10.646,-116.8,29.2,0,15.0,,56784.7,17.61,-0.67,0.7,0.18,6.3,3.6,9.8,35.38,,,,,,,,,,
15.45.10.659,-88.9,22.2,0,15.0,,60090.3,16.64,-0.68,0.7,0.18,6.4,3.4,9.7,35.38,,,,,,,,,,
15.45.10.667,-115.3,28.8,0,15.0,,60780.6,16.45,-0.67,0.7,0.18,5.4,3.1,10.3,35.38,,,,,,,,,,
15.45.10.679,-100.7,25.2,0,15.0,,53740.7,18.61,-0.68,0.7,0.18,6.7,2.9,10.6,35.38,,,,,,,,,,
15.45.10.688,-87.6,21.9,0,15.0,,60678.8,16.48,-0.68,0.69,0.18,4.8,0.5,9.5,35.38,,,,,,,,,,
15.45.10.700,-90.3,22.6,0,15.0,,61723.1,16.2,-0.68,0.69,0.19,6.4,3.3,10.3,35.38,,,,,,,,,,
15.45.10.708,-163.7,40.9,0,15.0,,55058.6,18.16,-0.68,0.69,0.2,5.8,3.0,8.7,35.38,,,,,,,,,,
15.45.10.720,-102.1,25.5,0,15.0,,59146.0,16.91,-0.68,0.69,0.19,5.4,2.7,8.4,35.38,,,,,,,,,,
15.45.10.729,-163.5,40.9,0,15.0,,56563.3,17.68,-0.68,0.7,0.19,6.5,3.9,7.6,35.38,,,,,,,,,,
15.45.10.741,-181.2,45.3,0,15.0,,57086.3,17.52,-0.67,0.7,0.19,6.4,2.7,7.5,35.38,,,,,,,,,,
15.45.10.749,-168.2,42.0,0,15.0,,57979.3,17.25,-0.67,0.7,0.2,4.5,2.1,6.5,35.38,,,,,,,,,,
15.45.10.761,-149.4,37.4,0,15.0,,51883.2,19.27,-0.67,0.7,0.2,6.6,5.2,6.7,35.38,,,,,,,,,,
15.45.10.769,-138.0,34.5,0,15.0,,51651.5,19.36,-0.67,0.69,0.19,5.9,5.5,5.9,35.38,,,,,,,,,,
15.45.10.782,-167.2,41.8,0,15.0,,52026.3,19.22,-0.67,0.69,0.19,4.9,3.6,4.6,35.38,,,,,,,,,,
15.45.10.794,-259.0,64.8,0,15.0,,61025.8,16.39,-0.66,0.69,0.19,5.9,4.3,3.9,35.38,,,,,,,,,,
15.45.10.806,-191.7,47.9,0,15.0,,58301.0,17.15,-0.66,0.7,0.19,7.0,5.6,3.7,35.38,,,,,,,,,,
15.45.10.815,104.8,26.2,1,16.0,108.0,56098.6,17.83,-0.67,0.7,0.18,6.2,5.0,2.4,35.38,,,,,,,,,,
15.45.10.827,170.2,42.6,0,16.0,,61544.6,16.25,-0.67,0.7,0.18,6.3,7.3,1.6,35.38,,,,,,,,,,
15.45.10.835,206.5,51.6,0,16.0,,59007.6,16.95,-0.67,0.7,0.17,5.8,5.2,0.7,35.38,,,,,,,,,,
15.45.10.847,286.7,71.7,0,16.0,,59932.5,16.69,-0.66,0.71,0.17,4.7,5.8,0.2,35.38,,,,,,,,,,
15.45.10.855,306.2,76.6,0,16.0,,61839.7,16.17,-0.66,0.71,0.16,4.1,6.3,-0.4,35.38,,,,,,,,,,
15.45.10.892,423.5,105.9,0,16.0,,48869.2,20.46,-0.66,0.71,0.16,3.5,4.7,-0.2,35.38,,,,,,,,,,
15.45.10.905,484.7,121.2,0,16.0,,56564.1,17.68,-0.67,0.72,0.17,3.3,5.8,-0.3,35.38,,,,,,,,,,
15.45.10.913,506.3,126.6,0,16.0,,60534.3,16.52,-0.67,0.72,0.16,2.7,6.7,-0.7,35.38,,,,,,,,,,
15.45.10.925,430.0,107.5,0,16.0,,60013.6,16.66,-0.66,0.72,0.16,2.8,6.2,-0.6,35.38,,,,,,,,,,
15.45.10.933,467.4,116.8,0,16.0,,54415.9,18.38,-0.67,0.72,0.16,3.2,6.0,-0.7,35.38,,,,,,,,,,
15.45.10.946,463.6,115.9,0,16.0,,55926.4,17.88,-0.66,0.72,0.17,2.4,6.4,-0.9,35.38,,,,,,,,,,
15.45.10.954,400.9,100.2,0,16.0,,57702.9,17.33,-0.66,0.72,0.17,2.8,7.6,-1.3,35.38,,,,,,,,,,
15.45.10.966,302.3,75.6,0,16.0,,58424.5,17.12,-0.66,0.72,0.17,2.4,6.3,-1.1,35.38,,,,,,,,,,
15.45.10.974,268.8,67.2,0,16.0,,58624.8,17.06,-0.66,0.72,0.18,2.8,6.8,-0.1,35.38,,,,,,,,,,
15.45.10.987,261.4,65.4,0,16.0,,56988.0,17.55,-0.67,0.72,0.18,2.5,6.5,-0.3,35.38,,,,,,,,,,
15.45.10.995,77.1,19.3,0,16.0,,55860.7,17.9,-0.67,0.72,0.18,2.5,5.8,-0.3,35.38,,,,,,,,,,
15.45.11.007,-8.0,2.0,0,16.0,,56355.0,17.74,-0.67,0.72,0.17,3.2,6.1,0.3,35.38,,,,,,,,,,
15.45.11.015,30.5,7.6,0,16.0,,64113.8,15.6,-0.67,0.72,0.17,3.2,5.4,-0.1,35.38,,,,,,,,,,
15.45.11.027,52.4,13.1,0,16.0,,54519.0,18.34,-0.67,0.72,0.18,3.4,5.1,-0.3,35.38,,,,,,,,,,
15.45.11.036,90.1,22.5,0,16.0,,55953.3,17.87,-0.67,0.72,0.18,3.2,4.6,-0.6,35.38,,,,,,,,,,
15.45.11.049,81.4,20.4,0,16.0,,60397.6,16.56,-0.67,0.72,0.17,3.1,5.5,-0.3,35.38,,,,,,,,,,
15.45.11.056,46.2,11.6,0,16.0,,56840.2,17.59,-0.67,0.72,0.18,3.1,3.9,-0.6,35.38,,,,,,,,,,
15.45.11.068,100.1,25.0,0,16.0,,56168.1,17.8,-0.67,0.72,0.18,2.2,4.1,-0.6,35.38,,,,,,,,,,
15.45.11.077,39.3,9.8,0,16.0,,55492.5,18.02,-0.67,0.72,0.18,3.1,4.4,-0.5,35.38,,,,,,,,,,
15.45.11.089,81.1,20.3,0,16.0,,60213.7,16.61,-0.66,0.73,0.17,2.9,3.9,-0.8,35.38,,,,,,,,,,
15.45.11.102,57.7,14.4,0,16.0,,58655.2,17.05,-0.67,0.72,0.17,2.6,4.4,-1.0,35.38,,,,,,,,,,
15.45.11.109,74.2,18.6,0,16.0,,60789.6,16.45,-0.66,0.72,0.15,2.5,4.3,-1.2,35.38,,,,,,,,,,
15.45.11.122,-10.5,2.6,0,16.0,,56254.5,17.78,-0.67,0.72,0.16,2.2,4.6,-1.3,35.38,,,,,,,,,,
15.45.11.130,8.4,2.1,0,16.0,,63126.7,15.84,-0.67,0.72,0.16,2.1,4.9,-1.4,35.38,,,,,,,,,,
15.45.11.142,-46.0,11.5,0,16.0,,56002.6,17.86,-0.66,0.73,0.16,1.8,4.7,-1.4,35.38,,,,,,,,,,
15.45.11.151,7.8,2.0,0,16.0,,56732.0,17.63,-0.66,0.72,0.16,1.3,5.9,-1.6,35.38,,,,,,,,,,
15.45.11.163,-27.1,6.8,0,16.0,,62671.8,15.96,-0.66,0.72,0.16,0.8,5.6,-1.6,35.38,,,,,,,,,,
15.45.11.171,-31.1,7.8,0,16.0,,57664.1,17.34,-0.66,0.72,0.15,0.6,6.1,-1.8,35.38,,,,,,,,,,
15.45.11.183,-23.3,5.8,0,16.0,,57237.9,17.47,-0.66,0.72,0.16,0.6,6.5,-1.7,35.38,,,,,,,,,,
15.45.11.191,-75.5,18.9,0,16.0,,52632.0,19.0,-0.66,0.71,0.16,0.2,6.2,-1.9,35.38,,,,,,,,,,
15.45.11.204,3.7,0.9,0,16.0,,56921.4,17.57,-0.66,0.71,0.16,-0.3,7.3,-1.9,35.38,,,,,,,,,,
15.45.11.212,-117.1,29.3,0,16.0,,61407.1,16.28,-0.67,0.71,0.16,-0.4,6.8,-1.7,35.38,,,,,,,,,,
15.45.11.224,-85.8,21.4,0,16.0,,54592.4,18.32,-0.66,0.71,0.17,0.0,7.3,-1.9,35.38,,,,,,,,,,
15.45.11.232,-56.9,14.2,0,16.0,,50700.9,19.72,-0.67,0.7,0.17,0.0,7.4,-2.5,35.38,,,,,,,,,,
15.45.11.245,-119.9,30.0,0,16.0,,57416.4,17.42,-0.66,0.71,0.17,0.2,7.5,-3.0,35.38,,,,,,,,,,
15.45.11.257,-86.4,21.6,0,16.0,,51512.7,19.41,-0.66,0.71,0.17,0.1,7.6,-3.5,35.38,,,,,,,,,,
15.45.11.265,-80.7,20.2,0,16.0,,59519.1,16.8,-0.67,0.71,0.17,0.1,7.4,-3.9,35.38,,,,,,,,,,
15.45.11.277,-160.1,40.0,0,16.0,,59647.2,16.77,-0.67,0.71,0.17,0.2,7.2,-4.4,35.38,,,,,,,,,,
15.45.11.287,-146.3,36.6,0,16.0,,63776.2,15.68,-0.67,0.71,0.18,0.3,6.9,-4.6,35.38,,,,,,,,,,
15.45.11.298,-144.5,36.1,0,16.0,,59479.1,16.81,-0.67,0.71,0.18,0.1,7.1,-5.0,35.38,,,,,,,,,,
15.45.11.306,-196.5,49.1,0,16.0,,59165.4,16.9,-0.67,0.72,0.17,0.3,7.1,-4.7,35.38,,,,,,,,,,
15.45.11.319,-122.7,30.7,0,16.0,,55107.6,18.15,-0.67,0.72,0.18,0.2,7.1,-5.0,35.38,,,,,,,,,,
15.45.11.327,-145.2,36.3,0,16.0,,52081.3,19.2,-0.67,0.72,0.17,0.6,6.9,-5.1,35.38,,,,,,,,,,
15.45.11.339,-207.0,51.8,0,16.0,,55857.7,17.9,-0.67,0.72,0.18,0.6,6.8,-4.9,35.38,,,,,,,,,,
15.45.11.347,-172.2,43.0,0,16.0,,58962.6,16.96,-0.67,0.72,0.17,0.6,6.8,-4.5,35.38,,,,,,,,,,
15.45.11.359,-182.2,45.6,0,16.0,,60658.0,16.49,-0.66,0.72,0.17,0.6,6.6,-4.1,35.38,,,,,,,,,,
15.45.11.367,-149.2,37.3,0,16.0,,58916.7,16.97,-0.67,0.72,0.16,0.9,6.5,-3.9,35.38,,,,,,,,,,
15.45.11.380,-182.5,45.6,0,16.0,,58123.5,17.2,-0.66,0.73,0.16,0.7,6.1,-3.8,35.38,,,,,,,,,,
15.45.11.388,-207.4,51.8,0,16.0,,61573.9,16.24,-0.67,0.72,0.17,0.5,5.8,-3.5,35.38,,,,,,,,,,
15.45.11.400,83.2,20.8,1,17.0,101.5,56951.0,17.56,-0.67,0.72,0.16,-0.3,5.7,-3.2,35.38,,,,,,,,,,
15.45.11.413,146.6,36.6,0,17.0,,60382.8,16.56,-0.67,0.72,0.16,-0.1,5.7,-2.8,35.38,,,,,,,,,,
15.45.11.422,279.7,69.9,0,17.0,,55145.6,18.13,-0.67,0.72,0.16,0.0,6.0,-2.6,35.38,,,,,,,,,,
15.45.11.433,367.2,91.8,0,17.0,,60104.4,16.64,-0.67,0.72,0.16,0.2,5.9,-2.8,35.38,,,,,,,,,,
15.45.11.445,339.5,84.9,0,17.0,,56174.9,17.8,-0.67,0.72,0.16,0.5,5.9,-2.8,35.38,,,,,,,,,,
15.45.11.454,374.2,93.6,0,17.0,,56808.1,17.6,-0.67,0.72,0.16,0.9,6.3,-2.8,35.38,,,,,,,,,,
15.45.11.466,412.4,103.1,0,17.0,,58784.1,17.01,-0.67,0.72,0.16,0.5,6.3,-2.7,35.38,,,,,,,,,,
15.45.11.474,437.5,109.4,0,17.0,,60614.6,16.5,-0.67,0.72,0.17,0.0,6.0,-2.8,35.38,,,,,,,,,,
15.45.11.486,496.2,124.0,0,17.0,,59289.1,16.87,-0.67,0.71,0.17,-0.3,5.9,-2.5,35.38,,,,,,,,,,
15.45.11.494,476.9,119.2,0,17.0,,59104.2,16.92,-0.67,0.72,0.17,0.1,6.0,-1.9,35.38,105.6,,,,,,,,,
15.45.11.507,456.7,114.2,0,17.0,,57381.7,17.43,-0.68,0.71,0.17,0.4,5.7,-1.9,35.38,,,,,,,,,,
15.45.11.516,448.5,112.1,0,17.0,,58545.4,17.08,-0.67,0.71,0.16,0.1,5.3,-1.8,35.38,,,,,,,,,,
15.45.11.527,442.2,110.6,0,17.0,,53676.4,18.63,-0.68,0.72,0.17,0.3,4.9,-1.6,35.38,,,,,,,,,,
15.45.11.535,387.6,96.9,0,17.0,,59254.0,16.88,-0.68,0.71,0.17,0.2,5.1,-1.4,35.38,,,,,,,,,,
15.45.11.548,302.6,75.6,0,17.0,,57738.9,17.32,-0.68,0.71,0.17,0.0,4.6,-0.9,35.38,,,,,,,,,,
15.45.11.556,270.9,67.7,0,17.0,,53311.6,18.76,-0.68,0.71,0.17,-0.3,4.4,-0.8,35.38,,,,,,,,,,
15.45.11.568,199.2,49.8,0,17.0,,53497.9,18.69,-0.68,0.7,0.17,0.0,4.6,-0.6,35.38,,,,,,,,,,
15.45.11.576,156.1,39.0,0,17.0,,63265.1,15.81,-0.68,0.71,0.17,0.3,4.6,-1.0,35.38,,,,,,,,,,
15.45.11.589,21.9,5.5,0,17.0,,59635.6,16.77,-0.68,0.7,0.17,0.6,5.1,-0.7,35.38,,,,,,,,,,
15.45.11.597,12.7,3.2,0,17.0,,58849.6,16.99,-0.67,0.71,0.17,0.0,4.7,-1.2,35.38,,,,,,,,,,
15.45.11.609,11.9,3.0,0,17.0,,54553.3,18.33,-0.67,0.7,0.16,0.3,5.1,-1.3,35.38,,,,,,,,,,
15.45.11.618,42.8,10.7,0,17.0,,62439.0,16.02,-0.67,0.7,0.17,0.4,5.5,-1.2,35.38,,,,,,,,,,
15.45.11.630,60.6,15.2,0,17.0,,54484.9,18.35,-0.68,0.7,0.17,0.5,5.5,-1.4,35.38,,,,,,,,,,
15.45.11.638,39.3,9.8,0,17.0,,57540.4,17.38,-0.68,0.7,0.17,0.7,5.7,-2.1,35.38,,,,,,,,,,
15.45.11.651,118.5,29.6,0,17.0,,57775.9,17.31,-0.68,0.7,0.16,0.3,5.9,-2.4,35.38,,,,,,,,,,
15.45.11.658,102.0,25.5,0,17.0,,49116.0,20.36,-0.67,0.71,0.17,-0.1,6.2,-2.9,35.38,,,,,,,,,,
15.45.11.700,41.8,10.4,0,17.0,,56401.8,17.73,-0.67,0.71,0.17,-0.5,6.2,-3.2,35.38,,,,,,,,,,
15.45.11.708,-3.8,1.0,0,17.0,,59690.6,16.75,-0.67,0.71,0.17,-0.4,6.4,-3.3,35.38,,,,,,,,,,
15.45.11.720,34.4,8.6,0,17.0,,59258.0,16.88,-0.67,0.72,0.16,-0.4,6.6,-3.3,35.38,,,,,,,,,,
15.45.11.728,-3.0,0.8,0,17.0,,56223.8,17.79,-0.67,0.72,0.17,-0.3,6.6,-3.2,35.38,,,,,,,,,,
15.45.11.740,-42.2,10.6,0,17.0,,56278.0,17.77,-0.67,0.72,0.17,-0.3,6.3,-2.9,35.38,,,,,,,,,,
15.45.11.748,-33.7,8.4,0,17.0,,56780.0,17.61,-0.67,0.72,0.17,-0.2,6.3,-2.5,35.38,,,,,,,,,,
15.45.11.761,-106.5,26.6,0,17.0,,57450.8,17.41,-0.67,0.72,0.17,0.0,6.3,-1.8,35.38,,,,,,,,,,
15.45.11.769,-86.5,21.6,0,17.0,,55951.3,17.87,-0.67,0.72,0.18,0.1,6.0,-1.4,35.38,,,,,,,,,,
15.45.11.781,-76.7,19.2,0,17.0,,58502.2,17.09,-0.67,0.72,0.17,0.0,5.5,-1.3,35.38,,,,,,,,,,
15.45.11.789,-66.7,16.7,0,17.0,,58968.7,16.96,-0.67,0.72,0.17,0.0,5.4,-0.7,35.38,,,,,,,,,,
15.45.11.802,-95.7,23.9,0,17.0,,59979.3,16.67,-0.67,0.72,0.17,0.4,5.6,-0.3,35.38,,,,,,,,,,
15.45.11.814,-96.7,24.2,0,17.0,,59582.4,16.78,-0.68,0.71,0.17,0.6,5.1,-0.6,35.38,,,,,,,,,,
15.45.11.822,-124.2,31.0,0,17.0,,61972.8,16.14,-0.68,0.71,0.17,0.7,5.1,-0.2,35.38,,,,,,,,,,
15.45.11.835,-126.7,31.7,0,17.0,,55675.3,17.96,-0.68,0.71,0.18,0.9,5.5,-0.2,35.38,,,,,,,,,,
15.45.11.843,-115.9,29.0,0,17.0,,58005.7,17.24,-0.68,0.71,0.17,0.9,5.4,-0.3,35.38,,,,,,,,,,
15.45.11.855,-140.9,35.2,0,17.0,,55182.3,18.12,-0.68,0.71,0.17,1.2,5.3,-1.2,35.38,,,,,,,,,,
15.45.11.864,-118.5,29.6,0,17.0,,56320.8,17.76,-0.68,0.71,0.17,0.6,5.4,-1.5,35.38,,,,,,,,,,
15.45.11.875,-58.2,14.6,0,17.0,,56875.7,17.58,-0.68,0.71,0.17,0.2,5.6,-1.5,35.38,,,,,,,,,,
15.45.11.884,-193.8,48.4,0,17.0,,55669.6,17.96,-0.68,0.71,0.17,0.2,5.6,-1.7,35.38,,,,,,,,,,
15.45.11.896,-146.1,36.5,0,17.0,,60544.9,16.52,-0.68,0.71,0.17,0.4,5.9,-1.6,35.38,,,,,,,,,,
15.45.11.904,-135.0,33.8,0,17.0,,57651.4,17.35,-0.69,0.71,0.17,1.0,5.8,-1.6,35.38,,,,,,,,,,
15.45.11.917,-186.1,46.5,0,17.0,,57438.1,17.41,-0.68,0.71,0.18,1.0,5.8,-1.6,35.38,,,,,,,,,,
15.45.11.925,-195.2,48.8,0,17.0,,59225.7,16.88,-0.68,0.72,0.18,1.1,5.8,-2.5,35.38,,,,,,,,,,
15.45.11.937,-191.0,47.8,0,17.0,,59053.8,16.93,-0.67,0.72,0.18,1.1,5.7,-2.5,35.38,,,,,,,,,,
15.45.11.945,-176.8,44.2,0,17.0,,57049.0,17.53,-0.67,0.72,0.17,0.8,5.2,-2.0,35.38,,,,,,,,,,
15.45.11.957,-214.9,53.7,0,17.0,,57302.3,17.45,-0.67,0.72,0.18,0.8,4.9,-0.9,35.38,,,,,,,,,,
15.45.11.966,-179.8,45.0,0,17.0,,64568.6,15.49,-0.67,0.72,0.18,1.1,5.4,-0.5,35.38,,,,,,,,,,
15.45.11.978,-7.0,1.8,1,18.0,98.6,55862.3,17.9,-0.67,0.72,0.18,1.9,4.6,-0.1,35.38,,,,,,,,,,
15.45.11.990,182.1,45.5,0,18.0,,56512.3,17.7,-0.67,0.72,0.18,2.0,4.5,0.3,35.38,,,,,,,,,,
15.45.11.998,135.7,33.9,0,18.0,,54455.8,18.36,-0.66,0.73,0.17,1.5,3.7,0.6,35.38,,,,,,,,,,
15.45.12.011,279.2,69.8,0,18.0,,60581.7,16.51,-0.66,0.74,0.17,0.7,3.5,0.8,35.38,,,,,,,,,,
15.45.12.023,397.4,99.4,0,18.0,,53401.5,18.73,-0.67,0.73,0.17,0.3,3.2,1.6,35.38,,,,,,,,,,
15.45.12.031,408.0,102.0,0,18.0,,58354.5,17.14,-0.66,0.73,0.17,0.0,3.2,2.3,35.38,,,,,,,,,,
15.45.12.043,460.7,115.2,0,18.0,,53815.8,18.58,-0.66,0.73,0.16,1.0,3.0,3.0,35.38,,,,,,,,,,
15.45.12.056,412.8,103.2,0,18.0,,63003.6,15.87,-0.66,0.73,0.16,1.9,3.0,3.9,35.38,,,,,,,,,,
15.45.12.068,429.7,107.4,0,18.0,,51447.4,19.44,-0.66,0.74,0.17,2.6,2.9,4.8,35.38,,,,,,,,,,
15.45.12.076,491.5,122.9,0,18.0,,54814.7,18.24,-0.66,0.74,0.17,2.4,3.0,5.3,35.38,,,,,,,,,,
15.45.12.089,447.2,111.8,0,18.0,,56652.7,17.65,-0.67,0.74,0.17,1.4,2.4,6.3,35.38,,,,,,,,,,
15.45.12.101,489.9,122.5,0,18.0,,61170.0,16.35,-0.66,0.73,0.17,0.7,3.0,7.1,35.38,,,,,,,,,,
15.45.12.109,429.7,107.4,0,18.0,,51856.7,19.28,-0.66,0.74,0.17,2.4,3.2,7.8,35.38,,,,,,,,,,
15.45.12.121,372.3,93.1,0,18.0,,57106.1,17.51,-0.66,0.74,0.18,3.2,3.0,8.3,35.38,,,,,,,,,,
15.45.12.134,289.3,72.3,0,18.0,,54737.6,18.27,-0.66,0.74,0.18,4.1,1.5,9.1,35.38,,,,,,,,,,
15.45.12.142,228.5,57.1,0,18.0,,58375.9,17.13,-0.66,0.75,0.17,5.3,1.8,10.0,35.38,,,,,,,,,,
15.45.12.154,204.4,51.1,0,18.0,,57457.2,17.4,-0.66,0.76,0.19,6.8,7.5,10.7,35.38,,,,,,,,,,
15.45.12.166,61.3,15.3,0,18.0,,57009.1,17.54,-0.66,0.78,0.15,2.1,0.1,11.1,35.38,,,,,,,,,,
15.45.12.174,49.1,12.3,0,18.0,,56689.1,17.64,-0.66,0.78,0.19,-1.7,0.5,12.2,35.38,,,,,,,,,,
15.45.12.187,-11.9,3.0,0,18.0,,56527.3,17.69,-0.66,0.81,0.15,-5.0,1.3,14.2,35.38,,,,,,,,,,
15.45.12.199,65.7,16.4,0,18.0,,53812.5,18.58,-0.66,0.82,0.17,-11.4,-2.3,17.1,35.38,,,,,,,,,,
15.45.12.211,6.6,1.6,0,18.0,,50213.3,19.92,-0.66,0.84,0.15,-17.8,1.2,17.3,35.38,,,,,,,,,,
15.45.12.220,102.1,25.5,0,18.0,,56049.2,17.84,-0.65,0.83,0.15,-23.3,0.0,20.3,35.38,,,,,,,,,,
15.45.12.232,68.3,17.1,0,18.0,,58136.8,17.2,-0.63,0.84,0.15,-27.3,1.6,22.5,35.38,,,,,,,,,,
15.45.12.244,87.0,21.8,0,18.0,,59239.1,16.88,-0.63,0.83,0.16,-32.3,4.3,24.5,35.38,,,,,,,,,,
15.45.12.256,58.4,14.6,0,18.0,,55351.2,18.07,-0.63,0.82,0.17,-34.8,5.1,29.2,35.38,,,,,,,,,,
15.45.12.265,-11.5,2.9,0,18.0,,60179.1,16.62,-0.63,0.8,0.2,-35.2,6.4,35.7,35.38,,,,,,,,,,
15.45.12.277,90.0,22.5,0,18.0,,52392.2,19.09,-0.64,0.77,0.22,-31.5,4.8,40.9,35.38,,,,,,,,,,
15.45.12.289,24.5,6.1,0,18.0,,58550.2,17.08,-0.97,0.39,0.45,-4.2,-6.9,7.9,35.38,,,,,,,,,,
15.45.12.297,26.6,6.6,0,18.0,,60533.1,16.52,-0.83,0.5,0.33,-7.6,24.7,-25.1,35.38,,,,,,,,,,
15.45.12.310,-37.0,9.2,0,18.0,,56946.5,17.56,-0.54,0.69,0.38,-11.6,8.7,-10.6,35.38,,,,,,,,,,
15.45.12.322,-57.9,14.5,0,18.0,,56780.1,17.61,-0.62,0.64,0.3,-21.7,11.7,3.4,35.38,,,,,,,,,,
15.45.12.334,-7.1,1.8,0,18.0,,57842.8,17.29,-0.57,0.73,0.28,-18.8,0.5,26.3,35.38,,,,,,,,,,
15.45.12.342,-36.2,9.0,0,18.0,,55419.0,18.04,-0.64,0.7,0.22,-9.7,-0.1,35.8,35.38,,,,,,,,,,
15.45.12.356,-96.3,24.1,0,18.0,,62121.2,16.1,-0.64,0.69,0.22,7.9,1.8,32.2,35.38,,,,,,,,,,
15.45.12.367,-96.7,24.2,0,18.0,,55422.5,18.04,-0.63,0.75,0.2,26.1,0.8,28.5,35.38,,,,,,,,,,
15.45.12.375,,,0,18.0,,,,,,,,,,,,,,,,,,,,
15.45.12.392,,,0,18.0,,,,,,,,,,,,35.36,,,,,,,,
15.45.12.404,-52.2,13.0,0,18.0,,57804.4,17.3,-0.62,0.85,0.23,30.2,-8.7,25.3,35.38,,,,,,,,,,
15.45.12.416,-127.2,31.8,0,18.0,,57831.5,17.29,-0.57,0.83,0.27,16.7,-16.1,19.6,35.38,,,,,,,,,,
15.45.12.424,-37.5,9.4,0,18.0,,55036.6,18.17,-0.63,0.73,0.09,-26.4,-7.4,-12.3,35.38,,,,,,,,,,
15.45.12.437,-119.4,29.8,0,18.0,,54190.7,18.45,-0.42,0.78,0.09,-59.9,-2.4,-13.5,35.38,,,,,,,,,,
15.45.12.445,-79.4,19.8,0,18.0,,57111.9,17.51,-0.53,0.55,0.04,-53.1,-0.5,-14.1,35.38,,,,,,,,,,
15.45.12.457,-139.2,34.8,0,18.0,,53486.9,18.7,-0.55,0.55,0.03,-23.9,10.8,-9.7,35.38,,,,,,,,,,
15.45.12.499,-142.6,35.6,0,18.0,,59233.2,16.88,-0.53,0.59,0.09,-4.1,9.3,-9.7,35.38,,,,,,,,,,
15.45.12.506,-177.8,44.4,0,18.0,,55779.1,17.93,-0.6,0.8,0.21,35.4,25.5,-11.7,35.38,,,,,,,,,,
15.45.12.519,-189.5,47.4,0,18.0,,54945.0,18.2,-0.62,0.86,0.22,26.2,24.9,-12.9,35.38,,,,,,,,,,
15.45.12.527,-152.3,38.1,0,18.0,,61667.6,16.22,-0.64,0.86,0.25,15.1,22.7,-15.7,35.38,,,,,,,,,,
15.45.12.539,-213.6,53.4,0,18.0,,59437.3,16.82,-0.66,0.86,0.25,6.1,22.3,-17.9,35.38,,,,,,,,,,
15.45.12.547,-153.9,38.5,0,18.0,,54122.0,18.48,-0.66,0.85,0.25,-1.1,20.1,-17.9,35.38,,,,,,,,,,
15.45.12.560,23.5,5.9,1,19.0,97.7,53923.7,18.54,-0.67,0.82,0.25,-5.0,18.6,-17.8,35.38,,,,,,,,,,
15.45.12.568,137.0,34.2,0,19.0,,53987.4,18.52,-0.65,0.8,0.22,-7.5,18.7,-15.8,35.38,,,,,,,,,,
15.45.12.580,230.6,57.6,0,19.0,,59784.5,16.73,-0.65,0.76,0.2,-9.1,19.0,-15.2,35.38,,,,,,,,,,
15.45.12.588,265.2,66.3,0,19.0,,55487.3,18.02,-0.64,0.72,0.17,-6.2,20.5,-17.0,35.38,,,,,,,,,,
15.45.12.601,298.6,74.6,0,19.0,,59728.3,16.74,-0.61,0.7,0.15,-0.5,21.6,-16.7,35.38,,,,,,,,,,
15.45.12.613,411.1,102.8,0,19.0,,54522.2,18.34,-0.62,0.69,0.16,1.9,24.2,-17.4,35.38,,,,,,,,,,
15.45.12.621,433.4,108.4,0,19.0,,58954.0,16.96,-0.6,0.69,0.14,0.5,27.5,-16.8,35.38,,,,,,,,,,
15.45.12.633,406.2,101.6,0,19.0,,63741.4,15.69,-0.61,0.68,0.14,0.6,27.5,-15.6,35.38,,,,,,,,,,
15.45.12.642,468.3,117.1,0,19.0,,57046.4,17.53,-0.63,0.69,0.15,1.2,28.7,-13.8,35.38,,,,,,,,,,
15.45.12.654,482.7,120.7,0,19.0,,55188.8,18.12,-0.63,0.72,0.15,-0.2,30.0,-13.0,35.38,,,,,,,,,,
15.45.12.662,518.1,129.5,0,19.0,,55499.5,18.02,-0.62,0.72,0.14,-4.7,28.0,-14.7,35.38,,,,,,,,,,
15.45.12.674,495.7,123.9,0,19.0,,59619.1,16.77,-0.63,0.72,0.15,-12.2,27.0,-20.1,35.38,,,,,,,,,,
15.45.12.683,429.8,107.4,0,19.0,,54404.9,18.38,-0.63,0.72,0.17,-18.5,26.1,-26.8,35.38,,,,,,,,,,
15.45.12.695,428.8,107.2,0,19.0,,58126.4,17.2,-0.63,0.72,0.17,-20.0,27.0,-34.0,35.38,,,,,,,,,,
15.45.12.703,387.5,96.9,0,19.0,,63823.3,15.67,-0.63,0.7,0.17,-23.1,25.6,-41.0,35.38,,,,,,,,,,
15.45.12.715,226.7,56.7,0,19.0,,62321.5,16.05,-0.62,0.69,0.18,-25.9,22.0,-45.8,35.38,,,,,,,,,,
15.45.12.724,311.5,77.9,0,19.0,,60446.6,16.54,-0.62,0.66,0.18,-26.7,18.9,-47.3,35.38,,,,,,,,,,
15.45.12.737,151.1,37.8,0,19.0,,58154.4,17.2,-0.62,0.65,0.19,-26.2,16.6,-45.5,35.38,,,,,,,,,,
15.45.12.748,42.6,10.6,0,19.0,,55591.5,17.99,-0.63,0.65,0.21,-25.3,15.5,-43.0,35.38,,,,,,,,,,
15.45.12.756,77.7,19.4,0,19.0,,57151.1,17.5,-0.66,0.63,0.2,-24.4,14.4,-40.9,35.38,,,,,,,,,,
15.45.12.769,1.0,0.2,0,19.0,,50748.5,19.71,-0.68,0.61,0.2,-21.3,13.6,-39.3,35.38,,,,,,,,,,
15.45.12.777,64.4,16.1,0,19.0,,54976.2,18.19,-0.7,0.6,0.2,-15.2,13.7,-37.7,35.38,,,,,,,,,,
15.45.12.789,70.3,17.6,0,19.0,,62357.1,16.04,-0.71,0.6,0.21,-7.6,13.6,-37.5,35.38,,,,,,,,,,
15.45.12.797,109.4,27.4,0,19.0,,65263.0,15.32,-0.73,0.61,0.21,-0.5,12.7,-37.7,35.38,,,,,,,,,,
15.45.12.810,82.0,20.5,0,19.0,,56844.3,17.59,-0.73,0.64,0.22,3.9,11.7,-38.2,35.38,,,,,,,,,,
15.45.12.818,105.5,26.4,0,19.0,,47690.4,20.97,-0.74,0.66,0.23,4.7,9.3,-40.0,35.38,,,,,,,,,,
15.45.12.830,77.3,19.3,0,19.0,,56835.0,17.59,-0.74,0.67,0.22,3.5,8.3,-41.2,35.38,,,,,,,,,,
15.45.12.838,68.2,17.0,0,19.0,,61912.7,16.15,-0.74,0.68,0.22,3.0,7.2,-40.4,35.38,,,,,,,,,,
15.45.12.851,84.4,21.1,0,19.0,,60232.1,16.6,-0.75,0.68,0.2,2.9,5.7,-39.9,35.38,,,,,,,,,,
15.45.12.863,-1.2,0.3,0,19.0,,61850.3,16.17,-0.75,0.68,0.19,4.4,5.2,-38.1,35.38,,,,,,,,,,
15.45.12.871,-35.9,9.0,0,19.0,,57172.5,17.49,-0.74,0.69,0.19,7.2,4.2,-36.2,35.38,,,,,,,,,,
15.45.12.884,-8.2,2.0,0,19.0,,57599.6,17.36,-0.75,0.7,0.2,10.2,5.3,-34.2,35.38,,,,,,,,,,
15.45.12.891,-40.6,10.2,0,19.0,,54892.1,18.22,-0.76,0.71,0.21,11.3,5.3,-32.0,35.38,,,,,,,,,,
15.45.12.904,-6.3,1.6,0,19.0,,59162.3,16.9,-0.76,0.71,0.19,10.4,5.8,-30.4,35.38,,,,,,,,,,
15.45.12.912,-41.1,10.3,0,19.0,,56623.8,17.66,-0.76,0.71,0.2,7.7,5.3,-27.8,35.38,,,,,,,,,,
15.45.12.924,-35.5,8.9,0,19.0,,58118.5,17.21,-0.77,0.71,0.2,6.5,4.4,-25.2,35.38,,,,,,,,,,
15.45.12.933,-119.4,29.8,0,19.0,,58560.1,17.08,-0.77,0.69,0.21,5.0,3.9,-23.0,35.38,,,,,,,,,,
15.45.12.945,-47.4,11.8,0,19.0,,56460.1,17.71,-0.78,0.68,0.21,3.1,3.7,-21.7,35.38,,,,,,,,,,
15.45.12.953,-122.4,30.6,0,19.0,,62118.7,16.1,-0.77,0.66,0.22,4.4,2.1,-20.3,35.38,,,,,,,,,,
15.45.12.966,-120.4,30.1,0,19.0,,59390.3,16.84,-0.77,0.65,0.23,6.9,2.2,-18.5,35.38,,,,,,,,,,
15.45.12.973,-109.7,27.4,0,19.0,,56777.2,17.61,-0.76,0.63,0.21,12.2,2.2,-18.0,35.38,,,,,,,,,,
15.45.12.986,-32.5,8.1,0,19.0,,54968.2,18.19,-0.76,0.62,0.2,12.6,2.5,-16.8,35.38,,,,,,,,,,
15.45.12.994,-54.7,13.7,0,19.0,,54131.3,18.47,-0.76,0.61,0.19,15.8,2.4,-15.9,35.38,,,,,,,,,,
15.45.13.006,-97.8,24.4,0,19.0,,54977.3,18.19,-0.74,0.61,0.18,18.5,3.1,-14.7,35.38,,,,,,,,,,
15.45.13.014,-71.5,17.9,0,19.0,,56110.3,17.82,-0.74,0.6,0.17,20.0,3.5,-13.7,35.38,,,,,,,,,,
15.45.13.027,-154.7,38.7,0,19.0,,55119.4,18.14,-0.73,0.6,0.15,21.6,4.8,-12.4,35.38,,,,,,,,,,
15.45.13.039,-126.5,31.6,0,19.0,,53440.8,18.71,-0.74,0.6,0.15,22.7,5.8,-11.1,35.38,,,,,,,,,,
15.45.13.047,-138.5,34.6,0,19.0,,61112.0,16.36,-0.75,0.61,0.15,19.6,6.8,-9.8,35.38,,,,,,,,,,
15.45.13.060,-183.8,46.0,0,19.0,,56401.0,17.73,-0.74,0.62,0.16,16.9,7.1,-10.3,35.38,,,,,,,,,,
15.45.13.068,-147.0,36.8,0,19.0,,59723.7,16.74,-0.76,0.61,0.16,11.2,6.7,-11.8,35.38,,,,,,,,,,
15.45.13.080,-111.3,27.8,0,19.0,,56322.6,17.75,-0.76,0.59,0.15,5.9,5.1,-13.2,35.38,,,,,,,,,,
15.45.13.088,-189.7,47.4,0,19.0,,52592.6,19.01,-0.74,0.58,0.15,3.8,4.3,-13.8,35.38,,,,,,,,,,
15.45.13.101,-178.8,44.7,0,19.0,,52277.8,19.13,-0.74,0.56,0.14,4.1,3.2,-13.3,35.38,,,,,,,,,,
15.45.13.113,-187.4,46.8,0,19.0,,54177.2,18.46,-0.73,0.54,0.13,7.7,3.3,-12.1,35.38,,,,,,,,,,
15.45.13.122,-169.1,42.3,0,19.0,,59345.8,16.85,-0.73,0.54,0.12,12.4,4.0,-9.8,35.38,,,,,,,,,,
15.45.13.133,-164.6,41.2,0,19.0,,57456.5,17.4,-0.72,0.55,0.11,15.2,4.4,-6.9,35.38,,,,,,,,,,
15.45.13.142,77.5,19.4,1,20.0,103.5,60172.8,16.62,-0.74,0.56,0.1,16.7,5.2,-5.7,35.38,,,,,,,,,,
15.45.13.154,134.9,33.7,0,20.0,,57112.4,17.51,-0.74,0.55,0.11,17.6,4.1,-3.7,35.38,,,,,,,,,,
15.45.13.162,196.2,49.0,0,20.0,,55869.4,17.9,-0.75,0.57,0.11,18.0,5.5,-1.4,35.38,,,,,,,,,,
15.45.13.174,315.7,78.9,0,20.0,,59868.0,16.7,-0.77,0.57,0.11,15.5,6.8,-0.3,35.38,,,,,,,,,,
15.45.13.182,295.8,74.0,0,20.0,,59409.2,16.83,-0.79,0.58,0.11,13.8,8.4,-0.6,35.38,,,,,,,,,,
15.45.13.195,394.8,98.7,0,20.0,,58256.7,17.17,-0.8,0.57,0.11,12.8,9.7,-1.0,35.38,,,,,,,,,,
15.45.13.207,442.2,110.6,0,20.0,,59747.8,16.74,-0.81,0.57,0.12,14.0,12.4,-2.1,35.38,,,,,,,,,,
15.45.13.215,447.1,111.8,0,20.0,,54066.5,18.5,-0.82,0.58,0.13,13.3,13.2,-3.3,35.38,,,,,,,,,,
15.45.13.227,527.2,131.8,0,20.0,,56703.9,17.64,-0.83,0.59,0.14,13.1,14.4,-5.8,35.38,,,,,,,,,,
15.45.13.236,495.6,123.9,0,20.0,,60408.7,16.55,-0.83,0.6,0.15,11.7,15.1,-7.6,35.38,,,,,,,,,,
15.45.13.248,493.9,123.5,0,20.0,,57412.4,17.42,-0.83,0.6,0.16,9.1,14.7,-8.4,35.38,,,,,,,,,,
15.45.13.256,438.7,109.7,0,20.0,,60779.1,16.45,-0.83,0.61,0.16,6.9,14.5,-9.3,35.38,,,,,,,,,,
15.45.13.268,375.7,93.9,0,20.0,,59918.5,16.69,-0.83,0.61,0.17,4.4,13.2,-9.1,35.38,,,,,,,,,,
15.45.13.305,264.6,66.2,0,20.0,,61098.5,16.37,-0.83,0.61,0.17,4.1,13.2,-9.0,35.38,,,,,,,,,,
15.45.13.313,140.4,35.1,0,20.0,,62373.8,16.03,-0.81,0.63,0.19,6.2,10.9,-7.4,35.38,,,,,,,,,,
15.45.13.326,170.1,42.5,0,20.0,,55313.4,18.08,-0.81,0.63,0.18,6.5,9.6,-7.2,35.38,,,,,,,,,,
15.45.13.334,65.7,16.4,0,20.0,,65381.8,15.29,-0.8,0.64,0.18,6.6,8.5,-7.2,35.38,,,,,,,,,,
15.45.13.346,0.2,0.0,0,20.0,,57673.1,17.34,-0.79,0.64,0.17,6.5,7.0,-6.5,35.38,,,,,,,,,,
15.45.13.354,75.7,18.9,0,20.0,,58465.0,17.1,-0.79,0.64,0.16,6.5,5.9,-5.2,35.38,,,,,,,,,,
15.45.13.367,94.3,23.6,0,20.0,,61451.9,16.27,-0.78,0.64,0.16,7.0,3.2,-3.7,35.38,,,,,,,,,,
15.45.13.379,100.9,25.2,0,20.0,,58246.0,17.17,-0.77,0.64,0.15,6.6,1.5,-1.5,35.38,,,,,,,,,,
15.45.13.387,43.7,10.9,0,20.0,,58874.4,16.99,-0.77,0.63,0.14,6.7,-0.5,0.9,35.38,,,,,,,,,,
15.45.13.399,36.7,9.2,0,20.0,,61457.4,16.27,-0.77,0.63,0.13,6.8,-2.2,3.4,35.38,,,,,,,,,,
15.45.13.408,132.9,33.2,0,20.0,,52281.2,19.13,-0.77,0.63,0.12,7.0,-2.5,5.7,35.38,,,,,,,,,,
15.45.13.420,28.0,7.0,0,20.0,,60399.9,16.56,-0.78,0.62,0.12,6.5,-3.2,7.0,35.38,,,,,,,,,,
15.45.13.428,64.7,16.2,0,20.0,,57176.8,17.49,-0.79,0.62,0.11,5.5,-3.8,6.7,35.38,,,,,,,,,,
15.45.13.440,35.7,8.9,0,20.0,,58550.9,17.08,-0.8,0.61,0.11,4.8,-4.2,5.4,35.38,,,,,,,,,,
15.45.13.449,14.5,3.6,0,20.0,,60429.0,16.55,-0.8,0.61,0.1,4.3,-5.4,3.9,35.38,,,,,,,,,,
15.45.13.461,-3.4,0.8,0,20.0,,53073.9,18.84,-0.8,0.6,0.11,4.4,-6.3,2.3,35.38,,,,,,,,,,
15.45.13.469,-14.8,3.7,0,20.0,,51278.0,19.5,-0.79,0.6,0.11,3.8,-7.7,2.0,35.38,,,,,,,,,,
15.45.13.481,-7.2,1.8,0,20.0,,63205.0,15.82,-0.79,0.59,0.12,2.8,-7.3,3.3,35.38,,,,,,,,,,
15.45.13.490,-32.8,8.2,0,20.0,,59562.1,16.79,-0.79,0.58,0.13,2.4,-7.3,4.1,35.38,,,,,,,,,,
15.45.13.502,-32.5,8.1,0,20.0,,52210.0,19.15,-0.79,0.59,0.13,2.5,-7.0,4.8,35.38,,,,,,,,,,
15.45.13.510,-73.4,18.4,0,20.0,,64680.9,15.46,-0.8,0.59,0.14,1.5,-6.6,4.8,35.38,,,,,,,,,,
15.45.13.522,-58.4,14.6,0,20.0,,57342.2,17.44,-0.8,0.58,0.14,1.1,-7.2,3.9,35.38,,,,,,,,,,
15.45.13.532,-63.0,15.8,0,20.0,,58130.1,17.2,-0.8,0.57,0.15,0.7,-6.5,2.8,35.38,,,,,,,,,,
15.45.13.543,-67.7,16.9,0,20.0,,60293.6,16.59,-0.79,0.56,0.15,1.6,-5.7,2.2,35.38,,,,,,,,,,
15.45.13.551,-71.2,17.8,0,20.0,,58470.5,17.1,-0.8,0.56,0.15,0.7,-4.6,1.1,35.38,,,,,,,,,,
15.45.13.563,-53.6,13.4,0,20.0,,51473.8,19.43,-0.79,0.55,0.16,1.1,-3.9,-0.4,35.38,,,,,,,,,,
15.45.13.572,-79.9,20.0,0,20.0,,50588.3,19.77,-0.8,0.54,0.17,1.3,-2.6,-2.1,35.38,,,,,,,,,,
15.45.13.584,-46.1,11.5,0,20.0,,66118.8,15.12,-0.8,0.55,0.18,1.5,-2.6,-3.3,35.38,,,,,,,,,,
15.45.13.592,-79.8,20.0,0,20.0,,60720.6,16.47,-0.79,0.55,0.17,0.3,-2.3,-5.3,35.38,,,,,,,,,,
15.45.13.604,-82.4,20.6,0,20.0,,58580.0,17.07,-0.79,0.55,0.17,-1.7,-2.1,-7.0,35.38,,,,,,,,,,
15.45.13.617,-172.3,43.1,0,20.0,,54950.1,18.2,-0.78,0.54,0.15,-2.3,-2.4,-8.4,35.38,,,,,,,,,,
15.45.13.625,-53.4,13.4,0,20.0,,57741.1,17.32,-0.78,0.53,0.14,-1.0,-0.5,-9.3,35.38,,,,,,,,,,
15.45.13.637,-136.8,34.2,0,20.0,,53550.0,18.67,-0.78,0.54,0.14,1.0,0.7,-9.9,35.38,,,,,,,,,,
15.45.13.645,-78.4,19.6,0,20.0,,60028.4,16.66,-0.77,0.55,0.13,4.3,3.4,-10.1,35.38,,,,,,,,,,
15.45.13.658,-109.2,27.3,0,20.0,,54519.0,18.34,-0.77,0.56,0.13,6.6,4.8,-10.3,35.38,,,,,,,,,,
15.45.13.667,-127.0,31.8,0,20.0,,55599.5,17.99,-0.79,0.56,0.14,6.9,4.5,-10.3,35.38,,,,,,,,,,
15.45.13.678,-180.2,45.0,0,20.0,,62499.7,16.0,-0.78,0.58,0.13,8.9,6.4,-10.2,35.38,,,,,,,,,,
15.45.13.686,-231.9,58.0,0,20.0,,56219.9,17.79,-0.79,0.59,0.13,9.3,7.8,-10.6,35.38,,,,,,,,,,
15.45.13.699,-231.8,58.0,0,20.0,,58293.0,17.15,-0.79,0.6,0.14,8.3,9.0,-11.3,35.38,,,,,,,,,,
15.45.13.707,-200.9,50.2,0,20.0,,55435.4,18.04,-0.79,0.61,0.15,6.8,8.1,-11.3,35.38,,,,,,,,,,
15.45.13.719,-184.0,46.0,0,20.0,,56719.2,17.63,-0.79,0.61,0.14,5.5,6.3,-10.9,35.38,,,,,,,,,,
15.45.13.731,106.9,26.7,1,21.0,100.2,54576.8,18.32,-0.79,0.62,0.13,4.9,4.7,-9.8,35.38,,,,,,,,,,
15.45.13.739,118.1,29.5,0,21.0,,65076.2,15.37,-0.79,0.62,0.14,5.1,5.5,-7.5,35.38,,,,,,,,,,
15.45.13.753,257.6,64.4,0,21.0,,54222.8,18.44,-0.79,0.62,0.13,4.7,5.9,-5.3,35.38,,,,,,,,,,
15.45.13.760,350.1,87.5,0,21.0,,58966.7,16.96,-0.79,0.61,0.13,5.9,5.8,-3.3,35.38,,,,,,,,,,
15.45.13.772,399.5,99.9,0,21.0,,59636.3,16.77,-0.79,0.61,0.14,8.6,6.8,-1.1,35.38,,,,,,,,,,
15.45.13.780,371.5,92.9,0,21.0,,58694.5,17.04,-0.79,0.62,0.14,10.0,7.2,0.5,35.38,,,,,,,,,,
15.45.13.793,435.8,109.0,0,21.0,,57129.6,17.5,-0.79,0.62,0.15,9.6,6.6,0.9,35.38,,,,,,,,,,
15.45.13.802,489.0,122.2,0,21.0,,57764.3,17.31,-0.79,0.63,0.14,6.6,4.5,1.5,35.38,,,,,,,,,,
15.45.13.813,499.8,125.0,0,21.0,,59655.3,16.76,-0.79,0.62,0.15,4.4,6.2,1.4,35.38,,,,,,,,,,
15.45.13.822,494.0,123.5,0,21.0,,52951.8,18.89,-0.79,0.62,0.16,1.8,4.1,1.5,35.38,,,,,,,,,,
15.45.13.834,476.6,119.2,0,21.0,,52998.1,18.87,-0.79,0.6,0.16,0.3,1.7,1.5,35.38,,,,,,,,,,
15.45.13.842,447.3,111.8,0,21.0,,55618.6,17.98,-0.79,0.59,0.15,0.2,0.5,2.3,35.38,,,,,,,,,,
15.45.13.854,566.5,141.6,0,21.0,,56347.4,17.75,-0.78,0.59,0.15,0.9,1.1,3.8,35.38,,,,,,,,,,
15.45.13.863,369.0,92.2,0,21.0,,55743.8,17.94,-0.77,0.58,0.14,3.2,1.9,4.4,35.38,,,,,,,,,,
15.45.13.875,343.3,85.8,0,21.0,,57434.2,17.41,-0.77,0.58,0.13,5.5,2.4,4.5,35.38,,,,,,,,,,
15.45.13.883,300.5,75.1,0,21.0,,56582.7,17.67,-0.78,0.58,0.13,6.2,4.1,4.3,35.38,,,,,,,,,,
15.45.13.895,140.7,35.2,0,21.0,,56500.9,17.7,-0.78,0.58,0.13,6.6,4.4,3.7,35.38,,,,,,,,,,
15.45.13.903,163.5,40.9,0,21.0,,55400.4,18.05,-0.78,0.57,0.14,6.8,4.2,2.7,35.38,,,,,,,,,,
15.45.13.916,84.1,21.0,0,21.0,,58062.4,17.22,-0.78,0.57,0.12,6.5,5.4,1.6,35.38,,,,,,,,,,
15.45.13.928,18.4,4.6,0,21.0,,57751.7,17.32,-0.78,0.57,0.13,6.1,5.4,0.8,35.38,,,,,,,,,,
15.45.13.937,35.4,8.8,0,21.0,,60178.2,16.62,-0.78,0.57,0.13,5.2,5.8,-0.4,35.38,,,,,,,,,,
15.45.13.948,68.1,17.0,0,21.0,,55228.9,18.11,-0.78,0.57,0.14,4.1,5.5,-1.8,35.38,,,,,,,,,,
15.45.13.961,87.7,21.9,0,21.0,,56864.6,17.59,-0.78,0.57,0.14,3.5,5.6,-2.9,35.38,,,,,,,,,,
15.45.13.973,42.5,10.6,0,21.0,,52276.4,19.13,-0.79,0.57,0.13,3.0,6.0,-4.1,35.38,,,,,,,,,,
15.45.13.981,78.4,19.6,0,21.0,,61299.5,16.31,-0.78,0.58,0.14,2.5,5.6,-5.0,35.38,,,,,,,,,,
15.45.13.993,55.3,13.8,0,21.0,,59858.2,16.71,-0.79,0.57,0.13,2.5,5.9,-6.0,35.38,,,,,,,,,,
15.45.14.006,87.6,21.9,0,21.0,,62408.3,16.02,-0.79,0.57,0.14,2.4,5.9,-6.4,35.38,,,,,,,,,,
15.45.14.014,62.8,15.7,0,21.0,,59870.9,16.7,-0.78,0.58,0.15,3.9,6.4,-6.6,35.38,,,,,,,,,,
15.45.14.026,36.7,9.2,0,21.0,,58484.9,17.1,-0.79,0.58,0.13,4.0,6.3,-6.4,35.38,,,,,,,,,,
15.45.14.038,-22.1,5.5,0,21.0,,58510.5,17.09,-0.79,0.58,0.14,5.1,6.0,-5.8,35.38,,,,,,,,,,
15.45.14.047,17.5,4.4,0,21.0,,60292.2,16.59,-0.8,0.58,0.14,5.9,5.8,-4.7,35.38,,,,,,,,,,
15.45.14.059,-25.1,6.3,0,21.0,,55870.4,17.9,-0.8,0.6,0.16,6.0,6.0,-3.7,35.38,,,,,,,,,,
15.45.14.071,-42.3,10.6,0,21.0,,59124.1,16.91,-0.81,0.61,0.16,5.1,5.7,-3.7,35.38,,,,,,,,,,
15.45.14.113,-74.1,18.5,0,21.0,,60798.5,16.45,-0.8,0.6,0.13,0.9,5.1,-3.5,35.38,,,,,,,,,,
15.45.14.121,-108.9,27.2,0,21.0,,56438.0,17.72,-0.81,0.6,0.14,0.3,4.6,-2.5,35.38,,,,,,,,,,
15.45.14.133,-37.3,9.3,0,21.0,,56507.9,17.7,-0.81,0.61,0.14,1.2,5.0,-2.5,35.38,,,,,,,,,,
15.45.14.145,-55.0,13.8,0,21.0,,50604.7,19.76,-0.8,0.61,0.14,0.5,4.0,-1.8,35.38,,,,,,,,,,
15.45.14.153,-3.9,1.0,0,21.0,,59104.4,16.92,-0.8,0.6,0.14,0.7,2.8,-1.6,35.38,,,,,,,,,,
15.45.14.165,-105.5,26.4,0,21.0,,62473.6,16.01,-0.79,0.61,0.14,2.3,3.6,-0.7,35.38,,,,,,,,,,
15.45.14.178,-137.8,34.4,0,21.0,,58131.8,17.2,-0.79,0.59,0.13,1.4,4.1,1.1,35.38,,,,,,,,,,
15.45.14.186,-110.0,27.5,0,21.0,,57354.9,17.44,-0.78,0.6,0.14,1.9,3.9,1.1,35.38,,,,,,,,,,
15.45.14.199,-121.3,30.3,0,21.0,,54266.2,18.43,-0.79,0.59,0.13,1.7,3.8,3.0,35.38,,,,,,,,,,
15.45.14.211,-123.5,30.9,0,21.0,,61298.8,16.31,-0.79,0.59,0.13,1.4,5.0,2.5,35.38,,,,,,,,,,
15.45.14.219,-141.2,35.3,0,21.0,,60949.2,16.41,-0.78,0.58,0.12,-0.2,5.0,2.3,35.38,,,,,,,,,,
15.45.14.231,-164.4,41.1,0,21.0,,61745.6,16.2,-0.78,0.58,0.13,0.4,5.7,1.9,35.38,,,,,,,,,,
15.45.14.243,-179.2,44.8,0,21.0,,61089.7,16.37,-0.78,0.58,0.12,0.7,6.5,2.2,35.38,,,,,,,,,,
15.45.14.256,-101.4,25.4,0,21.0,,60218.6,16.61,-0.78,0.58,0.13,1.0,5.9,1.5,35.38,,,,,,,,,,
15.45.14.264,-241.8,60.4,0,21.0,,54237.0,18.44,-0.78,0.57,0.13,1.6,7.3,0.9,35.38,,,,,,,,,,
15.45.14.276,-139.0,34.8,0,21.0,,53281.4,18.77,-0.79,0.58,0.13,2.6,7.0,1.5,35.38,,,,,,,,,,
15.45.14.288,-141.9,35.5,0,21.0,,58130.8,17.2,-0.78,0.57,0.13,3.9,8.1,0.9,35.38,,,,,,,,,,
15.45.14.301,-173.7,43.4,0,21.0,,58243.5,17.17,-0.79,0.58,0.13,3.9,7.7,0.4,35.38,,,,,,,,,,
15.45.14.309,40.3,10.1,1,22.0,105.2,50899.4,19.65,-0.79,0.58,0.14,3.3,8.0,-0.2,35.38,,,,,,,,,,
15.45.14.321,123.0,30.8,0,22.0,,59945.7,16.68,-0.79,0.58,0.14,3.1,7.9,-1.0,35.38,,,,,,,,,,
15.45.14.329,157.7,39.4,0,22.0,,62902.8,15.9,-0.8,0.58,0.14,2.4,8.3,-1.6,35.38,,,,,,,,,,
15.45.14.342,278.9,69.7,0,22.0,,61320.0,16.31,-0.8,0.59,0.13,1.7,7.6,-2.4,35.38,,,,,,,,,,
15.45.14.350,300.3,75.1,0,22.0,,59510.8,16.8,-0.8,0.59,0.14,1.1,7.2,-3.1,35.38,,,,,,,,,,
15.45.14.362,428.0,107.0,0,22.0,,55489.8,18.02,-0.8,0.59,0.14,0.6,7.2,-2.9,35.38,,,,,,,,,,
15.45.14.370,380.4,95.1,0,22.0,,54485.6,18.35,-0.79,0.58,0.14,0.8,7.1,-3.0,35.38,,,,,,,,,,
15.45.14.383,413.6,103.4,0,22.0,,57474.4,17.4,-0.78,0.59,0.13,1.1,6.9,-2.8,35.38,,,,,,,,,,
15.45.14.391,519.3,129.8,0,22.0,,62043.3,16.12,-0.79,0.59,0.13,2.0,7.4,-2.3,35.38,,,,,,,,,,
15.45.14.403,437.6,109.4,0,22.0,,60984.7,16.4,-0.78,0.59,0.13,3.2,7.5,-1.4,35.38,,,,,,,,,,
15.45.14.411,500.8,125.2,0,22.0,,52058.1,19.21,-0.78,0.59,0.13,3.9,7.7,-0.8,35.38,,,,,,,,,,
15.45.14.424,497.0,124.2,0,22.0,,55263.2,18.1,-0.78,0.6,0.12,4.4,7.8,0.4,35.38,,,,,,,,,,
15.45.14.432,462.0,115.5,0,22.0,,49916.1,20.03,-0.78,0.6,0.12,5.0,7.6,1.4,35.38,,,,,,,,,,
15.45.14.444,457.4,114.4,0,22.0,,53954.2,18.53,-0.78,0.6,0.11,5.7,7.7,2.6,35.38,,,,,,,,,,
15.45.14.452,341.3,85.3,0,22.0,,56614.9,17.66,-0.77,0.6,0.11,6.5,7.5,4.0,35.38,,,,,,,,,,
15.45.14.465,262.1,65.5,0,22.0,,54599.3,18.32,-0.77,0.61,0.11,5.5,7.8,5.3,35.38,,,,,,,,,,
15.45.14.473,305.3,76.3,0,22.0,,59053.3,16.93,-0.77,0.61,0.11,5.0,7.8,6.5,35.38,,,,,,,,,,
15.45.14.485,187.8,47.0,0,22.0,,59016.5,16.94,-0.77,0.61,0.12,5.0,7.9,8.0,35.38,,,,,,,,,,
15.45.14.493,24.3,6.1,0,22.0,,58721.0,17.03,-0.77,0.61,0.1,4.7,8.2,9.2,35.38,,,,,,,,,,
15.45.14.506,-16.9,4.2,0,22.0,,62471.8,16.01,-0.78,0.61,0.1,4.6,8.3,10.0,35.38,,,,,,,,,,
15.45.14.514,19.6,4.9,0,22.0,,58953.1,16.96,-0.78,0.61,0.1,3.1,9.0,10.5,35.38,,,,,,,,,,
15.45.14.526,25.8,6.4,0,22.0,,57380.1,17.43,-0.78,0.62,0.11,1.6,9.3,10.4,35.38,,,,,,,,,,
15.45.14.534,57.2,14.3,0,22.0,,57291.5,17.45,-0.79,0.61,0.12,0.7,9.1,10.2,35.38,,,,,,,,,,
15.45.14.547,109.9,27.5,0,22.0,,59640.9,16.77,-0.8,0.61,0.12,-1.1,9.3,8.7,35.38,,,,,,,,,,
15.45.14.555,87.6,21.9,0,22.0,,59090.9,16.92,-0.8,0.61,0.14,-2.1,8.9,6.8,35.38,,,,,,,,,,
15.45.14.567,127.7,31.9,0,22.0,,61143.5,16.35,-0.8,0.6,0.14,-3.7,8.6,4.1,35.38,,,,,,,,,,
15.45.14.575,118.0,29.5,0,22.0,,51670.7,19.35,-0.8,0.6,0.15,-4.8,7.8,1.5,35.38,,,,,,,,,,
15.45.14.588,97.7,24.4,0,22.0,,62107.5,16.1,-0.79,0.59,0.15,-4.3,6.6,0.4,35.38,,,,,,,,,,
15.45.14.596,24.2,6.0,0,22.0,,53430.1,18.72,-0.79,0.59,0.16,-3.1,6.7,-1.0,35.38,,,,,,,,,,
15.45.14.608,31.2,7.8,0,22.0,,59016.1,16.94,-0.79,0.58,0.15,-2.3,6.5,-1.9,35.38,,,,,,,,,,
15.45.14.620,51.7,12.9,0,22.0,,60170.0,16.62,-0.78,0.58,0.15,-0.8,6.8,-2.0,35.38,,,,,,,,,,
15.45.14.628,8.5,2.1,0,22.0,,59307.1,16.86,-0.78,0.59,0.15,1.3,6.6,-2.3,35.38,,,,,,,,,,
15.45.14.641,-30.3,7.6,0,22.0,,58359.9,17.14,-0.79,0.59,0.14,3.8,6.7,-1.9,35.38,,,,,,,,,,
15.45.14.649,-120.6,30.2,0,22.0,,58794.6,17.01,-0.78,0.6,0.14,4.2,6.4,-2.2,35.38,,,,,,,,,,
15.45.14.661,-60.2,15.0,0,22.0,,55283.4,18.09,-0.79,0.61,0.13,2.9,6.1,-3.0,35.38,,,,,,,,,,
15.45.14.670,-5.6,1.4,0,22.0,,58309.4,17.15,-0.78,0.61,0.13,2.0,5.9,-3.3,35.38,,,,,,,,,,
15.45.14.682,-42.4,10.6,0,22.0,,59502.0,16.81,-0.78,0.61,0.11,1.5,5.4,-3.0,35.38,,,,,,,,,,
15.45.14.690,-60.6,15.2,0,22.0,,59927.8,16.69,-0.78,0.61,0.1,0.6,5.6,-2.8,35.38,,,,,,,,,,
15.45.14.702,-16.7,4.2,0,22.0,,58427.1,17.12,-0.78,0.62,0.11,-0.1,5.1,-1.9,35.38,,,,,,,,,,
15.45.14.710,-76.0,19.0,0,22.0,,60761.1,16.46,-0.78,0.61,0.11,0.4,5.2,-1.1,35.38,,,,,,,,,,
15.45.14.724,-67.3,16.8,0,22.0,,61080.9,16.37,-0.77,0.61,0.1,0.7,5.3,-0.5,35.38,,,,,,,,,,
15.45.14.731,-128.0,32.0,0,22.0,,59662.1,16.76,-0.77,0.61,0.11,0.9,5.8,-0.1,35.38,,,,,,,,,,
15.45.14.743,-45.4,11.4,0,22.0,,58984.8,16.95,-0.77,0.61,0.11,1.0,6.1,0.4,35.38,,,,,,,,,,
15.45.14.752,-134.0,33.5,0,22.0,,53744.4,18.61,-0.77,0.61,0.11,1.5,6.9,1.0,35.38,,,,,,,,,,
15.45.14.764,-190.5,47.6,0,22.0,,54107.8,18.48,-0.77,0.61,0.11,1.4,6.8,1.2,35.38,,,,,,,,,,
15.45.14.772,-139.1,34.8,0,22.0,,62105.1,16.1,-0.78,0.61,0.12,0.9,6.9,1.5,35.38,,,,,,,,,,
15.45.14.784,-97.4,24.4,0,22.0,,58030.1,17.23,-0.78,0.61,0.12,1.1,6.8,1.2,35.38,,,,,,,,,,
15.45.14.792,-114.7,28.7,0,22.0,,60578.0,16.51,-0.78,0.61,0.12,0.6,7.0,1.5,35.38,,,,,,,,,,
15.45.14.805,-128.3,32.1,0,22.0,,62837.9,15.91,-0.79,0.61,0.13,0.8,7.0,1.0,35.38,,,,,,,,,,
15.45.14.813,-141.9,35.5,0,22.0,,57356.0,17.43,-0.78,0.61,0.13,-0.2,6.7,0.3,35.38,,,,,,,,,,
15.45.14.825,-191.3,47.8,0,22.0,,61680.5,16.21,-0.78,0.61,0.13,-0.3,6.3,-0.5,35.38,,,,,,,,,,
15.45.14.834,-158.7,39.7,0,22.0,,56856.3,17.59,-0.78,0.61,0.13,-0.9,6.0,-0.7,35.38,,,,,,,,,,
15.45.14.846,-129.3,32.3,0,22.0,,53708.0,18.62,-0.78,0.6,0.13,-0.4,6.3,-0.9,35.38,,,,,,,,,,
15.45.14.854,-143.2,35.8,0,22.0,,59549.8,16.79,-0.78,0.61,0.13,0.1,5.8,-0.8,35.38,,,,,,,,,,
15.45.14.866,-187.2,46.8,0,22.0,,61662.3,16.22,-0.77,0.61,0.12,0.3,6.1,-0.9,35.38,,,,,,,,,,
15.45.14.874,-210.8,52.7,0,22.0,,62135.5,16.09,-0.78,0.61,0.12,-0.2,6.0,-0.8,35.38,,,,,,,,,,
15.45.14.911,143.4,35.8,1,23.0,103.0,58274.3,17.16,-0.77,0.61,0.11,-0.1,5.8,-1.2,35.38,,,,,,,,,,
15.45.14.928,345.4,86.4,0,23.0,,56484.1,17.7,-0.78,0.61,0.11,0.1,6.1,-0.6,35.38,,,,,,,,,,
15.45.14.937,395.5,98.9,0,23.0,,54859.4,18.23,-0.78,0.6,0.11,0.5,6.5,-0.4,35.38,,,,,,,,,,
15.45.14.948,409.6,102.4,0,23.0,,54977.5,18.19,-0.78,0.6,0.12,0.6,6.7,-0.9,35.38,,,,,,,,,,
15.45.14.956,437.0,109.2,0,23.0,,58714.0,17.03,-0.78,0.61,0.11,-0.1,6.4,-1.3,35.38,,,,,,,,,,
15.45.14.969,508.7,127.2,0,23.0,,66800.2,14.97,-0.78,0.6,0.11,0.5,7.1,-1.1,35.38,,,,,,,,,,
15.45.14.977,507.7,126.9,0,23.0,,59326.6,16.86,-0.78,0.61,0.12,1.2,7.1,-0.7,35.38,,,,,,,,,,
15.45.14.989,481.2,120.3,0,23.0,,58864.3,16.99,-0.78,0.6,0.13,1.1,6.9,-0.9,35.38,,,,,,,,,,
15.45.14.997,479.1,119.8,0,23.0,,59518.1,16.8,-0.77,0.61,0.12,0.5,6.9,-1.5,35.38,,,,,,,,,,
15.45.15.009,452.9,113.2,0,23.0,,57168.7,17.49,-0.77,0.61,0.12,0.8,6.8,-1.5,35.38,,,,,,,,,,
15.45.15.018,421.4,105.4,0,23.0,,60273.6,16.59,-0.77,0.61,0.12,1.4,6.9,-1.1,35.38,,,,,,,,,,
15.45.15.030,385.7,96.4,0,23.0,,56926.9,17.57,-0.77,0.61,0.12,0.5,6.6,-1.1,35.38,,,,,,,,,,
15.45.15.038,352.9,88.2,0,23.0,,62466.3,16.01,-0.78,0.61,0.12,0.2,6.9,-1.7,35.38,,,,,,,,,,
15.45.15.050,304.8,76.2,0,23.0,,56037.5,17.85,-0.78,0.61,0.12,0.5,6.6,-1.5,35.38,,,,,,,,,,
15.45.15.059,265.3,66.3,0,23.0,,56384.7,17.74,-0.78,0.61,0.12,0.8,6.7,-1.4,35.38,,,,,,,,,,
15.45.15.071,174.2,43.6,0,23.0,,58653.3,17.05,-0.77,0.61,0.12,0.5,6.6,-1.4,35.38,,,,,,,,,,
15.45.15.079,63.0,15.8,0,23.0,,57374.4,17.43,-0.78,0.61,0.11,0.5,7.0,-1.4,35.38,,,,,,,,,,
15.45.15.091,29.2,7.3,0,23.0,,60528.9,16.52,-0.78,0.61,0.11,1.1,6.5,-1.0,35.38,,,,,,,,,,
15.45.15.100,40.2,10.0,0,23.0,,59943.9,16.68,-0.78,0.61,0.12,1.5,6.8,-1.0,35.38,,,,,,,,,,
15.45.15.112,64.6,16.2,0,23.0,,58126.2,17.2,-0.78,0.61,0.12,1.5,6.7,-0.5,35.38,,,,,,,,,,
15.45.15.120,77.8,19.4,0,23.0,,58212.5,17.18,-0.78,0.61,0.12,0.9,6.5,-0.7,35.38,,,,,,,,,,
15.45.15.132,64.4,16.1,0,23.0,,57479.2,17.4,-0.78,0.61,0.12,0.2,6.6,-1.1,35.38,,,,,,,,,,
15.45.15.141,92.3,23.1,0,23.0,,58006.6,17.24,-0.78,0.61,0.11,-0.5,6.8,-1.1,35.38,,,,,,,,,,
15.45.15.153,86.0,21.5,0,23.0,,52097.1,19.19,-0.78,0.61,0.12,-0.8,6.1,-1.6,35.38,,,,,,,,,,
15.45.15.161,89.3,22.3,0,23.0,,52299.5,19.12,-0.78,0.61,0.11,-0.7,6.0,-1.8,35.38,,,,,,,,,,
15.45.15.173,71.1,17.8,0,23.0,,51531.4,19.41,-0.77,0.61,0.12,-0.2,6.5,-1.3,35.38,,,,,,,,,,
15.45.15.186,61.8,15.4,0,23.0,,58908.9,16.98,-0.77,0.61,0.11,0.1,6.3,-1.7,35.38,,,,,,,,,,
15.45.15.194,11.1,2.8,0,23.0,,60338.1,16.57,-0.77,0.61,0.11,0.3,6.6,-2.0,35.38,,,,,,,,,,
15.45.15.206,-24.1,6.0,0,23.0,,54993.7,18.18,-0.77,0.6,0.11,0.6,6.8,-2.1,35.38,,,,,,,,,,
15.45.15.214,-35.0,8.8,0,23.0,,58808.5,17.0,-0.78,0.61,0.11,0.4,7.0,-1.7,35.38,,,,,,,,,,
15.45.15.227,-2.0,0.5,0,23.0,,62415.5,16.02,-0.78,0.61,0.12,0.4,7.1,-2.1,35.38,,,,,,,,,,
15.45.15.235,-12.2,3.0,0,23.0,,59860.1,16.71,-0.78,0.61,0.12,0.7,6.9,-2.2,35.38,,,,,,,,,,
15.45.15.247,-55.6,13.9,0,23.0,,55782.5,17.93,-0.78,0.61,0.12,0.6,6.9,-2.0,35.38,,,,,,,,,,
15.45.15.255,1.0,0.2,0,23.0,,52648.4,18.99,-0.78,0.61,0.11,0.2,7.0,-2.0,35.38,,,,,,,,,,
15.45.15.268,-31.0,7.8,0,23.0,,58097.9,17.21,-0.77,0.61,0.12,0.5,6.5,-2.1,35.38,,,,,,,,,,
15.45.15.276,-21.7,5.4,0,23.0,,58824.4,17.0,-0.78,0.61,0.11,0.2,7.2,-1.9,35.38,,,,,,,,,,
15.45.15.288,-69.9,17.5,0,23.0,,57335.0,17.44,-0.78,0.61,0.12,0.2,6.7,-2.1,35.38,,,,,,,,,,
15.45.15.296,-89.0,22.2,0,23.0,,54825.5,18.24,-0.78,0.61,0.12,0.5,6.6,-1.9,35.38,,,,,,,,,,
15.45.15.309,-96.9,24.2,0,23.0,,61182.8,16.34,-0.78,0.61,0.12,0.9,6.2,-1.9,35.38,,,,,,,,,,
15.45.15.317,-81.2,20.3,0,23.0,,61370.5,16.29,-0.78,0.61,0.12,1.0,6.4,-1.6,35.38,,,,,,,,,,
15.45.15.329,-66.9,16.7,0,23.0,,59434.6,16.83,-0.78,0.61,0.12,0.6,6.2,-1.5,35.38,,,,,,,,,,
15.45.15.337,-134.0,33.5,0,23.0,,52807.2,18.94,-0.78,0.61,0.12,1.0,5.8,-1.5,35.38,,,,,,,,,,
15.45.15.349,-36.0,9.0,0,23.0,,55417.7,18.04,-0.78,0.61,0.12,0.5,5.5,-1.3,35.38,,,,,,,,,,
15.45.15.358,-101.6,25.4,0,23.0,,60389.9,16.56,-0.78,0.61,0.13,0.1,5.1,-1.4,35.38,,,,,,,,,,
15.45.15.370,-132.8,33.2,0,23.0,,57900.7,17.27,-0.78,0.61,0.11,0.1,5.3,-1.2,35.38,,,,,,,,,,
15.45.15.378,-94.0,23.5,0,23.0,,54295.6,18.42,-0.78,0.61,0.11,0.1,5.5,-1.6,35.38,,,,,,,,,,
15.45.15.391,-132.1,33.0,0,23.0,,57365.6,17.43,-0.78,0.61,0.11,0.3,6.0,-1.8,35.38,,,,,,,,,,
15.45.15.399,-124.4,31.1,0,23.0,,60456.8,16.54,-0.78,0.61,0.12,0.7,6.6,-2.2,35.38,,,,,,,,,,
15.45.15.411,-135.7,33.9,0,23.0,,55435.7,18.04,-0.78,0.61,0.11,1.0,6.7,-2.7,35.38,,,,,,,,,,
15.45.15.423,-131.3,32.8,0,23.0,,63195.4,15.82,-0.78,0.6,0.12,1.1,6.8,-2.8,35.38,,,,,,,,,,
15.45.15.431,-157.6,39.4,0,23.0,,56993.1,17.55,-0.78,0.61,0.11,1.1,6.4,-2.5,35.38,,,,,,,,,,
15.45.15.444,-190.1,47.5,0,23.0,,56990.4,17.55,-0.77,0.61,0.12,1.1,6.0,-2.5,35.38,,,,,,,,,,
15.45.15.452,-195.4,48.8,0,23.0,,58881.5,16.98,-0.77,0.61,0.12,0.7,6.2,-2.6,35.38,,,,,,,,,,
15.45.15.464,-184.6,46.2,0,23.0,,58941.8,16.97,-0.78,0.61,0.11,0.7,6.2,-2.3,35.38,,,,,,,,,,
15.45.15.472,-32.9,8.2,1,24.0,104.1,56285.2,17.77,-0.78,0.61,0.11,1.1,6.2,-2.3,35.38,,,,,,,,,,
15.45.15.485,168.9,42.2,0,24.0,,53453.1,18.71,-0.77,0.61,0.12,0.7,5.7,-1.6,35.38,,,,,,,,,,
15.45.15.497,270.8,67.7,0,24.0,,57893.4,17.27,-0.78,0.62,0.12,0.5,5.4,-1.4,35.38,,,,,,,,,,
15.45.15.505,272.9,68.2,0,24.0,,59633.6,16.77,-0.77,0.61,0.12,0.3,5.2,-0.9,35.38,,,,,,,,,,
15.45.15.517,333.4,83.4,0,24.0,,57835.5,17.29,-0.78,0.61,0.11,0.2,5.5,-0.9,35.38,,,,,,,,,,
15.45.15.526,401.4,100.4,0,24.0,,53646.9,18.64,-0.78,0.61,0.11,0.6,5.6,-0.8,35.38,,,,,,,,,,
15.45.15.538,440.1,110.0,0,24.0,,55583.8,17.99,-0.78,0.61,0.11,0.8,5.4,-0.1,35.38,,,,,,,,,,
15.45.15.546,466.6,116.6,0,24.0,,61310.0,16.31,-0.78,0.61,0.12,0.6,5.6,-0.4,35.38,,,,,,,,,,
15.45.15.558,465.7,116.4,0,24.0,,56778.0,17.61,-0.78,0.61,0.12,0.7,5.6,-0.7,35.38,,,,,,,,,,
15.45.15.567,444.2,111.0,0,24.0,,54880.1,18.22,-0.78,0.61,0.12,0.8,5.6,-0.3,35.38,,,,,,,,,,
15.45.15.579,503.5,125.9,0,24.0,,56984.2,17.55,-0.78,0.61,0.12,0.8,5.4,-0.3,35.38,,,,,,,,,,
15.45.15.587,431.4,107.8,0,24.0,,54537.6,18.34,-0.78,0.61,0.12,0.7,5.1,-0.1,35.38,,,,,,,,,,
15.45.15.599,492.8,123.2,0,24.0,,57501.4,17.39,-0.78,0.6,0.12,0.5,4.9,-0.1,35.38,,,,,,,,,,
15.45.15.608,429.0,107.2,0,24.0,,57738.1,17.32,-0.78,0.61,0.12,0.3,5.1,-0.7,35.38,,,,,,,,,,
15.45.15.620,329.7,82.4,0,24.0,,60761.8,16.46,-0.78,0.6,0.11,0.6,5.5,-1.2,35.38,,,,,,,,,,
15.45.15.628,315.4,78.8,0,24.0,,56966.8,17.55,-0.78,0.6,0.11,0.5,5.4,-1.2,35.38,,,,,,,,,,
15.45.15.640,239.8,60.0,0,24.0,,56211.9,17.79,-0.78,0.6,0.12,0.6,5.4,-1.4,35.38,,,,,,,,,,
15.45.15.650,189.5,47.4,0,24.0,,51035.2,19.59,-0.77,0.6,0.11,0.9,5.6,-1.4,35.38,,,,,,,,,,
15.45.15.661,108.3,27.1,0,24.0,,63531.2,15.74,-0.78,0.6,0.11,1.0,5.6,-1.7,35.38,,,,,,,,,,
15.45.15.669,37.4,9.4,0,24.0,,60100.5,16.64,-0.78,0.6,0.11,0.9,5.7,-1.9,35.38,,,,,,,,,,
15.45.15.681,-8.8,2.2,0,24.0,,60847.5,16.43,-0.78,0.61,0.11,1.3,5.9,-2.1,35.38,,,,,,,,,,
15.45.15.719,159.7,39.9,0,24.0,,58680.9,17.04,-0.78,0.61,0.11,2.0,6.2,-2.1,35.38,,,,,,,,,,
15.45.15.727,80.1,20.0,0,24.0,,57347.2,17.44,-0.77,0.61,0.11,0.0,5.3,-1.9,35.38,,,,,,,,,,
15.45.15.740,48.6,12.2,0,24.0,,56764.1,17.62,-0.78,0.61,0.12,0.5,5.6,-1.5,35.38,,,,,,,,,,
15.45.15.747,125.2,31.3,0,24.0,,53198.5,18.8,-0.77,0.61,0.11,0.5,5.9,-1.2,35.38,,,,,,,,,,
15.45.15.759,75.1,18.8,0,24.0,,49377.3,20.25,-0.77,0.61,0.11,0.9,5.6,-1.4,35.38,,,,,,,,,,
15.45.15.771,91.3,22.8,0,24.0,,57674.8,17.34,-0.77,0.61,0.12,1.6,5.5,-1.2,35.38,,,,,,,,,,
15.45.15.780,27.5,6.9,0,24.0,,58974.1,16.96,-0.77,0.61,0.12,1.8,5.4,-0.7,35.38,,,,,,,,,,
15.45.15.792,9.2,2.3,0,24.0,,56326.4,17.75,-0.77,0.62,0.12,0.9,5.3,-0.6,35.38,,,,,,,,,,
15.45.15.800,-38.0,9.5,0,24.0,,58986.2,16.95,-0.77,0.61,0.12,0.3,5.0,-0.6,35.38,,,,,,,,,,
15.45.15.812,-55.6,13.9,0,24.0,,55702.4,17.95,-0.77,0.61,0.11,-0.1,4.8,-0.1,35.38,,,,,,,,,,
15.45.15.821,-7.2,1.8,0,24.0,,59999.8,16.67,-0.77,0.61,0.11,0.1,4.6,-0.1,35.38,,,,,,,,,,
15.45.15.833,-51.8,13.0,0,24.0,,57412.1,17.42,-0.78,0.6,0.11,0.5,4.8,0.0,35.38,,,,,,,,,,
15.45.15.841,-3.2,0.8,0,24.0,,59917.5,16.69,-0.78,0.61,0.11,0.5,5.4,-0.1,35.38,,,,,,,,,,
15.45.15.854,-29.8,7.4,0,24.0,,58645.7,17.05,-0.78,0.61,0.11,0.2,5.0,-0.5,35.38,,,,,,,,,,
15.45.15.862,-60.4,15.1,0,24.0,,51189.4,19.54,-0.78,0.61,0.11,0.1,5.2,-1.4,35.38,,,,,,,,,,
15.45.15.874,-73.2,18.3,0,24.0,,55477.7,18.03,-0.77,0.61,0.12,0.4,5.1,-1.1,35.38,,,,,,,,,,
15.45.15.882,-62.4,15.6,0,24.0,,57894.5,17.27,-0.77,0.6,0.12,0.7,5.3,-1.1,35.38,,,,,,,,,,
15.45.15.894,-90.2,22.6,0,24.0,,55562.2,18.0,-0.77,0.6,0.11,0.7,5.1,-1.5,35.38,,,,,,,,,,
15.45.15.904,-68.5,17.1,0,24.0,,58749.6,17.02,-0.78,0.61,0.12,0.6,5.2,-1.8,35.38,,,,,,,,,,
15.45.15.915,-35.3,8.8,0,24.0,,56386.5,17.73,-0.78,0.61,0.13,0.9,5.5,-1.2,35.38,,,,,,,,,,
15.45.15.923,-68.1,17.0,0,24.0,,59065.7,16.93,-0.78,0.61,0.11,0.8,5.2,-1.6,35.38,,,,,,,,,,
15.45.15.935,-104.2,26.0,0,24.0,,55537.7,18.01,-0.78,0.61,0.11,0.9,5.0,-2.0,35.38,,,,,,,,,,
15.45.15.944,-88.8,22.2,0,24.0,,51675.3,19.35,-0.78,0.61,0.11,0.5,5.2,-1.9,35.38,,,,,,,,,,
15.45.15.956,-62.3,15.6,0,24.0,,56529.1,17.69,-0.78,0.61,0.11,0.4,5.4,-2.3,35.38,,,,,,,,,,
15.45.15.964,-111.8,28.0,0,24.0,,56094.7,17.83,-0.78,0.61,0.12,0.6,5.5,-2.4,35.38,,,,,,,,,,
15.45.15.976,-124.1,31.0,0,24.0,,63254.5,15.81,-0.79,0.61,0.12,0.6,5.4,-2.4,35.38,,,,,,,,,,
