timestamp,ppg,threshold,beat,beat_count,inst_bpm,gsr_resistance_ohm,gsr_conductance_us,accel_x,accel_y,accel_z,gyro_x,gyro_y,gyro_z,temp_c,window_bpm,window_temp_c,status_message,SpO2,bmi,age,height,weight,env_temp_c,env_humidity_pct
14.07.05.519,,,0,,,93595.8,10.68,,0.15,0.97,1.2,5.7,-1.1,32.5,97.9,,,98.0,26.7,22.0,152.4,61.9,32.11,46.0
14.07.05.522,22.3,5.6,0,,,93484.0,10.7,-0.19,0.16,0.98,1.1,5.6,-1.0,32.5,,,,,,,,,,
14.07.05.531,65.4,16.4,0,,,91851.1,10.89,-0.2,0.15,0.97,1.1,5.4,-1.3,32.5,,,,,,,,,,
14.07.05.543,114.1,28.5,0,,,93615.4,10.68,-0.19,0.15,0.97,0.9,5.7,-1.1,32.5,,,,,,,,,,
14.07.05.552,154.2,38.6,0,,,92224.9,10.84,-0.2,0.15,0.97,0.5,5.9,-1.1,32.5,,,,,,,,,,
14.07.05.563,188.6,47.2,0,,,92537.4,10.81,-0.19,0.15,0.97,0.7,5.8,-1.2,32.5,,,,,,,,,,
14.07.05.572,230.6,57.6,0,,,91935.0,10.88,-0.19,0.15,0.97,0.9,5.8,-1.0,32.5,,,,,,,,,,
14.07.05.584,240.3,60.1,0,,,93536.8,10.69,-0.2,0.15,0.96,0.5,5.5,-1.5,32.5,,,,,,,,,,
14.07.05.592,280.2,70.0,0,,,92257.3,10.84,-0.2,0.15,0.97,0.7,6.2,-1.3,32.5,,,,,,,,,,
14.07.05.605,326.1,81.5,0,,,92185.2,10.85,-0.19,0.15,0.97,0.6,5.8,-1.7,32.5,,,,,,,,,,
14.07.05.612,307.9,77.0,0,,,93249.6,10.72,-0.2,0.15,0.97,0.6,5.6,-1.4,32.5,,,,,,,,,,
14.07.05.625,308.0,77.0,0,,,93583.8,10.69,-0.19,0.15,0.97,0.5,5.6,-1.5,32.5,,,,,,,,,,
14.07.05.633,313.6,78.4,0,,,92562.6,10.8,-0.19,0.15,0.97,0.3,5.6,-1.4,32.5,,,,,,,,,,
14.07.05.645,303.9,76.0,0,,,91614.3,10.92,-0.19,0.15,0.97,0.7,6.0,-1.2,32.5,,,,,,,,,,
14.07.05.653,269.9,67.5,0,,,93425.2,10.7,-0.19,0.15,0.97,0.5,5.9,-1.2,32.5,,,,,,,,,,
14.07.05.666,254.8,63.7,0,,,91934.3,10.88,-0.19,0.15,0.97,0.5,5.5,-1.3,32.5,,,,,,,,,,
14.07.05.674,238.4,59.6,0,,,92286.5,10.84,-0.19,0.15,0.96,0.8,5.9,-1.2,32.5,,,,,,,,,,
14.07.05.687,187.6,46.9,0,,,92405.1,10.82,-0.2,0.16,0.96,0.8,5.5,-1.4,32.5,,,,,,,,,,
14.07.05.694,142.5,35.6,0,,,92247.6,10.84,-0.19,0.15,0.97,0.6,5.3,-1.6,32.5,,,,,,,,,,
14.07.05.707,98.4,24.6,0,,,92360.8,10.83,-0.2,0.15,0.97,0.6,5.3,-1.7,32.5,,,,,,,,,,
14.07.05.715,63.9,16.0,0,,,92891.1,10.77,-0.19,0.15,0.97,0.7,5.3,-1.3,32.5,,,,,,,,,,
14.07.05.727,9.2,2.3,0,,,92142.4,10.85,-0.19,0.15,0.97,0.9,5.6,-1.4,32.5,,,,,,,,,,
14.07.05.735,2.3,0.6,0,,,92110.4,10.86,-0.19,0.15,0.97,0.9,5.3,-1.5,32.5,,,,,,,,,,
14.07.05.748,22.1,5.5,0,,,92717.5,10.79,-0.19,0.15,0.97,0.9,5.7,-1.3,32.5,,,,,,,,,,
14.07.05.756,43.9,11.0,0,,,93247.3,10.72,-0.2,0.15,0.97,1.3,5.8,-1.1,32.5,,,,,,,,,,
14.07.05.769,48.3,12.1,0,,,92366.5,10.83,-0.19,0.15,0.98,1.2,5.7,-1.2,32.5,,,,,,,,,,
14.07.05.777,44.4,11.1,0,,,92340.6,10.83,-0.19,0.15,0.97,1.2,5.9,-1.2,32.5,,,,,,,,,,
14.07.05.789,60.2,15.0,0,,,93212.3,10.73,-0.19,0.15,0.96,1.2,5.9,-1.0,32.5,,,,,,,,,,
14.07.05.797,54.5,13.6,0,,,92540.8,10.81,-0.19,0.16,0.97,1.4,5.6,-1.0,32.5,,,,,,,,,,
14.07.05.809,56.7,14.2,0,,,91849.7,10.89,-0.2,0.15,0.96,1.0,5.9,-1.0,32.5,,,,,,,,,,
14.07.05.822,40.8,10.2,0,,,91172.5,10.97,-0.19,0.15,0.97,1.1,6.4,-1.0,32.5,,,,,,,,,,
14.07.05.830,22.8,5.7,0,,,91851.9,10.89,-0.2,0.15,0.97,0.5,5.8,-1.0,32.5,,,,,,,,,,
14.07.05.843,16.7,4.2,0,,,91904.5,10.88,-0.19,0.15,0.97,0.8,5.8,-0.7,32.5,,,,,,,,,,
14.07.05.850,0.7,0.2,0,,,91928.5,10.88,-0.2,0.15,0.97,0.9,6.1,-0.8,32.5,,,,,,,,,,
14.07.05.862,-0.4,0.1,0,,,92378.7,10.83,-0.19,0.16,0.97,1.1,6.0,-1.0,32.5,,,,,,,,,,
14.07.05.871,-12.3,3.1,0,,,90671.8,11.03,-0.19,0.15,0.96,1.4,6.4,-1.0,32.5,,,,,,,,,,
14.07.05.884,-9.1,2.3,0,,,92724.7,10.78,-0.2,0.15,0.96,1.5,5.7,-1.3,32.5,,,,,,,,,,
14.07.05.892,-18.1,4.5,0,,,92139.9,10.85,-0.2,0.15,0.96,1.5,5.8,-1.3,32.5,,,,,,,,,,
14.07.05.904,-32.6,8.2,0,,,92990.4,10.75,-0.19,0.15,0.96,1.3,5.5,-1.1,32.5,,,,,,,,,,
14.07.05.912,-31.3,7.8,0,,,93307.3,10.72,-0.19,0.16,0.97,1.2,5.4,-1.3,32.5,,,,,,,,,,
14.07.05.924,-41.3,10.3,0,,,91697.4,10.91,-0.19,0.15,0.96,1.3,5.8,-1.3,32.5,,,,,,,,,,
14.07.05.933,-41.9,10.5,0,,,91966.8,10.87,-0.19,0.15,0.97,1.1,5.3,-1.4,32.5,,,,,,,,,,
14.07.05.945,-41.5,10.4,0,,,92580.7,10.8,-0.19,0.15,0.97,1.0,5.7,-1.4,32.5,,,,,,,,,,
14.07.05.953,-50.6,12.6,0,,,92389.3,10.82,-0.19,0.15,0.98,1.1,5.5,-1.5,32.5,,,,,,,,,,
14.07.05.965,-48.8,12.2,0,,,91582.8,10.92,-0.19,0.16,0.97,1.1,5.6,-1.2,32.5,,,,,,,,,,
14.07.05.974,-68.7,17.2,0,,,92204.4,10.85,-0.2,0.15,0.96,1.4,5.4,-1.2,32.5,,,,,,,,,,
14.07.05.985,-63.5,15.9,0,,,92651.1,10.79,-0.2,0.15,0.97,1.4,5.9,-1.4,32.5,,,,,,,,,,
14.07.05.993,-78.1,19.5,0,,,91504.8,10.93,-0.19,0.15,0.96,1.2,5.5,-1.3,32.5,,,,,,,,,,
14.07.06.006,-68.9,17.2,0,,,91388.3,10.94,-0.19,0.16,0.96,1.1,5.4,-1.4,32.5,,,,,,,,,,
14.07.06.014,-79.7,19.9,0,,,91348.6,10.95,-0.19,0.15,0.97,1.0,5.5,-1.7,32.5,,,,,,,,,,
14.07.06.026,-83.8,21.0,0,,,90934.8,11.0,-0.19,0.15,0.98,0.9,5.3,-1.1,32.5,,,,,,,,,,
14.07.06.035,-83.2,20.8,0,,,91950.7,10.88,-0.19,0.16,0.97,1.0,5.6,-1.1,32.5,,,,,,,,,,
14.07.06.047,-85.5,21.4,0,,,92598.6,10.8,-0.2,0.15,0.97,0.7,5.7,-1.7,32.5,,,,,,,,,,
14.07.06.084,-112.8,28.2,0,,,92347.7,10.83,-0.19,0.16,0.96,1.0,5.7,-1.2,32.5,,,,,,,,,,
14.07.06.092,-123.5,30.9,0,,,90701.2,11.03,-0.2,0.16,0.97,1.2,5.9,-1.1,32.5,,,,,,,,,,
14.07.06.105,-127.1,31.8,0,,,90883.9,11.0,-0.19,0.15,0.97,1.5,5.9,-1.1,32.5,,,,,,,,,,
14.07.06.113,-125.3,31.3,0,,,91352.8,10.95,-0.19,0.16,0.97,1.6,6.2,-0.8,32.5,,,,,,,,,,
14.07.06.125,33.1,8.3,1,1.0,99.8,92078.0,10.86,-0.19,0.16,0.97,1.5,6.1,-1.0,32.5,,,,,,,,,,
14.07.06.133,61.5,15.4,0,1.0,,91574.7,10.92,-0.19,0.15,0.97,1.2,6.3,-1.1,32.5,,,,,,,,,,
14.07.06.146,128.6,32.2,0,1.0,,90847.4,11.01,-0.19,0.16,0.97,1.4,6.4,-0.8,32.5,,,,,,,,,,
14.07.06.154,158.1,39.5,0,1.0,,91445.4,10.94,-0.2,0.16,0.97,1.3,6.1,-1.0,32.5,,,,,,,,,,
14.07.06.166,215.2,53.8,0,1.0,,91837.5,10.89,-0.2,0.16,0.97,1.2,6.0,-1.1,32.5,,,,,,,,,,
14.07.06.174,230.0,57.5,0,1.0,,92172.9,10.85,-0.2,0.16,0.97,1.2,6.1,-1.2,32.5,,,,,,,,,,
14.07.06.190,279.5,69.9,0,1.0,,90471.5,11.05,-0.2,0.16,0.96,1.1,5.4,-1.1,32.5,,,,,,,,,,
14.07.06.199,317.7,79.4,0,1.0,,93062.9,10.75,-0.19,0.16,0.96,0.8,5.8,-1.2,32.5,,,,,,,,,,
14.07.06.211,322.2,80.6,0,1.0,,91515.7,10.93,-0.2,0.16,0.96,0.6,5.4,-1.4,32.5,,,,,,,,,,
14.07.06.219,292.6,73.2,0,1.0,,93315.1,10.72,-0.2,0.16,0.97,0.4,5.7,-1.1,32.5,,,,,,,,,,
14.07.06.232,306.3,76.6,0,1.0,,93085.4,10.74,-0.19,0.16,0.96,0.5,5.5,-1.3,32.5,,,,,,,,,,
14.07.06.239,316.2,79.0,0,1.0,,91426.9,10.94,-0.19,0.15,0.97,0.6,5.7,-1.3,32.5,,,,,,,,,,
14.07.06.252,288.6,72.2,0,1.0,,92914.9,10.76,-0.19,0.16,0.96,0.8,5.9,-1.3,32.5,,,,,,,,,,
14.07.06.260,291.9,73.0,0,1.0,,92863.3,10.77,-0.19,0.16,0.97,0.8,5.7,-1.1,32.5,,,,,,,,,,
14.07.06.273,233.2,58.3,0,1.0,,91838.0,10.89,-0.2,0.16,0.96,0.8,5.5,-1.2,32.5,,,,,,,,,,
14.07.06.281,201.8,50.4,0,1.0,,92437.2,10.82,-0.2,0.16,0.97,1.0,5.6,-1.4,32.5,,,,,,,,,,
14.07.06.293,176.3,44.1,0,1.0,,92643.8,10.79,-0.19,0.16,0.97,0.6,5.9,-1.2,32.5,,,,,,,,,,
14.07.06.301,122.0,30.5,0,1.0,,92669.0,10.79,-0.19,0.16,0.96,0.6,6.0,-1.0,32.5,,,,,,,,,,
14.07.06.314,77.5,19.4,0,1.0,,91614.7,10.92,-0.19,0.16,0.97,0.8,5.9,-1.5,32.5,,,,,,,,,,
14.07.06.322,33.0,8.2,0,1.0,,92934.5,10.76,-0.2,0.16,0.97,0.3,5.5,-1.4,32.5,,,,,,,,,,
14.07.06.334,8.7,2.2,0,1.0,,92361.8,10.83,-0.2,0.16,0.96,0.6,5.6,-1.4,32.5,,,,,,,,,,
14.07.06.343,18.8,4.7,0,1.0,,92279.9,10.84,-0.2,0.16,0.97,0.5,5.6,-1.6,32.5,,,,,,,,,,
14.07.06.355,38.0,9.5,0,1.0,,89529.1,11.17,-0.19,0.16,0.97,0.4,5.5,-1.3,32.5,,,,,,,,,,
14.07.06.363,39.8,10.0,0,1.0,,93702.1,10.67,-0.19,0.16,0.97,0.2,5.7,-1.1,32.5,,,,,,,,,,
14.07.06.375,48.1,12.0,0,1.0,,91094.2,10.98,-0.19,0.16,0.97,0.1,5.4,-1.4,32.5,,,,,,,,,,
14.07.06.383,60.0,15.0,0,1.0,,92854.6,10.77,-0.19,0.16,0.97,0.3,6.0,-1.2,32.5,,,,,,,,,,
14.07.06.396,51.6,12.9,0,1.0,,92861.5,10.77,-0.19,0.15,0.97,0.1,5.8,-1.4,32.5,,,,,,,,,,
14.07.06.404,51.4,12.8,0,1.0,,92076.8,10.86,-0.2,0.16,0.97,0.1,5.4,-1.2,32.5,,,,,,,,,,
14.07.06.415,42.3,10.6,0,1.0,,92323.5,10.83,-0.19,0.16,0.96,0.2,6.1,-1.2,32.5,,,,,,,,,,
14.07.06.424,33.2,8.3,0,1.0,,91705.0,10.9,-0.19,0.15,0.97,0.2,6.1,-1.0,32.5,,,,,,,,,,
14.07.06.437,15.3,3.8,0,1.0,,92479.9,10.81,-0.19,0.16,0.97,0.1,5.9,-1.1,32.5,,,,,,,,,,
14.07.06.445,2.0,0.5,0,1.0,,92267.5,10.84,-0.19,0.16,0.96,0.4,6.1,-1.1,32.5,,,,,,,,,,
14.07.06.457,-3.4,0.8,0,1.0,,90826.9,11.01,-0.2,0.15,0.97,0.3,6.0,-1.5,32.5,,,,,,,,,,
14.07.06.465,-4.8,1.2,0,1.0,,92002.3,10.87,-0.2,0.16,0.96,0.3,5.9,-1.2,32.5,,,,,,,,,,
14.07.06.478,-13.3,3.3,0,1.0,,91697.0,10.91,-0.19,0.15,0.97,0.4,6.1,-1.2,32.5,,,,,,,,,,
14.07.06.486,-17.3,4.3,0,1.0,,92366.1,10.83,-0.2,0.16,0.96,0.2,6.0,-1.2,32.5,,,,,,,,,,
14.07.06.498,-28.6,7.2,0,1.0,,93486.0,10.7,-0.2,0.15,0.96,0.2,5.8,-1.2,32.5,,,,,,,,,,
14.07.06.506,-24.4,6.1,0,1.0,,92776.5,10.78,-0.2,0.16,0.97,0.2,5.7,-1.3,32.5,,,,,,,,,,
14.07.06.519,-30.5,7.6,0,1.0,,91650.3,10.91,-0.19,0.15,0.96,0.7,6.1,-1.1,32.5,,,,,,,,,,
14.07.06.527,-32.7,8.2,0,1.0,,92237.6,10.84,-0.19,0.16,0.97,0.6,5.4,-1.5,32.5,,,,,,,,,,
14.07.06.539,-39.2,9.8,0,1.0,,90780.7,11.02,-0.2,0.16,0.97,0.6,6.0,-1.0,32.5,,,,,,,,,,
14.07.06.551,-47.7,11.9,0,1.0,,92560.6,10.8,-0.2,0.15,0.97,0.6,6.0,-1.2,32.5,,,,,,,,,,
14.07.06.560,-48.6,12.2,0,1.0,,92067.7,10.86,-0.19,0.16,0.97,0.9,5.6,-0.9,32.5,,,,,,,,,,
14.07.06.571,-49.6,12.4,0,1.0,,90781.8,11.02,-0.19,0.16,0.97,0.4,6.1,-1.1,32.5,,,,,,,,,,
14.07.06.579,-62.8,15.7,0,1.0,,94347.1,10.6,-0.19,0.16,0.96,0.3,6.3,-1.3,32.5,,,,,,,,,,
14.07.06.592,-69.3,17.3,0,1.0,,93516.0,10.69,-0.2,0.15,0.96,0.5,5.8,-1.1,32.5,,,,,,,,,,
14.07.06.600,-73.7,18.4,0,1.0,,91182.1,10.97,-0.2,0.16,0.96,0.2,5.9,-1.1,32.5,,,,,,,,,,
14.07.06.613,-83.1,20.8,0,1.0,,91846.9,10.89,-0.19,0.16,0.96,0.1,5.7,-1.0,32.5,,,,,,,,,,
14.07.06.620,-71.1,17.8,0,1.0,,91985.2,10.87,-0.2,0.16,0.97,0.2,5.8,-1.0,32.5,,,,,,,,,,
14.07.06.633,-77.5,19.4,0,1.0,,93913.4,10.65,-0.19,0.16,0.97,0.0,5.9,-1.5,32.5,,,,,,,,,,
14.07.06.641,-76.0,19.0,0,1.0,,92576.6,10.8,-0.19,0.15,0.97,0.2,5.7,-1.1,32.5,,,,,,,,,,
14.07.06.654,-94.1,23.5,0,1.0,,91359.8,10.95,-0.19,0.16,0.97,0.0,5.8,-1.0,32.5,,,,,,,,,,
14.07.06.662,-99.6,24.9,0,1.0,,92031.2,10.87,-0.2,0.15,0.97,0.1,5.8,-1.2,32.5,,,,,,,,,,
14.07.06.674,-102.9,25.7,0,1.0,,92444.2,10.82,-0.19,0.16,0.97,0.2,5.7,-1.1,32.5,,,,,,,,,,
14.07.06.682,-117.3,29.3,0,1.0,,91274.2,10.96,-0.2,0.16,0.97,0.4,5.7,-1.3,32.5,,,,,,,,,,
14.07.06.695,-117.4,29.4,0,1.0,,93363.4,10.71,-0.2,0.16,0.97,0.1,6.1,-1.1,32.5,,,,,,,,,,
14.07.06.703,-104.6,26.2,0,1.0,,92061.2,10.86,-0.19,0.15,0.97,0.3,6.1,-1.0,32.5,,,,,,,,,,
14.07.06.714,-129.7,32.4,0,1.0,,92163.8,10.85,-0.2,0.15,0.97,0.0,5.7,-1.2,32.5,,,,,,,,,,
14.07.06.723,18.2,4.6,1,2.0,99.4,92678.6,10.79,-0.2,0.16,0.96,0.7,5.4,-0.9,32.5,,,,,,,,,,
14.07.06.736,91.6,22.9,0,2.0,,90987.3,10.99,-0.19,0.16,0.97,0.4,5.7,-1.4,32.5,,,,,,,,,,
14.07.06.744,109.1,27.3,0,2.0,,90718.6,11.02,-0.2,0.16,0.97,0.4,5.5,-1.4,32.5,,,,,,,,,,
14.07.06.755,160.2,40.0,0,2.0,,92272.8,10.84,-0.2,0.16,0.97,0.1,5.6,-1.8,32.5,,,,,,,,,,
14.07.06.764,198.2,49.6,0,2.0,,92175.1,10.85,-0.2,0.16,0.98,0.2,5.5,-1.8,32.5,,,,,,,,,,
14.07.06.777,211.5,52.9,0,2.0,,92299.0,10.83,-0.19,0.16,0.96,0.0,5.4,-2.0,32.5,,,,,,,,,,
14.07.06.789,287.3,71.8,0,2.0,,92011.4,10.87,-0.2,0.16,0.97,-0.1,5.5,-1.5,32.5,,,,,,,,,,
14.07.06.797,292.0,73.0,0,2.0,,92568.7,10.8,-0.2,0.16,0.97,0.0,5.2,-2.0,32.5,,,,,,,,,,
14.07.06.809,316.8,79.2,0,2.0,,91312.4,10.95,-0.19,0.16,0.97,0.0,5.4,-1.6,32.5,,,,,,,,,,
14.07.06.818,330.2,82.6,0,2.0,,92411.7,10.82,-0.2,0.16,0.97,-0.1,5.5,-1.9,32.5,,,,,,,,,,
14.07.06.829,335.9,84.0,0,2.0,,91621.8,10.91,-0.19,0.16,0.97,0.2,5.5,-1.7,32.5,,,,,,,,,,
14.07.06.838,324.3,81.1,0,2.0,,91651.0,10.91,-0.19,0.16,0.97,-0.1,5.8,-1.5,32.5,,,,,,,,,,
14.07.06.850,292.6,73.2,0,2.0,,91723.4,10.9,-0.2,0.16,0.97,-0.1,5.8,-1.3,32.5,,,,,,,,,,
14.07.06.887,178.6,44.6,0,2.0,,91860.7,10.89,-0.2,0.15,0.97,-0.3,5.8,-1.3,32.5,,,,,,,,,,
14.07.06.900,125.9,31.5,0,2.0,,90877.6,11.0,-0.19,0.15,0.97,0.0,5.6,-1.2,32.5,,,,,,,,,,
14.07.06.908,103.8,26.0,0,2.0,,91838.6,10.89,-0.19,0.15,0.97,0.1,5.3,-1.4,32.5,,,,,,,,,,
14.07.06.920,41.3,10.3,0,2.0,,92540.8,10.81,-0.2,0.16,0.97,-0.3,6.0,-1.4,32.5,,,,,,,,,,
14.07.06.928,5.3,1.3,0,2.0,,91742.3,10.9,-0.19,0.16,0.97,-0.2,5.9,-1.5,32.5,,,,,,,,,,
14.07.06.940,15.3,3.8,0,2.0,,91357.5,10.95,-0.19,0.16,0.97,-0.3,5.8,-1.1,32.5,,,,,,,,,,
14.07.06.949,34.8,8.7,0,2.0,,92001.1,10.87,-0.2,0.15,0.98,-0.3,5.8,-1.2,32.5,,,,,,,,,,
14.07.06.960,23.9,6.0,0,2.0,,91168.6,10.97,-0.2,0.16,0.97,-0.2,5.9,-1.3,32.5,,,,,,,,,,
14.07.06.969,55.4,13.8,0,2.0,,92055.4,10.86,-0.18,0.18,0.96,-6.1,9.1,-2.4,32.5,,,,,,,,,,
14.07.06.981,57.7,14.4,0,2.0,,93053.1,10.75,-0.19,0.14,0.98,-1.5,6.0,-0.5,32.5,,,,,,,,,,
14.07.06.990,53.3,13.3,0,2.0,,92852.7,10.77,-0.18,0.15,0.96,-0.3,7.0,-1.6,32.5,,,,,,,,,,
14.07.07.002,54.4,13.6,0,2.0,,93498.6,10.7,-0.19,0.15,0.97,0.5,6.0,-1.2,32.5,,,,,,,,,,
14.07.07.010,54.6,13.6,0,2.0,,91806.6,10.89,-0.19,0.15,0.97,1.2,6.1,-0.8,32.5,,,,,,,,,,
14.07.07.022,36.5,9.1,0,2.0,,92216.6,10.84,-0.2,0.16,0.97,0.3,5.7,-1.2,32.5,,,,,,,,,,
14.07.07.035,26.1,6.5,0,2.0,,92284.1,10.84,-0.2,0.15,0.97,0.7,6.2,-0.9,32.5,,,,,,,,,,
14.07.07.043,6.1,1.5,0,2.0,,91513.8,10.93,-0.2,0.15,0.96,0.4,5.6,-1.4,32.5,,,,,,,,,,
14.07.07.055,-4.6,1.2,0,2.0,,91141.4,10.97,-0.19,0.15,0.97,0.3,5.7,-1.3,32.5,,,,,,,,,,
14.07.07.063,-10.4,2.6,0,2.0,,91517.3,10.93,-0.2,0.15,0.96,0.1,5.8,-1.4,32.5,,,,,,,,,,
14.07.07.076,-21.0,5.2,0,2.0,,94097.4,10.63,-0.19,0.15,0.96,0.1,5.4,-1.1,32.5,,,,,,,,,,
14.07.07.084,-17.4,4.4,0,2.0,,93296.9,10.72,-0.2,0.15,0.96,0.4,5.5,-1.0,32.5,,,,,,,,,,
14.07.07.096,-28.3,7.1,0,2.0,,91311.3,10.95,-0.19,0.15,0.96,0.1,5.7,-1.6,32.5,,,,,,,,,,
14.07.07.104,-23.1,5.8,0,2.0,,92261.6,10.84,-0.19,0.15,0.96,0.5,5.7,-1.5,32.5,,,,,,,,,,
14.07.07.116,-28.2,7.0,0,2.0,,91995.0,10.87,-0.19,0.16,0.97,0.9,5.6,-1.1,32.5,,,,,,,,,,
14.07.07.125,-44.6,11.2,0,2.0,,91670.7,10.91,-0.19,0.16,0.98,0.6,5.6,-1.3,32.5,,,,,,,,,,
14.07.07.137,-40.2,10.0,0,2.0,,92115.7,10.86,-0.2,0.16,0.97,0.1,6.1,-1.5,32.5,,,,,,,,,,
14.07.07.145,-38.9,9.7,0,2.0,,92257.8,10.84,-0.2,0.15,0.97,-0.2,5.6,-1.5,32.5,,,,,,,,,,
14.07.07.158,-54.9,13.7,0,2.0,,94029.6,10.63,-0.2,0.15,0.97,0.2,5.8,-1.5,32.5,,,,,,,,,,
14.07.07.166,-55.6,13.9,0,2.0,,92679.4,10.79,-0.19,0.15,0.97,-0.1,5.4,-1.2,32.5,,,,,,,,,,
14.07.07.178,-62.0,15.5,0,2.0,,92647.8,10.79,-0.19,0.15,0.97,0.2,6.3,-0.9,32.5,,,,,,,,,,
14.07.07.186,-67.0,16.8,0,2.0,,92485.3,10.81,-0.19,0.15,0.96,0.4,5.8,-1.0,32.5,,,,,,,,,,
14.07.07.199,-73.9,18.5,0,2.0,,93295.9,10.72,-0.19,0.15,0.97,0.7,6.0,-1.0,32.5,,,,,,,,,,
14.07.07.206,-78.2,19.6,0,2.0,,91692.7,10.91,-0.2,0.16,0.97,0.3,5.6,-1.0,32.5,,,,,,,,,,
14.07.07.219,-72.7,18.2,0,2.0,,91782.4,10.9,-0.2,0.16,0.96,0.5,5.7,-1.0,32.5,,,,,,,,,,
14.07.07.227,-75.5,18.9,0,2.0,,92042.1,10.86,-0.2,0.16,0.97,0.1,5.3,-1.4,32.5,,,,,,,,,,
14.07.07.240,-82.0,20.5,0,2.0,,93079.4,10.74,-0.2,0.15,0.97,-0.2,5.6,-1.7,32.5,,,,,,,,,,
14.07.07.252,-93.6,23.4,0,2.0,,91966.3,10.87,-0.19,0.15,0.97,-0.3,5.5,-1.7,32.5,,,,,,,,,,
14.07.07.260,-95.2,23.8,0,2.0,,91079.2,10.98,-0.2,0.15,0.96,-0.6,5.5,-1.7,32.5,,,,,,,,,,
14.07.07.272,-110.3,27.6,0,2.0,,92504.4,10.81,-0.2,0.15,0.96,0.0,5.4,-1.5,32.5,,,,,,,,,,
14.07.07.281,-116.7,29.2,0,2.0,,92876.4,10.77,-0.2,0.15,0.96,0.1,5.4,-1.5,32.5,,,,,,,,,,
14.07.07.292,-117.0,29.2,0,2.0,,91145.9,10.97,-0.19,0.15,0.97,0.7,5.5,-1.2,32.5,,,,,,,,,,
14.07.07.300,-127.6,31.9,0,2.0,,92602.7,10.8,-0.19,0.15,0.98,0.6,5.7,-1.4,32.5,,,,,,,,,,
14.07.07.313,-129.8,32.4,0,2.0,,92700.8,10.79,-0.19,0.15,0.97,0.6,5.8,-0.9,32.5,,,,,,,,,,
14.07.07.321,9.5,2.4,1,3.0,104.2,92206.8,10.85,-0.19,0.15,0.98,0.7,6.1,-1.0,32.5,,,,,,,,,,
14.07.07.333,70.6,17.6,0,3.0,,92816.0,10.77,-0.2,0.15,0.97,1.2,6.0,-0.8,32.5,,,,,,,,,,
14.07.07.342,123.6,30.9,0,3.0,,93104.3,10.74,-0.2,0.16,0.98,1.0,5.6,-1.1,32.5,,,,,,,,,,
14.07.07.354,158.0,39.5,0,3.0,,92397.8,10.82,-0.2,0.16,0.96,0.9,6.2,-1.4,32.5,,,,,,,,,,
14.07.07.362,185.5,46.4,0,3.0,,92938.4,10.76,-0.2,0.16,0.96,0.3,5.7,-1.3,32.5,,,,,,,,,,
14.07.07.374,257.1,64.3,0,3.0,,91671.3,10.91,-0.2,0.15,0.97,0.5,5.3,-1.5,32.5,,,,,,,,,,
14.07.07.383,270.9,67.7,0,3.0,,91224.5,10.96,-0.19,0.15,0.97,0.3,5.4,-1.5,32.5,,,,,,,,,,
14.07.07.395,289.3,72.3,0,3.0,,93375.8,10.71,-0.2,0.15,0.97,0.3,5.4,-1.7,32.5,,,,,,,,,,
14.07.07.407,303.0,75.8,0,3.0,,91731.9,10.9,-0.2,0.15,0.97,0.0,5.1,-1.5,32.5,,,,,,,,,,
14.07.07.415,331.2,82.8,0,3.0,,92125.0,10.85,-0.19,0.16,0.97,-0.2,5.5,-1.7,32.5,,,,,,,,,,
14.07.07.427,317.3,79.3,0,3.0,,91473.0,10.93,-0.19,0.15,0.97,-0.1,5.2,-1.4,32.5,,,,,,,,,,
14.07.07.436,316.9,79.2,0,3.0,,91369.5,10.94,-0.2,0.15,0.96,0.0,5.7,-1.6,32.5,,,,,,,,,,
14.07.07.448,313.5,78.4,0,3.0,,92390.5,10.82,-0.19,0.15,0.96,0.1,5.2,-1.3,32.5,,,,,,,,,,
14.07.07.461,268.7,67.2,0,3.0,,92094.4,10.86,-0.19,0.15,0.97,0.1,5.8,-1.5,32.5,,,,,,,,,,
14.07.07.469,264.3,66.1,0,3.0,,92186.6,10.85,-0.19,0.15,0.97,0.0,5.4,-1.7,32.5,,,,,,,,,,
14.07.07.481,208.2,52.0,0,3.0,,92214.8,10.84,-0.19,0.15,0.96,0.1,5.6,-1.5,32.5,,,,,,,,,,
14.07.07.489,181.4,45.4,0,3.0,,93747.8,10.67,-0.19,0.15,0.97,0.2,4.8,-1.5,32.5,,,,,,,,,,
14.07.07.502,131.0,32.8,0,3.0,,93273.3,10.72,-0.2,0.16,0.97,0.6,5.8,-1.5,32.5,,,,,,,,,,
14.07.07.510,81.6,20.4,0,3.0,,93359.1,10.71,-0.19,0.16,0.97,-0.1,5.6,-1.6,32.5,,,,,,,,,,
14.07.07.522,26.4,6.6,0,3.0,,90672.7,11.03,-0.2,0.16,0.97,-0.1,5.2,-1.4,32.5,,,,,,,,,,
14.07.07.531,16.1,4.0,0,3.0,,92746.7,10.78,-0.2,0.16,0.96,-0.3,5.2,-1.7,32.5,,,,,,,,,,
14.07.07.542,23.2,5.8,0,3.0,,90858.1,11.01,-0.2,0.16,0.97,-0.3,5.3,-1.7,32.5,,,,,,,,,,
14.07.07.551,37.2,9.3,0,3.0,,91633.4,10.91,-0.2,0.15,0.97,-0.5,5.5,-1.7,32.5,,,,,,,,,,
14.07.07.563,45.8,11.4,0,3.0,,93526.8,10.69,-0.19,0.15,0.96,-0.2,5.7,-1.6,32.5,,,,,,,,,,
14.07.07.571,53.1,13.3,0,3.0,,93352.1,10.71,-0.2,0.15,0.97,-0.2,4.4,-1.6,32.5,,,,,,,,,,
14.07.07.583,68.0,17.0,0,3.0,,92954.5,10.76,-0.19,0.14,0.98,0.1,6.1,-1.7,32.5,,,,,,,,,,
14.07.07.591,62.4,15.6,0,3.0,,92753.7,10.78,-0.19,0.15,0.96,-0.4,5.4,-1.9,32.5,,,,,,,,,,
14.07.07.604,44.5,11.1,0,3.0,,92441.7,10.82,-0.19,0.15,0.97,0.4,5.5,-1.5,32.5,,,,,,,,,,
14.07.07.612,44.8,11.2,0,3.0,,92553.2,10.8,-0.2,0.16,0.97,0.2,5.5,-1.7,32.5,,,,,,,,,,
14.07.07.625,27.8,7.0,0,3.0,,93065.1,10.75,-0.2,0.15,0.97,0.1,4.9,-1.4,32.5,,,,,,,,,,
14.07.07.633,17.0,4.2,0,3.0,,91017.9,10.99,-0.19,0.15,0.97,-0.4,5.2,-1.7,32.5,,,,,,,,,,
14.07.07.645,5.2,1.3,0,3.0,,92432.0,10.82,-0.19,0.15,0.97,-0.3,5.6,-1.7,32.5,,,,,,,,,,
14.07.07.653,-4.8,1.2,0,3.0,,91589.9,10.92,-0.19,0.15,0.97,-0.3,5.1,-1.3,32.5,,,,,,,,,,
14.07.07.694,-21.2,5.3,0,3.0,,91898.4,10.88,-0.19,0.15,0.97,0.0,5.5,-1.6,32.5,,,,,,,,,,
14.07.07.702,-21.3,5.3,0,3.0,,92035.5,10.87,-0.19,0.14,0.97,0.2,5.8,-1.2,32.5,,,,,,,,,,
14.07.07.715,-29.4,7.4,0,3.0,,92235.6,10.84,-0.19,0.15,0.97,0.7,6.1,-0.9,32.5,,,,,,,,,,
14.07.07.722,-53.7,13.4,0,3.0,,91728.6,10.9,-0.19,0.15,0.97,0.6,6.1,-0.8,32.5,,,,,,,,,,
14.07.07.735,-38.2,9.6,0,3.0,,90342.8,11.07,-0.2,0.16,0.97,0.6,6.2,-0.7,32.5,,,,,,,,,,
14.07.07.743,-43.6,10.9,0,3.0,,92264.8,10.84,-0.19,0.16,0.97,0.4,5.9,-0.9,32.5,,,,,,,,,,
14.07.07.755,-55.1,13.8,0,3.0,,91820.0,10.89,-0.2,0.15,0.97,0.7,6.1,-0.8,32.5,,,,,,,,,,
14.07.07.764,-51.5,12.9,0,3.0,,91939.2,10.88,-0.19,0.15,0.96,0.0,5.8,-1.1,32.5,,,,,,,,,,
14.07.07.776,-63.4,15.8,0,3.0,,92737.6,10.78,-0.2,0.15,0.97,0.5,5.8,-1.0,32.5,,,,,,,,,,
14.07.07.784,-69.7,17.4,0,3.0,,92361.7,10.83,-0.19,0.14,0.97,0.6,5.7,-1.2,32.5,,,,,,,,,,
14.07.07.797,-71.5,17.9,0,3.0,,92286.0,10.84,-0.19,0.15,0.96,0.8,6.2,-0.9,32.5,,,,,,,,,,
14.07.07.805,-82.3,20.6,0,3.0,,92066.2,10.86,-0.19,0.15,0.97,0.7,5.6,-1.3,32.5,,,,,,,,,,
14.07.07.817,-71.7,17.9,0,3.0,,92148.9,10.85,-0.2,0.15,0.97,1.1,5.8,-0.9,32.5,,,,,,,,,,
14.07.07.825,-92.5,23.1,0,3.0,,91352.9,10.95,-0.2,0.15,0.97,0.7,5.9,-0.8,32.5,,,,,,,,,,
14.07.07.838,-90.7,22.7,0,3.0,,92290.0,10.84,-0.2,0.15,0.97,0.6,5.5,-1.2,32.5,,,,,,,,,,
14.07.07.846,-95.2,23.8,0,3.0,,91450.4,10.93,-0.2,0.16,0.98,0.1,5.8,-1.3,32.5,,,,,,,,,,
14.07.07.858,-89.1,22.3,0,3.0,,91720.9,10.9,-0.19,0.15,0.97,0.3,5.8,-1.2,32.5,,,,,,,,,,
14.07.07.866,-112.4,28.1,0,3.0,,91118.5,10.97,-0.19,0.15,0.97,0.0,5.7,-1.1,32.5,,,,,,,,,,
14.07.07.879,-114.8,28.7,0,3.0,,92596.3,10.8,-0.19,0.15,0.97,0.2,6.0,-1.4,32.5,,,,,,,,,,
14.07.07.887,-117.5,29.4,0,3.0,,93748.7,10.67,-0.19,0.15,0.96,0.4,5.6,-1.2,32.5,,,,,,,,,,
14.07.07.898,-114.2,28.6,0,3.0,,92605.7,10.8,-0.19,0.15,0.97,0.4,5.6,-1.1,32.5,,,,,,,,,,
14.07.07.907,-124.3,31.1,0,3.0,,89991.0,11.11,-0.19,0.15,0.98,0.5,6.2,-1.1,32.5,,,,,,,,,,
14.07.07.920,11.1,2.8,1,4.0,97.5,92425.8,10.82,-0.19,0.15,0.97,0.7,5.8,-1.0,32.5,,,,,,,,,,
14.07.07.928,48.1,12.0,0,4.0,,91940.8,10.88,-0.19,0.15,0.97,0.4,6.3,-0.8,32.5,,,,,,,,,,
14.07.07.939,96.2,24.0,0,4.0,,92354.0,10.83,-0.19,0.15,0.97,0.6,6.1,-1.0,32.5,,,,,,,,,,
14.07.07.948,153.6,38.4,0,4.0,,93194.8,10.73,-0.2,0.15,0.96,0.8,6.0,-1.1,32.5,,,,,,,,,,
14.07.07.960,193.2,48.3,0,4.0,,92386.3,10.82,-0.19,0.15,0.97,0.7,5.9,-1.3,32.5,,,,,,,,,,
14.07.07.969,218.3,54.6,0,4.0,,92876.1,10.77,-0.2,0.15,0.97,0.4,5.8,-1.2,32.5,,,,,,,,,,
14.07.07.981,277.7,69.4,0,4.0,,92512.0,10.81,-0.2,0.15,0.96,0.2,5.8,-1.3,32.5,,,,,,,,,,
14.07.07.989,282.7,70.7,0,4.0,,91244.1,10.96,-0.19,0.15,0.96,0.4,5.7,-1.4,32.5,,,,,,,,,,
14.07.08.002,317.8,79.4,0,4.0,,92882.7,10.77,-0.2,0.15,0.97,0.2,5.5,-1.7,32.5,,,,,,,,,,
14.07.08.014,302.5,75.6,0,4.0,,92832.6,10.77,-0.19,0.15,0.97,0.4,5.7,-1.4,32.5,,,,,,,,,,
14.07.08.025,319.3,79.8,0,4.0,,92210.0,10.84,-0.19,0.15,0.97,0.0,5.5,-1.4,32.5,,,,,,,,,,
14.07.08.034,302.3,75.6,0,4.0,,92938.0,10.76,-0.19,0.15,0.97,0.4,5.6,-1.3,32.5,,,,,,,,,,
14.07.08.047,324.1,81.0,0,4.0,,92841.3,10.77,-0.19,0.15,0.97,0.1,5.4,-1.5,32.5,,,,,,,,,,
14.07.08.055,290.3,72.6,0,4.0,,92093.9,10.86,-0.19,0.15,0.97,0.0,5.4,-1.3,32.5,,,,,,,,,,
14.07.08.066,266.4,66.6,0,4.0,,91567.8,10.92,-0.19,0.15,0.97,0.1,5.7,-1.4,32.5,,,,,,,,,,
14.07.08.075,222.0,55.5,0,4.0,,91711.5,10.9,-0.2,0.15,0.96,0.6,5.6,-1.1,32.5,,,,,,,,,,
14.07.08.087,161.5,40.4,0,4.0,,93196.3,10.73,-0.2,0.15,0.96,0.4,5.9,-1.0,32.5,,,,,,,,,,
14.07.08.096,147.8,37.0,0,4.0,,91891.3,10.88,-0.19,0.15,0.96,0.6,5.9,-1.1,32.5,,,,,,,,,,
14.07.08.107,93.6,23.4,0,4.0,,92683.6,10.79,-0.2,0.15,0.97,0.4,5.5,-1.2,32.5,,,,,,,,,,
14.07.08.116,53.9,13.5,0,4.0,,91727.2,10.9,-0.2,0.16,0.97,0.1,5.8,-1.3,32.5,,,,,,,,,,
14.07.08.128,6.2,1.6,0,4.0,,91991.0,10.87,-0.19,0.15,0.97,0.0,5.4,-1.5,32.5,,,,,,,,,,
14.07.08.137,22.2,5.6,0,4.0,,92876.1,10.77,-0.2,0.15,0.97,-0.1,5.6,-1.1,32.5,,,,,,,,,,
14.07.08.148,35.3,8.8,0,4.0,,92772.3,10.78,-0.19,0.15,0.97,0.3,5.6,-1.0,32.5,,,,,,,,,,
14.07.08.157,41.9,10.5,0,4.0,,92055.7,10.86,-0.2,0.15,0.97,0.1,5.5,-1.2,32.5,,,,,,,,,,
14.07.08.169,48.0,12.0,0,4.0,,93319.2,10.72,-0.19,0.15,0.96,0.3,5.6,-1.1,32.5,,,,,,,,,,
14.07.08.178,51.3,12.8,0,4.0,,91617.0,10.92,-0.19,0.15,0.96,0.4,6.0,-1.0,32.5,,,,,,,,,,
14.07.08.189,48.6,12.2,0,4.0,,91546.5,10.92,-0.19,0.15,0.96,0.5,5.6,-1.0,32.5,,,,,,,,,,
14.07.08.198,55.5,13.9,0,4.0,,92167.8,10.85,-0.19,0.15,0.96,0.5,5.5,-1.3,32.5,,,,,,,,,,
14.07.08.210,44.3,11.1,0,4.0,,92874.3,10.77,-0.19,0.15,0.97,0.3,6.0,-1.0,32.5,,,,,,,,,,
14.07.08.218,50.4,12.6,0,4.0,,93972.3,10.64,-0.2,0.15,0.97,0.0,5.3,-1.2,32.5,,,,,,,,,,
14.07.08.230,19.5,4.9,0,4.0,,90966.2,10.99,-0.19,0.15,0.97,0.1,5.8,-1.2,32.5,,,,,,,,,,
14.07.08.238,16.6,4.2,0,4.0,,92260.4,10.84,-0.19,0.15,0.97,0.1,5.9,-1.3,32.5,,,,,,,,,,
14.07.08.251,0.4,0.1,0,4.0,,93262.2,10.72,-0.2,0.15,0.97,0.4,5.8,-0.9,32.5,,,,,,,,,,
14.07.08.259,-7.7,1.9,0,4.0,,92372.1,10.83,-0.2,0.15,0.97,0.5,5.9,-1.5,32.5,,,,,,,,,,
14.07.08.272,-16.2,4.0,0,4.0,,91670.4,10.91,-0.19,0.14,0.97,0.6,5.8,-1.3,32.5,,,,,,,,,,
14.07.08.279,-15.5,3.9,0,4.0,,92063.4,10.86,-0.2,0.15,0.96,0.6,5.9,-1.1,32.5,,,,,,,,,,
14.07.08.292,-13.8,3.4,0,4.0,,92123.1,10.86,-0.19,0.15,0.97,0.6,6.0,-1.1,32.5,,,,,,,,,,
14.07.08.300,-18.9,4.7,0,4.0,,93388.9,10.71,-0.19,0.15,0.96,0.6,5.8,-0.9,32.5,,,,,,,,,,
14.07.08.313,-25.5,6.4,0,4.0,,93391.8,10.71,-0.19,0.15,0.97,0.5,5.5,-1.1,32.5,,,,,,,,,,
14.07.08.321,-45.2,11.3,0,4.0,,91599.8,10.92,-0.19,0.15,0.97,0.4,5.7,-1.5,32.5,,,,,,,,,,
14.07.08.333,-51.5,12.9,0,4.0,,93720.4,10.67,-0.19,0.15,0.97,0.5,5.6,-1.6,32.5,,,,,,,,,,
14.07.08.342,-52.3,13.1,0,4.0,,91827.2,10.89,-0.2,0.15,0.97,0.1,5.1,-1.5,32.5,,,,,,,,,,
14.07.08.354,-55.6,13.9,0,4.0,,92502.7,10.81,-0.19,0.15,0.97,0.3,5.8,-1.3,32.5,,,,,,,,,,
14.07.08.361,-51.8,13.0,0,4.0,,92540.5,10.81,-0.19,0.15,0.97,0.6,5.5,-1.4,32.5,,,,,,,,,,
14.07.08.374,-73.9,18.5,0,4.0,,91698.1,10.91,-0.2,0.15,0.97,0.3,5.6,-1.2,32.5,,,,,,,,,,
14.07.08.383,-54.2,13.6,0,4.0,,92938.0,10.76,-0.19,0.15,0.97,0.4,5.7,-1.1,32.5,,,,,,,,,,
14.07.08.394,-68.4,17.1,0,4.0,,91055.4,10.98,-0.19,0.15,0.96,0.8,5.9,-1.3,32.5,,,,,,,,,,
14.07.08.402,-69.8,17.4,0,4.0,,92585.7,10.8,-0.2,0.15,0.96,0.7,5.4,-1.4,32.5,,,,,,,,,,
14.07.08.415,-79.0,19.8,0,4.0,,92856.2,10.77,-0.19,0.15,0.97,0.5,5.6,-1.1,32.5,,,,,,,,,,
14.07.08.428,-81.2,20.3,0,4.0,,92753.0,10.78,-0.2,0.15,0.97,-0.3,5.3,-1.3,32.5,,,,,,,,,,
14.07.08.436,-87.3,21.8,0,4.0,,93420.1,10.7,-0.19,0.15,0.97,0.3,6.0,-1.2,32.5,,,,,,,,,,
14.07.08.448,-97.9,24.5,0,4.0,,92182.6,10.85,-0.2,0.15,0.96,0.5,5.5,-0.9,32.5,,,,,,,,,,
14.07.08.456,-99.0,24.8,0,4.0,,90537.7,11.05,-0.2,0.15,0.97,0.0,5.9,-1.6,32.5,,,,,,,,,,
14.07.08.493,-117.3,29.3,0,4.0,,93546.7,10.69,-0.19,0.15,0.97,0.3,5.3,-1.3,32.5,,,,,,,,,,
14.07.08.505,-123.4,30.8,0,4.0,,92007.1,10.87,-0.2,0.15,0.97,-0.1,5.5,-1.2,32.5,,,,,,,,,,
14.07.08.514,-125.7,31.4,0,4.0,,91870.1,10.88,-0.2,0.15,0.97,0.3,5.4,-1.4,32.5,,,,,,,,,,
14.07.08.526,37.8,9.4,1,5.0,102.4,91487.9,10.93,-0.2,0.15,0.96,0.3,5.3,-1.5,32.5,,,,,,,,,,
14.07.08.534,95.1,23.8,0,5.0,,91121.2,10.97,-0.2,0.15,0.97,0.6,5.7,-1.1,32.5,,,,,,,,,,
14.07.08.546,129.7,32.4,0,5.0,,90836.7,11.01,-0.19,0.15,0.97,0.8,5.6,-1.0,32.5,,,,,,,,,,
14.07.08.554,164.8,41.2,0,5.0,,92367.2,10.83,-0.19,0.15,0.97,0.9,6.0,-0.8,32.5,,,,,,,,,,
14.07.08.567,190.0,47.5,0,5.0,,93108.1,10.74,-0.19,0.15,0.97,1.0,5.8,-1.1,32.5,,,,,,,,,,
14.07.08.575,261.6,65.4,0,5.0,,91844.5,10.89,-0.19,0.15,0.96,1.0,5.8,-0.9,32.5,,,,,,,,,,
14.07.08.587,265.8,66.4,0,5.0,,92532.0,10.81,-0.19,0.15,0.97,0.5,6.0,-1.2,32.5,,,,,,,,,,
14.07.08.596,290.1,72.5,0,5.0,,93577.2,10.69,-0.2,0.16,0.97,0.8,5.8,-1.3,32.5,,,,,,,,,,
14.07.08.608,303.9,76.0,0,5.0,,92322.2,10.83,-0.2,0.15,0.97,0.2,5.6,-1.1,32.5,,,,,,,,,,
14.07.08.615,324.9,81.2,0,5.0,,91424.9,10.94,-0.19,0.16,0.97,0.2,5.8,-1.4,32.5,,,,,,,,,,
14.07.08.628,327.6,81.9,0,5.0,,92407.9,10.82,-0.19,0.15,0.96,0.2,5.9,-1.3,32.5,,,,,,,,,,
14.07.08.637,314.7,78.7,0,5.0,,91625.4,10.91,-0.2,0.16,0.96,-0.1,5.8,-1.3,32.5,,,,,,,,,,
14.07.08.649,253.0,63.2,0,5.0,,92631.3,10.8,-0.2,0.15,0.97,0.1,5.7,-1.3,32.5,,,,,,,,,,
14.07.08.661,259.0,64.8,0,5.0,,91492.0,10.93,-0.19,0.15,0.96,0.4,5.8,-1.2,32.5,,,,,,,,,,
14.07.08.669,246.1,61.5,0,5.0,,90962.9,10.99,-0.19,0.15,0.97,0.1,5.6,-1.0,32.5,,,,,,,,,,
14.07.08.682,203.0,50.8,0,5.0,,93045.6,10.75,-0.19,0.15,0.97,0.2,5.8,-1.2,32.5,,,,,,,,,,
14.07.08.690,162.3,40.6,0,5.0,,92384.7,10.82,-0.2,0.15,0.97,0.4,5.7,-1.3,32.5,,,,,,,,,,
14.07.08.702,117.2,29.3,0,5.0,,92718.5,10.79,-0.19,0.15,0.97,0.0,5.9,-1.1,32.5,,,,,,,,,,
14.07.08.710,69.7,17.4,0,5.0,,91639.9,10.91,-0.2,0.15,0.97,0.2,5.9,-1.3,32.5,,,,,,,,,,
14.07.08.723,10.9,2.7,0,5.0,,90987.4,10.99,-0.2,0.15,0.97,0.6,5.7,-1.1,32.5,,,,,,,,,,
14.07.08.731,8.8,2.2,0,5.0,,92965.1,10.76,-0.19,0.15,0.97,0.4,5.7,-1.2,32.5,,,,,,,,,,
14.07.08.743,21.4,5.4,0,5.0,,93048.1,10.75,-0.19,0.15,0.97,0.4,5.8,-1.6,32.5,,,,,,,,,,
14.07.08.751,43.9,11.0,0,5.0,,91502.2,10.93,-0.2,0.15,0.97,0.1,5.3,-1.1,32.5,,,,,,,,,,
14.07.08.763,44.1,11.0,0,5.0,,93138.9,10.74,-0.19,0.15,0.97,0.1,5.6,-1.4,32.5,,,,,,,,,,
14.07.08.772,48.8,12.2,0,5.0,,92330.3,10.83,-0.19,0.15,0.97,0.1,5.7,-1.4,32.5,,,,,,,,,,
14.07.08.784,66.8,16.7,0,5.0,,92079.9,10.86,-0.2,0.15,0.97,0.1,5.6,-1.4,32.5,,,,,,,,,,
14.07.08.792,72.6,18.2,0,5.0,,91537.3,10.92,-0.19,0.15,0.97,0.2,5.2,-1.1,32.5,,,,,,,,,,
14.07.08.804,48.7,12.2,0,5.0,,92721.9,10.78,-0.19,0.15,0.97,0.0,5.9,-1.5,32.5,,,,,,,,,,
14.07.08.816,41.6,10.4,0,5.0,,92651.7,10.79,-0.19,0.15,0.97,0.2,5.3,-1.5,32.5,,,,,,,,,,
14.07.08.825,31.0,7.8,0,5.0,,92603.6,10.8,-0.19,0.15,0.97,0.3,5.7,-1.1,32.5,,,,,,,,,,
14.07.08.837,18.7,4.7,0,5.0,,90417.6,11.06,-0.19,0.15,0.98,0.2,5.6,-1.0,32.5,,,,,,,,,,
14.07.08.846,3.4,0.8,0,5.0,,91854.4,10.89,-0.19,0.15,0.97,0.6,6.1,-1.3,32.5,,,,,,,,,,
14.07.08.858,-1.8,0.4,0,5.0,,92323.4,10.83,-0.19,0.15,0.97,0.4,5.6,-1.4,32.5,,,,,,,,,,
14.07.08.866,-14.0,3.5,0,5.0,,92308.0,10.83,-0.19,0.15,0.98,0.2,6.0,-1.2,32.5,,,,,,,,,,
14.07.08.878,-11.9,3.0,0,5.0,,90996.5,10.99,-0.19,0.15,0.97,0.3,5.5,-1.3,32.5,,,,,,,,,,
14.07.08.886,-26.3,6.6,0,5.0,,92595.5,10.8,-0.19,0.15,0.97,0.3,5.8,-1.3,32.5,,,,,,,,,,
14.07.08.898,-29.4,7.4,0,5.0,,93042.6,10.75,-0.2,0.15,0.97,0.0,5.3,-1.1,32.5,,,,,,,,,,
14.07.08.907,-37.6,9.4,0,5.0,,90760.7,11.02,-0.19,0.15,0.97,0.4,6.0,-1.5,32.5,,,,,,,,,,
14.07.08.919,-34.2,8.6,0,5.0,,92317.6,10.83,-0.19,0.15,0.97,0.3,5.8,-1.4,32.5,,,,,,,,,,
14.07.08.928,-39.5,9.9,0,5.0,,91385.5,10.94,-0.19,0.15,0.98,0.4,5.7,-1.3,32.5,,,,,,,,,,
14.07.08.939,-46.1,11.5,0,5.0,,92313.0,10.83,-0.19,0.15,0.97,0.2,5.9,-0.9,32.5,,,,,,,,,,
14.07.08.948,-51.4,12.8,0,5.0,,91317.5,10.95,-0.19,0.15,0.96,0.3,5.6,-1.0,32.5,,,,,,,,,,
14.07.08.960,-58.0,14.5,0,5.0,,92224.3,10.84,-0.2,0.15,0.97,0.3,5.7,-1.5,32.5,,,,,,,,,,
14.07.08.968,-49.2,12.3,0,5.0,,92193.1,10.85,-0.19,0.15,0.97,0.4,5.7,-1.0,32.5,,,,,,,,,,
14.07.08.980,-46.6,11.6,0,5.0,,93639.4,10.68,-0.2,0.15,0.97,0.3,5.8,-1.5,32.5,,,,,,,,,,
14.07.08.989,-68.7,17.2,0,5.0,,93114.6,10.74,-0.19,0.15,0.97,0.1,5.5,-1.2,32.5,,,,,,,,,,
14.07.09.000,-81.4,20.4,0,5.0,,93547.3,10.69,-0.2,0.15,0.97,0.1,5.9,-1.1,32.5,,,,,,,,,,
14.07.09.009,-78.2,19.6,0,5.0,,91530.0,10.93,-0.2,0.15,0.96,0.2,5.6,-1.5,32.5,,,,,,,,,,
14.07.09.022,-93.1,23.3,0,5.0,,90644.4,11.03,-0.2,0.15,0.97,0.2,5.4,-1.5,32.5,,,,,,,,,,
14.07.09.030,-79.7,19.9,0,5.0,,91091.9,10.98,-0.19,0.15,0.97,0.4,5.5,-1.6,32.5,,,,,,,,,,
14.07.09.042,-86.7,21.7,0,5.0,,91439.8,10.94,-0.2,0.15,0.97,0.3,5.9,-1.2,32.5,,,,,,,,,,
14.07.09.050,-91.9,23.0,0,5.0,,92266.6,10.84,-0.19,0.15,0.97,0.2,5.8,-1.2,32.5,,,,,,,,,,
14.07.09.063,-116.4,29.1,0,5.0,,93548.4,10.69,-0.19,0.15,0.97,0.0,5.5,-1.4,32.5,,,,,,,,,,
14.07.09.071,-97.0,24.2,0,5.0,,92149.3,10.85,-0.2,0.15,0.97,0.2,5.8,-1.3,32.5,,,,,,,,,,
14.07.09.083,-121.2,30.3,0,5.0,,92547.4,10.81,-0.19,0.15,0.97,0.2,5.5,-1.4,32.5,,,,,,,,,,
14.07.09.093,-118.8,29.7,0,5.0,,92917.7,10.76,-0.2,0.15,0.96,0.2,5.6,-1.2,32.5,,,,,,,,,,
14.07.09.104,-119.5,29.9,0,5.0,,91817.1,10.89,-0.2,0.15,0.97,0.5,5.4,-1.3,32.5,,,,,,,,,,
14.07.09.111,-119.3,29.8,0,5.0,,92304.6,10.83,-0.2,0.15,0.97,0.2,5.5,-1.4,32.5,,,,,,,,,,
14.07.09.123,34.2,8.6,1,6.0,99.6,91314.9,10.95,-0.19,0.15,0.97,0.0,5.7,-1.5,32.5,,,,,,,,,,
14.07.09.132,74.8,18.7,0,6.0,,90540.5,11.04,-0.19,0.15,0.97,0.2,5.6,-1.5,32.5,,,,,,,,,,
14.07.09.145,129.9,32.5,0,6.0,,92403.1,10.82,-0.19,0.15,0.97,0.5,5.7,-1.1,32.5,,,,,,,,,,
14.07.09.152,178.7,44.7,0,6.0,,92244.9,10.84,-0.19,0.15,0.97,0.3,5.3,-1.3,32.5,,,,,,,,,,
14.07.09.165,213.3,53.3,0,6.0,,92344.3,10.83,-0.19,0.15,0.97,0.6,5.6,-1.4,32.5,,,,,,,,,,
14.07.09.173,238.1,59.5,0,6.0,,93030.8,10.75,-0.19,0.15,0.97,0.8,5.6,-1.2,32.5,,,,,,,,,,
14.07.09.185,288.3,72.1,0,6.0,,93349.7,10.71,-0.19,0.15,0.98,0.8,5.7,-1.1,32.5,,,,,,,,,,
14.07.09.198,324.6,81.2,0,6.0,,92138.8,10.85,-0.19,0.14,0.98,0.7,5.8,-1.2,32.5,,,,,,,,,,
14.07.09.206,283.0,70.8,0,6.0,,91444.2,10.94,-0.2,0.15,0.97,1.1,5.7,-0.9,32.5,,,,,,,,,,
14.07.09.218,293.1,73.3,0,6.0,,91578.1,10.92,-0.19,0.15,0.96,0.8,5.8,-1.1,32.5,,,,,,,,,,
14.07.09.226,300.6,75.2,0,6.0,,90903.5,11.0,-0.2,0.15,0.97,0.8,5.6,-1.1,32.5,,,,,,,,,,
14.07.09.239,314.9,78.7,0,6.0,,93532.0,10.69,-0.19,0.15,0.97,1.0,5.6,-1.2,32.5,,,,,,,,,,
14.07.09.247,293.3,73.3,0,6.0,,91311.2,10.95,-0.19,0.15,0.97,0.5,5.8,-1.3,32.5,,,,,,,,,,
14.07.09.259,299.5,74.9,0,6.0,,92312.2,10.83,-0.19,0.15,0.98,0.4,5.7,-1.2,32.5,,,,,,,,,,
14.07.09.296,136.7,34.2,0,6.0,,90870.7,11.0,-0.19,0.15,0.97,0.2,5.6,-1.2,32.5,,,,,,,,,,
14.07.09.308,80.9,20.2,0,6.0,,92364.7,10.83,-0.2,0.15,0.97,0.5,5.8,-1.3,32.5,,,,,,,,,,
14.07.09.317,43.7,10.9,0,6.0,,91955.5,10.87,-0.19,0.15,0.97,0.5,5.6,-1.2,32.5,,,,,,,,,,
14.07.09.328,-0.7,0.2,0,6.0,,90907.8,11.0,-0.2,0.15,0.97,0.6,5.7,-1.3,32.5,,,,,,,,,,
14.07.09.337,13.7,3.4,0,6.0,,91408.8,10.94,-0.2,0.15,0.97,0.2,5.9,-1.3,32.5,,,,,,,,,,
14.07.09.349,28.2,7.0,0,6.0,,91473.0,10.93,-0.2,0.15,0.96,0.2,5.2,-1.2,32.5,,,,,,,,,,
14.07.09.357,44.5,11.1,0,6.0,,92467.2,10.81,-0.2,0.15,0.97,0.3,5.6,-1.3,32.5,,,,,,,,,,
14.07.09.370,58.8,14.7,0,6.0,,92738.0,10.78,-0.19,0.15,0.98,0.4,5.5,-1.3,32.5,,,,,,,,,,
14.07.09.377,53.0,13.2,0,6.0,,92438.9,10.82,-0.19,0.15,0.97,0.2,5.7,-1.6,32.5,,,,,,,,,,
14.07.09.390,59.8,15.0,0,6.0,,92164.4,10.85,-0.19,0.15,0.97,0.0,5.5,-1.3,32.5,,,,,,,,,,
14.07.09.399,47.2,11.8,0,6.0,,92425.3,10.82,-0.19,0.15,0.97,0.2,5.7,-1.1,32.5,,,,,,,,,,
14.07.09.411,42.0,10.5,0,6.0,,91463.9,10.93,-0.2,0.15,0.97,0.5,5.5,-1.2,32.5,,,,,,,,,,
14.07.09.419,40.9,10.2,0,6.0,,92308.0,10.83,-0.2,0.15,0.97,0.0,5.6,-0.9,32.5,,,,,,,,,,
14.07.09.431,22.4,5.6,0,6.0,,92045.2,10.86,-0.19,0.15,0.97,0.4,5.7,-1.4,32.5,,,,,,,,,,
14.07.09.439,9.5,2.4,0,6.0,,92016.0,10.87,-0.19,0.15,0.97,0.4,5.8,-1.3,32.5,,,,,,,,,,
14.07.09.452,-0.1,0.0,0,6.0,,92328.8,10.83,-0.2,0.15,0.97,0.3,5.6,-0.9,32.5,,,,,,,,,,
14.07.09.459,-20.6,5.2,0,6.0,,91117.5,10.97,-0.19,0.15,0.97,0.6,5.7,-1.3,32.5,,,,,,,,,,
14.07.09.472,-10.0,2.5,0,6.0,,91037.0,10.98,-0.2,0.15,0.98,0.3,5.3,-1.1,32.5,,,,,,,,,,
14.07.09.480,-16.0,4.0,0,6.0,,92797.4,10.78,-0.19,0.15,0.97,0.1,5.7,-1.2,32.5,,,,,,,,,,
14.07.09.492,-20.8,5.2,0,6.0,,91734.5,10.9,-0.19,0.15,0.97,0.3,5.7,-1.5,32.5,,,,,,,,,,
14.07.09.500,-21.1,5.3,0,6.0,,92758.0,10.78,-0.2,0.15,0.97,0.6,5.8,-1.1,32.5,,,,,,,,,,
14.07.09.513,-35.1,8.8,0,6.0,,92076.0,10.86,-0.19,0.15,0.97,0.5,5.8,-1.2,32.5,,,,,,,,,,
14.07.09.521,-33.9,8.5,0,6.0,,92132.5,10.85,-0.2,0.15,0.97,0.5,5.7,-1.0,32.5,,,,,,,,,,
14.07.09.534,-50.1,12.5,0,6.0,,93219.3,10.73,-0.19,0.15,0.97,0.4,5.9,-1.4,32.5,,,,,,,,,,
14.07.09.544,-33.9,8.5,0,6.0,,92218.8,10.84,-0.19,0.15,0.97,0.6,5.7,-1.0,32.5,,,,,,,,,,
14.07.09.553,-58.1,14.5,0,6.0,,91713.8,10.9,-0.19,0.15,0.97,0.6,5.7,-1.2,32.5,,,,,,,,,,
14.07.09.566,-46.0,11.5,0,6.0,,91805.9,10.89,-0.19,0.15,0.97,0.8,5.9,-1.2,32.5,,,,,,,,,,
14.07.09.574,-54.8,13.7,0,6.0,,92654.7,10.79,-0.2,0.15,0.97,0.8,5.7,-1.3,32.5,,,,,,,,,,
14.07.09.587,-69.7,17.4,0,6.0,,91036.0,10.98,-0.2,0.15,0.97,0.5,5.7,-1.2,32.5,,,,,,,,,,
14.07.09.595,-68.8,17.2,0,6.0,,91547.0,10.92,-0.2,0.15,0.97,0.4,5.8,-1.4,32.5,,,,,,,,,,
14.07.09.607,-78.9,19.7,0,6.0,,91058.0,10.98,-0.19,0.15,0.97,0.3,5.7,-1.3,32.5,,,,,,,,,,
14.07.09.616,-86.9,21.7,0,6.0,,91615.6,10.92,-0.19,0.15,0.97,0.5,5.7,-1.2,32.5,,,,,,,,,,
14.07.09.628,-84.0,21.0,0,6.0,,92006.1,10.87,-0.19,0.15,0.96,0.7,5.6,-1.5,32.5,,,,,,,,,,
14.07.09.636,-88.5,22.1,0,6.0,,91847.6,10.89,-0.19,0.15,0.97,0.7,5.5,-1.1,32.5,,,,,,,,,,
14.07.09.648,-98.7,24.7,0,6.0,,91104.3,10.98,-0.19,0.15,0.97,0.7,5.7,-1.4,32.5,,,,,,,,,,
14.07.09.657,-99.2,24.8,0,6.0,,92215.1,10.84,-0.19,0.15,0.97,0.7,5.8,-1.6,32.5,,,,,,,,,,
14.07.09.669,-97.3,24.3,0,6.0,,92430.9,10.82,-0.19,0.16,0.97,0.4,5.6,-1.4,32.5,,,,,,,,,,
14.07.09.676,-126.7,31.7,0,6.0,,92290.6,10.84,-0.19,0.15,0.97,0.5,5.7,-1.2,32.5,,,,,,,,,,
14.07.09.689,-112.7,28.2,0,6.0,,93265.8,10.72,-0.19,0.15,0.97,0.5,5.6,-1.4,32.5,,,,,,,,,,
14.07.09.698,-124.9,31.2,0,6.0,,92690.6,10.79,-0.19,0.15,0.96,0.2,5.8,-1.3,32.5,,,,,,,,,,
14.07.09.710,-126.5,31.6,0,6.0,,91878.9,10.88,-0.2,0.15,0.96,0.2,5.7,-1.3,32.5,,,,,,,,,,
14.07.09.718,8.9,2.2,1,7.0,102.9,94706.0,10.56,-0.19,0.15,0.97,0.3,5.3,-1.2,32.5,,,,,,,,,,
14.07.09.730,62.1,15.5,0,7.0,,91081.1,10.98,-0.19,0.15,0.98,0.2,5.3,-1.3,32.5,,,,,,,,,,
14.07.09.739,97.2,24.3,0,7.0,,91431.7,10.94,-0.19,0.15,0.98,0.1,5.6,-1.3,32.5,,,,,,,,,,
14.07.09.751,154.5,38.6,0,7.0,,91869.1,10.89,-0.2,0.15,0.97,0.0,5.5,-1.3,32.5,,,,,,,,,,
14.07.09.759,200.4,50.1,0,7.0,,90724.0,11.02,-0.19,0.15,0.96,0.5,5.8,-1.0,32.5,,,,,,,,,,
14.07.09.771,242.4,60.6,0,7.0,,93369.3,10.71,-0.19,0.15,0.97,0.4,5.8,-1.4,32.5,,,,,,,,,,
14.07.09.779,251.3,62.8,0,7.0,,91268.2,10.96,-0.19,0.15,0.97,1.0,5.7,-1.4,32.5,,,,,,,,,,
14.07.09.791,273.8,68.4,0,7.0,,91471.5,10.93,-0.19,0.15,0.97,0.6,6.0,-0.8,32.5,,,,,,,,,,
14.07.09.800,298.0,74.5,0,7.0,,92145.6,10.85,-0.19,0.15,0.97,1.0,5.9,-1.1,32.5,,,,,,,,,,
14.07.09.812,325.2,81.3,0,7.0,,92430.8,10.82,-0.2,0.15,0.97,1.2,6.1,-0.9,32.5,,,,,,,,,,
14.07.09.820,309.3,77.3,0,7.0,,91226.4,10.96,-0.19,0.15,0.97,1.0,6.0,-0.7,32.5,,,,,,,,,,
14.07.09.833,321.8,80.4,0,7.0,,91325.4,10.95,-0.19,0.15,0.96,0.6,6.0,-0.9,32.5,,,,,,,,,,
14.07.09.841,317.8,79.4,0,7.0,,92240.3,10.84,-0.2,0.15,0.97,1.1,5.8,-1.0,32.5,,,,,,,,,,
14.07.09.853,279.7,69.9,0,7.0,,92182.6,10.85,-0.2,0.15,0.96,1.1,5.8,-0.8,32.5,,,,,,,,,,
14.07.09.861,272.5,68.1,0,7.0,,93195.4,10.73,-0.19,0.15,0.97,1.0,5.8,-1.1,32.5,,,,,,,,,,
14.07.09.874,225.4,56.4,0,7.0,,92396.7,10.82,-0.2,0.15,0.96,1.0,5.6,-1.1,32.5,,,,,,,,,,
14.07.09.882,210.1,52.5,0,7.0,,92415.4,10.82,-0.19,0.15,0.97,0.5,5.8,-1.4,32.5,,,,,,,,,,
14.07.09.894,139.7,34.9,0,7.0,,92464.1,10.82,-0.19,0.15,0.97,0.3,5.7,-1.2,32.5,,,,,,,,,,
14.07.09.906,90.3,22.6,0,7.0,,92237.0,10.84,-0.19,0.15,0.97,0.6,5.7,-1.5,32.5,,,,,,,,,,
14.07.09.918,24.5,6.1,0,7.0,,91252.7,10.96,-0.19,0.16,0.97,0.6,5.9,-1.3,32.5,,,,,,,,,,
14.07.09.926,4.6,1.2,0,7.0,,92233.0,10.84,-0.19,0.15,0.97,0.7,6.1,-1.2,32.5,,,,,,,,,,
14.07.09.939,19.1,4.8,0,7.0,,91858.9,10.89,-0.2,0.15,0.97,0.3,5.6,-1.0,32.5,,,,,,,,,,
14.07.09.948,37.9,9.5,0,7.0,,91076.6,10.98,-0.2,0.15,0.97,0.6,5.7,-1.2,32.5,,,,,,,,,,
14.07.09.959,45.9,11.5,0,7.0,,92233.4,10.84,-0.2,0.15,0.97,0.4,5.7,-1.3,32.5,,,,,,,,,,
14.07.09.972,56.3,14.1,0,7.0,,91326.9,10.95,-0.19,0.15,0.98,0.6,5.8,-1.3,32.5,,,,,,,,,,
14.07.09.984,68.4,17.1,0,7.0,,92859.9,10.77,-0.2,0.15,0.97,0.6,5.9,-1.2,32.5,,,,,,,,,,
14.07.09.992,53.1,13.3,0,7.0,,91783.7,10.9,-0.19,0.15,0.97,0.6,5.6,-1.4,32.5,,,,,,,,,,
14.07.10.004,55.7,13.9,0,7.0,,92976.9,10.76,-0.19,0.15,0.96,0.5,5.7,-1.2,32.5,,,,,,,,,,
14.07.10.017,38.5,9.6,0,7.0,,91620.3,10.91,-0.19,0.15,0.97,0.4,5.7,-1.4,32.5,,,,,,,,,,
14.07.10.025,33.8,8.4,0,7.0,,92396.0,10.82,-0.19,0.15,0.97,0.4,5.6,-1.2,32.5,,,,,,,,,,
14.07.10.038,8.5,2.1,0,7.0,,92054.2,10.86,-0.19,0.15,0.97,0.3,5.6,-1.2,32.5,,,,,,,,,,
14.07.10.049,-4.7,1.2,0,7.0,,91525.2,10.93,-0.19,0.15,0.97,0.4,5.6,-1.7,32.5,,,,,,,,,,
14.07.10.057,-10.2,2.6,0,7.0,,91983.4,10.87,-0.19,0.15,0.97,0.1,5.5,-1.4,32.5,,,,,,,,,,
14.07.10.099,-21.6,5.4,0,7.0,,92187.2,10.85,-0.19,0.14,0.97,0.3,6.0,-1.3,32.5,,,,,,,,,,
14.07.10.111,-30.8,7.7,0,7.0,,92331.2,10.83,-0.19,0.14,0.96,0.8,5.7,-1.3,32.5,,,,,,,,,,
14.07.10.124,-35.4,8.8,0,7.0,,91038.3,10.98,-0.2,0.15,0.97,1.0,6.0,-0.9,32.5,,,,,,,,,,
14.07.10.131,-42.9,10.7,0,7.0,,92551.0,10.8,-0.2,0.15,0.97,0.7,5.9,-1.0,32.5,,,,,,,,,,
14.07.10.143,-41.0,10.2,0,7.0,,92140.8,10.85,-0.19,0.15,0.98,0.8,5.7,-1.2,32.5,,,,,,,,,,
14.07.10.156,-53.0,13.2,0,7.0,,92321.1,10.83,-0.19,0.15,0.97,1.0,5.3,-1.1,32.5,,,,,,,,,,
14.07.10.165,-58.7,14.7,0,7.0,,91514.5,10.93,-0.2,0.15,0.96,0.3,5.8,-1.1,32.5,,,,,,,,,,
14.07.10.177,-71.4,17.8,0,7.0,,91084.9,10.98,-0.19,0.15,0.96,0.6,5.9,-1.3,32.5,,,,,,,,,,
14.07.10.189,-70.8,17.7,0,7.0,,91463.4,10.93,-0.19,0.15,0.98,0.2,5.5,-1.3,32.5,,,,,,,,,,
14.07.10.197,-80.4,20.1,0,7.0,,92797.1,10.78,-0.19,0.15,0.97,0.8,5.6,-1.1,32.5,,,,,,,,,,
14.07.10.210,-80.9,20.2,0,7.0,,90309.8,11.07,-0.19,0.15,0.96,0.2,6.0,-1.3,32.5,,,,,,,,,,
14.07.10.221,-86.4,21.6,0,7.0,,91857.1,10.89,-0.19,0.15,0.96,0.5,5.4,-1.1,32.5,,,,,,,,,,
14.07.10.234,-97.8,24.4,0,7.0,,93082.9,10.74,-0.19,0.15,0.97,0.8,5.7,-1.2,32.5,,,,,,,,,,
14.07.10.242,-95.4,23.8,0,7.0,,91915.1,10.88,-0.19,0.15,0.97,0.7,5.7,-1.2,32.5,,,,,,,,,,
14.07.10.256,-100.0,25.0,0,7.0,,92106.2,10.86,-0.19,0.15,0.97,0.7,5.9,-1.2,32.5,,,,,,,,,,
14.07.10.266,-95.3,23.8,0,7.0,,91160.8,10.97,-0.19,0.16,0.98,0.5,5.6,-1.5,32.5,,,,,,,,,,
14.07.10.274,-120.9,30.2,0,7.0,,92520.6,10.81,-0.2,0.15,0.97,0.5,5.9,-1.4,32.5,,,,,,,,,,
14.07.10.287,-120.6,30.2,0,7.0,,92457.1,10.82,-0.19,0.15,0.97,0.7,5.9,-1.2,32.5,,,,,,,,,,
14.07.10.299,-113.2,28.3,0,7.0,,91717.6,10.9,-0.2,0.15,0.96,0.4,5.9,-1.3,32.5,,,,,,,,,,
14.07.10.312,-124.7,31.2,0,7.0,,91797.1,10.89,-0.2,0.15,0.97,0.4,5.6,-0.9,32.5,,,,,,,,,,
14.07.10.320,21.8,5.4,1,8.0,99.3,91565.5,10.92,-0.19,0.15,0.97,0.5,5.9,-1.3,32.5,,,,,,,,,,
14.07.10.333,100.0,25.0,0,8.0,,93199.7,10.73,-0.2,0.15,0.97,0.3,5.7,-1.4,32.5,,,,,,,,,,
14.07.10.345,154.2,38.6,0,8.0,,93363.5,10.71,-0.2,0.15,0.98,0.3,5.9,-1.2,32.5,,,,,,,,,,
14.07.10.353,158.1,39.5,0,8.0,,92642.8,10.79,-0.19,0.15,0.96,0.4,5.6,-1.2,32.5,,,,,,,,,,
14.07.10.365,204.0,51.0,0,8.0,,92723.1,10.78,-0.19,0.15,0.95,0.8,5.5,-1.4,32.5,,,,,,,,,,
14.07.10.377,246.8,61.7,0,8.0,,92025.0,10.87,-0.2,0.15,0.97,1.1,5.5,-1.5,32.5,,,,,,,,,,
14.07.10.390,293.1,73.3,0,8.0,,92216.0,10.84,-0.19,0.15,0.97,0.9,5.9,-1.4,32.5,,,,,,,,,,
14.07.10.398,300.5,75.1,0,8.0,,93134.9,10.74,-0.19,0.15,0.97,0.8,5.7,-1.2,32.5,,,,,,,,,,
14.07.10.410,317.3,79.3,0,8.0,,90745.8,11.02,-0.19,0.15,0.97,0.7,6.4,-1.0,32.5,,,,,,,,,,
14.07.10.422,339.9,85.0,0,8.0,,91636.3,10.91,-0.19,0.15,0.96,1.2,6.0,-1.2,32.5,,,,,,,,,,
14.07.10.431,341.3,85.3,0,8.0,,91732.6,10.9,-0.19,0.15,0.96,1.3,5.7,-1.0,32.5,,,,,,,,,,
14.07.10.443,334.5,83.6,0,8.0,,91863.5,10.89,-0.19,0.15,0.97,0.9,5.9,-1.2,32.5,,,,,,,,,,
14.07.10.455,268.2,67.0,0,8.0,,92779.8,10.78,-0.19,0.16,0.97,0.7,5.9,-1.1,32.5,,,,,,,,,,
14.07.10.464,251.7,62.9,0,8.0,,92451.8,10.82,-0.2,0.15,0.97,0.8,5.8,-1.0,32.5,,,,,,,,,,
14.07.10.476,224.5,56.1,0,8.0,,92478.8,10.81,-0.2,0.15,0.97,0.2,5.8,-1.4,32.5,,,,,,,,,,
14.07.10.488,170.6,42.6,0,8.0,,92717.0,10.79,-0.19,0.15,0.97,0.2,5.7,-1.1,32.5,,,,,,,,,,
14.07.10.501,114.0,28.5,0,8.0,,92518.8,10.81,-0.19,0.15,0.96,0.3,5.4,-1.4,32.5,,,,,,,,,,
14.07.10.509,80.9,20.2,0,8.0,,91402.2,10.94,-0.2,0.15,0.97,0.2,6.1,-1.3,32.5,,,,,,,,,,
14.07.10.521,19.3,4.8,0,8.0,,92495.3,10.81,-0.19,0.15,0.97,0.3,5.6,-1.4,32.5,99.0,,,,,,,,,
14.07.10.529,8.3,2.1,0,8.0,,90897.2,11.0,-0.19,0.15,0.97,0.4,5.9,-1.4,32.5,,,,,,,,,,
14.07.10.541,30.2,7.6,0,8.0,,92378.4,10.83,-0.19,0.15,0.97,0.2,5.4,-1.1,32.5,,,,,,,,,,
14.07.10.550,24.5,6.1,0,8.0,,92255.2,10.84,-0.19,0.15,0.96,0.1,5.7,-1.4,32.5,,,,,,,,,,
14.07.10.561,55.0,13.8,0,8.0,,91732.6,10.9,-0.2,0.15,0.97,0.2,5.5,-1.5,32.5,,,,,,,,,,
14.07.10.570,50.3,12.6,0,8.0,,92210.9,10.84,-0.19,0.15,0.97,0.0,6.0,-1.4,32.5,,,,,,,,,,
14.07.10.583,58.3,14.6,0,8.0,,90772.2,11.02,-0.19,0.15,0.97,0.0,5.8,-1.4,32.5,,,,,,,,,,
14.07.10.591,62.5,15.6,0,8.0,,93059.2,10.75,-0.2,0.15,0.97,-0.2,5.7,-1.4,32.5,,,,,,,,,,
14.07.10.603,56.4,14.1,0,8.0,,92232.7,10.84,-0.19,0.15,0.96,-0.1,5.6,-1.4,32.5,,,,,,,,,,
14.07.10.611,38.7,9.7,0,8.0,,93004.7,10.75,-0.19,0.15,0.96,0.4,5.6,-1.3,32.5,,,,,,,,,,
14.07.10.623,25.6,6.4,0,8.0,,90449.1,11.06,-0.19,0.15,0.97,0.4,5.4,-1.4,32.5,,,,,,,,,,
14.07.10.632,21.6,5.4,0,8.0,,91302.5,10.95,-0.2,0.15,0.96,0.5,5.8,-1.4,32.5,,,,,,,,,,
14.07.10.643,4.8,1.2,0,8.0,,92293.2,10.84,-0.2,0.15,0.97,-0.1,5.7,-1.7,32.5,,,,,,,,,,
14.07.10.656,-10.6,2.6,0,8.0,,92230.5,10.84,-0.19,0.15,0.97,0.4,5.5,-1.5,32.5,,,,,,,,,,
14.07.10.665,-9.7,2.4,0,8.0,,90577.1,11.04,-0.19,0.15,0.98,0.1,5.5,-1.7,32.5,,,,,,,,,,
14.07.10.676,-23.7,5.9,0,8.0,,91870.3,10.88,-0.19,0.15,0.97,0.3,5.6,-1.7,32.5,,,,,,,,,,
14.07.10.685,-19.5,4.9,0,8.0,,91502.2,10.93,-0.19,0.15,0.97,0.5,5.5,-1.5,32.5,,,,,,,,,,
14.07.10.696,-13.8,3.4,0,8.0,,92872.0,10.77,-0.2,0.15,0.97,0.2,6.0,-1.3,32.5,,,,,,,,,,
14.07.10.705,-35.8,9.0,0,8.0,,93100.1,10.74,-0.19,0.15,0.97,0.3,5.8,-1.0,32.5,,,,,,,,,,
14.07.10.718,-36.2,9.0,0,8.0,,93525.4,10.69,-0.2,0.15,0.97,0.3,5.5,-1.0,32.5,,,,,,,,,,
14.07.10.726,-46.6,11.6,0,8.0,,91956.8,10.87,-0.19,0.15,0.97,0.3,5.4,-1.2,32.5,,,,,,,,,,
14.07.10.738,-52.9,13.2,0,8.0,,92040.7,10.86,-0.19,0.15,0.96,0.7,6.0,-1.1,32.5,,,,,,,,,,
14.07.10.746,-47.0,11.8,0,8.0,,91152.7,10.97,-0.19,0.15,0.96,0.6,6.2,-1.3,32.5,,,,,,,,,,
14.07.10.759,-55.0,13.8,0,8.0,,93916.4,10.65,-0.19,0.15,0.97,0.7,6.1,-1.2,32.5,,,,,,,,,,
14.07.10.767,-59.2,14.8,0,8.0,,93334.9,10.71,-0.19,0.15,0.98,0.4,5.6,-1.3,32.5,,,,,,,,,,
14.07.10.779,-65.6,16.4,0,8.0,,91320.3,10.95,-0.19,0.15,0.98,0.3,5.6,-1.1,32.5,,,,,,,,,,
14.07.10.787,-70.9,17.7,0,8.0,,92751.8,10.78,-0.19,0.15,0.97,0.5,5.7,-1.3,32.5,,,,,,,,,,
14.07.10.800,-69.0,17.2,0,8.0,,93818.7,10.66,-0.19,0.15,0.97,0.3,5.7,-1.2,32.5,,,,,,,,,,
14.07.10.808,-83.2,20.8,0,8.0,,91228.1,10.96,-0.2,0.15,0.96,0.3,5.8,-1.3,32.5,,,,,,,,,,
14.07.10.820,-83.6,20.9,0,8.0,,91319.9,10.95,-0.2,0.15,0.97,0.1,5.6,-1.1,32.5,,,,,,,,,,
14.07.10.828,-87.9,22.0,0,8.0,,92269.5,10.84,-0.2,0.15,0.98,0.4,5.7,-1.5,32.5,,,,,,,,,,
14.07.10.841,-100.6,25.2,0,8.0,,92084.9,10.86,-0.2,0.15,0.97,0.2,5.6,-1.3,32.5,,,,,,,,,,
14.07.10.848,-96.5,24.1,0,8.0,,92317.4,10.83,-0.19,0.15,0.97,0.5,5.8,-1.3,32.5,,,,,,,,,,
14.07.10.860,-90.9,22.7,0,8.0,,93565.2,10.69,-0.2,0.15,0.97,0.3,5.9,-1.4,32.5,,,,,,,,,,
14.07.10.898,-121.0,30.2,0,8.0,,92276.5,10.84,-0.19,0.15,0.97,0.3,5.7,-1.3,32.5,,,,,,,,,,
14.07.10.910,-118.8,29.7,0,8.0,,91867.6,10.89,-0.2,0.15,0.97,0.2,5.7,-1.4,32.5,,,,,,,,,,
14.07.10.918,9.8,2.4,1,9.0,100.7,92221.0,10.84,-0.19,0.15,0.97,0.0,5.4,-1.7,32.5,,,,,,,,,,
14.07.10.931,74.6,18.6,0,9.0,,92176.9,10.85,-0.19,0.15,0.97,0.1,5.8,-1.6,32.5,,,,,,,,,,
14.07.10.939,114.2,28.6,0,9.0,,92145.3,10.85,-0.2,0.15,0.97,0.0,5.3,-1.6,32.5,,,,,,,,,,
14.07.10.951,149.4,37.4,0,9.0,,91728.2,10.9,-0.2,0.15,0.97,0.1,5.4,-1.6,32.5,,,,,,,,,,
14.07.10.959,210.6,52.6,0,9.0,,91800.6,10.89,-0.19,0.15,0.96,0.1,5.4,-1.5,32.5,,,,,,,,,,
14.07.10.972,257.0,64.2,0,9.0,,91824.2,10.89,-0.19,0.15,0.97,0.5,5.4,-1.5,32.5,,,,,,,,,,
14.07.10.979,254.5,63.6,0,9.0,,91804.0,10.89,-0.19,0.15,0.98,0.7,5.7,-1.4,32.5,,,,,,,,,,
14.07.10.991,317.5,79.4,0,9.0,,92751.3,10.78,-0.19,0.15,0.97,0.6,5.8,-1.1,32.5,,,,,,,,,,
14.07.11.000,317.3,79.3,0,9.0,,91521.7,10.93,-0.19,0.15,0.97,0.3,5.8,-1.1,32.5,,,,,,,,,,
14.07.11.013,305.0,76.2,0,9.0,,91601.9,10.92,-0.19,0.15,0.97,0.4,5.8,-0.9,32.5,,,,,,,,,,
14.07.11.021,319.6,79.9,0,9.0,,92821.5,10.77,-0.2,0.15,0.97,0.6,5.8,-1.0,32.5,,,,,,,,,,
14.07.11.033,310.6,77.6,0,9.0,,92015.7,10.87,-0.19,0.15,0.96,0.7,6.4,-1.2,32.5,,,,,,,,,,
14.07.11.041,309.2,77.3,0,9.0,,91593.4,10.92,-0.2,0.16,0.97,0.6,5.5,-1.2,32.5,,,,,,,,,,
14.07.11.054,291.6,72.9,0,9.0,,92623.0,10.8,-0.2,0.15,0.97,0.7,5.6,-1.0,32.5,,,,,,,,,,
14.07.11.061,266.8,66.7,0,9.0,,94694.5,10.56,-0.2,0.15,0.97,0.3,6.3,-1.4,32.5,,,,,,,,,,
14.07.11.073,217.2,54.3,0,9.0,,92646.5,10.79,-0.2,0.15,0.97,0.4,5.5,-1.2,32.5,,,,,,,,,,
14.07.11.082,176.7,44.2,0,9.0,,91964.1,10.87,-0.19,0.15,0.97,0.1,6.0,-1.2,32.5,,,,,,,,,,
14.07.11.095,150.8,37.7,0,9.0,,92831.5,10.77,-0.2,0.15,0.97,0.2,6.2,-1.2,32.5,,,,,,,,,,
14.07.11.107,72.1,18.0,0,9.0,,93402.1,10.71,-0.2,0.15,0.97,0.1,5.5,-1.1,32.5,,,,,,,,,,
14.07.11.114,48.3,12.1,0,9.0,,91040.1,10.98,-0.2,0.15,0.97,0.1,5.7,-1.4,32.5,,,,,,,,,,
14.07.11.128,12.5,3.1,0,9.0,,92638.3,10.79,-0.19,0.15,0.97,0.5,6.1,-1.7,32.5,,,,,,,,,,
14.07.11.135,9.5,2.4,0,9.0,,92479.0,10.81,-0.19,0.15,0.97,0.2,5.9,-1.3,32.5,,,,,,,,,,
14.07.11.148,30.5,7.6,0,9.0,,92892.7,10.77,-0.2,0.15,0.96,0.1,5.6,-1.4,32.5,,,,,,,,,,
14.07.11.159,40.2,10.0,0,9.0,,91023.0,10.99,-0.19,0.14,0.96,0.6,5.5,-1.0,32.5,,,,,,,,,,
14.07.11.172,51.5,12.9,0,9.0,,91636.5,10.91,-0.19,0.15,0.97,0.8,6.1,-1.2,32.5,,,,,,,,,,
14.07.11.181,62.2,15.6,0,9.0,,92153.6,10.85,-0.2,0.15,0.97,0.7,5.7,-1.3,32.5,,,,,,,,,,
14.07.11.193,63.9,16.0,0,9.0,,92596.2,10.8,-0.19,0.15,0.97,0.5,5.6,-0.9,32.5,,,,,,,,,,
14.07.11.205,47.6,11.9,0,9.0,,91408.9,10.94,-0.19,0.15,0.97,0.4,5.9,-1.3,32.5,,,,,,,,,,
14.07.11.213,37.9,9.5,0,9.0,,92669.0,10.79,-0.19,0.15,0.97,0.2,5.7,-1.5,32.5,,,,,,,,,,
14.07.11.226,25.2,6.3,0,9.0,,91965.4,10.87,-0.19,0.15,0.97,0.3,5.3,-1.2,32.5,,,,,,,,,,
14.07.11.238,8.5,2.1,0,9.0,,91333.6,10.95,-0.2,0.15,0.97,0.3,5.2,-1.2,32.5,,,,,,,,,,
14.07.11.250,-2.0,0.5,0,9.0,,93417.9,10.7,-0.19,0.15,0.96,0.5,5.9,-1.8,32.5,,,,,,,,,,
14.07.11.258,-10.4,2.6,0,9.0,,92373.2,10.83,-0.19,0.15,0.97,0.3,6.2,-1.4,32.5,,,,,,,,,,
14.07.11.270,-2.1,0.5,0,9.0,,92629.4,10.8,-0.19,0.15,0.97,0.4,5.5,-1.2,32.5,,,,,,,,,,
14.07.11.283,-12.5,3.1,0,9.0,,93223.0,10.73,-0.19,0.15,0.97,0.1,5.4,-1.5,32.5,,,,,,,,,,
14.07.11.291,-23.5,5.9,0,9.0,,92181.6,10.85,-0.2,0.15,0.97,0.1,5.8,-1.3,32.5,,,,,,,,,,
14.07.11.303,-34.2,8.6,0,9.0,,92124.2,10.85,-0.19,0.15,0.97,0.2,5.3,-1.5,32.5,,,,,,,,,,
14.07.11.316,-40.2,10.0,0,9.0,,92626.2,10.8,-0.2,0.15,0.98,0.3,5.7,-1.5,32.5,,,,,,,,,,
14.07.11.323,-40.1,10.0,0,9.0,,92151.2,10.85,-0.2,0.15,0.97,0.5,5.7,-1.0,32.5,,,,,,,,,,
14.07.11.336,-40.9,10.2,0,9.0,,92205.6,10.85,-0.19,0.15,0.97,0.5,5.4,-1.3,32.5,,,,,,,,,,
14.07.11.348,-52.8,13.2,0,9.0,,92810.9,10.77,-0.2,0.15,0.97,0.5,5.6,-1.2,32.5,,,,,,,,,,
14.07.11.360,-52.6,13.2,0,9.0,,92341.2,10.83,-0.2,0.15,0.97,0.6,5.7,-0.9,32.5,,,,,,,,,,
14.07.11.369,-66.5,16.6,0,9.0,,91755.4,10.9,-0.19,0.15,0.97,0.6,5.5,-1.4,32.5,,,,,,,,,,
14.07.11.381,-70.1,17.5,0,9.0,,91260.1,10.96,-0.2,0.15,0.97,0.7,5.6,-1.1,32.5,,,,,,,,,,
14.07.11.394,-74.3,18.6,0,9.0,,91124.7,10.97,-0.2,0.15,0.97,0.5,5.2,-1.2,32.5,,,,,,,,,,
14.07.11.402,-74.2,18.6,0,9.0,,92115.6,10.86,-0.2,0.15,0.97,0.3,5.2,-1.1,32.5,,,,,,,,,,
14.07.11.413,-92.6,23.2,0,9.0,,91843.1,10.89,-0.2,0.15,0.97,0.4,5.7,-1.2,32.5,,,,,,,,,,
14.07.11.426,-88.7,22.2,0,9.0,,90766.8,11.02,-0.19,0.15,0.97,0.1,6.3,-1.2,32.5,,,,,,,,,,
14.07.11.439,-101.2,25.3,0,9.0,,92060.1,10.86,-0.19,0.15,0.97,0.2,5.7,-1.1,32.5,,,,,,,,,,
14.07.11.446,-87.0,21.8,0,9.0,,93209.1,10.73,-0.19,0.15,0.96,0.1,5.9,-1.2,32.5,,,,,,,,,,
14.07.11.459,-106.9,26.7,0,9.0,,91854.1,10.89,-0.2,0.15,0.97,0.5,5.8,-1.0,32.5,,,,,,,,,,
14.07.11.471,-89.6,22.4,0,9.0,,92044.4,10.86,-0.2,0.15,0.97,0.1,5.6,-1.1,32.5,,,,,,,,,,
14.07.11.480,-120.9,30.2,0,9.0,,91935.0,10.88,-0.19,0.15,0.97,0.4,6.0,-1.2,32.5,,,,,,,,,,
14.07.11.492,-114.7,28.7,0,9.0,,93621.8,10.68,-0.2,0.15,0.97,0.3,5.1,-1.4,32.5,,,,,,,,,,
14.07.11.504,-127.8,32.0,0,9.0,,92286.4,10.84,-0.19,0.15,0.97,0.3,5.5,-1.5,32.5,,,,,,,,,,
14.07.11.516,8.2,2.0,1,10.0,103.7,91741.2,10.9,-0.19,0.15,0.97,-0.1,5.3,-1.6,32.5,,,,,,,,,,
14.07.11.525,52.7,13.2,0,10.0,,92382.4,10.82,-0.2,0.15,0.96,-0.3,5.4,-1.6,32.5,,,,,,,,,,
14.07.11.537,101.5,25.4,0,10.0,,91967.0,10.87,-0.2,0.14,0.97,0.1,5.9,-1.7,32.5,,,,,,,,,,
14.07.11.549,169.3,42.3,0,10.0,,90491.1,11.05,-0.19,0.14,0.96,0.2,5.4,-1.3,32.5,,,,,,,,,,
14.07.11.557,194.9,48.7,0,10.0,,91789.6,10.89,-0.2,0.15,0.96,0.9,5.5,-1.2,32.5,,,,,,,,,,
14.07.11.570,240.7,60.2,0,10.0,,91945.9,10.88,-0.19,0.15,0.97,0.7,5.7,-1.1,32.5,,,,,,,,,,
14.07.11.582,282.9,70.7,0,10.0,,91175.4,10.97,-0.19,0.15,0.97,0.7,5.8,-1.0,32.5,,,,,,,,,,
14.07.11.594,314.8,78.7,0,10.0,,91894.9,10.88,-0.19,0.15,0.97,0.9,5.9,-1.1,32.5,,,,,,,,,,
14.07.11.602,312.4,78.1,0,10.0,,91546.9,10.92,-0.19,0.15,0.98,1.2,5.9,-1.0,32.5,,,,,,,,,,
14.07.11.615,313.0,78.2,0,10.0,,91330.0,10.95,-0.19,0.15,0.96,1.0,5.8,-0.9,32.5,,,,,,,,,,
14.07.11.626,307.0,76.8,0,10.0,,91978.5,10.87,-0.19,0.16,0.97,0.7,5.9,-1.3,32.5,,,,,,,,,,
14.07.11.639,291.9,73.0,0,10.0,,92338.0,10.83,-0.19,0.16,0.97,0.6,5.7,-1.3,32.5,,,,,,,,,,
14.07.11.648,303.3,75.8,0,10.0,,92944.2,10.76,-0.2,0.15,0.96,0.5,5.6,-1.4,32.5,,,,,,,,,,
14.07.11.660,254.9,63.7,0,10.0,,91868.3,10.89,-0.2,0.15,0.96,0.5,5.8,-1.3,32.5,,,,,,,,,,
14.07.11.668,219.4,54.8,0,10.0,,92955.8,10.76,-0.19,0.15,0.97,0.1,6.0,-1.4,32.5,,,,,,,,,,
14.07.11.704,98.8,24.7,0,10.0,,91743.2,10.9,-0.19,0.15,0.97,0.0,5.7,-1.6,32.56,,,,,,,,,,
14.07.11.717,36.0,9.0,0,10.0,,89771.8,11.14,-0.19,0.15,0.97,0.4,5.7,-1.3,32.56,,,,,,,,,,
14.07.11.725,0.4,0.1,0,10.0,,93197.0,10.73,-0.19,0.15,0.97,0.4,5.5,-1.3,32.56,,,,,,,,,,
14.07.11.738,18.4,4.6,0,10.0,,93075.9,10.74,-0.2,0.15,0.97,0.4,6.0,-1.0,32.56,,,,,,,,,,
14.07.11.745,28.4,7.1,0,10.0,,91100.7,10.98,-0.19,0.15,0.96,0.5,5.8,-1.3,32.56,,,,,,,,,,
14.07.11.758,55.5,13.9,0,10.0,,92734.8,10.78,-0.19,0.15,0.97,0.5,5.9,-1.4,32.56,,,,,,,,,,
14.07.11.766,43.3,10.8,0,10.0,,92501.9,10.81,-0.2,0.15,0.97,0.2,5.9,-1.1,32.56,,,,,,,,,,
14.07.11.779,49.8,12.4,0,10.0,,91877.6,10.88,-0.2,0.15,0.98,-0.2,5.7,-1.2,32.56,,,,,,,,,,
14.07.11.787,71.4,17.8,0,10.0,,92817.6,10.77,-0.19,0.15,0.97,-0.2,5.5,-1.2,32.56,,,,,,,,,,
14.07.11.799,47.7,11.9,0,10.0,,91932.9,10.88,-0.19,0.14,0.97,0.0,5.6,-1.5,32.56,,,,,,,,,,
14.07.11.807,44.9,11.2,0,10.0,,92548.2,10.81,-0.2,0.15,0.96,0.2,5.8,-1.6,32.56,,,,,,,,,,
14.07.11.820,35.6,8.9,0,10.0,,92214.0,10.84,-0.2,0.15,0.96,0.4,5.8,-1.5,32.56,,,,,,,,,,
14.07.11.827,21.9,5.5,0,10.0,,92713.2,10.79,-0.19,0.15,0.97,0.6,5.7,-1.4,32.56,,,,,,,,,,
14.07.11.840,5.8,1.4,0,10.0,,91497.5,10.93,-0.2,0.15,0.97,0.3,5.5,-1.2,32.56,,,,,,,,,,
14.07.11.848,-6.9,1.7,0,10.0,,92924.3,10.76,-0.19,0.15,0.97,0.3,5.6,-1.2,32.56,,,,,,,,,,
14.07.11.861,-8.4,2.1,0,10.0,,92627.0,10.8,-0.19,0.15,0.97,0.2,5.8,-1.2,32.56,,,,,,,,,,
14.07.11.869,-3.9,1.0,0,10.0,,93112.9,10.74,-0.19,0.15,0.97,-0.1,5.7,-1.3,32.56,,,,,,,,,,
14.07.11.880,-23.0,5.8,0,10.0,,91991.8,10.87,-0.19,0.15,0.97,0.2,5.7,-1.3,32.56,,,,,,,,,,
14.07.11.889,-20.8,5.2,0,10.0,,93054.3,10.75,-0.19,0.15,0.97,-0.1,5.7,-1.1,32.56,,,,,,,,,,
14.07.11.902,-25.0,6.2,0,10.0,,91947.0,10.88,-0.19,0.15,0.97,0.4,5.6,-1.1,32.56,,,,,,,,,,
14.07.11.909,-30.9,7.7,0,10.0,,91697.9,10.91,-0.2,0.15,0.97,0.2,5.7,-1.3,32.56,,,,,,,,,,
14.07.11.922,-33.6,8.4,0,10.0,,91414.4,10.94,-0.2,0.15,0.97,0.5,6.0,-1.3,32.56,,,,,,,,,,
14.07.11.934,-37.6,9.4,0,10.0,,92419.0,10.82,-0.19,0.15,0.96,0.6,6.0,-1.5,32.56,,,,,,,,,,
14.07.11.943,-50.9,12.7,0,10.0,,92630.7,10.8,-0.19,0.15,0.97,0.4,5.6,-1.2,32.56,,,,,,,,,,
14.07.11.955,-50.0,12.5,0,10.0,,89951.5,11.12,-0.2,0.15,0.97,0.3,5.6,-1.1,32.56,,,,,,,,,,
14.07.11.963,-57.6,14.4,0,10.0,,93468.6,10.7,-0.2,0.15,0.97,0.4,6.0,-1.3,32.56,,,,,,,,,,
14.07.11.975,-63.5,15.9,0,10.0,,92366.5,10.83,-0.2,0.15,0.96,0.4,5.8,-1.3,32.56,,,,,,,,,,
14.07.11.984,-71.0,17.8,0,10.0,,92671.9,10.79,-0.2,0.15,0.97,0.3,5.8,-1.5,32.56,,,,,,,,,,
14.07.11.996,-62.0,15.5,0,10.0,,91385.7,10.94,-0.19,0.15,0.96,0.2,5.1,-1.2,32.56,,,,,,,,,,
14.07.12.003,-71.3,17.8,0,10.0,,92202.6,10.85,-0.2,0.15,0.97,0.3,5.6,-1.5,32.56,,,,,,,,,,
14.07.12.016,-78.4,19.6,0,10.0,,92431.9,10.82,-0.2,0.15,0.97,0.6,5.4,-1.4,32.56,,,,,,,,,,
14.07.12.024,-91.0,22.8,0,10.0,,91358.3,10.95,-0.2,0.15,0.97,0.7,5.9,-1.5,32.56,,,,,,,,,,
14.07.12.037,-83.9,21.0,0,10.0,,93985.9,10.64,-0.2,0.15,0.97,0.4,5.5,-1.3,32.56,,,,,,,,,,
14.07.12.045,-92.5,23.1,0,10.0,,91513.1,10.93,-0.19,0.15,0.97,0.3,5.4,-0.9,32.56,,,,,,,,,,
14.07.12.057,-99.5,24.9,0,10.0,,92171.2,10.85,-0.19,0.15,0.97,0.4,5.7,-1.3,32.56,,,,,,,,,,
14.07.12.065,-113.1,28.3,0,10.0,,92781.2,10.78,-0.2,0.15,0.98,0.3,5.7,-1.2,32.56,,,,,,,,,,
14.07.12.078,-101.3,25.3,0,10.0,,91949.5,10.88,-0.2,0.14,0.97,0.6,5.6,-1.2,32.56,,,,,,,,,,
14.07.12.090,-110.1,27.5,0,10.0,,91350.5,10.95,-0.19,0.15,0.97,0.1,5.5,-1.3,32.56,,,,,,,,,,
14.07.12.098,-125.0,31.2,0,10.0,,91801.1,10.89,-0.19,0.15,0.97,0.1,5.6,-1.5,32.56,,,,,,,,,,
14.07.12.111,-136.4,34.1,0,10.0,,91674.0,10.91,-0.19,0.15,0.97,0.3,5.7,-1.5,32.56,,,,,,,,,,
14.07.12.118,22.5,5.6,1,11.0,98.8,91682.9,10.91,-0.19,0.15,0.97,0.3,5.7,-1.2,32.56,,,,,,,,,,
14.07.12.130,73.3,18.3,0,11.0,,92155.3,10.85,-0.19,0.15,0.98,-0.1,5.7,-1.7,32.56,,,,,,,,,,
14.07.12.139,127.7,31.9,0,11.0,,92585.8,10.8,-0.19,0.15,0.97,0.1,5.7,-1.2,32.56,,,,,,,,,,
14.07.12.151,166.2,41.6,0,11.0,,92458.9,10.82,-0.2,0.15,0.96,0.3,5.3,-1.3,32.56,,,,,,,,,,
14.07.12.160,207.9,52.0,0,11.0,,91499.5,10.93,-0.19,0.15,0.97,0.7,5.6,-1.3,32.56,,,,,,,,,,
14.07.12.172,249.3,62.3,0,11.0,,92365.5,10.83,-0.19,0.14,0.97,0.8,5.8,-1.3,32.56,,,,,,,,,,
14.07.12.179,266.8,66.7,0,11.0,,91494.5,10.93,-0.2,0.14,0.97,0.3,5.8,-0.9,32.56,,,,,,,,,,
14.07.12.192,310.5,77.6,0,11.0,,93057.7,10.75,-0.2,0.15,0.97,1.0,5.8,-1.1,32.56,,,,,,,,,,
14.07.12.201,321.9,80.5,0,11.0,,92608.6,10.8,-0.19,0.15,0.97,0.7,5.6,-1.1,32.56,,,,,,,,,,
14.07.12.213,311.4,77.8,0,11.0,,92547.3,10.81,-0.19,0.15,0.97,0.9,5.7,-1.3,32.56,,,,,,,,,,
14.07.12.221,330.7,82.7,0,11.0,,91361.8,10.95,-0.19,0.16,0.97,0.9,5.8,-1.3,32.56,,,,,,,,,,
14.07.12.233,310.2,77.6,0,11.0,,92841.1,10.77,-0.19,0.15,0.97,0.6,6.0,-1.3,32.56,,,,,,,,,,
14.07.12.241,277.6,69.4,0,11.0,,92914.2,10.76,-0.19,0.15,0.97,0.7,5.6,-0.9,32.56,,,,,,,,,,
14.07.12.254,255.1,63.8,0,11.0,,91702.7,10.9,-0.2,0.15,0.97,0.8,6.0,-1.3,32.56,,,,,,,,,,
14.07.12.262,251.7,62.9,0,11.0,,91571.8,10.92,-0.19,0.16,0.97,0.4,5.8,-1.4,32.56,,,,,,,,,,
14.07.12.274,224.3,56.1,0,11.0,,92190.7,10.85,-0.19,0.15,0.96,0.4,5.6,-1.1,32.56,,,,,,,,,,
14.07.12.287,153.5,38.4,0,11.0,,91780.1,10.9,-0.2,0.15,0.97,0.5,5.6,-1.3,32.56,,,,,,,,,,
14.07.12.294,139.2,34.8,0,11.0,,92276.2,10.84,-0.19,0.15,0.97,0.4,5.8,-1.0,32.56,,,,,,,,,,
14.07.12.307,74.9,18.7,0,11.0,,91788.2,10.89,-0.19,0.15,0.97,0.6,5.7,-1.1,32.56,,,,,,,,,,
14.07.12.315,35.8,9.0,0,11.0,,92154.8,10.85,-0.19,0.15,0.97,0.6,5.7,-1.1,32.56,,,,,,,,,,
14.07.12.328,4.8,1.2,0,11.0,,91052.8,10.98,-0.19,0.15,0.97,0.7,5.9,-1.3,32.56,,,,,,,,,,
14.07.12.336,17.9,4.5,0,11.0,,92003.5,10.87,-0.19,0.15,0.97,0.6,6.0,-1.2,32.56,,,,,,,,,,
14.07.12.347,27.4,6.8,0,11.0,,91706.2,10.9,-0.19,0.15,0.97,0.7,6.2,-1.2,32.56,,,,,,,,,,
14.07.12.356,49.9,12.5,0,11.0,,91897.4,10.88,-0.19,0.15,0.97,0.5,5.7,-1.2,32.56,,,,,,,,,,
14.07.12.369,49.1,12.3,0,11.0,,92479.1,10.81,-0.2,0.15,0.97,0.5,5.9,-1.2,32.56,,,,,,,,,,
14.07.12.377,61.5,15.4,0,11.0,,91574.8,10.92,-0.2,0.15,0.97,0.5,5.6,-1.2,32.56,,,,,,,,,,
14.07.12.389,55.4,13.8,0,11.0,,93925.7,10.65,-0.2,0.15,0.97,0.3,5.8,-1.3,32.56,,,,,,,,,,
14.07.12.397,44.9,11.2,0,11.0,,93493.7,10.7,-0.2,0.15,0.97,0.4,5.8,-1.2,32.56,,,,,,,,,,
14.07.12.409,38.8,9.7,0,11.0,,93392.1,10.71,-0.2,0.15,0.96,0.6,5.8,-1.3,32.56,,,,,,,,,,
14.07.12.418,30.3,7.6,0,11.0,,90976.6,10.99,-0.2,0.15,0.97,0.6,5.4,-1.3,32.56,,,,,,,,,,
14.07.12.430,25.7,6.4,0,11.0,,92333.9,10.83,-0.19,0.15,0.97,0.7,5.6,-1.4,32.56,,,,,,,,,,
14.07.12.438,0.1,0.0,0,11.0,,90768.1,11.02,-0.19,0.15,0.97,0.4,5.3,-1.3,32.56,,,,,,,,,,
14.07.12.451,-6.2,1.6,0,11.0,,91020.5,10.99,-0.19,0.15,0.98,0.8,5.7,-1.2,32.56,,,,,,,,,,
14.07.12.459,0.3,0.1,0,11.0,,90933.6,11.0,-0.19,0.15,0.97,0.6,5.4,-1.4,32.56,,,,,,,,,,
14.07.12.471,-8.0,2.0,0,11.0,,92616.1,10.8,-0.19,0.15,0.98,0.5,5.8,-0.9,32.56,,,,,,,,,,
14.07.12.508,-23.3,5.8,0,11.0,,91426.9,10.94,-0.2,0.15,0.97,0.4,5.8,-1.1,32.56,,,,,,,,,,
14.07.12.520,-31.0,7.8,0,11.0,,91190.3,10.97,-0.19,0.15,0.97,0.8,5.7,-1.0,32.56,,,,,,,,,,
14.07.12.528,-48.3,12.1,0,11.0,,91606.5,10.92,-0.19,0.15,0.97,1.1,5.7,-1.1,32.56,,,,,,,,,,
14.07.12.541,-46.1,11.5,0,11.0,,92512.8,10.81,-0.2,0.15,0.97,0.9,6.2,-1.2,32.56,,,,,,,,,,
14.07.12.549,-52.2,13.0,0,11.0,,91874.2,10.88,-0.2,0.15,0.97,0.5,6.0,-1.0,32.56,,,,,,,,,,
14.07.12.560,-55.0,13.8,0,11.0,,93082.9,10.74,-0.19,0.15,0.97,0.0,5.8,-0.9,32.56,,,,,,,,,,
14.07.12.569,-64.5,16.1,0,11.0,,92678.6,10.79,-0.19,0.15,0.96,1.0,5.8,-1.0,32.56,,,,,,,,,,
14.07.12.581,-74.4,18.6,0,11.0,,92481.2,10.81,-0.19,0.15,0.97,0.8,5.8,-1.2,32.56,,,,,,,,,,
14.07.12.589,-62.6,15.6,0,11.0,,93494.4,10.7,-0.19,0.15,0.96,1.0,6.1,-1.2,32.56,,,,,,,,,,
14.07.12.602,-70.4,17.6,0,11.0,,92663.9,10.79,-0.19,0.15,0.97,1.0,5.7,-1.4,32.56,,,,,,,,,,
14.07.12.610,-87.7,21.9,0,11.0,,91202.8,10.96,-0.19,0.15,0.97,1.0,6.0,-1.3,32.56,,,,,,,,,,
14.07.12.623,-95.6,23.9,0,11.0,,91977.1,10.87,-0.2,0.15,0.97,0.8,6.0,-1.3,32.56,,,,,,,,,,
14.07.12.631,-81.7,20.4,0,11.0,,93085.1,10.74,-0.19,0.15,0.97,0.6,5.6,-1.3,32.56,,,,,,,,,,
14.07.12.642,-81.2,20.3,0,11.0,,93460.3,10.7,-0.2,0.15,0.97,0.3,5.9,-1.4,32.56,,,,,,,,,,
14.07.12.651,-108.1,27.0,0,11.0,,91348.8,10.95,-0.2,0.15,0.97,0.1,5.9,-1.4,32.56,,,,,,,,,,
14.07.12.664,-107.5,26.9,0,11.0,,92195.7,10.85,-0.19,0.15,0.97,0.3,5.7,-1.1,32.56,,,,,,,,,,
14.07.12.672,-94.3,23.6,0,11.0,,94056.6,10.63,-0.19,0.15,0.96,0.5,6.0,-1.1,32.56,,,,,,,,,,
14.07.12.684,-101.3,25.3,0,11.0,,90401.7,11.06,-0.19,0.15,0.96,0.4,5.9,-1.5,32.56,,,,,,,,,,
14.07.12.692,-122.2,30.6,0,11.0,,91237.5,10.96,-0.2,0.15,0.96,0.5,5.5,-1.2,32.56,,,,,,,,,,
14.07.12.705,-129.4,32.4,0,11.0,,90554.6,11.04,-0.19,0.15,0.97,0.5,5.7,-1.1,32.56,,,,,,,,,,
14.07.12.713,-3.1,0.8,1,12.0,93.7,92823.8,10.77,-0.19,0.15,0.98,0.3,5.8,-1.4,32.56,,,,,,,,,,
14.07.12.725,50.5,12.6,0,12.0,,91030.6,10.99,-0.19,0.15,0.97,0.5,5.4,-1.3,32.56,,,,,,,,,,
14.07.12.733,96.1,24.0,0,12.0,,92010.7,10.87,-0.19,0.15,0.97,0.5,5.9,-0.9,32.56,,,,,,,,,,
14.07.12.745,157.9,39.5,0,12.0,,93513.5,10.69,-0.19,0.15,0.97,0.7,5.9,-1.4,32.56,,,,,,,,,,
14.07.12.754,190.4,47.6,0,12.0,,91846.4,10.89,-0.2,0.15,0.97,1.0,5.4,-1.0,32.56,,,,,,,,,,
14.07.12.766,244.5,61.1,0,12.0,,91628.5,10.91,-0.19,0.15,0.97,0.7,5.7,-1.3,32.56,,,,,,,,,,
14.07.12.774,269.5,67.4,0,12.0,,92591.6,10.8,-0.19,0.15,0.98,0.9,5.9,-0.9,32.56,,,,,,,,,,
14.07.12.786,282.3,70.6,0,12.0,,92193.4,10.85,-0.2,0.15,0.97,0.9,6.3,-0.9,32.56,,,,,,,,,,
14.07.12.795,297.4,74.4,0,12.0,,92958.5,10.76,-0.19,0.15,0.98,1.2,6.2,-0.9,32.56,,,,,,,,,,
14.07.12.806,295.7,73.9,0,12.0,,94130.8,10.62,-0.19,0.15,0.97,1.0,6.1,-1.1,32.56,,,,,,,,,,
14.07.12.814,326.9,81.7,0,12.0,,92019.2,10.87,-0.19,0.15,0.97,1.1,5.7,-0.8,32.56,,,,,,,,,,
14.07.12.827,318.9,79.7,0,12.0,,91554.9,10.92,-0.2,0.16,0.97,0.8,5.9,-1.4,32.56,,,,,,,,,,
14.07.12.835,324.3,81.1,0,12.0,,94345.2,10.6,-0.2,0.15,0.97,0.8,5.9,-1.3,32.56,,,,,,,,,,
14.07.12.848,299.1,74.8,0,12.0,,93081.3,10.74,-0.2,0.16,0.97,0.9,6.0,-1.4,32.56,,,,,,,,,,
14.07.12.855,278.5,69.6,0,12.0,,93472.0,10.7,-0.19,0.15,0.97,0.6,5.3,-1.2,32.56,,,,,,,,,,
14.07.12.868,227.8,57.0,0,12.0,,92463.5,10.82,-0.2,0.15,0.97,0.2,5.8,-1.3,32.56,,,,,,,,,,
14.07.12.880,187.4,46.8,0,12.0,,90721.5,11.02,-0.19,0.15,0.97,0.2,5.9,-1.3,32.56,,,,,,,,,,
14.07.12.891,150.6,37.6,0,12.0,,91619.3,10.91,-0.2,0.15,0.97,0.5,5.8,-1.3,32.56,,,,,,,,,,
14.07.12.901,103.9,26.0,0,12.0,,91728.1,10.9,-0.2,0.15,0.97,0.5,5.8,-1.4,32.56,,,,,,,,,,
14.07.12.913,46.6,11.6,0,12.0,,93387.7,10.71,-0.19,0.15,0.97,0.2,5.7,-1.4,32.56,,,,,,,,,,
14.07.12.922,8.3,2.1,0,12.0,,91990.8,10.87,-0.2,0.14,0.97,0.0,5.7,-1.2,32.56,,,,,,,,,,
14.07.12.934,15.3,3.8,0,12.0,,92320.3,10.83,-0.19,0.15,0.97,0.2,5.7,-1.1,32.56,,,,,,,,,,
14.07.12.942,32.0,8.0,0,12.0,,91270.1,10.96,-0.19,0.16,0.97,0.3,5.7,-1.4,32.56,,,,,,,,,,
14.07.12.954,39.3,9.8,0,12.0,,92934.1,10.76,-0.19,0.15,0.97,0.5,5.6,-1.2,32.56,,,,,,,,,,
14.07.12.963,51.3,12.8,0,12.0,,93194.0,10.73,-0.2,0.15,0.97,0.0,5.7,-1.4,32.56,,,,,,,,,,
14.07.12.974,53.5,13.4,0,12.0,,92207.1,10.85,-0.19,0.15,0.97,-0.2,5.9,-1.5,32.56,,,,,,,,,,
14.07.12.983,66.3,16.6,0,12.0,,92197.6,10.85,-0.2,0.15,0.96,-0.1,5.2,-1.4,32.56,,,,,,,,,,
14.07.12.995,57.7,14.4,0,12.0,,92495.0,10.81,-0.19,0.15,0.96,0.1,6.0,-1.8,32.56,,,,,,,,,,
14.07.13.004,51.2,12.8,0,12.0,,92223.5,10.84,-0.2,0.15,0.97,0.5,5.8,-1.0,32.56,,,,,,,,,,
14.07.13.015,39.1,9.8,0,12.0,,92869.8,10.77,-0.2,0.15,0.97,0.0,5.5,-1.2,32.56,,,,,,,,,,
14.07.13.023,23.6,5.9,0,12.0,,92449.3,10.82,-0.2,0.15,0.97,-0.2,5.5,-1.5,32.56,,,,,,,,,,
14.07.13.036,7.1,1.8,0,12.0,,92350.5,10.83,-0.2,0.15,0.97,0.3,5.6,-1.4,32.56,,,,,,,,,,
14.07.13.044,-1.4,0.4,0,12.0,,92006.2,10.87,-0.2,0.15,0.97,0.3,6.0,-1.3,32.56,,,,,,,,,,
14.07.13.056,-4.8,1.2,0,12.0,,92322.3,10.83,-0.2,0.15,0.96,-0.3,5.6,-1.4,32.56,,,,,,,,,,
14.07.13.065,-12.5,3.1,0,12.0,,91941.7,10.88,-0.2,0.15,0.97,0.2,5.6,-1.6,32.56,,,,,,,,,,
14.07.13.077,-8.1,2.0,0,12.0,,92404.9,10.82,-0.2,0.15,0.97,0.4,5.5,-1.4,32.56,,,,,,,,,,
14.07.13.086,-23.9,6.0,0,12.0,,91782.2,10.9,-0.2,0.15,0.97,0.6,5.5,-1.4,32.56,,,,,,,,,,
14.07.13.098,-33.8,8.4,0,12.0,,91778.7,10.9,-0.19,0.15,0.97,0.3,5.7,-1.5,32.56,,,,,,,,,,
14.07.13.106,-32.6,8.2,0,12.0,,92384.7,10.82,-0.19,0.15,0.97,0.4,5.6,-1.4,32.56,,,,,,,,,,
14.07.13.118,-41.2,10.3,0,12.0,,92766.8,10.78,-0.19,0.15,0.97,0.2,5.5,-0.9,32.56,,,,,,,,,,
14.07.13.127,-37.7,9.4,0,12.0,,90275.1,11.08,-0.19,0.15,0.97,0.3,6.2,-1.1,32.56,,,,,,,,,,
14.07.13.138,-49.4,12.4,0,12.0,,91803.2,10.89,-0.19,0.15,0.97,0.1,5.6,-1.4,32.56,,,,,,,,,,
14.07.13.147,-43.7,10.9,0,12.0,,91805.6,10.89,-0.2,0.15,0.97,0.0,5.6,-1.5,32.56,,,,,,,,,,
14.07.13.159,-66.8,16.7,0,12.0,,92380.7,10.82,-0.19,0.15,0.97,0.0,5.3,-1.4,32.56,,,,,,,,,,
14.07.13.167,-58.9,14.7,0,12.0,,92523.3,10.81,-0.19,0.15,0.97,0.2,5.6,-1.3,32.56,,,,,,,,,,
14.07.13.179,-61.5,15.4,0,12.0,,93725.5,10.67,-0.19,0.15,0.97,0.2,5.9,-1.7,32.56,,,,,,,,,,
14.07.13.191,-76.1,19.0,0,12.0,,91584.9,10.92,-0.19,0.15,0.97,0.2,5.7,-1.1,32.56,,,,,,,,,,
14.07.13.200,-71.8,18.0,0,12.0,,93559.0,10.69,-0.2,0.15,0.97,0.2,5.7,-1.2,32.56,,,,,,,,,,
14.07.13.213,-71.1,17.8,0,12.0,,90476.2,11.05,-0.2,0.15,0.97,0.2,5.7,-1.5,32.56,,,,,,,,,,
14.07.13.221,-87.9,22.0,0,12.0,,90862.3,11.01,-0.19,0.15,0.97,0.0,5.6,-1.4,32.56,,,,,,,,,,
14.07.13.232,-99.2,24.8,0,12.0,,91128.1,10.97,-0.19,0.15,0.97,-0.1,5.3,-1.5,32.56,,,,,,,,,,
14.07.13.241,-87.1,21.8,0,12.0,,93192.9,10.73,-0.19,0.15,0.97,-0.2,5.8,-1.5,32.56,,,,,,,,,,
14.07.13.253,-102.3,25.6,0,12.0,,92479.4,10.81,-0.2,0.15,0.97,0.2,5.8,-1.1,32.56,,,,,,,,,,
14.07.13.262,-99.7,24.9,0,12.0,,93139.3,10.74,-0.2,0.15,0.97,0.4,5.6,-1.6,32.56,,,,,,,,,,
14.07.13.274,-107.0,26.8,0,12.0,,93452.6,10.7,-0.2,0.15,0.96,0.2,5.5,-1.3,32.56,,,,,,,,,,
14.07.13.311,-134.5,33.6,0,12.0,,92038.7,10.86,-0.19,0.15,0.96,0.2,5.7,-1.3,32.56,,,,,,,,,,
14.07.13.319,32.2,8.0,1,13.0,97.9,92205.8,10.85,-0.19,0.15,0.97,-0.2,5.8,-1.7,32.56,,,,,,,,,,
14.07.13.331,90.1,22.5,0,13.0,,92123.5,10.85,-0.2,0.15,0.97,0.0,5.6,-1.5,32.56,,,,,,,,,,
14.07.13.339,123.3,30.8,0,13.0,,92435.0,10.82,-0.19,0.15,0.97,0.3,5.6,-1.3,32.56,,,,,,,,,,
14.07.13.351,186.9,46.7,0,13.0,,93012.4,10.75,-0.19,0.15,0.96,0.6,5.5,-1.2,32.56,,,,,,,,,,
14.07.13.359,212.3,53.1,0,13.0,,92033.3,10.87,-0.19,0.15,0.97,0.7,5.5,-1.2,32.56,,,,,,,,,,
14.07.13.372,232.6,58.2,0,13.0,,92849.8,10.77,-0.2,0.15,0.97,0.6,6.0,-0.9,32.56,,,,,,,,,,
14.07.13.380,257.5,64.4,0,13.0,,92415.4,10.82,-0.19,0.15,0.97,0.8,5.8,-0.9,32.56,,,,,,,,,,
14.07.13.393,292.8,73.2,0,13.0,,93319.3,10.72,-0.2,0.15,0.97,0.9,5.8,-0.8,32.56,,,,,,,,,,
14.07.13.401,318.8,79.7,0,13.0,,91294.0,10.95,-0.2,0.15,0.97,1.1,5.7,-1.0,32.56,,,,,,,,,,
14.07.13.413,350.6,87.6,0,13.0,,92641.6,10.79,-0.2,0.15,0.96,0.8,5.9,-1.0,32.56,,,,,,,,,,
14.07.13.421,314.3,78.6,0,13.0,,90602.0,11.04,-0.2,0.15,0.97,0.4,5.8,-1.3,32.56,,,,,,,,,,
14.07.13.434,304.9,76.2,0,13.0,,91429.8,10.94,-0.2,0.16,0.97,0.5,5.6,-1.0,32.56,,,,,,,,,,
14.07.13.442,309.8,77.4,0,13.0,,91641.7,10.91,-0.2,0.15,0.97,0.3,5.5,-1.3,32.56,,,,,,,,,,
14.07.13.454,230.2,57.6,0,13.0,,92097.6,10.86,-0.2,0.15,0.97,0.4,5.5,-1.4,32.56,,,,,,,,,,
14.07.13.467,239.4,59.8,0,13.0,,93247.6,10.72,-0.2,0.14,0.97,0.4,5.7,-1.7,32.56,,,,,,,,,,
14.07.13.478,166.4,41.6,0,13.0,,91948.0,10.88,-0.19,0.14,0.97,0.2,5.8,-1.3,32.56,,,,,,,,,,
14.07.13.487,159.1,39.8,0,13.0,,91146.0,10.97,-0.19,0.15,0.97,0.5,5.6,-1.0,32.56,,,,,,,,,,
14.07.13.499,109.0,27.2,0,13.0,,93321.5,10.72,-0.2,0.15,0.97,0.7,5.7,-1.3,32.56,,,,,,,,,,
14.07.13.507,75.8,19.0,0,13.0,,91224.0,10.96,-0.2,0.16,0.97,0.6,5.8,-1.1,32.56,,,,,,,,,,
14.07.13.516,18.1,4.5,0,13.0,,92921.5,10.76,-0.19,0.15,0.97,0.1,5.9,-1.3,32.56,,,,,,,,,,
14.07.13.528,9.7,2.4,0,13.0,,90682.8,11.03,-0.2,0.15,0.97,0.3,5.6,-1.1,32.56,,,,,,,,,,
14.07.13.540,31.1,7.8,0,13.0,,91488.0,10.93,-0.2,0.15,0.96,0.1,5.8,-1.3,32.56,,,,,,,,,,
14.07.13.548,42.9,10.7,0,13.0,,91798.6,10.89,-0.19,0.15,0.97,0.3,5.6,-1.3,32.56,,,,,,,,,,
14.07.13.560,55.9,14.0,0,13.0,,91457.2,10.93,-0.2,0.15,0.97,0.3,5.5,-1.5,32.56,,,,,,,,,,
14.07.13.568,55.9,14.0,0,13.0,,92817.6,10.77,-0.19,0.15,0.96,0.1,5.8,-1.4,32.56,,,,,,,,,,
14.07.13.581,59.5,14.9,0,13.0,,90666.6,11.03,-0.19,0.15,0.97,0.2,5.5,-1.6,32.56,,,,,,,,,,
14.07.13.589,52.2,13.0,0,13.0,,92125.0,10.85,-0.19,0.15,0.97,0.6,5.6,-1.2,32.56,,,,,,,,,,
14.07.13.602,45.2,11.3,0,13.0,,91921.7,10.88,-0.2,0.15,0.97,0.4,5.7,-1.2,32.56,,,,,,,,,,
14.07.13.610,41.2,10.3,0,13.0,,92220.2,10.84,-0.19,0.15,0.97,0.2,5.9,-1.0,32.56,,,,,,,,,,
14.07.13.622,34.5,8.6,0,13.0,,91903.1,10.88,-0.2,0.15,0.97,0.4,5.7,-1.3,32.56,,,,,,,,,,
14.07.13.630,13.9,3.5,0,13.0,,92194.4,10.85,-0.2,0.16,0.97,0.4,5.6,-1.2,32.56,,,,,,,,,,
14.07.13.642,0.2,0.0,0,13.0,,91414.5,10.94,-0.2,0.15,0.97,0.2,5.4,-1.2,32.56,,,,,,,,,,
14.07.13.651,0.7,0.2,0,13.0,,91921.4,10.88,-0.19,0.15,0.97,0.2,5.9,-1.2,32.56,,,,,,,,,,
14.07.13.663,-6.8,1.7,0,13.0,,92188.9,10.85,-0.19,0.15,0.97,0.3,5.5,-1.4,32.56,,,,,,,,,,
14.07.13.671,-12.7,3.2,0,13.0,,92511.1,10.81,-0.2,0.14,0.97,0.3,5.7,-1.3,32.56,,,,,,,,,,
14.07.13.684,-14.3,3.6,0,13.0,,93636.3,10.68,-0.19,0.15,0.97,0.3,5.6,-1.5,32.56,,,,,,,,,,
14.07.13.692,-26.3,6.6,0,13.0,,92314.8,10.83,-0.2,0.15,0.97,0.5,5.8,-1.2,32.56,,,,,,,,,,
14.07.13.704,-32.8,8.2,0,13.0,,93554.6,10.69,-0.19,0.15,0.97,0.2,5.7,-1.1,32.56,,,,,,,,,,
14.07.13.713,-34.6,8.6,0,13.0,,91856.8,10.89,-0.2,0.15,0.97,0.8,6.0,-1.1,32.56,,,,,,,,,,
14.07.13.724,-36.2,9.0,0,13.0,,91666.7,10.91,-0.2,0.15,0.96,0.2,5.7,-1.3,32.56,,,,,,,,,,
14.07.13.733,-54.3,13.6,0,13.0,,91427.4,10.94,-0.2,0.15,0.97,0.5,5.7,-1.2,32.56,,,,,,,,,,
14.07.13.744,-50.1,12.5,0,13.0,,91643.4,10.91,-0.19,0.15,0.96,0.3,5.9,-1.2,32.56,,,,,,,,,,
14.07.13.753,-48.0,12.0,0,13.0,,91191.8,10.97,-0.19,0.15,0.97,0.3,5.9,-1.3,32.56,,,,,,,,,,
14.07.13.766,-61.6,15.4,0,13.0,,90069.5,11.1,-0.2,0.14,0.97,0.3,6.0,-1.1,32.56,,,,,,,,,,
14.07.13.773,-49.8,12.4,0,13.0,,91795.0,10.89,-0.19,0.15,0.97,0.5,5.9,-1.2,32.56,,,,,,,,,,
14.07.13.786,-72.5,18.1,0,13.0,,92960.3,10.76,-0.19,0.15,0.97,0.4,5.4,-1.4,32.56,,,,,,,,,,
14.07.13.794,-74.6,18.6,0,13.0,,93374.8,10.71,-0.19,0.15,0.97,0.2,5.5,-1.3,32.56,,,,,,,,,,
14.07.13.807,-75.6,18.9,0,13.0,,92558.6,10.8,-0.2,0.15,0.97,0.3,5.2,-1.4,32.56,,,,,,,,,,
14.07.13.815,-80.5,20.1,0,13.0,,91227.4,10.96,-0.19,0.15,0.97,0.4,5.5,-1.2,32.56,,,,,,,,,,
14.07.13.827,-91.8,23.0,0,13.0,,91289.2,10.95,-0.2,0.15,0.97,0.3,5.8,-1.3,32.56,,,,,,,,,,
14.07.13.835,-95.5,23.9,0,13.0,,92049.5,10.86,-0.2,0.15,0.97,0.3,5.5,-1.3,32.56,,,,,,,,,,
14.07.13.848,-109.4,27.4,0,13.0,,92190.7,10.85,-0.19,0.15,0.96,0.0,5.6,-1.1,32.56,,,,,,,,,,
14.07.13.856,-91.3,22.8,0,13.0,,92447.8,10.82,-0.2,0.15,0.97,0.3,5.9,-1.5,32.56,,,,,,,,,,
14.07.13.868,-108.8,27.2,0,13.0,,91074.3,10.98,-0.19,0.15,0.97,0.4,5.7,-1.5,32.56,,,,,,,,,,
14.07.13.876,-113.8,28.4,0,13.0,,91690.5,10.91,-0.19,0.15,0.96,0.2,5.7,-1.4,32.56,,,,,,,,,,
14.07.13.888,-123.8,31.0,0,13.0,,91786.5,10.89,-0.19,0.15,0.97,0.3,5.7,-1.6,32.56,,,,,,,,,,
14.07.13.900,-115.9,29.0,0,13.0,,92317.3,10.83,-0.2,0.15,0.98,0.0,5.7,-1.4,32.56,,,,,,,,,,
14.07.13.909,-109.5,27.4,0,13.0,,92562.5,10.8,-0.2,0.15,0.98,0.0,5.8,-1.6,32.56,,,,,,,,,,
14.07.13.921,48.7,12.2,1,14.0,98.6,92764.2,10.78,-0.2,0.15,0.96,-0.3,5.6,-1.5,32.56,,,,,,,,,,
14.07.13.929,85.8,21.4,0,14.0,,92842.5,10.77,-0.2,0.15,0.97,0.0,5.7,-1.4,32.56,,,,,,,,,,
14.07.13.942,152.9,38.2,0,14.0,,92085.3,10.86,-0.19,0.15,0.96,0.3,5.5,-1.3,32.56,,,,,,,,,,
14.07.13.950,178.0,44.5,0,14.0,,91700.6,10.91,-0.2,0.15,0.97,0.6,5.7,-1.5,32.56,,,,,,,,,,
14.07.13.962,235.7,58.9,0,14.0,,92928.5,10.76,-0.2,0.15,0.97,1.0,5.8,-1.1,32.56,,,,,,,,,,
14.07.13.970,274.8,68.7,0,14.0,,92271.3,10.84,-0.19,0.15,0.97,0.8,5.8,-1.0,32.56,,,,,,,,,,
14.07.13.982,278.8,69.7,0,14.0,,91521.4,10.93,-0.19,0.15,0.97,0.9,5.9,-0.8,32.56,,,,,,,,,,
14.07.13.990,287.0,71.8,0,14.0,,93448.5,10.7,-0.19,0.14,0.97,1.1,6.1,-0.8,32.56,,,,,,,,,,
14.07.14.003,293.9,73.5,0,14.0,,92503.7,10.81,-0.2,0.15,0.97,1.1,6.1,-1.0,32.56,,,,,,,,,,
14.07.14.011,334.1,83.5,0,14.0,,91274.3,10.96,-0.2,0.15,0.97,0.8,6.1,-0.9,32.56,,,,,,,,,,
14.07.14.024,320.9,80.2,0,14.0,,92998.2,10.75,-0.19,0.15,0.97,0.6,5.7,-1.0,32.56,,,,,,,,,,
14.07.14.031,328.0,82.0,0,14.0,,91940.6,10.88,-0.2,0.15,0.97,0.3,5.9,-1.5,32.56,,,,,,,,,,
14.07.14.043,264.3,66.1,0,14.0,,92102.5,10.86,-0.2,0.15,0.96,0.1,5.7,-1.6,32.56,,,,,,,,,,
14.07.14.052,278.5,69.6,0,14.0,,91604.5,10.92,-0.2,0.15,0.97,0.3,5.3,-1.1,32.56,,,,,,,,,,
14.07.14.065,245.3,61.3,0,14.0,,93138.5,10.74,-0.2,0.15,0.97,-0.1,5.5,-1.4,32.56,,,,,,,,,,
14.07.14.077,205.0,51.2,0,14.0,,91997.5,10.87,-0.19,0.15,0.97,0.2,5.9,-1.3,32.56,,,,,,,,,,
14.07.14.114,24.6,6.2,0,14.0,,92214.8,10.84,-0.2,0.15,0.97,0.2,5.9,-1.2,32.56,,,,,,,,,,
14.07.14.122,-0.1,0.0,0,14.0,,92697.4,10.79,-0.19,0.15,0.97,0.2,5.8,-1.1,32.56,,,,,,,,,,
14.07.14.134,17.4,4.4,0,14.0,,91439.9,10.94,-0.2,0.15,0.97,0.4,5.7,-1.4,32.56,,,,,,,,,,
14.07.14.142,32.3,8.1,0,14.0,,91688.5,10.91,-0.2,0.15,0.97,0.3,5.6,-1.3,32.56,,,,,,,,,,
14.07.14.155,36.2,9.0,0,14.0,,92000.1,10.87,-0.19,0.15,0.97,0.0,5.6,-1.1,32.56,,,,,,,,,,
14.07.14.163,49.5,12.4,0,14.0,,90663.6,11.03,-0.2,0.15,0.97,0.1,6.0,-1.3,32.56,,,,,,,,,,
14.07.14.175,54.9,13.7,0,14.0,,94182.9,10.62,-0.19,0.15,0.96,-0.1,5.7,-1.4,32.56,,,,,,,,,,
14.07.14.183,56.8,14.2,0,14.0,,91740.4,10.9,-0.19,0.15,0.97,0.1,5.2,-1.2,32.56,,,,,,,,,,
14.07.14.195,56.0,14.0,0,14.0,,91609.2,10.92,-0.19,0.15,0.97,-0.1,5.8,-1.3,32.56,,,,,,,,,,
14.07.14.204,49.0,12.2,0,14.0,,92219.3,10.84,-0.19,0.15,0.97,0.1,5.6,-1.4,32.56,,,,,,,,,,
14.07.14.216,38.0,9.5,0,14.0,,92567.8,10.8,-0.2,0.15,0.97,0.2,5.6,-1.6,32.56,,,,,,,,,,
14.07.14.224,34.3,8.6,0,14.0,,91970.8,10.87,-0.19,0.15,0.97,0.4,5.8,-1.4,32.56,,,,,,,,,,
14.07.14.236,7.5,1.9,0,14.0,,92268.7,10.84,-0.2,0.15,0.97,0.4,5.5,-1.1,32.56,,,,,,,,,,
14.07.14.249,-5.9,1.5,0,14.0,,92206.6,10.85,-0.2,0.15,0.97,0.1,5.5,-1.3,32.56,,,,,,,,,,
14.07.14.257,-6.6,1.6,0,14.0,,92263.8,10.84,-0.19,0.15,0.97,0.0,5.7,-1.3,32.56,,,,,,,,,,
14.07.14.269,-18.6,4.6,0,14.0,,92515.3,10.81,-0.19,0.15,0.97,0.1,5.7,-1.3,32.56,,,,,,,,,,
14.07.14.277,-25.7,6.4,0,14.0,,94150.3,10.62,-0.2,0.14,0.97,0.3,5.4,-1.2,32.56,,,,,,,,,,
14.07.14.290,-28.2,7.0,0,14.0,,93535.6,10.69,-0.19,0.15,0.97,0.1,5.6,-1.2,32.56,,,,,,,,,,
14.07.14.297,-23.4,5.8,0,14.0,,92605.8,10.8,-0.19,0.15,0.97,0.6,5.9,-1.3,32.56,,,,,,,,,,
14.07.14.310,-38.8,9.7,0,14.0,,92448.8,10.82,-0.19,0.15,0.97,0.5,5.8,-1.0,32.56,,,,,,,,,,
14.07.14.319,-43.9,11.0,0,14.0,,91541.5,10.92,-0.2,0.15,0.97,0.6,5.6,-1.0,32.56,,,,,,,,,,
14.07.14.331,-46.8,11.7,0,14.0,,90795.3,11.01,-0.19,0.15,0.97,0.6,6.1,-1.0,32.56,,,,,,,,,,
14.07.14.339,-47.0,11.8,0,14.0,,92598.4,10.8,-0.19,0.15,0.97,0.4,5.7,-1.2,32.56,,,,,,,,,,
14.07.14.351,-54.7,13.7,0,14.0,,92711.2,10.79,-0.19,0.15,0.97,0.4,5.7,-1.2,32.56,,,,,,,,,,
14.07.14.360,-51.2,12.8,0,14.0,,92227.3,10.84,-0.2,0.15,0.97,0.4,5.5,-1.3,32.56,,,,,,,,,,
14.07.14.372,-64.2,16.0,0,14.0,,89904.4,11.12,-0.19,0.15,0.96,0.3,5.8,-1.2,32.56,,,,,,,,,,
14.07.14.380,-61.9,15.5,0,14.0,,91643.9,10.91,-0.2,0.15,0.97,0.2,5.7,-1.4,32.56,,,,,,,,,,
14.07.14.392,-78.4,19.6,0,14.0,,92262.1,10.84,-0.2,0.15,0.98,0.1,5.7,-1.3,32.56,,,,,,,,,,
14.07.14.400,-74.4,18.6,0,14.0,,90927.7,11.0,-0.19,0.15,0.97,0.2,5.7,-1.3,32.56,,,,,,,,,,
14.07.14.413,-82.3,20.6,0,14.0,,92877.2,10.77,-0.19,0.14,0.97,0.2,5.9,-1.4,32.56,,,,,,,,,,
14.07.14.421,-86.7,21.7,0,14.0,,92154.6,10.85,-0.19,0.15,0.97,0.1,5.7,-1.4,32.56,,,,,,,,,,
14.07.14.434,-92.4,23.1,0,14.0,,91259.8,10.96,-0.19,0.14,0.96,0.5,5.5,-1.2,32.56,,,,,,,,,,
14.07.14.442,-91.4,22.8,0,14.0,,90926.0,11.0,-0.2,0.14,0.97,0.3,5.8,-0.9,32.56,,,,,,,,,,
14.07.14.454,-110.2,27.6,0,14.0,,92133.8,10.85,-0.2,0.15,0.98,0.5,5.8,-1.1,32.56,,,,,,,,,,
14.07.14.462,-104.1,26.0,0,14.0,,92541.6,10.81,-0.2,0.15,0.97,0.5,5.7,-1.0,32.56,,,,,,,,,,
14.07.14.474,-121.4,30.4,0,14.0,,90942.4,11.0,-0.2,0.15,0.97,0.4,5.9,-1.2,32.56,,,,,,,,,,
14.07.14.482,-110.0,27.5,0,14.0,,91814.2,10.89,-0.2,0.15,0.97,0.2,5.6,-1.8,32.56,,,,,,,,,,
14.07.14.495,-149.5,37.4,0,14.0,,92481.6,10.81,-0.19,0.15,0.98,0.1,5.3,-1.3,32.56,,,,,,,,,,
14.07.14.502,-110.9,27.7,0,14.0,,91151.5,10.97,-0.2,0.15,0.97,0.2,5.2,-1.5,32.56,,,,,,,,,,
14.07.14.515,16.3,4.1,1,15.0,98.5,92868.3,10.77,-0.2,0.15,0.97,0.0,5.5,-1.3,32.56,,,,,,,,,,
14.07.14.523,58.4,14.6,0,15.0,,92110.3,10.86,-0.19,0.15,0.97,-0.3,5.7,-1.3,32.56,,,,,,,,,,
14.07.14.536,124.2,31.0,0,15.0,,91981.9,10.87,-0.19,0.15,0.96,-0.1,5.5,-1.6,32.56,,,,,,,,,,
14.07.14.548,178.7,44.7,0,15.0,,92863.4,10.77,-0.2,0.14,0.96,0.5,5.6,-1.5,32.56,,,,,,,,,,
14.07.14.556,222.4,55.6,0,15.0,,93047.4,10.75,-0.19,0.15,0.98,1.0,5.7,-1.2,32.56,,,,,,,,,,
14.07.14.568,255.4,63.8,0,15.0,,91170.1,10.97,-0.2,0.14,0.97,0.8,5.3,-1.0,32.56,,,,,,,,,,
14.07.14.577,262.8,65.7,0,15.0,,93020.2,10.75,-0.19,0.14,0.97,0.8,6.0,-1.0,32.56,,,,,,,,,,
14.07.14.589,299.7,74.9,0,15.0,,93298.6,10.72,-0.19,0.14,0.96,1.0,5.8,-1.0,32.56,,,,,,,,,,
14.07.14.597,327.0,81.8,0,15.0,,91521.4,10.93,-0.2,0.15,0.98,1.1,5.9,-0.9,32.56,,,,,,,,,,
14.07.14.609,344.6,86.2,0,15.0,,92611.4,10.8,-0.2,0.15,0.97,0.8,6.1,-1.1,32.56,,,,,,,,,,
14.07.14.617,323.8,81.0,0,15.0,,91922.6,10.88,-0.2,0.15,0.97,0.6,5.5,-1.1,32.56,,,,,,,,,,
14.07.14.629,298.7,74.7,0,15.0,,92062.1,10.86,-0.2,0.15,0.97,0.5,5.6,-1.3,32.56,,,,,,,,,,
14.07.14.638,299.3,74.8,0,15.0,,92300.1,10.83,-0.19,0.15,0.97,0.6,5.7,-0.9,32.56,,,,,,,,,,
14.07.14.650,263.1,65.8,0,15.0,,90674.5,11.03,-0.19,0.15,0.97,0.2,5.7,-1.4,32.56,,,,,,,,,,
14.07.14.659,261.9,65.5,0,15.0,,90612.7,11.04,-0.2,0.15,0.97,0.2,5.6,-1.1,32.56,,,,,,,,,,
14.07.14.675,198.0,49.5,0,15.0,,90712.6,11.02,-0.2,0.15,0.97,0.2,5.8,-1.4,32.56,,,,,,,,,,
14.07.14.683,162.9,40.7,0,15.0,,93112.4,10.74,-0.2,0.15,0.98,0.3,5.7,-1.2,32.56,,,,,,,,,,
14.07.14.696,98.1,24.5,0,15.0,,92385.8,10.82,-0.19,0.15,0.97,0.7,5.6,-1.0,32.56,,,,,,,,,,
14.07.14.704,71.7,17.9,0,15.0,,91798.4,10.89,-0.19,0.15,0.97,0.4,5.6,-1.3,32.56,,,,,,,,,,
14.07.14.716,10.7,2.7,0,15.0,,93250.7,10.72,-0.2,0.15,0.97,0.5,5.8,-1.0,32.56,,,,,,,,,,
14.07.14.724,6.5,1.6,0,15.0,,92574.1,10.8,-0.2,0.15,0.97,0.1,5.7,-1.1,32.56,,,,,,,,,,
14.07.14.736,17.9,4.5,0,15.0,,92820.7,10.77,-0.19,0.15,0.97,0.4,5.8,-1.3,32.56,,,,,,,,,,
14.07.14.745,38.1,9.5,0,15.0,,93329.3,10.71,-0.2,0.15,0.97,0.7,5.9,-1.4,32.56,,,,,,,,,,
14.07.14.757,52.2,13.0,0,15.0,,89870.5,11.13,-0.2,0.15,0.98,0.4,5.4,-1.2,32.56,,,,,,,,,,
14.07.14.765,60.7,15.2,0,15.0,,91922.4,10.88,-0.2,0.15,0.97,0.4,5.4,-1.4,32.56,,,,,,,,,,
14.07.14.777,54.3,13.6,0,15.0,,92981.1,10.75,-0.19,0.15,0.96,0.2,5.5,-1.4,32.56,,,,,,,,,,
14.07.14.786,52.8,13.2,0,15.0,,92842.2,10.77,-0.19,0.15,0.97,0.3,5.7,-0.9,32.56,,,,,,,,,,
14.07.14.797,51.8,13.0,0,15.0,,91349.5,10.95,-0.19,0.15,0.97,0.5,5.7,-1.1,32.56,,,,,,,,,,
14.07.14.805,45.3,11.3,0,15.0,,91752.3,10.9,-0.19,0.15,0.97,0.3,5.7,-1.4,32.56,,,,,,,,,,
14.07.14.818,37.0,9.2,0,15.0,,92226.0,10.84,-0.19,0.14,0.97,0.7,5.5,-1.0,32.56,,,,,,,,,,
14.07.14.826,21.5,5.4,0,15.0,,92418.4,10.82,-0.19,0.15,0.97,0.7,5.8,-1.3,32.56,,,,,,,,,,
14.07.14.839,2.8,0.7,0,15.0,,92471.7,10.81,-0.2,0.15,0.97,0.8,5.8,-1.5,32.56,,,,,,,,,,
14.07.14.850,-2.9,0.7,0,15.0,,92035.2,10.87,-0.19,0.15,0.97,0.7,5.7,-1.4,32.56,,,,,,,,,,
14.07.14.859,-6.4,1.6,0,15.0,,91734.6,10.9,-0.2,0.15,0.97,0.4,5.7,-1.0,32.56,,,,,,,,,,
14.07.14.872,-14.2,3.6,0,15.0,,91866.4,10.89,-0.2,0.15,0.97,0.6,5.7,-1.2,32.56,,,,,,,,,,
14.07.14.880,-15.2,3.8,0,15.0,,93935.4,10.65,-0.19,0.15,0.97,0.6,5.6,-1.2,32.56,,,,,,,,,,
14.07.14.917,-32.2,8.0,0,15.0,,91376.6,10.94,-0.19,0.15,0.98,0.5,6.0,-1.3,32.56,,,,,,,,,,
14.07.14.929,-42.9,10.7,0,15.0,,91759.1,10.9,-0.19,0.15,0.97,0.6,5.7,-0.9,32.56,,,,,,,,,,
14.07.14.937,-37.2,9.3,0,15.0,,92944.2,10.76,-0.2,0.15,0.97,0.9,5.9,-0.9,32.56,,,,,,,,,,
14.07.14.949,-51.4,12.8,0,15.0,,91995.5,10.87,-0.2,0.15,0.97,0.7,5.8,-1.3,32.56,,,,,,,,,,
14.07.14.958,-56.8,14.2,0,15.0,,91816.3,10.89,-0.19,0.15,0.96,0.7,5.7,-1.4,32.56,,,,,,,,,,
14.07.14.970,-60.0,15.0,0,15.0,,91636.1,10.91,-0.2,0.15,0.97,0.4,5.8,-1.2,32.56,,,,,,,,,,
14.07.14.978,-75.5,18.9,0,15.0,,92895.1,10.76,-0.2,0.15,0.97,0.5,5.6,-1.0,32.56,,,,,,,,,,
14.07.14.990,-64.9,16.2,0,15.0,,92479.4,10.81,-0.2,0.15,0.97,0.5,5.7,-1.4,32.56,,,,,,,,,,
14.07.14.999,-84.5,21.1,0,15.0,,93048.6,10.75,-0.2,0.15,0.97,0.3,5.2,-1.5,32.56,,,,,,,,,,
14.07.15.011,-71.0,17.8,0,15.0,,91839.2,10.89,-0.2,0.15,0.97,0.5,5.8,-1.1,32.56,,,,,,,,,,
14.07.15.018,-84.4,21.1,0,15.0,,93671.7,10.68,-0.19,0.15,0.98,0.4,5.7,-1.3,32.56,,,,,,,,,,
14.07.15.031,-87.6,21.9,0,15.0,,91771.9,10.9,-0.19,0.15,0.97,0.5,5.6,-1.3,32.56,,,,,,,,,,
14.07.15.040,-99.4,24.8,0,15.0,,91966.4,10.87,-0.2,0.15,0.97,0.5,5.7,-1.3,32.56,,,,,,,,,,
14.07.15.051,-98.6,24.6,0,15.0,,93550.3,10.69,-0.19,0.14,0.97,0.4,5.8,-1.2,32.56,,,,,,,,,,
14.07.15.059,-109.2,27.3,0,15.0,,92214.9,10.84,-0.2,0.15,0.97,0.4,5.8,-1.1,32.56,,,,,,,,,,
14.07.15.072,-128.3,32.1,0,15.0,,92101.2,10.86,-0.19,0.14,0.98,0.7,5.7,-0.9,32.56,,,,,,,,,,
14.07.15.080,-104.7,26.2,0,15.0,,90873.0,11.0,-0.2,0.15,0.96,0.6,5.8,-1.2,32.56,,,,,,,,,,
14.07.15.093,-111.1,27.8,0,15.0,,92016.8,10.87,-0.2,0.15,0.96,0.5,5.7,-1.4,32.56,,,,,,,,,,
14.07.15.101,-122.7,30.7,0,15.0,,93213.0,10.73,-0.2,0.15,0.97,0.2,5.6,-1.6,32.56,,,,,,,,,,
14.07.15.113,25.7,6.4,1,16.0,101.3,91395.6,10.94,-0.19,0.15,0.97,0.2,5.5,-1.4,32.56,,,,,,,,,,
14.07.15.122,60.7,15.2,0,16.0,,90357.9,11.07,-0.19,0.15,0.96,-0.2,5.5,-1.4,32.56,,,,,,,,,,
14.07.15.133,103.3,25.8,0,16.0,,92148.7,10.85,-0.2,0.15,0.97,0.3,5.6,-1.1,32.56,,,,,,,,,,
14.07.15.142,141.5,35.4,0,16.0,,90574.3,11.04,-0.19,0.14,0.97,0.5,5.7,-1.3,32.56,,,,,,,,,,
14.07.15.154,193.1,48.3,0,16.0,,92709.3,10.79,-0.19,0.15,0.97,0.8,5.7,-1.4,32.56,,,,,,,,,,
14.07.15.167,255.4,63.8,0,16.0,,92743.5,10.78,-0.19,0.15,0.97,0.8,5.8,-1.0,32.56,,,,,,,,,,
14.07.15.175,267.5,66.9,0,16.0,,93844.5,10.66,-0.2,0.15,0.97,1.0,6.0,-0.8,32.56,,,,,,,,,,
14.07.15.187,284.7,71.2,0,16.0,,92698.6,10.79,-0.19,0.15,0.97,1.1,6.0,-0.7,32.56,,,,,,,,,,
14.07.15.195,304.5,76.1,0,16.0,,92614.9,10.8,-0.19,0.14,0.97,1.1,6.3,-0.8,32.56,,,,,,,,,,
14.07.15.208,320.6,80.2,0,16.0,,91532.8,10.93,-0.19,0.15,0.97,1.3,5.9,-0.7,32.56,,,,,,,,,,
14.07.15.216,335.4,83.8,0,16.0,,90725.7,11.02,-0.2,0.15,0.97,1.3,5.7,-0.8,32.56,,,,,,,,,,
14.07.15.227,335.3,83.8,0,16.0,,91732.8,10.9,-0.2,0.16,0.97,1.0,5.8,-1.1,32.56,,,,,,,,,,
14.07.15.236,303.3,75.8,0,16.0,,92560.7,10.8,-0.2,0.15,0.97,0.8,5.5,-1.1,32.56,,,,,,,,,,
14.07.15.249,284.6,71.2,0,16.0,,93012.8,10.75,-0.19,0.15,0.97,0.9,5.9,-1.2,32.56,,,,,,,,,,
14.07.15.257,282.7,70.7,0,16.0,,92548.4,10.81,-0.19,0.15,0.96,0.7,5.7,-1.5,32.56,,,,,,,,,,
14.07.15.268,248.4,62.1,0,16.0,,92336.8,10.83,-0.19,0.15,0.97,0.5,5.8,-1.2,32.56,,,,,,,,,,
14.07.15.281,148.6,37.2,0,16.0,,93256.9,10.72,-0.19,0.15,0.97,0.5,6.0,-1.3,32.56,,,,,,,,,,
14.07.15.290,132.3,33.1,0,16.0,,92024.1,10.87,-0.2,0.15,0.97,0.6,5.7,-1.3,32.56,,,,,,,,,,
14.07.15.301,79.8,20.0,0,16.0,,92939.2,10.76,-0.19,0.15,0.98,0.8,6.0,-1.1,32.56,,,,,,,,,,
14.07.15.310,43.8,11.0,0,16.0,,91542.6,10.92,-0.19,0.15,0.98,0.4,5.8,-1.3,32.56,,,,,,,,,,
14.07.15.322,11.1,2.8,0,16.0,,92864.9,10.77,-0.19,0.15,0.97,0.5,5.8,-1.3,32.56,,,,,,,,,,
14.07.15.331,6.7,1.7,0,16.0,,91817.1,10.89,-0.2,0.15,0.97,0.7,5.8,-1.1,32.56,,,,,,,,,,
14.07.15.342,30.7,7.7,0,16.0,,91985.9,10.87,-0.19,0.15,0.97,0.4,5.9,-1.0,32.56,,,,,,,,,,
14.07.15.350,50.0,12.5,0,16.0,,92512.8,10.81,-0.2,0.15,0.97,0.6,5.6,-1.5,32.56,,,,,,,,,,
14.07.15.363,60.4,15.1,0,16.0,,93000.9,10.75,-0.2,0.15,0.96,0.6,5.7,-1.3,32.56,,,,,,,,,,
14.07.15.371,50.0,12.5,0,16.0,,92647.4,10.79,-0.2,0.15,0.97,0.7,6.1,-1.2,32.56,,,,,,,,,,
14.07.15.383,54.2,13.6,0,16.0,,92598.0,10.8,-0.19,0.15,0.97,0.5,6.0,-0.9,32.56,,,,,,,,,,
14.07.15.392,56.7,14.2,0,16.0,,92138.7,10.85,-0.19,0.15,0.97,0.5,5.5,-1.4,32.56,,,,,,,,,,
14.07.15.404,40.5,10.1,0,16.0,,92449.0,10.82,-0.2,0.15,0.96,0.4,5.4,-1.1,32.56,,,,,,,,,,
14.07.15.412,33.0,8.2,0,16.0,,91150.6,10.97,-0.2,0.15,0.97,0.6,5.6,-1.2,32.56,,,,,,,,,,
14.07.15.425,27.1,6.8,0,16.0,,92637.9,10.79,-0.2,0.15,0.96,0.4,5.9,-1.2,32.56,,,,,,,,,,
14.07.15.433,,,0,16.0,,92233.8,10.84,,,,,,,,,,,,,,,,,
14.07.15.449,,,0,16.0,,91053.2,10.98,,,,,,,,,32.52,,,,,,,,
14.07.15.462,-13.4,3.4,0,16.0,,91102.8,10.98,-0.2,0.15,0.97,0.4,5.6,-1.1,32.56,,,,,,,,,,
14.07.15.474,-19.3,4.8,0,16.0,,93707.4,10.67,-0.19,0.15,0.97,0.4,5.8,-1.3,32.56,,,,,,,,,,
14.07.15.482,-17.9,4.5,0,16.0,,92739.5,10.78,-0.19,0.15,0.97,0.4,5.7,-1.1,32.56,,,,,,,,,,
14.07.15.494,-17.9,4.5,0,16.0,,92529.8,10.81,-0.2,0.15,0.97,0.3,5.7,-1.1,32.56,,,,,,,,,,
14.07.15.503,-29.1,7.3,0,16.0,,91384.2,10.94,-0.2,0.15,0.97,0.6,5.8,-1.3,32.56,,,,,,,,,,
14.07.15.515,-36.9,9.2,0,16.0,,93487.0,10.7,-0.19,0.15,0.96,0.5,5.8,-0.9,32.56,,,,,,,,,,
14.07.15.523,-37.9,9.5,0,16.0,,91365.8,10.95,-0.2,0.15,0.97,0.6,5.7,-1.1,32.56,99.2,,,,,,,,,
14.07.15.535,-40.0,10.0,0,16.0,,92180.6,10.85,-0.2,0.15,0.96,0.5,5.9,-1.3,32.56,,,,,,,,,,
14.07.15.543,-52.9,13.2,0,16.0,,92243.4,10.84,-0.2,0.15,0.96,0.4,5.6,-1.1,32.56,,,,,,,,,,
14.07.15.556,-56.9,14.2,0,16.0,,89934.0,11.12,-0.2,0.15,0.97,0.2,5.9,-1.0,32.56,,,,,,,,,,
14.07.15.563,-58.1,14.5,0,16.0,,91876.9,10.88,-0.19,0.15,0.97,0.5,5.8,-1.3,32.56,,,,,,,,,,
14.07.15.576,-73.9,18.5,0,16.0,,92753.9,10.78,-0.2,0.15,0.97,0.2,5.5,-1.2,32.56,,,,,,,,,,
14.07.15.585,-73.4,18.4,0,16.0,,92638.5,10.79,-0.19,0.15,0.97,0.4,5.7,-1.1,32.56,,,,,,,,,,
14.07.15.597,-63.7,15.9,0,16.0,,91829.3,10.89,-0.2,0.15,0.97,0.1,5.8,-1.1,32.56,,,,,,,,,,
14.07.15.605,-71.5,17.9,0,16.0,,91843.8,10.89,-0.2,0.14,0.98,0.1,5.7,-1.2,32.56,,,,,,,,,,
14.07.15.617,-97.9,24.5,0,16.0,,91977.6,10.87,-0.2,0.15,0.97,0.2,5.6,-1.2,32.56,,,,,,,,,,
14.07.15.625,-91.4,22.8,0,16.0,,92156.5,10.85,-0.19,0.15,0.97,0.3,5.4,-1.2,32.56,,,,,,,,,,
14.07.15.638,-102.1,25.5,0,16.0,,91756.6,10.9,-0.19,0.15,0.97,0.2,5.6,-1.1,32.56,,,,,,,,,,
14.07.15.646,-101.0,25.2,0,16.0,,92436.8,10.82,-0.2,0.15,0.97,0.0,5.7,-1.4,32.56,,,,,,,,,,
14.07.15.658,-92.3,23.1,0,16.0,,92561.1,10.8,-0.2,0.14,0.97,0.2,5.8,-1.1,32.56,,,,,,,,,,
14.07.15.666,-112.7,28.2,0,16.0,,92830.6,10.77,-0.2,0.15,0.97,0.4,5.4,-1.3,32.56,,,,,,,,,,
14.07.15.678,-121.9,30.5,0,16.0,,92724.7,10.78,-0.19,0.15,0.97,0.0,5.5,-1.6,32.56,,,,,,,,,,
14.07.15.687,-128.5,32.1,0,16.0,,93362.2,10.71,-0.19,0.15,0.97,0.0,5.6,-1.5,32.56,,,,,,,,,,
14.07.15.724,77.8,19.4,1,17.0,102.4,91682.7,10.91,-0.19,0.15,0.97,0.2,5.6,-1.6,32.56,,,,,,,,,,
14.07.15.735,119.2,29.8,0,17.0,,92304.1,10.83,-0.19,0.15,0.97,0.3,5.8,-1.2,32.56,,,,,,,,,,
14.07.15.744,159.3,39.8,0,17.0,,91551.2,10.92,-0.19,0.15,0.97,0.6,5.8,-1.3,32.56,,,,,,,,,,
14.07.15.757,226.5,56.6,0,17.0,,91854.8,10.89,-0.19,0.15,0.97,0.6,5.6,-1.5,32.56,,,,,,,,,,
14.07.15.765,228.2,57.0,0,17.0,,92002.7,10.87,-0.2,0.15,0.97,0.3,5.9,-1.3,32.56,,,,,,,,,,
14.07.15.777,277.2,69.3,0,17.0,,91681.0,10.91,-0.19,0.14,0.98,0.5,6.2,-1.1,32.56,,,,,,,,,,
14.07.15.785,293.6,73.4,0,17.0,,92981.1,10.75,-0.2,0.15,0.97,0.7,5.8,-0.9,32.56,,,,,,,,,,
14.07.15.798,360.6,90.2,0,17.0,,92209.5,10.84,-0.2,0.15,0.97,0.8,6.0,-0.9,32.56,,,,,,,,,,
14.07.15.810,357.3,89.3,0,17.0,,92152.6,10.85,-0.2,0.15,0.97,1.0,6.0,-1.2,32.56,,,,,,,,,,
14.07.15.817,316.7,79.2,0,17.0,,92629.2,10.8,-0.19,0.15,0.97,0.7,5.7,-1.0,32.56,,,,,,,,,,
14.07.15.830,284.3,71.1,0,17.0,,92583.3,10.8,-0.19,0.15,0.97,0.5,5.5,-1.2,32.56,,,,,,,,,,
14.07.15.839,317.5,79.4,0,17.0,,92048.7,10.86,-0.19,0.15,0.97,0.8,5.6,-1.2,32.56,,,,,,,,,,
14.07.15.850,279.5,69.9,0,17.0,,92116.2,10.86,-0.19,0.15,0.97,0.6,5.5,-1.2,32.56,,,,,,,,,,
14.07.15.859,241.2,60.3,0,17.0,,94053.9,10.63,-0.19,0.15,0.97,0.5,5.6,-1.7,32.56,,,,,,,,,,
14.07.15.871,208.3,52.1,0,17.0,,91732.2,10.9,-0.19,0.15,0.97,0.2,5.7,-1.6,32.56,,,,,,,,,,
14.07.15.884,143.1,35.8,0,17.0,,91905.5,10.88,-0.2,0.14,0.98,0.2,5.7,-1.7,32.56,,,,,,,,,,
14.07.15.892,117.3,29.3,0,17.0,,91357.0,10.95,-0.19,0.15,0.97,0.2,5.7,-1.3,32.56,,,,,,,,,,
14.07.15.904,58.3,14.6,0,17.0,,92990.6,10.75,-0.19,0.15,0.96,0.3,5.5,-1.3,32.56,,,,,,,,,,
14.07.15.912,23.7,5.9,0,17.0,,91075.8,10.98,-0.19,0.15,0.97,0.4,5.4,-1.2,32.56,,,,,,,,,,
14.07.15.925,10.8,2.7,0,17.0,,92396.6,10.82,-0.2,0.15,0.96,0.4,5.8,-1.0,32.56,,,,,,,,,,
14.07.15.933,26.6,6.6,0,17.0,,91186.3,10.97,-0.19,0.15,0.97,-0.1,5.7,-1.2,32.56,,,,,,,,,,
14.07.15.945,35.5,8.9,0,17.0,,93636.3,10.68,-0.19,0.15,0.97,0.1,5.7,-1.3,32.56,,,,,,,,,,
14.07.15.953,51.2,12.8,0,17.0,,90554.6,11.04,-0.19,0.15,0.98,0.4,5.6,-1.4,32.56,,,,,,,,,,
14.07.15.966,60.1,15.0,0,17.0,,91452.6,10.93,-0.19,0.15,0.97,0.0,5.6,-1.3,32.56,,,,,,,,,,
14.07.15.973,49.0,12.2,0,17.0,,91942.7,10.88,-0.19,0.15,0.97,-0.1,5.8,-1.3,32.56,,,,,,,,,,
14.07.15.986,60.6,15.2,0,17.0,,93147.2,10.74,-0.2,0.15,0.97,0.0,5.5,-1.5,32.56,,,,,,,,,,
14.07.15.994,51.0,12.8,0,17.0,,90663.7,11.03,-0.2,0.15,0.96,0.3,5.7,-1.3,32.56,,,,,,,,,,
14.07.16.006,37.6,9.4,0,17.0,,92063.5,10.86,-0.19,0.15,0.96,0.2,5.6,-1.7,32.56,,,,,,,,,,
14.07.16.015,33.5,8.4,0,17.0,,91431.9,10.94,-0.2,0.15,0.96,0.5,5.6,-1.1,32.56,,,,,,,,,,
14.07.16.027,8.9,2.2,0,17.0,,92402.0,10.82,-0.19,0.15,0.97,0.6,5.8,-1.4,32.56,,,,,,,,,,
14.07.16.034,11.9,3.0,0,17.0,,92157.0,10.85,-0.2,0.15,0.97,0.3,5.6,-1.6,32.56,,,,,,,,,,
14.07.16.047,-8.2,2.0,0,17.0,,92037.5,10.87,-0.19,0.15,0.97,0.2,5.2,-1.3,32.56,,,,,,,,,,
14.07.16.056,-10.5,2.6,0,17.0,,91952.1,10.88,-0.19,0.15,0.97,0.0,5.8,-1.2,32.56,,,,,,,,,,
14.07.16.068,-10.1,2.5,0,17.0,,91908.9,10.88,-0.19,0.14,0.97,0.2,5.3,-1.1,32.56,,,,,,,,,,
14.07.16.076,-13.2,3.3,0,17.0,,91185.0,10.97,-0.2,0.15,0.97,0.1,5.6,-1.4,32.56,,,,,,,,,,
14.07.16.088,-21.9,5.5,0,17.0,,90225.2,11.08,-0.19,0.15,0.97,0.3,5.7,-1.3,32.56,,,,,,,,,,
14.07.16.097,-30.2,7.6,0,17.0,,91781.4,10.9,-0.2,0.15,0.97,0.7,5.9,-1.1,32.56,,,,,,,,,,
14.07.16.109,-24.9,6.2,0,17.0,,92338.0,10.83,-0.19,0.15,0.97,0.6,6.0,-1.1,32.56,,,,,,,,,,
14.07.16.121,-38.6,9.6,0,17.0,,92631.9,10.8,-0.19,0.15,0.97,0.5,5.8,-1.3,32.56,,,,,,,,,,
14.07.16.129,-38.6,9.6,0,17.0,,91595.2,10.92,-0.19,0.15,0.97,0.4,5.6,-1.2,32.56,,,,,,,,,,
14.07.16.142,-55.6,13.9,0,17.0,,92882.6,10.77,-0.2,0.15,0.97,0.5,5.6,-1.0,32.56,,,,,,,,,,
14.07.16.150,-57.0,14.2,0,17.0,,90806.0,11.01,-0.19,0.15,0.97,0.5,5.7,-1.2,32.56,,,,,,,,,,
14.07.16.161,-59.8,15.0,0,17.0,,92448.1,10.82,-0.19,0.15,0.97,0.3,6.0,-0.9,32.56,,,,,,,,,,
14.07.16.170,-60.3,15.1,0,17.0,,92976.9,10.76,-0.19,0.15,0.97,0.0,5.4,-1.4,32.56,,,,,,,,,,
14.07.16.183,-69.2,17.3,0,17.0,,92020.4,10.87,-0.2,0.15,0.97,0.2,5.8,-0.9,32.56,,,,,,,,,,
14.07.16.191,-75.1,18.8,0,17.0,,91976.0,10.87,-0.19,0.15,0.97,0.1,5.8,-1.2,32.56,,,,,,,,,,
14.07.16.203,-83.1,20.8,0,17.0,,92259.4,10.84,-0.19,0.15,0.97,0.3,5.4,-1.5,32.56,,,,,,,,,,
14.07.16.211,-70.3,17.6,0,17.0,,91613.0,10.92,-0.2,0.15,0.97,0.4,6.1,-1.3,32.56,,,,,,,,,,
14.07.16.223,-79.6,19.9,0,17.0,,93400.2,10.71,-0.19,0.15,0.97,0.0,5.6,-1.5,32.56,,,,,,,,,,
14.07.16.231,-92.3,23.1,0,17.0,,91613.9,10.92,-0.2,0.15,0.97,0.2,5.9,-1.0,32.56,,,,,,,,,,
14.07.16.243,-86.1,21.5,0,17.0,,91664.4,10.91,-0.19,0.15,0.97,0.4,5.6,-1.3,32.56,,,,,,,,,,
14.07.16.252,-99.5,24.9,0,17.0,,92852.5,10.77,-0.19,0.15,0.96,0.3,5.8,-1.2,32.56,,,,,,,,,,
14.07.16.265,-108.3,27.1,0,17.0,,92249.0,10.84,-0.2,0.15,0.97,0.0,5.8,-1.4,32.56,,,,,,,,,,
14.07.16.273,-116.5,29.1,0,17.0,,92256.2,10.84,-0.2,0.15,0.97,0.1,5.5,-1.5,32.56,,,,,,,,,,
14.07.16.285,-127.3,31.8,0,17.0,,91510.8,10.93,-0.19,0.15,0.97,0.0,5.6,-1.5,32.56,,,,,,,,,,
14.07.16.293,-108.3,27.1,0,17.0,,91285.2,10.95,-0.19,0.15,0.98,0.3,5.3,-1.4,32.56,,,,,,,,,,
14.07.16.306,-123.7,30.9,0,17.0,,92064.2,10.86,-0.19,0.15,0.97,0.0,5.3,-1.4,32.56,,,,,,,,,,
14.07.16.314,33.6,8.4,1,18.0,102.8,91097.5,10.98,-0.19,0.14,0.96,-0.3,5.6,-1.5,32.56,,,,,,,,,,
14.07.16.326,94.0,23.5,0,18.0,,92629.8,10.8,-0.19,0.15,0.97,0.2,5.5,-1.5,32.56,,,,,,,,,,
14.07.16.334,126.9,31.7,0,18.0,,91708.7,10.9,-0.19,0.15,0.97,0.7,5.5,-1.3,32.56,,,,,,,,,,
14.07.16.347,174.8,43.7,0,18.0,,91486.2,10.93,-0.19,0.15,0.97,0.9,5.8,-1.2,32.56,,,,,,,,,,
14.07.16.355,203.8,51.0,0,18.0,,93278.9,10.72,-0.2,0.14,0.98,0.2,5.8,-1.0,32.56,,,,,,,,,,
14.07.16.367,253.4,63.4,0,18.0,,92684.1,10.79,-0.19,0.15,0.97,0.7,6.0,-0.9,32.56,,,,,,,,,,
14.07.16.376,267.6,66.9,0,18.0,,91266.7,10.96,-0.19,0.14,0.97,0.9,6.0,-1.0,32.56,,,,,,,,,,
14.07.16.387,272.7,68.2,0,18.0,,91213.8,10.96,-0.19,0.14,0.97,0.8,6.2,-1.3,32.56,,,,,,,,,,
14.07.16.395,296.3,74.1,0,18.0,,91230.7,10.96,-0.2,0.15,0.97,0.9,5.9,-1.1,32.56,,,,,,,,,,
14.07.16.409,322.9,80.7,0,18.0,,92776.6,10.78,-0.19,0.15,0.97,0.9,5.8,-1.1,32.56,,,,,,,,,,
14.07.16.415,316.1,79.0,0,18.0,,91630.7,10.91,-0.19,0.15,0.97,0.5,5.8,-1.3,32.56,,,,,,,,,,
14.07.16.428,317.1,79.3,0,18.0,,92761.5,10.78,-0.2,0.14,0.97,0.3,5.7,-1.3,32.56,,,,,,,,,,
14.07.16.438,285.4,71.4,0,18.0,,91373.2,10.94,-0.19,0.15,0.97,0.2,5.6,-1.5,32.56,,,,,,,,,,
14.07.16.449,280.2,70.0,0,18.0,,92555.0,10.8,-0.19,0.15,0.97,0.2,5.6,-1.2,32.56,,,,,,,,,,
14.07.16.461,242.1,60.5,0,18.0,,93831.6,10.66,-0.19,0.15,0.97,-0.2,5.7,-1.6,32.56,,,,,,,,,,
14.07.16.473,187.2,46.8,0,18.0,,92046.2,10.86,-0.2,0.15,0.97,0.3,5.8,-1.5,32.56,,,,,,,,,,
14.07.16.482,169.9,42.5,0,18.0,,91550.9,10.92,-0.19,0.15,0.96,0.3,6.0,-1.4,32.56,,,,,,,,,,
14.07.16.494,111.0,27.8,0,18.0,,91633.7,10.91,-0.2,0.15,0.97,0.9,6.0,-1.2,32.56,,,,,,,,,,
14.07.16.531,26.5,6.6,0,18.0,,92732.1,10.78,-0.2,0.15,0.97,0.7,5.7,-1.3,32.56,,,,,,,,,,
14.07.16.539,34.8,8.7,0,18.0,,91341.7,10.95,-0.19,0.15,0.97,0.2,5.9,-1.5,32.56,,,,,,,,,,
14.07.16.551,41.4,10.4,0,18.0,,92334.0,10.83,-0.19,0.15,0.98,0.2,5.5,-1.4,32.56,,,,,,,,,,
14.07.16.560,55.5,13.9,0,18.0,,93853.2,10.65,-0.19,0.15,0.97,0.0,5.6,-1.5,32.56,,,,,,,,,,
14.07.16.572,64.9,16.2,0,18.0,,93452.7,10.7,-0.19,0.14,0.97,0.2,5.6,-1.2,32.56,,,,,,,,,,
14.07.16.579,69.1,17.3,0,18.0,,92952.7,10.76,-0.2,0.15,0.97,0.2,5.8,-1.4,32.56,,,,,,,,,,
14.07.16.592,48.8,12.2,0,18.0,,92341.4,10.83,-0.2,0.14,0.97,0.2,5.5,-1.4,32.56,,,,,,,,,,
14.07.16.601,46.1,11.5,0,18.0,,91657.9,10.91,-0.19,0.15,0.96,0.3,5.6,-1.4,32.56,,,,,,,,,,
14.07.16.613,37.8,9.4,0,18.0,,92073.8,10.86,-0.19,0.15,0.97,0.5,5.8,-1.2,32.56,,,,,,,,,,
14.07.16.620,26.2,6.6,0,18.0,,90366.4,11.07,-0.19,0.15,0.96,0.4,5.5,-1.6,32.56,,,,,,,,,,
14.07.16.633,8.2,2.0,0,18.0,,91493.7,10.93,-0.2,0.15,0.97,0.2,5.7,-1.2,32.56,,,,,,,,,,
14.07.16.641,1.3,0.3,0,18.0,,93462.0,10.7,-0.19,0.15,0.97,0.1,5.8,-1.3,32.56,,,,,,,,,,
14.07.16.654,-5.4,1.4,0,18.0,,94236.8,10.61,-0.19,0.15,0.97,0.3,5.5,-1.4,32.56,,,,,,,,,,
14.07.16.662,-9.9,2.5,0,18.0,,91991.8,10.87,-0.19,0.15,0.97,-0.1,5.5,-1.2,32.56,,,,,,,,,,
14.07.16.674,-15.4,3.8,0,18.0,,89550.8,11.17,-0.2,0.14,0.97,0.2,5.8,-1.2,32.56,,,,,,,,,,
14.07.16.682,-17.3,4.3,0,18.0,,91989.3,10.87,-0.19,0.14,0.97,0.4,5.6,-1.5,32.56,,,,,,,,,,
14.07.16.695,-24.2,6.0,0,18.0,,93343.3,10.71,-0.2,0.15,0.97,0.6,6.0,-1.1,32.56,,,,,,,,,,
14.07.16.703,-39.0,9.8,0,18.0,,92895.1,10.76,-0.19,0.15,0.97,0.3,5.6,-1.2,32.56,,,,,,,,,,
14.07.16.715,-31.8,8.0,0,18.0,,93326.6,10.72,-0.19,0.15,0.97,0.6,5.8,-1.2,32.56,,,,,,,,,,
14.07.16.723,-34.1,8.5,0,18.0,,92079.2,10.86,-0.19,0.15,0.97,0.7,5.7,-1.0,32.56,,,,,,,,,,
14.07.16.735,-52.1,13.0,0,18.0,,92193.0,10.85,-0.19,0.15,0.97,0.4,5.8,-1.1,32.56,,,,,,,,,,
14.07.16.744,-60.3,15.1,0,18.0,,91471.0,10.93,-0.2,0.15,0.96,0.7,5.7,-1.3,32.56,,,,,,,,,,
14.07.16.756,-60.5,15.1,0,18.0,,92609.7,10.8,-0.2,0.15,0.96,0.2,6.0,-1.3,32.56,,,,,,,,,,
14.07.16.764,-53.8,13.4,0,18.0,,91932.7,10.88,-0.19,0.15,0.97,0.3,5.9,-1.2,32.56,,,,,,,,,,
14.07.16.777,-60.3,15.1,0,18.0,,92331.3,10.83,-0.19,0.15,0.97,0.7,5.8,-1.2,32.56,,,,,,,,,,
14.07.16.789,-62.9,15.7,0,18.0,,92449.0,10.82,-0.19,0.15,0.97,0.4,5.8,-1.1,32.56,,,,,,,,,,
14.07.16.797,-75.7,18.9,0,18.0,,91889.0,10.88,-0.2,0.15,0.97,-0.1,5.5,-1.2,32.56,,,,,,,,,,
14.07.16.809,-78.4,19.6,0,18.0,,93397.9,10.71,-0.2,0.15,0.97,0.2,5.8,-1.2,32.56,,,,,,,,,,
14.07.16.818,-82.4,20.6,0,18.0,,92670.3,10.79,-0.19,0.15,0.97,0.4,5.9,-1.5,32.56,,,,,,,,,,
14.07.16.830,-88.4,22.1,0,18.0,,91973.5,10.87,-0.2,0.15,0.97,0.4,5.6,-1.4,32.56,,,,,,,,,,
14.07.16.837,-97.1,24.3,0,18.0,,91491.1,10.93,-0.2,0.14,0.97,0.0,5.5,-1.0,32.56,,,,,,,,,,
14.07.16.850,-103.8,26.0,0,18.0,,91267.8,10.96,-0.19,0.15,0.97,0.5,5.5,-1.3,32.56,,,,,,,,,,
14.07.16.858,-109.8,27.4,0,18.0,,91493.4,10.93,-0.2,0.15,0.97,0.2,6.0,-1.1,32.56,,,,,,,,,,
14.07.16.871,-111.0,27.8,0,18.0,,91795.5,10.89,-0.19,0.14,0.96,0.7,5.1,-1.3,32.56,,,,,,,,,,
14.07.16.879,-125.8,31.4,0,18.0,,91531.3,10.93,-0.18,0.14,0.96,-0.6,5.4,-2.2,32.56,,,,,,,,,,
14.07.16.891,-114.1,28.5,0,18.0,,91083.6,10.98,-0.2,0.15,0.97,0.8,6.0,-0.7,32.56,,,,,,,,,,
14.07.16.900,-116.2,29.0,0,18.0,,93129.2,10.74,-0.19,0.16,0.98,0.4,5.0,-1.7,32.56,,,,,,,,,,
14.07.16.912,32.2,8.0,1,19.0,101.5,91872.9,10.88,-0.2,0.16,0.97,0.3,6.3,-1.3,32.56,,,,,,,,,,
14.07.16.919,61.4,15.4,0,19.0,,92758.9,10.78,-0.19,0.15,0.97,-0.1,5.2,-1.5,32.56,,,,,,,,,,
14.07.16.932,120.4,30.1,0,19.0,,91851.9,10.89,-0.19,0.14,0.97,0.2,5.7,-1.7,32.56,,,,,,,,,,
14.07.16.941,154.2,38.6,0,19.0,,90857.3,11.01,-0.2,0.14,0.97,0.3,6.0,-1.3,32.56,,,,,,,,,,
14.07.16.953,198.0,49.5,0,19.0,,90773.3,11.02,-0.19,0.15,0.97,0.7,4.6,-1.5,32.56,,,,,,,,,,
14.07.16.960,236.7,59.2,0,19.0,,91279.8,10.96,-0.19,0.15,0.97,0.8,6.3,-0.9,32.56,,,,,,,,,,
14.07.16.973,259.9,65.0,0,19.0,,92658.0,10.79,-0.19,0.15,0.98,0.7,5.9,-0.8,32.56,,,,,,,,,,
14.07.16.981,296.7,74.2,0,19.0,,92154.2,10.85,-0.2,0.15,0.97,1.3,6.0,-1.1,32.56,,,,,,,,,,
14.07.16.994,310.0,77.5,0,19.0,,92878.5,10.77,-0.19,0.14,0.97,0.5,5.8,-1.0,32.56,,,,,,,,,,
14.07.17.001,301.4,75.4,0,19.0,,92062.4,10.86,-0.19,0.15,0.97,1.1,5.2,-0.7,32.56,,,,,,,,,,
14.07.17.014,321.2,80.3,0,19.0,,91730.9,10.9,-0.19,0.16,0.97,0.9,6.1,-0.9,32.56,,,,,,,,,,
14.07.17.022,301.8,75.4,0,19.0,,92797.1,10.78,-0.2,0.15,0.96,0.8,6.2,-1.4,32.56,,,,,,,,,,
14.07.17.034,287.1,71.8,0,19.0,,92674.8,10.79,-0.19,0.15,0.98,0.6,5.7,-1.3,32.56,,,,,,,,,,
14.07.17.042,266.9,66.7,0,19.0,,92367.4,10.83,-0.2,0.15,0.97,0.1,5.4,-1.4,32.56,,,,,,,,,,
14.07.17.055,271.2,67.8,0,19.0,,92765.0,10.78,-0.2,0.15,0.97,0.0,5.9,-1.4,32.56,,,,,,,,,,
14.07.17.068,196.5,49.1,0,19.0,,91249.9,10.96,-0.2,0.15,0.96,0.1,6.1,-1.4,32.56,,,,,,,,,,
14.07.17.076,191.5,47.9,0,19.0,,91953.2,10.88,-0.2,0.14,0.97,0.1,5.7,-1.2,32.56,,,,,,,,,,
14.07.17.088,124.8,31.2,0,19.0,,92941.1,10.76,-0.19,0.14,0.97,0.4,6.1,-1.2,32.56,,,,,,,,,,
14.07.17.096,92.4,23.1,0,19.0,,92142.1,10.85,-0.2,0.15,0.97,0.2,5.9,-1.4,32.56,,,,,,,,,,
14.07.17.108,36.0,9.0,0,19.0,,93039.9,10.75,-0.2,0.14,0.97,0.4,5.8,-1.1,32.56,,,,,,,,,,
14.07.17.117,-0.2,0.0,0,19.0,,92810.3,10.77,-0.19,0.15,0.97,0.7,5.5,-1.1,32.56,,,,,,,,,,
14.07.17.129,18.0,4.5,0,19.0,,93125.0,10.74,-0.19,0.15,0.97,0.5,5.7,-1.2,32.56,,,,,,,,,,
14.07.17.141,37.9,9.5,0,19.0,,93465.0,10.7,-0.19,0.15,0.98,0.5,5.9,-1.2,32.56,,,,,,,,,,
14.07.17.149,44.4,11.1,0,19.0,,91582.2,10.92,-0.2,0.15,0.97,0.4,5.5,-1.3,32.56,,,,,,,,,,
14.07.17.161,51.7,12.9,0,19.0,,94267.1,10.61,-0.2,0.15,0.97,0.2,5.4,-1.4,32.56,,,,,,,,,,
14.07.17.170,62.2,15.6,0,19.0,,92211.4,10.84,-0.2,0.15,0.96,-0.2,5.6,-1.3,32.56,,,,,,,,,,
14.07.17.182,58.8,14.7,0,19.0,,92422.6,10.82,-0.2,0.15,0.97,0.0,5.6,-1.2,32.56,,,,,,,,,,
14.07.17.190,40.7,10.2,0,19.0,,93219.0,10.73,-0.19,0.14,0.97,0.2,5.8,-1.2,32.56,,,,,,,,,,
14.07.17.202,37.6,9.4,0,19.0,,92364.1,10.83,-0.2,0.14,0.97,0.2,5.6,-1.3,32.56,,,,,,,,,,
14.07.17.211,31.2,7.8,0,19.0,,92531.6,10.81,-0.2,0.14,0.96,0.6,5.5,-1.2,32.56,,,,,,,,,,
14.07.17.223,20.8,5.2,0,19.0,,93220.4,10.73,-0.19,0.15,0.97,0.3,5.3,-1.1,32.56,,,,,,,,,,
14.07.17.231,10.1,2.5,0,19.0,,90773.4,11.02,-0.19,0.15,0.97,0.6,5.6,-1.3,32.56,,,,,,,,,,
14.07.17.244,-6.2,1.6,0,19.0,,92938.4,10.76,-0.19,0.15,0.97,0.7,5.6,-1.2,32.56,,,,,,,,,,
14.07.17.252,-7.6,1.9,0,19.0,,92078.8,10.86,-0.2,0.15,0.96,0.4,5.7,-1.5,32.56,,,,,,,,,,
14.07.17.264,-15.6,3.9,0,19.0,,92445.2,10.82,-0.19,0.15,0.97,0.5,5.7,-1.2,32.56,,,,,,,,,,
14.07.17.272,-17.7,4.4,0,19.0,,92946.0,10.76,-0.19,0.15,0.96,0.2,5.9,-1.0,32.56,,,,,,,,,,
14.07.17.284,-16.3,4.1,0,19.0,,90984.6,10.99,-0.2,0.15,0.96,0.7,5.8,-1.2,32.56,,,,,,,,,,
14.07.17.293,-22.9,5.7,0,19.0,,90505.7,11.05,-0.2,0.14,0.97,0.4,5.5,-1.3,32.56,,,,,,,,,,
14.07.17.330,-47.4,11.8,0,19.0,,93686.1,10.67,-0.19,0.15,0.97,0.8,5.7,-1.1,32.56,,,,,,,,,,
14.07.17.342,-55.0,13.8,0,19.0,,92714.7,10.79,-0.19,0.15,0.97,0.7,5.7,-1.1,32.56,,,,,,,,,,
14.07.17.350,-46.2,11.6,0,19.0,,90754.1,11.02,-0.19,0.15,0.97,0.9,5.9,-0.9,32.56,,,,,,,,,,
14.07.17.362,-60.2,15.0,0,19.0,,94079.6,10.63,-0.19,0.15,0.97,0.8,6.0,-1.0,32.56,,,,,,,,,,
14.07.17.372,-64.3,16.1,0,19.0,,92122.6,10.86,-0.19,0.14,0.98,0.6,5.6,-1.4,32.56,,,,,,,,,,
14.07.17.382,-67.4,16.8,0,19.0,,92332.7,10.83,-0.2,0.15,0.96,0.6,5.5,-1.1,32.56,,,,,,,,,,
14.07.17.391,-82.0,20.5,0,19.0,,92909.6,10.76,-0.19,0.14,0.98,0.7,5.8,-1.4,32.56,,,,,,,,,,
14.07.17.403,-82.6,20.6,0,19.0,,92423.4,10.82,-0.2,0.15,0.97,0.6,5.7,-1.4,32.56,,,,,,,,,,
14.07.17.412,-80.4,20.1,0,19.0,,90557.6,11.04,-0.19,0.15,0.97,0.5,5.5,-1.3,32.56,,,,,,,,,,
14.07.17.424,-90.7,22.7,0,19.0,,90321.4,11.07,-0.2,0.15,0.97,0.4,5.6,-1.2,32.56,,,,,,,,,,
14.07.17.432,-89.7,22.4,0,19.0,,94462.9,10.59,-0.2,0.15,0.97,0.5,5.5,-1.6,32.56,,,,,,,,,,
14.07.17.444,-100.1,25.0,0,19.0,,93023.3,10.75,-0.2,0.15,0.97,0.5,5.6,-1.0,32.56,,,,,,,,,,
14.07.17.453,-107.5,26.9,0,19.0,,92452.5,10.82,-0.2,0.15,0.97,0.3,5.5,-1.2,32.56,,,,,,,,,,
14.07.17.465,-116.8,29.2,0,19.0,,91484.5,10.93,-0.19,0.14,0.97,0.6,5.8,-1.2,32.56,,,,,,,,,,
14.07.17.473,-106.7,26.7,0,19.0,,92228.7,10.84,-0.19,0.14,0.96,0.9,5.6,-1.2,32.56,,,,,,,,,,
14.07.17.485,-115.1,28.8,0,19.0,,91111.0,10.98,-0.19,0.15,0.97,0.1,5.7,-1.3,32.56,,,,,,,,,,
14.07.17.494,-114.8,28.7,0,19.0,,92838.6,10.77,-0.19,0.15,0.98,0.2,5.6,-1.4,32.56,,,,,,,,,,
14.07.17.506,3.3,0.8,1,20.0,101.2,91369.4,10.94,-0.2,0.15,0.97,0.5,5.5,-1.4,32.56,,,,,,,,,,
14.07.17.518,59.5,14.9,0,20.0,,91657.5,10.91,-0.19,0.15,0.97,0.3,5.5,-1.3,32.56,,,,,,,,,,
14.07.17.526,81.3,20.3,0,20.0,,93497.5,10.7,-0.19,0.14,0.97,0.0,5.7,-1.4,32.56,,,,,,,,,,
14.07.17.539,149.2,37.3,0,20.0,,91822.9,10.89,-0.2,0.15,0.96,0.3,5.8,-1.4,32.56,,,,,,,,,,
14.07.17.547,188.9,47.2,0,20.0,,92375.7,10.83,-0.19,0.14,0.96,0.7,5.3,-1.0,32.56,,,,,,,,,,
14.07.17.559,251.1,62.8,0,20.0,,91613.6,10.92,-0.2,0.15,0.97,1.1,5.8,-1.4,32.56,,,,,,,,,,
14.07.17.567,279.3,69.8,0,20.0,,91955.9,10.87,-0.19,0.15,0.97,0.7,5.8,-1.0,32.56,,,,,,,,,,
14.07.17.580,276.0,69.0,0,20.0,,91384.6,10.94,-0.19,0.15,0.97,1.1,6.0,-0.8,32.56,,,,,,,,,,
14.07.17.588,294.7,73.7,0,20.0,,94184.4,10.62,-0.2,0.14,0.97,1.3,6.2,-0.6,32.56,,,,,,,,,,
14.07.17.600,322.4,80.6,0,20.0,,91290.1,10.95,-0.19,0.14,0.97,1.1,5.8,-0.7,32.56,,,,,,,,,,
14.07.17.608,315.4,78.8,0,20.0,,92555.2,10.8,-0.19,0.14,0.97,1.1,5.8,-0.9,32.56,,,,,,,,,,
14.07.17.621,339.3,84.8,0,20.0,,92733.7,10.78,-0.2,0.15,0.96,1.1,5.8,-0.9,32.56,,,,,,,,,,
14.07.17.628,287.7,71.9,0,20.0,,92482.5,10.81,-0.2,0.15,0.96,1.2,5.8,-1.0,32.56,,,,,,,,,,
14.07.17.641,294.4,73.6,0,20.0,,92065.2,10.86,-0.2,0.15,0.97,0.7,5.7,-1.1,32.56,,,,,,,,,,
14.07.17.649,265.2,66.3,0,20.0,,92234.4,10.84,-0.19,0.15,0.97,0.7,6.0,-1.4,32.56,,,,,,,,,,
14.07.17.662,211.0,52.8,0,20.0,,92738.6,10.78,-0.19,0.15,0.96,0.3,5.9,-1.3,32.56,,,,,,,,,,
14.07.17.670,184.7,46.2,0,20.0,,90951.0,10.99,-0.2,0.15,0.96,0.5,5.5,-1.4,32.56,,,,,,,,,,
14.07.17.681,154.8,38.7,0,20.0,,90963.3,10.99,-0.2,0.15,0.97,0.4,5.8,-1.3,32.56,,,,,,,,,,
14.07.17.694,105.9,26.5,0,20.0,,91662.1,10.91,-0.19,0.15,0.97,0.4,6.0,-1.4,32.56,,,,,,,,,,
14.07.17.703,62.3,15.6,0,20.0,,91856.4,10.89,-0.19,0.15,0.97,0.8,6.0,-0.9,32.56,,,,,,,,,,
14.07.17.715,2.6,0.6,0,20.0,,91695.4,10.91,-0.19,0.15,0.97,0.5,5.5,-1.2,32.56,,,,,,,,,,
14.07.17.723,9.1,2.3,0,20.0,,92146.2,10.85,-0.2,0.14,0.96,0.6,5.7,-1.0,32.56,,,,,,,,,,
14.07.17.735,36.4,9.1,0,20.0,,91919.1,10.88,-0.19,0.15,0.96,0.6,5.5,-1.2,32.56,,,,,,,,,,
14.07.17.743,39.0,9.8,0,20.0,,91897.2,10.88,-0.19,0.15,0.97,0.7,5.5,-1.4,32.56,,,,,,,,,,
14.07.17.756,54.0,13.5,0,20.0,,91603.7,10.92,-0.19,0.15,0.97,0.6,5.9,-1.2,32.56,,,,,,,,,,
14.07.17.764,57.3,14.3,0,20.0,,92313.6,10.83,-0.19,0.15,0.97,0.4,5.6,-1.0,32.56,,,,,,,,,,
14.07.17.776,53.4,13.4,0,20.0,,92230.7,10.84,-0.19,0.15,0.97,0.1,5.8,-1.3,32.56,,,,,,,,,,
14.07.17.784,55.8,14.0,0,20.0,,92877.7,10.77,-0.19,0.15,0.96,0.2,5.9,-1.5,32.56,,,,,,,,,,
14.07.17.797,47.8,12.0,0,20.0,,91557.9,10.92,-0.2,0.15,0.97,0.4,5.5,-1.4,32.56,,,,,,,,,,
14.07.17.805,34.4,8.6,0,20.0,,91994.0,10.87,-0.2,0.15,0.97,0.4,5.7,-1.2,32.56,,,,,,,,,,
14.07.17.817,33.2,8.3,0,20.0,,90770.5,11.02,-0.2,0.15,0.96,0.3,6.0,-1.4,32.56,,,,,,,,,,
14.07.17.825,12.7,3.2,0,20.0,,93176.6,10.73,-0.19,0.14,0.97,0.6,5.7,-1.0,32.56,,,,,,,,,,
14.07.17.838,3.8,1.0,0,20.0,,92792.2,10.78,-0.2,0.15,0.97,0.6,5.9,-1.1,32.56,,,,,,,,,,
14.07.17.846,3.5,0.9,0,20.0,,93472.2,10.7,-0.19,0.15,0.96,0.3,5.7,-0.8,32.56,,,,,,,,,,
14.07.17.858,-14.7,3.7,0,20.0,,92795.6,10.78,-0.19,0.15,0.97,0.7,5.9,-1.0,32.56,,,,,,,,,,
14.07.17.866,-14.1,3.5,0,20.0,,92425.9,10.82,-0.19,0.15,0.97,0.9,5.9,-1.2,32.56,,,,,,,,,,
14.07.17.879,-18.9,4.7,0,20.0,,92432.7,10.82,-0.19,0.15,0.97,0.2,5.8,-1.0,32.56,,,,,,,,,,
14.07.17.886,-23.4,5.8,0,20.0,,92907.8,10.76,-0.19,0.15,0.97,0.6,5.9,-0.8,32.56,,,,,,,,,,
14.07.17.899,-26.8,6.7,0,20.0,,91728.6,10.9,-0.19,0.15,0.97,0.8,6.1,-1.3,32.56,,,,,,,,,,
14.07.17.907,-37.5,9.4,0,20.0,,92596.3,10.8,-0.19,0.14,0.97,0.4,5.9,-1.1,32.56,,,,,,,,,,
14.07.17.919,-41.3,10.3,0,20.0,,93042.8,10.75,-0.2,0.15,0.97,0.5,6.0,-1.2,32.56,,,,,,,,,,
14.07.17.932,-48.9,12.2,0,20.0,,91879.9,10.88,-0.19,0.15,0.97,0.8,5.7,-1.0,32.56,,,,,,,,,,
14.07.17.939,-48.6,12.2,0,20.0,,91898.5,10.88,-0.19,0.15,0.97,0.9,5.9,-1.1,32.56,,,,,,,,,,
14.07.17.952,-56.0,14.0,0,20.0,,90324.3,11.07,-0.19,0.15,0.97,0.6,5.9,-1.3,32.56,,,,,,,,,,
14.07.17.960,-59.5,14.9,0,20.0,,92590.9,10.8,-0.19,0.15,0.97,0.6,5.9,-1.0,32.56,,,,,,,,,,
14.07.17.973,-67.0,16.8,0,20.0,,93489.3,10.7,-0.19,0.15,0.97,0.4,5.5,-1.2,32.56,,,,,,,,,,
14.07.17.980,-73.1,18.3,0,20.0,,92331.5,10.83,-0.19,0.15,0.97,0.7,5.7,-1.3,32.56,,,,,,,,,,
14.07.17.993,-76.2,19.0,0,20.0,,92124.3,10.85,-0.2,0.15,0.97,0.5,5.4,-1.2,32.56,,,,,,,,,,
14.07.18.002,-92.0,23.0,0,20.0,,91300.6,10.95,-0.19,0.15,0.97,0.5,5.7,-1.3,32.56,,,,,,,,,,
14.07.18.014,-80.3,20.1,0,20.0,,93175.9,10.73,-0.2,0.15,0.97,0.3,5.9,-1.1,32.56,,,,,,,,,,
14.07.18.022,-86.8,21.7,0,20.0,,93082.6,10.74,-0.19,0.15,0.97,0.2,5.8,-1.3,32.56,,,,,,,,,,
14.07.18.034,-93.2,23.3,0,20.0,,93295.0,10.72,-0.2,0.15,0.97,0.4,5.7,-1.3,32.56,,,,,,,,,,
14.07.18.043,-102.6,25.6,0,20.0,,93120.1,10.74,-0.2,0.15,0.97,0.2,5.8,-1.3,32.56,,,,,,,,,,
14.07.18.055,-102.7,25.7,0,20.0,,92887.7,10.77,-0.2,0.15,0.97,0.5,6.0,-1.2,32.56,,,,,,,,,,
14.07.18.062,-105.5,26.4,0,20.0,,91292.6,10.95,-0.19,0.15,0.97,0.5,5.8,-1.1,32.56,,,,,,,,,,
14.07.18.075,-104.0,26.0,0,20.0,,91037.8,10.98,-0.2,0.15,0.97,0.4,5.6,-1.4,32.56,,,,,,,,,,
14.07.18.084,-112.2,28.0,0,20.0,,92330.9,10.83,-0.2,0.15,0.97,0.2,5.4,-1.4,32.56,,,,,,,,,,
14.07.18.096,-130.9,32.7,0,20.0,,92360.9,10.83,-0.19,0.15,0.97,0.2,5.4,-1.5,32.56,,,,,,,,,,
14.07.18.133,140.1,35.0,1,21.0,99.2,90402.4,11.06,-0.2,0.15,0.97,0.0,5.5,-1.4,32.56,,,,,,,,,,
14.07.18.141,150.8,37.7,0,21.0,,92814.7,10.77,-0.19,0.14,0.97,0.7,5.2,-1.6,32.56,,,,,,,,,,
14.07.18.153,197.0,49.2,0,21.0,,93603.3,10.68,-0.19,0.15,0.97,0.9,6.0,-1.4,32.56,,,,,,,,,,
14.07.18.161,272.5,68.1,0,21.0,,93181.2,10.73,-0.19,0.15,0.98,0.7,5.4,-1.2,32.56,,,,,,,,,,
14.07.18.174,307.0,76.8,0,21.0,,92698.7,10.79,-0.19,0.14,0.98,0.6,6.2,-0.9,32.56,,,,,,,,,,
14.07.18.182,308.9,77.2,0,21.0,,91626.4,10.91,-0.19,0.15,0.97,0.8,6.0,-1.2,32.56,,,,,,,,,,
14.07.18.194,324.0,81.0,0,21.0,,91358.6,10.95,-0.19,0.15,0.97,0.7,5.8,-1.2,32.56,,,,,,,,,,
14.07.18.203,309.9,77.5,0,21.0,,92155.5,10.85,-0.19,0.15,0.97,0.5,5.5,-1.2,32.56,,,,,,,,,,
14.07.18.215,287.6,71.9,0,21.0,,93373.9,10.71,-0.19,0.15,0.97,0.7,5.9,-1.5,32.56,,,,,,,,,,
14.07.18.223,288.5,72.1,0,21.0,,93091.5,10.74,-0.2,0.15,0.97,0.5,5.9,-1.4,32.56,,,,,,,,,,
14.07.18.234,313.6,78.4,0,21.0,,90711.1,11.02,-0.2,0.15,0.96,0.1,5.7,-1.3,32.56,,,,,,,,,,
14.07.18.243,245.0,61.2,0,21.0,,91565.8,10.92,-0.19,0.15,0.97,0.1,5.8,-1.2,32.56,,,,,,,,,,
14.07.18.256,247.6,61.9,0,21.0,,90139.9,11.09,-0.2,0.15,0.97,0.3,5.5,-1.5,32.56,,,,,,,,,,
14.07.18.268,185.5,46.4,0,21.0,,91216.6,10.96,-0.2,0.15,0.97,0.6,5.6,-1.4,32.56,,,,,,,,,,
14.07.18.276,171.5,42.9,0,21.0,,91926.1,10.88,-0.19,0.15,0.97,0.1,5.6,-1.6,32.56,,,,,,,,,,
14.07.18.288,116.7,29.2,0,21.0,,91388.6,10.94,-0.2,0.15,0.97,0.0,5.9,-1.5,32.56,,,,,,,,,,
14.07.18.300,54.9,13.7,0,21.0,,92576.3,10.8,-0.19,0.15,0.97,0.2,5.8,-1.3,32.56,,,,,,,,,,
14.07.18.313,12.0,3.0,0,21.0,,92566.5,10.8,-0.2,0.15,0.97,0.0,5.8,-1.4,32.56,,,,,,,,,,
14.07.18.321,8.0,2.0,0,21.0,,92487.6,10.81,-0.2,0.14,0.98,0.2,5.7,-1.4,32.56,,,,,,,,,,
14.07.18.333,26.0,6.5,0,21.0,,93487.8,10.7,-0.19,0.15,0.97,0.3,5.7,-1.2,32.56,,,,,,,,,,
14.07.18.346,44.0,11.0,0,21.0,,92549.5,10.81,-0.19,0.15,0.97,0.1,5.7,-1.2,32.56,,,,,,,,,,
14.07.18.354,51.9,13.0,0,21.0,,92130.0,10.85,-0.19,0.15,0.97,0.2,5.6,-1.2,32.56,,,,,,,,,,
14.07.18.366,59.7,14.9,0,21.0,,92106.3,10.86,-0.2,0.15,0.97,0.0,5.7,-1.4,32.56,,,,,,,,,,
14.07.18.378,58.8,14.7,0,21.0,,92732.8,10.78,-0.2,0.15,0.97,0.3,5.8,-1.6,32.56,,,,,,,,,,
14.07.18.387,63.7,15.9,0,21.0,,92586.1,10.8,-0.2,0.14,0.97,0.1,5.6,-1.4,32.56,,,,,,,,,,
14.07.18.399,36.7,9.2,0,21.0,,93133.4,10.74,-0.2,0.15,0.97,0.3,5.3,-1.2,32.56,,,,,,,,,,
14.07.18.411,29.4,7.4,0,21.0,,90607.3,11.04,-0.19,0.15,0.97,0.6,5.6,-1.5,32.56,,,,,,,,,,
14.07.18.423,13.7,3.4,0,21.0,,93390.4,10.71,-0.2,0.15,0.97,0.2,5.5,-1.4,32.56,,,,,,,,,,
14.07.18.431,8.9,2.2,0,21.0,,91076.4,10.98,-0.2,0.14,0.97,0.5,5.5,-1.4,32.56,,,,,,,,,,
14.07.18.444,-10.4,2.6,0,21.0,,92566.0,10.8,-0.19,0.15,0.97,0.4,5.7,-1.4,32.56,,,,,,,,,,
14.07.18.456,-7.3,1.8,0,21.0,,92873.7,10.77,-0.2,0.15,0.97,0.1,5.6,-1.3,32.56,,,,,,,,,,
14.07.18.464,-8.1,2.0,0,21.0,,92643.5,10.79,-0.19,0.15,0.97,0.4,5.8,-1.2,32.56,,,,,,,,,,
14.07.18.477,-23.0,5.8,0,21.0,,92390.9,10.82,-0.19,0.15,0.97,0.4,5.6,-1.0,32.56,,,,,,,,,,
14.07.18.488,-34.1,8.5,0,21.0,,92506.8,10.81,-0.2,0.15,0.97,0.8,5.7,-1.1,32.56,,,,,,,,,,
14.07.18.497,-23.4,5.8,0,21.0,,91570.4,10.92,-0.19,0.15,0.97,0.4,5.6,-1.3,32.56,,,,,,,,,,
14.07.18.509,-43.8,11.0,0,21.0,,92377.3,10.83,-0.19,0.14,0.96,0.4,5.9,-1.2,32.56,,,,,,,,,,
14.07.18.522,-46.9,11.7,0,21.0,,92695.3,10.79,-0.19,0.15,0.97,0.1,5.7,-1.5,32.56,,,,,,,,,,
14.07.18.534,-51.5,12.9,0,21.0,,92808.9,10.77,-0.19,0.15,0.97,0.3,5.9,-1.1,32.56,,,,,,,,,,
14.07.18.542,-53.3,13.3,0,21.0,,92408.7,10.82,-0.2,0.15,0.96,0.3,5.8,-1.1,32.56,,,,,,,,,,
14.07.18.555,-55.0,13.8,0,21.0,,93031.0,10.75,-0.19,0.15,0.97,0.3,5.5,-1.2,32.56,,,,,,,,,,
14.07.18.567,-66.3,16.6,0,21.0,,93116.2,10.74,-0.19,0.15,0.97,0.4,5.9,-1.3,32.56,,,,,,,,,,
14.07.18.579,-58.1,14.5,0,21.0,,92737.9,10.78,-0.2,0.15,0.98,0.7,5.3,-1.2,32.56,,,,,,,,,,
14.07.18.587,-66.7,16.7,0,21.0,,92557.2,10.8,-0.19,0.15,0.97,0.4,5.4,-1.2,32.56,,,,,,,,,,
14.07.18.599,-92.0,23.0,0,21.0,,91159.8,10.97,-0.19,0.15,0.97,0.4,5.5,-1.6,32.56,,,,,,,,,,
14.07.18.611,-88.4,22.1,0,21.0,,91256.6,10.96,-0.19,0.15,0.97,0.2,5.8,-1.4,32.56,,,,,,,,,,
14.07.18.620,-90.7,22.7,0,21.0,,93389.2,10.71,-0.2,0.14,0.97,0.2,5.7,-1.3,32.56,,,,,,,,,,
14.07.18.633,-101.6,25.4,0,21.0,,92302.5,10.83,-0.19,0.15,0.97,0.3,6.0,-1.4,32.56,,,,,,,,,,
14.07.18.645,-104.8,26.2,0,21.0,,92981.9,10.75,-0.2,0.15,0.96,0.3,5.7,-1.2,32.56,,,,,,,,,,
14.07.18.657,-106.0,26.5,0,21.0,,93584.5,10.69,-0.2,0.15,0.98,0.4,5.6,-1.6,32.56,,,,,,,,,,
14.07.18.665,-109.7,27.4,0,21.0,,92122.7,10.86,-0.2,0.15,0.97,0.4,5.5,-1.7,32.56,,,,,,,,,,
14.07.18.677,-124.8,31.2,0,21.0,,93275.8,10.72,-0.19,0.15,0.98,0.4,5.7,-1.6,32.56,,,,,,,,,,
14.07.18.690,-135.0,33.8,0,21.0,,91989.4,10.87,-0.19,0.15,0.97,0.1,5.4,-1.5,32.56,,,,,,,,,,
14.07.18.697,-125.3,31.3,0,21.0,,91149.8,10.97,-0.19,0.15,0.97,0.0,5.5,-1.5,32.56,,,,,,,,,,
14.07.18.710,30.4,7.6,1,22.0,99.3,92707.6,10.79,-0.19,0.15,0.97,0.0,5.5,-1.4,32.56,,,,,,,,,,
14.07.18.722,85.8,21.4,0,22.0,,93270.9,10.72,-0.2,0.15,0.97,0.5,5.7,-1.4,32.56,,,,,,,,,,
14.07.18.735,138.8,34.7,0,22.0,,93397.0,10.71,-0.2,0.15,0.97,0.6,5.8,-1.2,32.56,,,,,,,,,,
14.07.18.742,176.3,44.1,0,22.0,,92367.3,10.83,-0.19,0.15,0.97,0.4,5.9,-1.3,32.56,,,,,,,,,,
14.07.18.755,241.4,60.4,0,22.0,,91889.9,10.88,-0.19,0.15,0.98,0.6,6.0,-0.9,32.56,,,,,,,,,,
14.07.18.767,285.0,71.2,0,22.0,,91456.6,10.93,-0.19,0.14,0.98,0.9,5.8,-0.9,32.56,,,,,,,,,,
14.07.18.776,303.6,75.9,0,22.0,,91488.1,10.93,-0.19,0.15,0.97,1.0,5.8,-0.9,32.56,,,,,,,,,,
14.07.18.788,323.2,80.8,0,22.0,,92484.5,10.81,-0.19,0.15,0.97,0.7,5.6,-1.2,32.56,,,,,,,,,,
14.07.18.801,301.2,75.3,0,22.0,,94640.8,10.57,-0.2,0.15,0.97,0.5,5.6,-1.1,32.56,,,,,,,,,,
14.07.18.812,328.1,82.0,0,22.0,,92647.7,10.79,-0.2,0.15,0.97,0.6,5.9,-1.1,32.56,,,,,,,,,,
14.07.18.821,307.2,76.8,0,22.0,,92524.4,10.81,-0.2,0.15,0.97,0.2,5.7,-1.4,32.56,,,,,,,,,,
14.07.18.833,323.5,80.9,0,22.0,,92698.8,10.79,-0.19,0.15,0.97,0.4,5.7,-1.4,32.56,,,,,,,,,,
14.07.18.845,288.2,72.0,0,22.0,,92072.2,10.86,-0.2,0.15,0.97,-0.1,5.7,-1.4,32.56,,,,,,,,,,
14.07.18.853,261.9,65.5,0,22.0,,92900.2,10.76,-0.19,0.14,0.97,0.1,5.7,-1.3,32.56,,,,,,,,,,
14.07.18.865,209.9,52.5,0,22.0,,92007.7,10.87,-0.19,0.14,0.97,0.3,6.0,-1.0,32.56,,,,,,,,,,
14.07.18.878,151.1,37.8,0,22.0,,93484.8,10.7,-0.19,0.14,0.97,0.4,5.9,-1.0,32.56,,,,,,,,,,
14.07.18.886,121.6,30.4,0,22.0,,91770.4,10.9,-0.19,0.14,0.97,0.3,5.7,-1.4,32.56,,,,,,,,,,
14.07.18.899,65.1,16.3,0,22.0,,91863.0,10.89,-0.19,0.15,0.97,0.2,6.0,-1.3,32.56,,,,,,,,,,
14.07.18.939,31.2,7.8,0,22.0,,92467.8,10.81,-0.19,0.15,0.97,0.2,5.9,-1.3,32.56,,,,,,,,,,
14.07.18.951,41.2,10.3,0,22.0,,92126.8,10.85,-0.19,0.15,0.97,0.1,5.5,-1.4,32.56,,,,,,,,,,
14.07.18.959,55.0,13.8,0,22.0,,92968.0,10.76,-0.2,0.14,0.97,0.2,5.6,-1.2,32.56,,,,,,,,,,
14.07.18.972,56.5,14.1,0,22.0,,92811.9,10.77,-0.19,0.14,0.97,0.0,5.7,-1.5,32.56,,,,,,,,,,
14.07.18.985,52.7,13.2,0,22.0,,92327.2,10.83,-0.19,0.14,0.97,0.0,5.8,-1.5,32.56,,,,,,,,,,
14.07.18.992,47.2,11.8,0,22.0,,92350.2,10.83,-0.19,0.15,0.97,0.3,5.9,-1.6,32.56,,,,,,,,,,
14.07.19.005,37.8,9.4,0,22.0,,92154.6,10.85,-0.19,0.15,0.97,0.2,5.7,-1.2,32.56,,,,,,,,,,
14.07.19.018,27.2,6.8,0,22.0,,92295.2,10.83,-0.19,0.15,0.97,0.1,5.6,-1.4,32.56,,,,,,,,,,
14.07.19.026,13.1,3.3,0,22.0,,90719.3,11.02,-0.2,0.15,0.96,0.2,5.3,-1.4,32.56,,,,,,,,,,
14.07.19.038,-1.7,0.4,0,22.0,,90773.2,11.02,-0.2,0.15,0.96,0.5,5.9,-1.5,32.56,,,,,,,,,,
14.07.19.050,-13.7,3.4,0,22.0,,90568.4,11.04,-0.19,0.15,0.97,0.4,5.7,-1.1,32.56,,,,,,,,,,
14.07.19.062,-22.9,5.7,0,22.0,,92535.7,10.81,-0.19,0.15,0.97,0.4,5.8,-1.1,32.56,,,,,,,,,,
14.07.19.071,-23.9,6.0,0,22.0,,92916.8,10.76,-0.19,0.14,0.97,0.3,5.6,-1.2,32.56,,,,,,,,,,
14.07.19.083,-24.3,6.1,0,22.0,,91491.6,10.93,-0.2,0.14,0.96,0.5,5.8,-1.2,32.56,,,,,,,,,,
14.07.19.095,-22.0,5.5,0,22.0,,92508.8,10.81,-0.19,0.14,0.97,0.1,5.7,-0.9,32.56,,,,,,,,,,
14.07.19.104,-33.6,8.4,0,22.0,,93470.6,10.7,-0.19,0.15,0.98,0.3,5.4,-1.1,32.56,,,,,,,,,,
14.07.19.116,-46.5,11.6,0,22.0,,92789.2,10.78,-0.2,0.15,0.97,0.5,5.9,-1.4,32.56,,,,,,,,,,
14.07.19.127,-34.6,8.6,0,22.0,,91701.8,10.9,-0.2,0.15,0.97,0.3,5.7,-1.5,32.56,,,,,,,,,,
14.07.19.136,-43.7,10.9,0,22.0,,90866.0,11.01,-0.2,0.14,0.97,0.4,5.7,-1.3,32.56,,,,,,,,,,
14.07.19.148,-50.4,12.6,0,22.0,,92319.2,10.83,-0.19,0.14,0.97,0.5,5.9,-1.3,32.56,,,,,,,,,,
14.07.19.160,-60.1,15.0,0,22.0,,92512.9,10.81,-0.19,0.14,0.97,0.2,5.6,-1.1,32.56,,,,,,,,,,
14.07.19.173,-69.0,17.2,0,22.0,,92115.6,10.86,-0.19,0.15,0.97,0.0,5.5,-1.2,32.56,,,,,,,,,,
14.07.19.181,-70.5,17.6,0,22.0,,91446.4,10.94,-0.19,0.15,0.96,0.5,5.6,-1.4,32.56,,,,,,,,,,
14.07.19.194,-89.9,22.5,0,22.0,,93141.7,10.74,-0.2,0.15,0.96,0.5,5.7,-1.3,32.56,,,,,,,,,,
14.07.19.206,-70.2,17.6,0,22.0,,93191.7,10.73,-0.19,0.15,0.97,0.2,5.8,-1.2,32.56,,,,,,,,,,
14.07.19.214,-84.5,21.1,0,22.0,,92675.4,10.79,-0.19,0.15,0.97,0.4,5.9,-1.4,32.56,,,,,,,,,,
14.07.19.226,-96.3,24.1,0,22.0,,90908.1,11.0,-0.19,0.14,0.97,0.3,5.8,-1.4,32.56,,,,,,,,,,
14.07.19.239,-102.9,25.7,0,22.0,,91604.2,10.92,-0.19,0.15,0.97,0.6,5.7,-1.2,32.56,,,,,,,,,,
14.07.19.247,-98.2,24.6,0,22.0,,92930.1,10.76,-0.19,0.15,0.97,0.2,5.4,-1.3,32.56,,,,,,,,,,
14.07.19.259,-99.8,25.0,0,22.0,,92266.3,10.84,-0.19,0.15,0.96,0.3,5.7,-1.5,32.56,,,,,,,,,,
14.07.19.271,-115.3,28.8,0,22.0,,91304.9,10.95,-0.2,0.15,0.98,0.2,5.4,-1.6,32.56,,,,,,,,,,
14.07.19.280,-119.9,30.0,0,22.0,,92123.5,10.85,-0.2,0.15,0.97,0.0,5.6,-1.4,32.56,,,,,,,,,,
14.07.19.292,-126.2,31.6,0,22.0,,92947.8,10.76,-0.19,0.14,0.97,0.0,5.9,-1.2,32.56,,,,,,,,,,
14.07.19.304,10.9,2.7,1,23.0,99.7,91608.8,10.92,-0.2,0.15,0.96,0.3,5.5,-1.5,32.56,,,,,,,,,,
14.07.19.312,47.3,11.8,0,23.0,,93678.0,10.67,-0.19,0.14,0.96,0.5,5.5,-1.1,32.56,,,,,,,,,,
14.07.19.325,118.6,29.6,0,23.0,,92024.0,10.87,-0.19,0.14,0.97,0.9,5.6,-1.1,32.56,,,,,,,,,,
14.07.19.337,141.8,35.4,0,23.0,,92023.3,10.87,-0.19,0.15,0.98,1.0,6.1,-0.9,32.56,,,,,,,,,,
14.07.19.349,213.0,53.2,0,23.0,,92527.6,10.81,-0.19,0.14,0.98,0.7,5.8,-1.0,32.56,,,,,,,,,,
14.07.19.358,261.4,65.4,0,23.0,,92543.6,10.81,-0.19,0.14,0.97,1.0,6.0,-1.0,32.56,,,,,,,,,,
14.07.19.370,261.5,65.4,0,23.0,,91835.2,10.89,-0.19,0.15,0.97,1.1,5.9,-1.0,32.56,,,,,,,,,,
14.07.19.381,308.6,77.2,0,23.0,,91079.9,10.98,-0.2,0.15,0.97,0.9,5.8,-0.8,32.56,,,,,,,,,,
14.07.19.390,289.7,72.4,0,23.0,,92264.0,10.84,-0.2,0.16,0.97,0.7,5.5,-0.8,32.56,,,,,,,,,,
14.07.19.402,329.7,82.4,0,23.0,,92728.0,10.78,-0.2,0.15,0.96,0.3,5.5,-1.4,32.56,,,,,,,,,,
14.07.19.415,318.2,79.6,0,23.0,,92248.4,10.84,-0.19,0.15,0.97,0.5,5.8,-1.2,32.56,,,,,,,,,,
14.07.19.427,338.4,84.6,0,23.0,,91131.5,10.97,-0.19,0.15,0.97,0.1,5.7,-1.2,32.56,,,,,,,,,,
14.07.19.435,300.5,75.1,0,23.0,,91647.9,10.91,-0.2,0.15,0.97,0.2,5.9,-1.5,32.56,,,,,,,,,,
14.07.19.448,217.1,54.3,0,23.0,,93174.9,10.73,-0.19,0.14,0.97,0.0,5.5,-1.3,32.56,,,,,,,,,,
14.07.19.460,205.9,51.5,0,23.0,,91966.3,10.87,-0.19,0.15,0.96,0.3,5.6,-1.3,32.56,,,,,,,,,,
14.07.19.469,191.5,47.9,0,23.0,,91460.2,10.93,-0.19,0.15,0.97,0.4,5.8,-1.4,32.56,,,,,,,,,,
14.07.19.480,138.2,34.6,0,23.0,,92021.3,10.87,-0.19,0.15,0.97,0.4,6.0,-1.6,32.56,,,,,,,,,,
14.07.19.493,93.8,23.4,0,23.0,,91368.8,10.94,-0.19,0.15,0.97,0.2,5.8,-1.2,32.56,,,,,,,,,,
14.07.19.501,54.3,13.6,0,23.0,,92159.1,10.85,-0.19,0.15,0.97,0.2,5.6,-1.5,32.56,,,,,,,,,,
14.07.19.513,0.0,0.0,0,23.0,,92222.2,10.84,-0.19,0.15,0.98,0.2,5.6,-1.3,32.56,,,,,,,,,,
14.07.19.525,14.9,3.7,0,23.0,,93028.5,10.75,-0.19,0.15,0.97,0.4,5.7,-1.0,32.56,,,,,,,,,,
14.07.19.538,31.7,7.9,0,23.0,,92016.4,10.87,-0.19,0.15,0.97,0.2,5.9,-1.2,32.56,,,,,,,,,,
14.07.19.546,43.5,10.9,0,23.0,,91815.1,10.89,-0.19,0.15,0.97,0.2,5.5,-1.2,32.56,,,,,,,,,,
14.07.19.558,50.0,12.5,0,23.0,,90434.6,11.06,-0.2,0.14,0.97,0.1,5.5,-1.3,32.56,,,,,,,,,,
14.07.19.571,62.6,15.6,0,23.0,,93766.9,10.66,-0.2,0.15,0.97,0.5,5.5,-1.2,32.56,,,,,,,,,,
14.07.19.578,58.3,14.6,0,23.0,,92852.0,10.77,-0.2,0.15,0.97,0.3,5.6,-1.3,32.56,,,,,,,,,,
14.07.19.590,43.1,10.8,0,23.0,,93051.1,10.75,-0.19,0.15,0.97,0.4,5.8,-1.5,32.56,,,,,,,,,,
14.07.19.603,44.3,11.1,0,23.0,,92473.3,10.81,-0.2,0.15,0.97,0.3,5.0,-1.3,32.56,,,,,,,,,,
14.07.19.612,25.3,6.3,0,23.0,,92117.7,10.86,-0.19,0.15,0.98,0.2,6.2,-1.5,32.56,,,,,,,,,,
14.07.19.623,11.0,2.8,0,23.0,,91962.1,10.87,-0.19,0.14,0.97,0.4,5.8,-1.1,32.56,,,,,,,,,,
14.07.19.636,-7.4,1.8,0,23.0,,91011.3,10.99,-0.2,0.15,0.97,0.2,6.0,-1.2,32.56,,,,,,,,,,
14.07.19.648,-5.2,1.3,0,23.0,,89992.3,11.11,-0.19,0.14,0.97,0.4,5.1,-1.2,32.56,,,,,,,,,,
14.07.19.657,-16.4,4.1,0,23.0,,92204.9,10.85,-0.19,0.14,0.97,0.6,6.1,-1.0,32.56,,,,,,,,,,
14.07.19.669,-11.7,2.9,0,23.0,,92551.4,10.8,-0.19,0.15,0.97,0.4,5.8,-1.2,32.56,,,,,,,,,,
14.07.19.681,-19.4,4.8,0,23.0,,91845.3,10.89,-0.2,0.15,0.96,0.7,5.5,-1.1,32.56,,,,,,,,,,
14.07.19.689,-25.6,6.4,0,23.0,,92554.5,10.8,-0.2,0.15,0.97,0.5,6.0,-1.4,32.56,,,,,,,,,,
14.07.19.702,-39.1,9.8,0,23.0,,91678.8,10.91,-0.2,0.15,0.97,0.4,5.8,-1.5,32.56,,,,,,,,,,
14.07.19.743,-49.9,12.5,0,23.0,,92824.7,10.77,-0.2,0.15,0.97,0.6,5.9,-1.4,32.56,,,,,,,,,,
14.07.19.755,-51.4,12.8,0,23.0,,92134.6,10.85,-0.19,0.15,0.97,0.4,5.5,-1.4,32.56,,,,,,,,,,
14.07.19.763,-68.0,17.0,0,23.0,,92802.7,10.78,-0.2,0.15,0.96,0.3,5.7,-1.4,32.56,,,,,,,,,,
14.07.19.775,-70.4,17.6,0,23.0,,92463.5,10.82,-0.2,0.15,0.97,0.0,5.4,-1.1,32.56,,,,,,,,,,
14.07.19.788,-75.5,18.9,0,23.0,,90475.1,11.05,-0.2,0.15,0.97,0.2,6.3,-1.6,32.56,,,,,,,,,,
14.07.19.796,-72.4,18.1,0,23.0,,91618.6,10.91,-0.19,0.15,0.97,0.4,6.0,-1.4,32.56,,,,,,,,,,
14.07.19.808,-78.3,19.6,0,23.0,,92263.1,10.84,-0.19,0.15,0.97,0.2,5.2,-1.1,32.56,,,,,,,,,,
14.07.19.820,-94.9,23.7,0,23.0,,91641.1,10.91,-0.19,0.15,0.97,0.4,5.6,-1.2,32.56,,,,,,,,,,
14.07.19.829,-94.2,23.6,0,23.0,,92491.0,10.81,-0.2,0.15,0.96,0.5,5.1,-1.0,32.56,,,,,,,,,,
14.07.19.841,-105.9,26.5,0,23.0,,91860.9,10.89,-0.2,0.14,0.97,0.3,6.0,-1.5,32.56,,,,,,,,,,
14.07.19.853,-101.8,25.4,0,23.0,,92575.3,10.8,-0.19,0.15,0.97,0.3,5.7,-1.3,32.56,,,,,,,,,,
14.07.19.866,-115.7,28.9,0,23.0,,91634.4,10.91,-0.19,0.15,0.97,0.3,5.0,-1.2,32.56,,,,,,,,,,
14.07.19.874,-119.8,30.0,0,23.0,,90604.4,11.04,-0.19,0.15,0.98,-0.2,5.3,-1.4,32.56,,,,,,,,,,
14.07.19.885,-126.4,31.6,0,23.0,,91898.7,10.88,-0.2,0.15,0.97,0.2,5.0,-1.4,32.56,,,,,,,,,,
14.07.19.898,-112.2,28.0,0,23.0,,91782.9,10.9,-0.2,0.14,0.97,-0.1,5.2,-1.4,32.56,,,,,,,,,,
14.07.19.906,15.2,3.8,1,24.0,99.8,93692.1,10.67,-0.2,0.14,0.97,0.4,5.5,-1.3,32.56,,,,,,,,,,
14.07.19.919,92.4,23.1,0,24.0,,92281.4,10.84,-0.2,0.14,0.97,0.7,6.2,-1.6,32.56,,,,,,,,,,
14.07.19.930,139.2,34.8,0,24.0,,92069.4,10.86,-0.19,0.14,0.97,0.6,5.5,-1.0,32.56,,,,,,,,,,
14.07.19.943,195.2,48.8,0,24.0,,91573.2,10.92,-0.19,0.14,0.97,0.9,6.3,-1.2,32.56,,,,,,,,,,
14.07.19.952,225.6,56.4,0,24.0,,92109.9,10.86,-0.2,0.15,0.97,0.8,6.0,-1.1,32.56,,,,,,,,,,
14.07.19.963,275.1,68.8,0,24.0,,93398.6,10.71,-0.19,0.15,0.96,1.3,5.8,-0.8,32.56,,,,,,,,,,
14.07.19.975,279.9,70.0,0,24.0,,93132.3,10.74,-0.19,0.15,0.97,0.6,5.8,-1.3,32.56,,,,,,,,,,
14.07.19.984,312.9,78.2,0,24.0,,92831.6,10.77,-0.19,0.14,0.97,0.6,6.0,-1.3,32.56,,,,,,,,,,
14.07.19.996,319.8,80.0,0,24.0,,91301.7,10.95,-0.19,0.15,0.98,0.9,5.5,-1.3,32.56,,,,,,,,,,
14.07.20.008,345.1,86.3,0,24.0,,92982.8,10.75,-0.2,0.15,0.97,1.0,5.5,-1.0,32.56,,,,,,,,,,
14.07.20.021,321.0,80.2,0,24.0,,91581.4,10.92,-0.2,0.15,0.96,0.7,6.2,-1.4,32.56,,,,,,,,,,
14.07.20.034,301.7,75.4,0,24.0,,92386.6,10.82,-0.19,0.15,0.96,0.6,5.7,-1.1,32.56,,,,,,,,,,
14.07.20.042,269.6,67.4,0,24.0,,91369.2,10.94,-0.19,0.15,0.96,0.5,5.7,-1.5,32.56,,,,,,,,,,
14.07.20.053,251.5,62.9,0,24.0,,92353.0,10.83,-0.2,0.15,0.97,0.8,6.1,-1.4,32.56,,,,,,,,,,
14.07.20.062,211.8,53.0,0,24.0,,92965.5,10.76,-0.19,0.15,0.97,0.7,5.5,-1.4,32.56,,,,,,,,,,
14.07.20.075,161.4,40.4,0,24.0,,92002.7,10.87,-0.19,0.15,0.97,0.5,5.6,-1.2,32.56,,,,,,,,,,
