timestamp,ppg,threshold,beat,beat_count,inst_bpm,gsr_resistance_ohm,gsr_conductance_us,accel_x,accel_y,accel_z,gyro_x,gyro_y,gyro_z,temp_c,window_bpm,window_temp_c,status_message,SpO2,bmi,age,height,weight,env_temp_c,env_humidity_pct
15.34.27.357,0.0,0.0,0,,,75630.9,13.22,-0.94,0.32,-0.04,-0.5,8.9,-4.4,34.56,103.1,,,100.0,26.7,22.0,152.4,61.9,36.0,66.0
15.34.27.369,66.8,16.7,0,,,75323.6,13.28,-0.95,0.32,-0.05,-1.3,8.3,-3.9,34.56,,,,,,,,,,
15.34.27.382,170.9,42.7,0,,,70833.1,14.12,-0.95,0.31,-0.04,-0.5,8.6,-4.1,34.56,,,,,,,,,,
15.34.27.394,252.5,63.1,0,,,75685.0,13.21,-0.95,0.3,-0.06,1.3,10.0,-5.0,34.56,,,,,,,,,,
15.34.27.402,245.3,61.3,0,,,71861.2,13.92,-0.94,0.3,-0.07,2.8,10.5,-5.1,34.56,,,,,,,,,,
15.34.27.414,328.0,82.0,0,,,72720.7,13.75,-0.94,0.31,-0.08,4.6,11.7,-4.7,34.56,,,,,,,,,,
15.34.27.423,378.0,94.5,0,,,71064.1,14.07,-0.95,0.31,-0.05,1.2,12.0,-4.7,34.56,,,,,,,,,,
15.34.27.435,386.7,96.7,0,,,75469.2,13.25,-0.94,0.32,-0.02,0.5,8.5,-3.9,34.56,,,,,,,,,,
15.34.27.443,426.0,106.5,0,,,71950.7,13.9,-0.94,0.32,-0.02,-1.0,8.1,-2.4,34.56,,,,,,,,,,
15.34.27.455,404.2,101.0,0,,,71752.4,13.94,-0.95,0.31,-0.03,-2.5,8.6,-2.3,34.56,,,,,,,,,,
15.34.27.464,391.3,97.8,0,,,74679.5,13.39,-0.94,0.3,-0.04,-2.2,6.9,-1.9,34.56,,,,,,,,,,
15.34.27.476,344.8,86.2,0,,,75598.8,13.23,-0.95,0.3,-0.03,-1.0,7.1,-0.9,34.56,,,,,,,,,,
15.34.27.484,423.9,106.0,0,,,72790.6,13.74,-0.95,0.31,-0.04,0.2,6.2,-1.0,34.56,,,,,,,,,,
15.34.27.496,378.2,94.6,0,,,70182.7,14.25,-0.95,0.31,-0.03,0.2,5.0,-0.4,34.56,,,,,,,,,,
15.34.27.505,324.5,81.1,0,,,75162.9,13.3,-0.95,0.31,-0.03,0.4,4.9,0.4,34.56,,,,,,,,,,
15.34.27.517,201.8,50.4,0,,,71062.9,14.07,-0.95,0.31,-0.03,-0.8,4.1,0.6,34.56,,,,,,,,,,
15.34.27.529,174.4,43.6,0,,,72031.5,13.88,-0.93,0.33,-0.02,-1.1,5.1,0.7,34.56,,,,,,,,,,
15.34.27.537,105.7,26.4,0,,,72357.8,13.82,-0.95,0.32,-0.03,-4.4,7.9,0.2,34.56,,,,,,,,,,
15.34.27.550,31.9,8.0,0,,,71924.7,13.9,-0.95,0.31,-0.05,-5.2,0.9,1.4,34.56,,,,,,,,,,
15.34.27.558,19.8,5.0,0,,,72236.2,13.84,-0.94,0.3,-0.03,-1.9,0.8,3.5,34.56,,,,,,,,,,
15.34.27.570,-22.2,5.6,0,,,73694.6,13.57,-0.95,0.3,-0.04,-0.3,6.7,3.5,34.56,,,,,,,,,,
15.34.27.578,48.8,12.2,0,,,71635.7,13.96,-0.95,0.31,-0.04,-0.1,2.3,3.3,34.56,,,,,,,,,,
15.34.27.591,51.3,12.8,0,,,71547.7,13.98,-0.95,0.31,-0.03,1.1,3.2,3.7,34.56,,,,,,,,,,
15.34.27.599,92.6,23.2,0,,,73217.4,13.66,-0.95,0.31,-0.04,1.5,3.3,3.7,34.56,,,,,,,,,,
15.34.27.611,55.0,13.8,0,,,74674.3,13.39,-0.95,0.32,-0.03,0.6,3.6,3.2,34.56,,,,,,,,,,
15.34.27.619,101.9,25.5,0,,,72252.2,13.84,-0.94,0.32,-0.02,-0.1,5.1,2.2,34.56,,,,,,,,,,
15.34.27.632,57.6,14.4,0,,,72181.2,13.85,-0.95,0.32,-0.02,-1.6,3.8,2.3,34.56,,,,,,,,,,
15.34.27.640,45.4,11.4,0,,,74578.3,13.41,-0.95,0.31,-0.04,-0.4,0.9,4.3,34.56,,,,,,,,,,
15.34.27.652,66.2,16.6,0,,,72731.9,13.75,-0.95,0.31,-0.03,3.0,0.2,5.7,34.56,,,,,,,,,,
15.34.27.664,16.4,4.1,0,,,70831.5,14.12,-0.94,0.31,-0.03,5.3,4.4,5.2,34.56,,,,,,,,,,
15.34.27.672,-25.9,6.5,0,,,68969.1,14.5,-0.94,0.32,-0.03,3.6,4.9,2.9,34.56,,,,,,,,,,
15.34.27.685,-5.2,1.3,0,,,70837.5,14.12,-0.95,0.32,-0.03,2.4,2.9,3.4,34.56,,,,,,,,,,
15.34.27.693,36.3,9.1,0,,,70982.4,14.09,-0.95,0.31,-0.04,3.4,-2.3,6.0,34.56,,,,,,,,,,
15.34.27.706,-53.3,13.3,0,,,71048.5,14.07,-0.94,0.31,-0.03,5.2,1.7,5.6,34.56,,,,,,,,,,
15.34.27.713,-4.2,1.0,0,,,72286.4,13.83,-0.95,0.32,-0.04,4.3,4.3,3.6,34.56,,,,,,,,,,
15.34.27.726,-52.4,13.1,0,,,67592.6,14.79,-0.93,0.32,-0.04,4.5,-0.1,3.2,34.56,,,,,,,,,,
15.34.27.734,-46.8,11.7,0,,,73238.1,13.65,-0.92,0.33,-0.01,3.7,6.0,1.0,34.56,,,,,,,,,,
15.34.27.746,-50.8,12.7,0,,,71630.2,13.96,-0.95,0.32,-0.04,-0.1,7.6,0.2,34.56,,,,,,,,,,
15.34.27.755,-66.4,16.6,0,,,73969.2,13.52,-0.95,0.3,-0.05,0.5,-4.1,3.2,34.56,,,,,,,,,,
15.34.27.767,-101.1,25.3,0,,,74840.6,13.36,-0.94,0.31,-0.03,5.4,2.4,3.4,34.56,,,,,,,,,,
15.34.27.775,-88.0,22.0,0,,,70413.4,14.2,-0.95,0.32,-0.04,3.1,10.4,-0.7,34.56,,,,,,,,,,
15.34.27.787,-52.5,13.1,0,,,71154.4,14.05,-0.95,0.32,-0.06,1.0,2.1,-1.5,34.56,,,,,,,,,,
15.34.27.795,-56.7,14.2,0,,,72842.8,13.73,-0.94,0.31,-0.04,5.1,-1.2,1.8,34.56,,,,,,,,,,
15.34.27.808,-85.7,21.4,0,,,72316.3,13.83,-0.94,0.32,-0.03,6.2,3.4,1.6,34.56,,,,,,,,,,
15.34.27.816,-84.9,21.2,0,,,70098.6,14.27,-0.93,0.33,-0.05,4.1,5.3,-0.9,34.56,,,,,,,,,,
15.34.27.828,-85.8,21.4,0,,,71808.0,13.93,-0.93,0.34,-0.04,2.9,4.1,-1.4,34.56,,,,,,,,,,
15.34.27.836,-113.4,28.4,0,,,73036.7,13.69,-0.94,0.33,-0.05,2.8,2.6,0.0,34.56,,,,,,,,,,
15.34.27.849,-111.0,27.8,0,,,69884.4,14.31,-0.93,0.33,-0.04,2.6,3.2,-0.5,34.56,,,,,,,,,,
15.34.27.861,-105.4,26.4,0,,,69564.0,14.38,-0.92,0.33,-0.04,3.5,5.8,-1.1,34.56,,,,,,,,,,
15.34.27.869,-123.6,30.9,0,,,69455.1,14.4,-0.92,0.34,-0.04,1.5,9.3,-3.3,34.56,,,,,,,,,,
15.34.27.882,-107.5,26.9,0,,,68317.2,14.64,-0.94,0.32,-0.06,-0.6,6.2,-1.2,34.56,,,,,,,,,,
15.34.27.894,-120.8,30.2,0,,,71110.9,14.06,-0.93,0.32,-0.04,5.3,0.2,2.5,34.56,,,,,,,,,,
15.34.27.902,-136.5,34.1,0,,,72892.8,13.72,-0.94,0.33,-0.04,7.6,12.7,0.6,34.56,,,,,,,,,,
15.34.27.914,-183.8,46.0,0,,,72202.9,13.85,-0.94,0.33,-0.06,7.9,5.0,-0.5,34.56,,,,,,,,,,
15.34.27.922,-180.5,45.1,0,,,67675.1,14.78,-0.93,0.34,-0.03,10.6,5.9,0.0,34.56,,,,,,,,,,
15.34.27.935,44.9,11.2,1,1.0,101.7,68177.8,14.67,-0.94,0.33,-0.04,10.1,10.5,-0.1,34.56,,,,,,,,,,
15.34.27.943,78.9,19.7,0,1.0,,69467.2,14.4,-0.95,0.34,-0.04,11.2,1.4,1.4,34.56,,,,,,,,,,
15.34.27.955,157.0,39.2,0,1.0,,71461.7,13.99,-0.95,0.34,-0.03,16.5,7.1,2.4,34.56,,,,,,,,,,
15.34.27.963,210.4,52.6,0,1.0,,70077.6,14.27,-0.95,0.34,-0.04,19.0,8.2,0.9,34.56,,,,,,,,,,
15.34.27.976,247.4,61.8,0,1.0,,68077.6,14.69,-0.94,0.35,-0.03,18.8,4.1,-0.9,34.56,,,,,,,,,,
15.34.27.991,303.4,75.8,0,1.0,,69722.1,14.34,-0.94,0.34,-0.04,20.6,4.2,-1.1,34.56,,,,,,,,,,
15.34.27.996,369.8,92.4,0,1.0,,70800.7,14.12,-0.92,0.36,-0.04,23.0,1.6,-0.3,34.56,,,,,,,,,,
15.34.28.008,390.1,97.5,0,1.0,,71722.9,13.94,-0.92,0.34,-0.04,23.2,4.0,-1.6,34.56,,,,,,,,,,
15.34.28.017,431.9,108.0,0,1.0,,67044.2,14.92,-0.91,0.36,-0.06,22.5,2.2,-3.7,34.56,,,,,,,,,,
15.34.28.029,443.3,110.8,0,1.0,,74170.7,13.48,-0.9,0.36,-0.06,21.7,1.3,-4.0,34.56,,,,,,,,,,
15.34.28.037,413.2,103.3,0,1.0,,69915.9,14.3,-0.91,0.37,-0.08,19.6,1.5,-3.9,34.56,,,,,,,,,,
15.34.28.050,368.2,92.0,0,1.0,,74864.4,13.36,-0.9,0.38,-0.08,17.1,-0.2,-3.4,34.56,,,,,,,,,,
15.34.28.058,338.0,84.5,0,1.0,,74232.7,13.47,-0.9,0.39,-0.09,11.9,4.8,-5.2,34.56,,,,,,,,,,
15.34.28.070,326.9,81.7,0,1.0,,69672.2,14.35,-0.91,0.4,-0.1,3.3,5.6,-7.1,34.56,,,,,,,,,,
15.34.28.078,292.7,73.2,0,1.0,,73764.1,13.56,-0.9,0.38,-0.11,-3.4,2.6,-6.6,34.56,,,,,,,,,,
15.34.28.090,197.0,49.2,0,1.0,,73622.2,13.58,-0.89,0.37,-0.1,-7.2,6.5,-7.4,34.56,,,,,,,,,,
15.34.28.103,133.1,33.3,0,1.0,,70802.7,14.12,-0.89,0.37,-0.12,-12.6,11.4,-9.4,34.56,,,,,,,,,,
15.34.28.111,96.4,24.1,0,1.0,,72450.8,13.8,-0.88,0.35,-0.13,-14.9,8.7,-9.1,34.56,,,,,,,,,,
15.34.28.123,40.5,10.1,0,1.0,,73019.0,13.7,-0.89,0.34,-0.12,-13.2,12.1,-7.9,34.56,,,,,,,,,,
15.34.28.160,63.9,16.0,0,1.0,,73088.4,13.68,-0.9,0.34,-0.12,-12.6,14.9,-7.7,34.56,,,,,,,,,,
15.34.28.172,98.4,24.6,0,1.0,,70189.1,14.25,-0.92,0.34,-0.11,-2.6,17.5,-6.9,34.56,,,,,,,,,,
15.34.28.180,83.9,21.0,0,1.0,,73818.7,13.55,-0.93,0.34,-0.1,0.3,17.9,-6.8,34.56,,,,,,,,,,
15.34.28.193,54.6,13.6,0,1.0,,72243.8,13.84,-0.93,0.35,-0.09,2.0,18.2,-6.5,34.56,,,,,,,,,,
15.34.28.201,61.0,15.2,0,1.0,,72018.5,13.89,-0.93,0.36,-0.09,1.3,18.8,-7.7,34.56,,,,,,,,,,
15.34.28.214,56.2,14.0,0,1.0,,64454.0,15.51,-0.94,0.37,-0.08,-0.1,17.1,-7.4,34.56,,,,,,,,,,
15.34.28.222,44.8,11.2,0,1.0,,75929.7,13.17,-0.93,0.38,-0.07,-1.1,16.2,-7.5,34.56,,,,,,,,,,
15.34.28.234,14.1,3.5,0,1.0,,68758.2,14.54,-0.92,0.39,-0.07,-4.6,18.6,-9.1,34.56,,,,,,,,,,
15.34.28.242,0.0,0.0,0,1.0,,73599.4,13.59,-0.92,0.4,-0.06,-10.3,18.0,-10.9,34.56,,,,,,,,,,
15.34.28.254,-6.5,1.6,0,1.0,,73618.5,13.58,-0.92,0.39,-0.05,-15.3,18.5,-11.0,34.56,,,,,,,,,,
15.34.28.267,-10.8,2.7,0,1.0,,71460.5,13.99,-0.93,0.39,-0.05,-20.5,19.5,-11.1,34.56,,,,,,,,,,
15.34.28.275,-12.9,3.2,0,1.0,,72139.1,13.86,-0.93,0.39,-0.04,-24.6,18.6,-11.2,34.56,,,,,,,,,,
15.34.28.287,-32.7,8.2,0,1.0,,70438.2,14.2,-0.94,0.37,-0.05,-27.2,19.9,-11.6,34.56,,,,,,,,,,
15.34.28.299,-39.5,9.9,0,1.0,,72569.2,13.78,-0.95,0.37,-0.05,-28.8,17.0,-11.8,34.56,,,,,,,,,,
15.34.28.307,-42.3,10.6,0,1.0,,71985.1,13.89,-0.95,0.36,-0.04,-27.2,16.8,-10.5,34.56,,,,,,,,,,
15.34.28.320,-64.8,16.2,0,1.0,,68023.8,14.7,-0.95,0.35,-0.04,-25.9,18.4,-11.1,34.56,,,,,,,,,,
15.34.28.328,-50.9,12.7,0,1.0,,71256.1,14.03,-0.95,0.35,-0.04,-24.6,17.6,-10.8,34.56,,,,,,,,,,
15.34.28.340,-28.4,7.1,0,1.0,,70416.5,14.2,-0.95,0.35,-0.02,-22.5,17.3,-9.7,34.56,,,,,,,,,,
15.34.28.353,-44.9,11.2,0,1.0,,72256.7,13.84,-0.95,0.35,-0.02,-21.7,17.2,-9.9,34.56,,,,,,,,,,
15.34.28.361,-78.1,19.5,0,1.0,,75336.4,13.27,-0.96,0.36,-0.02,-21.4,16.2,-9.6,34.56,,,,,,,,,,
15.34.28.373,-79.2,19.8,0,1.0,,73385.6,13.63,-0.96,0.36,-0.02,-19.1,16.3,-9.2,34.56,,,,,,,,,,
15.34.28.382,-69.7,17.4,0,1.0,,70288.6,14.23,-0.96,0.35,-0.02,-16.4,14.9,-8.5,34.56,,,,,,,,,,
15.34.28.393,-109.4,27.4,0,1.0,,71903.7,13.91,-0.96,0.35,-0.02,-14.2,13.7,-8.3,34.56,,,,,,,,,,
15.34.28.406,-55.4,13.8,0,1.0,,67897.4,14.73,-0.96,0.34,-0.02,-11.0,12.2,-7.3,34.56,,,,,,,,,,
15.34.28.418,-123.7,30.9,0,1.0,,72792.2,13.74,-0.95,0.34,-0.02,-6.1,11.2,-4.6,34.56,,,,,,,,,,
15.34.28.426,-66.2,16.6,0,1.0,,71436.8,14.0,-0.95,0.33,-0.03,-3.5,9.4,-3.2,34.56,,,,,,,,,,
15.34.28.439,-110.3,27.6,0,1.0,,67900.5,14.73,-0.94,0.33,-0.03,-0.4,8.4,-1.5,34.56,,,,,,,,,,
15.34.28.447,-143.0,35.8,0,1.0,,77705.1,12.87,-0.94,0.32,-0.03,3.1,7.5,-0.2,34.56,,,,,,,,,,
15.34.28.459,-146.6,36.6,0,1.0,,75419.8,13.26,-0.93,0.33,-0.04,4.5,5.3,-0.1,34.56,,,,,,,,,,
15.34.28.468,-111.1,27.8,0,1.0,,69001.6,14.49,-0.93,0.32,-0.03,6.0,4.5,-0.4,34.56,,,,,,,,,,
15.34.28.480,-168.6,42.2,0,1.0,,70829.9,14.12,-0.91,0.32,-0.04,7.8,3.7,0.2,34.56,,,,,,,,,,
15.34.28.488,-155.8,39.0,0,1.0,,71210.3,14.04,-0.91,0.32,-0.05,8.8,3.0,0.1,34.56,,,,,,,,,,
15.34.28.500,-8.1,2.0,1,2.0,108.0,76512.9,13.07,-0.89,0.3,-0.05,10.1,2.6,-0.2,34.56,,,,,,,,,,
15.34.28.512,99.4,24.8,0,2.0,,72836.8,13.73,-0.89,0.3,-0.06,12.1,1.5,0.3,34.56,,,,,,,,,,
15.34.28.520,144.2,36.0,0,2.0,,69490.8,14.39,-0.89,0.3,-0.06,14.2,0.9,0.0,34.56,,,,,,,,,,
15.34.28.533,185.8,46.4,0,2.0,,71337.0,14.02,-0.9,0.29,-0.07,15.1,0.4,-0.9,34.56,,,,,,,,,,
15.34.28.541,259.0,64.8,0,2.0,,72472.9,13.8,-0.9,0.3,-0.07,15.5,-0.6,-1.1,34.56,,,,,,,,,,
15.34.28.553,305.1,76.3,0,2.0,,69255.6,14.44,-0.91,0.3,-0.08,13.8,-2.2,-1.9,34.56,,,,,,,,,,
15.34.28.561,319.5,79.9,0,2.0,,75001.0,13.33,-0.92,0.3,-0.08,10.6,-2.2,-4.1,34.56,,,,,,,,,,
15.34.28.574,387.6,96.9,0,2.0,,71420.0,14.0,-0.92,0.3,-0.1,7.3,-1.7,-6.9,34.56,,,,,,,,,,
15.34.28.582,411.1,102.8,0,2.0,,71702.1,13.95,-0.92,0.29,-0.1,4.0,-0.7,-8.6,34.56,,,,,,,,,,
15.34.28.594,345.6,86.4,0,2.0,,73117.9,13.68,-0.93,0.3,-0.11,-0.4,-0.8,-10.5,34.56,,,,,,,,,,
15.34.28.607,448.1,112.0,0,2.0,,68466.9,14.61,-0.93,0.3,-0.12,-6.8,0.4,-14.7,34.56,,,,,,,,,,
15.34.28.615,369.2,92.3,0,2.0,,67728.2,14.76,-0.92,0.29,-0.12,-14.2,1.2,-18.8,34.56,,,,,,,,,,
15.34.28.627,329.0,82.2,0,2.0,,72002.2,13.89,-0.93,0.28,-0.13,-19.5,4.2,-22.1,34.56,,,,,,,,,,
15.34.28.635,330.5,82.6,0,2.0,,71733.5,13.94,-0.95,0.26,-0.13,-23.2,3.3,-20.9,34.56,,,,,,,,,,
15.34.28.648,293.2,73.3,0,2.0,,72074.4,13.87,-0.95,0.27,-0.13,-31.6,0.6,-30.4,34.56,,,,,,,,,,
15.34.28.660,269.0,67.2,0,2.0,,71283.5,14.03,-0.96,0.25,-0.11,-31.8,13.2,-41.0,34.56,,,,,,,,,,
15.34.28.668,221.9,55.5,0,2.0,,72816.3,13.73,-0.98,0.23,-0.13,-28.6,12.1,-38.9,34.56,,,,,,,,,,
15.34.28.680,122.5,30.6,0,2.0,,69361.6,14.42,-0.99,0.22,-0.12,-24.8,7.7,-31.1,34.56,,,,,,,,,,
15.34.28.688,55.0,13.8,0,2.0,,72384.7,13.82,-0.99,0.23,-0.1,-20.7,10.6,-28.5,34.56,,,,,,,,,,
15.34.28.701,14.3,3.6,0,2.0,,70212.6,14.24,-1.0,0.23,-0.1,-19.2,8.2,-28.6,34.56,,,,,,,,,,
15.34.28.713,8.2,2.0,0,2.0,,70292.9,14.23,-1.02,0.22,-0.07,-17.4,9.1,-29.1,34.56,,,,,,,,,,
15.34.28.721,12.8,3.2,0,2.0,,70492.0,14.19,-1.04,0.22,-0.07,-13.7,11.4,-29.5,34.56,,,,,,,,,,
15.34.28.734,73.5,18.4,0,2.0,,70870.0,14.11,-1.08,0.22,-0.07,-11.1,9.0,-32.7,34.56,,,,,,,,,,
15.34.28.742,46.3,11.6,0,2.0,,68166.6,14.67,-1.1,0.21,-0.06,-5.9,8.3,-35.6,34.56,,,,,,,,,,
15.34.28.754,65.0,16.2,0,2.0,,70809.4,14.12,-1.12,0.21,-0.05,0.3,6.0,-35.5,34.56,,,,,,,,,,
15.34.28.766,68.6,17.2,0,2.0,,72740.5,13.75,-1.12,0.23,-0.04,4.9,0.4,-34.3,34.56,,,,,,,,,,
15.34.28.774,80.3,20.1,0,2.0,,70544.6,14.18,-1.11,0.23,-0.03,7.8,-3.0,-36.4,34.56,,,,,,,,,,
15.34.28.787,61.9,15.5,0,2.0,,69486.6,14.39,-1.1,0.22,-0.04,10.0,-3.3,-38.5,34.56,,,,,,,,,,
15.34.28.795,34.6,8.6,0,2.0,,71256.5,14.03,-1.11,0.22,-0.05,14.4,-4.5,-38.8,34.56,,,,,,,,,,
15.34.28.807,4.7,1.2,0,2.0,,68967.3,14.5,-1.11,0.21,-0.06,19.7,-7.5,-39.6,34.56,,,,,,,,,,
15.34.28.815,-32.4,8.1,0,2.0,,71406.0,14.0,-1.12,0.22,-0.07,24.2,-9.8,-41.8,34.56,,,,,,,,,,
15.34.28.828,31.0,7.8,0,2.0,,74149.7,13.49,-1.15,0.21,-0.08,28.2,-10.8,-43.6,34.56,,,,,,,,,,
15.34.28.840,-21.4,5.4,0,2.0,,73598.8,13.59,-1.18,0.21,-0.1,33.4,-10.7,-42.9,34.56,,,,,,,,,,
15.34.28.848,-46.0,11.5,0,2.0,,75375.0,13.27,-1.19,0.23,-0.12,38.1,-10.9,-39.9,34.56,,,,,,,,,,
15.34.28.861,-26.9,6.7,0,2.0,,70722.2,14.14,-1.18,0.23,-0.13,40.4,-14.6,-39.1,34.56,,,,,,,,,,
15.34.28.873,-56.4,14.1,0,2.0,,71849.8,13.92,-1.15,0.25,-0.14,42.5,-16.9,-38.2,34.56,,,,,,,,,,
15.34.28.881,-57.2,14.3,0,2.0,,72035.4,13.88,-1.08,0.25,-0.14,44.0,-18.8,-36.1,34.56,,,,,,,,,,
15.34.28.894,-71.8,18.0,0,2.0,,69917.1,14.3,-1.02,0.27,-0.12,43.0,-16.9,-35.9,34.56,,,,,,,,,,
15.34.28.902,-54.3,13.6,0,2.0,,68893.1,14.52,-0.98,0.29,-0.1,37.9,-13.2,-35.8,34.56,,,,,,,,,,
15.34.28.914,-54.8,13.7,0,2.0,,69927.0,14.3,-0.97,0.29,-0.09,31.7,-7.2,-35.0,34.56,,,,,,,,,,
15.34.28.926,-73.6,18.4,0,2.0,,77022.3,12.98,-0.98,0.27,-0.08,26.8,-1.1,-31.8,34.56,,,,,,,,,,
15.34.28.964,-86.5,21.6,0,2.0,,74820.9,13.37,-1.01,0.26,-0.07,24.2,-1.8,-27.2,34.56,,,,,,,,,,
15.34.28.975,-137.7,34.4,0,2.0,,69360.6,14.42,-0.98,0.23,0.02,17.5,-10.3,-14.7,34.56,,,,,,,,,,
15.34.28.983,-101.5,25.4,0,2.0,,71974.0,13.89,-0.96,0.21,0.03,17.2,-13.0,-12.0,34.56,,,,,,,,,,
15.34.28.996,-91.4,22.8,0,2.0,,71241.0,14.04,-0.92,0.2,0.04,18.6,-14.0,-9.1,34.56,,,,,,,,,,
15.34.29.008,-121.9,30.5,0,2.0,,70349.2,14.21,-0.9,0.17,0.06,19.5,-16.4,-6.5,34.56,,,,,,,,,,
15.34.29.017,-161.6,40.4,0,2.0,,71573.2,13.97,-0.89,0.15,0.06,21.8,-17.8,-3.6,34.56,,,,,,,,,,
15.34.29.028,-142.6,35.6,0,2.0,,71963.9,13.9,-0.84,0.14,0.04,24.9,-20.6,1.0,34.56,,,,,,,,,,
15.34.29.037,-125.3,31.3,0,2.0,,76836.6,13.01,-0.86,0.13,0.05,28.5,-20.5,5.6,34.56,,,,,,,,,,
15.34.29.049,-170.5,42.6,0,2.0,,73123.6,13.68,-0.83,0.09,0.04,33.9,-20.3,12.2,34.56,,,,,,,,,,
15.34.29.057,-182.9,45.7,0,2.0,,73036.8,13.69,-0.84,0.08,0.03,39.1,-21.1,17.0,34.56,,,,,,,,,,
15.34.29.069,-149.9,37.5,0,2.0,,72589.8,13.78,-0.84,0.08,0.02,43.4,-21.9,19.6,34.56,,,,,,,,,,
15.34.29.082,83.9,21.0,1,3.0,106.1,74819.0,13.37,-0.85,0.06,0.02,48.1,-20.4,19.2,34.56,,,,,,,,,,
15.34.29.090,152.0,38.0,0,3.0,,70410.4,14.2,-0.86,0.08,0.0,50.6,-18.5,17.5,34.56,,,,,,,,,,
15.34.29.102,202.3,50.6,0,3.0,,70657.1,14.15,-0.87,0.07,-0.01,53.0,-16.7,16.8,34.56,,,,,,,,,,
15.34.29.110,279.3,69.8,0,3.0,,71371.5,14.01,-0.89,0.07,-0.01,55.8,-16.1,20.2,34.56,,,,,,,,,,
15.34.29.123,255.7,63.9,0,3.0,,74224.1,13.47,-0.9,0.08,-0.02,56.1,-12.3,26.3,34.56,,,,,,,,,,
15.34.29.131,328.5,82.1,0,3.0,,71163.2,14.05,-0.92,0.11,-0.03,53.0,-10.0,26.9,34.56,,,,,,,,,,
15.34.29.143,373.4,93.4,0,3.0,,68723.6,14.55,-0.93,0.13,-0.03,45.6,-6.8,24.2,34.56,,,,,,,,,,
15.34.29.155,393.9,98.5,0,3.0,,72643.1,13.77,-0.94,0.15,-0.02,37.3,-1.6,21.8,34.56,,,,,,,,,,
15.34.29.164,396.1,99.0,0,3.0,,73666.0,13.57,-0.95,0.17,-0.03,28.1,3.7,20.4,34.56,,,,,,,,,,
15.34.29.176,430.4,107.6,0,3.0,,68907.3,14.51,-0.98,0.17,-0.03,16.4,8.3,17.8,34.56,,,,,,,,,,
15.34.29.184,384.1,96.0,0,3.0,,72913.7,13.71,-0.99,0.18,-0.01,4.2,11.2,15.6,34.56,,,,,,,,,,
15.34.29.196,424.6,106.2,0,3.0,,73183.6,13.66,-1.01,0.17,0.0,-5.8,14.1,13.8,34.56,,,,,,,,,,
15.34.29.209,340.6,85.2,0,3.0,,71825.1,13.92,-1.02,0.19,0.0,-12.5,15.2,12.3,34.56,,,,,,,,,,
15.34.29.218,325.3,81.3,0,3.0,,73500.6,13.61,-1.02,0.17,0.05,-22.5,14.4,10.6,34.56,,,,,,,,,,
15.34.29.229,281.5,70.4,0,3.0,,74293.4,13.46,-1.01,0.16,0.05,-29.6,14.5,7.1,34.56,,,,,,,,,,
15.34.29.237,214.4,53.6,0,3.0,,72350.6,13.82,-0.99,0.15,0.06,-31.3,13.0,6.4,34.56,,,,,,,,,,
15.34.29.250,117.6,29.4,0,3.0,,73837.3,13.54,-0.98,0.13,0.07,-26.9,14.2,7.6,34.56,,,,,,,,,,
15.34.29.258,74.0,18.5,0,3.0,,70352.8,14.21,-0.98,0.13,0.1,-29.5,11.4,7.1,34.56,,,,,,,,,,
15.34.29.270,43.6,10.9,0,3.0,,69124.2,14.47,-0.96,0.14,0.09,-30.9,7.1,7.7,34.56,,,,,,,,,,
15.34.29.278,15.9,4.0,0,3.0,,75040.3,13.33,-0.95,0.13,0.12,-26.8,8.4,10.6,34.56,,,,,,,,,,
15.34.29.291,40.9,10.2,0,3.0,,70519.7,14.18,-0.93,0.13,0.1,-22.2,8.1,13.0,34.56,,,,,,,,,,
15.34.29.303,38.1,9.5,0,3.0,,71600.8,13.97,-0.93,0.12,0.1,-18.0,6.8,14.6,34.56,,,,,,,,,,
15.34.29.311,48.5,12.1,0,3.0,,69807.9,14.33,-0.91,0.13,0.1,-15.3,5.7,15.2,34.56,,,,,,,,,,
15.34.29.323,83.6,20.9,0,3.0,,69523.4,14.38,-0.91,0.15,0.09,-12.3,7.0,15.2,34.56,,,,,,,,,,
15.34.29.333,78.6,19.6,0,3.0,,72331.2,13.83,-0.92,0.15,0.08,-11.4,7.6,14.5,34.56,,,,,,,,,,
15.34.29.344,80.9,20.2,0,3.0,,71517.0,13.98,-0.94,0.15,0.08,-11.1,7.8,12.8,34.56,,,,,,,,,,
15.34.29.353,43.4,10.8,0,3.0,,71770.7,13.93,-0.95,0.16,0.08,-10.9,6.9,10.6,34.56,,,,,,,,,,
15.34.29.364,50.7,12.7,0,3.0,,71848.4,13.92,-0.96,0.17,0.07,-11.2,4.7,7.4,34.56,,,,,,,,,,
15.34.29.373,9.5,2.4,0,3.0,,76064.2,13.15,-0.96,0.18,0.07,-10.7,4.4,4.8,34.56,,,,,,,,,,
15.34.29.385,-6.6,1.6,0,3.0,,74759.3,13.38,-0.95,0.2,0.07,-10.0,4.5,2.9,34.56,,,,,,,,,,
15.34.29.393,-25.0,6.2,0,3.0,,74995.3,13.33,-0.95,0.21,0.06,-9.4,6.0,2.3,34.56,,,,,,,,,,
15.34.29.405,-32.6,8.2,0,3.0,,67608.0,14.79,-0.95,0.23,0.06,-9.2,6.3,3.1,34.56,,,,,,,,,,
15.34.29.414,-40.5,10.1,0,3.0,,73311.3,13.64,-0.95,0.24,0.05,-10.5,6.5,3.9,34.56,,,,,,,,,,
15.34.29.426,-20.7,5.2,0,3.0,,68117.9,14.68,-0.94,0.24,0.05,-11.7,5.7,4.9,34.56,,,,,,,,,,
15.34.29.438,-10.8,2.7,0,3.0,,70250.1,14.23,-0.93,0.23,0.05,-10.3,6.1,6.0,34.56,,,,,,,,,,
15.34.29.446,-51.4,12.8,0,3.0,,75456.8,13.25,-0.92,0.23,0.05,-8.3,6.4,7.5,34.56,,,,,,,,,,
15.34.29.459,-41.1,10.3,0,3.0,,74976.6,13.34,-0.91,0.24,0.05,-5.9,6.6,8.3,34.56,,,,,,,,,,
15.34.29.471,-67.1,16.8,0,3.0,,73883.3,13.53,-0.91,0.24,0.06,-2.2,6.8,8.4,34.56,,,,,,,,,,
15.34.29.479,-102.4,25.6,0,3.0,,73331.2,13.64,-0.9,0.24,0.06,-0.2,7.1,9.9,34.56,,,,,,,,,,
15.34.29.491,-105.1,26.3,0,3.0,,72473.3,13.8,-0.9,0.25,0.08,1.5,6.8,9.2,34.56,,,,,,,,,,
15.34.29.500,-91.0,22.8,0,3.0,,72779.9,13.74,-0.89,0.25,0.08,1.1,6.3,8.8,34.56,,,,,,,,,,
15.34.29.512,-99.8,25.0,0,3.0,,74187.8,13.48,-0.89,0.25,0.08,1.1,5.7,7.5,34.56,,,,,,,,,,
15.34.29.520,-108.5,27.1,0,3.0,,68557.9,14.59,-0.87,0.25,0.09,0.9,4.7,7.0,34.56,,,,,,,,,,
15.34.29.532,-91.2,22.8,0,3.0,,72446.9,13.8,-0.86,0.26,0.08,2.7,4.2,6.2,34.56,,,,,,,,,,
15.34.29.541,-96.5,24.1,0,3.0,,70131.1,14.26,-0.85,0.25,0.08,3.5,4.2,6.4,34.56,,,,,,,,,,
15.34.29.553,-83.9,21.0,0,3.0,,70979.9,14.09,-0.84,0.25,0.07,4.9,5.2,6.0,34.56,,,,,,,,,,
15.34.29.561,-74.5,18.6,0,3.0,,71356.9,14.01,-0.85,0.25,0.07,5.5,5.1,5.4,34.56,,,,,,,,,,
15.34.29.573,-125.6,31.4,0,3.0,,71907.2,13.91,-0.88,0.25,0.07,5.7,6.1,4.9,34.56,,,,,,,,,,
15.34.29.582,-142.7,35.7,0,3.0,,70513.1,14.18,-0.9,0.26,0.06,6.5,6.2,4.7,34.56,,,,,,,,,,
15.34.29.594,-121.9,30.5,0,3.0,,66702.4,14.99,-0.94,0.26,0.05,8.4,5.0,3.8,34.56,,,,,,,,,,
15.34.29.602,-152.8,38.2,0,3.0,,71987.7,13.89,-0.96,0.25,0.05,10.8,4.2,2.9,34.56,,,,,,,,,,
15.34.29.614,-172.7,43.2,0,3.0,,70764.7,14.13,-0.98,0.25,0.03,14.7,4.2,2.5,34.56,,,,,,,,,,
15.34.29.627,-124.8,31.2,0,3.0,,71092.6,14.07,-1.02,0.24,0.02,18.3,3.9,1.9,34.56,,,,,,,,,,
15.34.29.639,-136.2,34.0,0,3.0,,73288.2,13.64,-1.06,0.25,0.0,21.6,4.7,2.3,34.56,,,,,,,,,,
15.34.29.647,35.6,8.9,1,4.0,102.2,72254.6,13.84,-1.13,0.24,-0.01,23.7,7.2,2.3,34.56,,,,,,,,,,
15.34.29.659,143.0,35.8,0,4.0,,72046.7,13.88,-1.21,0.24,-0.04,25.6,8.3,0.8,34.56,,,,,,,,,,
15.34.29.672,168.9,42.2,0,4.0,,71442.1,14.0,-1.3,0.24,-0.07,26.3,10.1,-0.7,34.56,,,,,,,,,,
15.34.29.680,231.6,57.9,0,4.0,,71669.6,13.95,-1.36,0.25,-0.09,27.5,8.0,-3.4,34.56,,,,,,,,,,
15.34.29.692,315.0,78.8,0,4.0,,69480.7,14.39,-1.38,0.28,-0.1,24.6,1.3,-7.4,34.56,,,,,,,,,,
15.34.29.704,359.8,90.0,0,4.0,,72057.9,13.88,-1.34,0.3,-0.11,19.3,-7.4,-14.7,34.56,,,,,,,,,,
15.34.29.717,393.3,98.3,0,4.0,,69749.0,14.34,-1.24,0.32,-0.1,13.2,-9.1,-24.0,34.56,,,,,,,,,,
15.34.29.729,410.6,102.6,0,4.0,,70493.0,14.19,-1.11,0.34,-0.08,7.6,-3.4,-33.9,34.56,,,,,,,,,,
15.34.29.767,410.3,102.6,0,4.0,,68836.4,14.53,-0.68,0.4,-0.04,-34.9,13.3,-41.6,34.56,,,,,,,,,,
15.34.29.778,353.8,88.4,0,4.0,,72900.5,13.72,-0.62,0.4,0.01,-49.6,21.6,-37.9,34.56,,,,,,,,,,
15.34.29.790,297.6,74.4,0,4.0,,76069.5,13.15,-0.6,0.39,0.01,-63.9,29.9,-36.5,34.56,,,,,,,,,,
15.34.29.803,252.9,63.2,0,4.0,,72926.5,13.71,-0.62,0.38,0.02,-77.0,33.7,-31.8,34.56,,,,,,,,,,
15.34.29.811,189.3,47.3,0,4.0,,65736.2,15.21,-0.66,0.37,0.03,-87.0,37.7,-25.6,34.56,,,,,,,,,,
15.34.29.823,138.1,34.5,0,4.0,,72432.0,13.81,-0.76,0.35,0.03,-94.9,38.5,-21.1,34.56,,,,,,,,,,
15.34.29.835,48.1,12.0,0,4.0,,71098.3,14.07,-0.83,0.35,0.02,-100.9,34.4,-18.9,34.56,,,,,,,,,,
15.34.29.848,28.6,7.2,0,4.0,,72234.6,13.84,-0.9,0.36,0.03,-102.8,33.7,-17.3,34.56,,,,,,,,,,
15.34.29.860,39.1,9.8,0,4.0,,74546.9,13.41,-0.99,0.37,0.01,-108.1,28.3,-20.6,34.56,,,,,,,,,,
15.34.29.868,34.0,8.5,0,4.0,,72323.7,13.83,-1.04,0.37,-0.01,-112.7,22.7,-24.2,34.56,,,,,,,,,,
15.34.29.882,56.5,14.1,0,4.0,,73670.5,13.57,-1.08,0.37,-0.02,-110.7,23.2,-23.3,34.56,,,,,,,,,,
15.34.29.893,74.1,18.5,0,4.0,,72669.5,13.76,-1.12,0.35,-0.06,-105.7,19.6,-19.8,34.56,,,,,,,,,,
15.34.29.901,77.0,19.2,0,4.0,,69182.9,14.45,-1.15,0.35,-0.08,-99.7,11.3,-15.1,34.56,,,,,,,,,,
15.34.29.913,61.8,15.4,0,4.0,,73689.0,13.57,-1.16,0.35,-0.09,-90.2,7.4,-7.9,34.56,,,,,,,,,,
15.34.29.922,75.7,18.9,0,4.0,,73551.3,13.6,-1.16,0.35,-0.12,-82.0,3.9,1.9,34.56,,,,,,,,,,
15.34.29.934,33.1,8.3,0,4.0,,71839.2,13.92,-1.15,0.35,-0.13,-75.6,1.0,10.4,34.56,,,,,,,,,,
15.34.29.946,4.9,1.2,0,4.0,,73841.2,13.54,-1.14,0.35,-0.14,-67.9,1.8,19.5,34.56,,,,,,,,,,
15.34.29.954,10.9,2.7,0,4.0,,73575.4,13.59,-1.11,0.35,-0.15,-59.2,1.9,29.0,34.56,,,,,,,,,,
15.34.29.967,4.0,1.0,0,4.0,,71520.1,13.98,-1.05,0.32,-0.13,-50.6,-1.8,39.0,34.56,,,,,,,,,,
15.34.29.979,-9.9,2.5,0,4.0,,70073.5,14.27,-1.0,0.33,-0.11,-42.2,1.8,46.4,34.56,,,,,,,,,,
15.34.29.987,-32.7,8.2,0,4.0,,70468.9,14.19,-0.95,0.31,-0.1,-31.9,5.0,56.0,34.56,,,,,,,,,,
15.34.29.999,-25.3,6.3,0,4.0,,74552.2,13.41,-0.92,0.31,-0.08,-21.4,6.3,65.4,34.56,,,,,,,,,,
15.34.30.012,-18.2,4.6,0,4.0,,70963.5,14.09,-0.9,0.31,-0.05,-12.0,9.6,74.4,34.56,,,,,,,,,,
15.34.30.020,-20.9,5.2,0,4.0,,73142.3,13.67,-0.89,0.32,-0.04,-4.1,11.0,83.4,34.56,,,,,,,,,,
15.34.30.032,-21.1,5.3,0,4.0,,70512.4,14.18,-0.9,0.33,0.0,1.3,12.3,93.0,34.56,,,,,,,,,,
15.34.30.040,-52.0,13.0,0,4.0,,71237.9,14.04,-0.91,0.33,0.03,3.4,12.8,101.0,34.56,,,,,,,,,,
15.34.30.053,-80.7,20.2,0,4.0,,73671.8,13.57,-0.93,0.32,0.04,3.0,11.0,107.7,34.56,,,,,,,,,,
15.34.30.061,-49.1,12.3,0,4.0,,73386.6,13.63,-0.95,0.31,0.04,2.6,7.6,112.7,34.56,,,,,,,,,,
15.34.30.073,-47.7,11.9,0,4.0,,71416.0,14.0,-0.97,0.3,0.05,2.4,4.7,115.8,34.56,,,,,,,,,,
15.34.30.081,-52.2,13.0,0,4.0,,74890.8,13.35,-0.97,0.29,0.05,1.4,1.0,117.6,34.56,,,,,,,,,,
15.34.30.094,-56.0,14.0,0,4.0,,70209.7,14.24,-0.96,0.28,0.06,-0.7,-4.4,116.6,34.56,,,,,,,,,,
15.34.30.106,-99.7,24.9,0,4.0,,70016.0,14.28,-0.98,0.31,0.04,-1.9,-5.9,113.3,34.56,,,,,,,,,,
15.34.30.114,-120.5,30.1,0,4.0,,71724.7,13.94,-1.0,0.25,0.05,-2.8,-11.1,109.7,34.56,,,,,,,,,,
15.34.30.127,-121.9,30.5,0,4.0,,73667.5,13.57,-0.99,0.26,0.04,-1.1,-13.0,105.5,34.56,,,,,,,,,,
15.34.30.135,-98.4,24.6,0,4.0,,76687.2,13.04,-0.96,0.23,0.01,1.5,-14.7,105.6,34.56,,,,,,,,,,
15.34.30.147,-125.1,31.3,0,4.0,,68420.5,14.62,-0.98,0.22,0.02,6.9,-18.3,101.1,34.56,,,,,,,,,,
15.34.30.155,-130.5,32.6,0,4.0,,71979.5,13.89,-0.94,0.25,0.03,10.0,-21.1,92.9,34.56,,,,,,,,,,
15.34.30.167,-121.4,30.4,0,4.0,,74734.5,13.38,-0.98,0.23,0.03,8.5,-19.2,81.3,34.56,,,,,,,,,,
15.34.30.180,-150.8,37.7,0,4.0,,72287.0,13.83,-0.96,0.27,-0.01,6.7,-19.5,74.9,34.56,,,,,,,,,,
15.34.30.188,-112.1,28.0,0,4.0,,70357.4,14.21,-0.91,0.23,0.01,9.2,-20.6,72.1,34.56,,,,,,,,,,
15.34.30.200,-152.3,38.1,0,4.0,,71438.2,14.0,-0.91,0.21,0.01,11.2,-17.2,71.2,34.56,,,,,,,,,,
15.34.30.208,-170.1,42.5,0,4.0,,71602.5,13.97,-0.93,0.19,0.01,11.0,-15.8,68.3,34.56,,,,,,,,,,
15.34.30.221,27.1,6.8,1,5.0,103.7,75083.3,13.32,-0.99,0.23,-0.01,14.3,-11.7,62.4,34.56,,,,,,,,,,
15.34.30.233,86.5,21.6,0,5.0,,75091.5,13.32,-1.04,0.26,0.01,10.9,-8.2,55.9,34.56,,,,,,,,,,
15.34.30.241,170.0,42.5,0,5.0,,70163.4,14.25,-1.13,0.24,0.03,4.9,-8.1,46.4,34.56,,,,,,,,,,
15.34.30.253,247.3,61.8,0,5.0,,75995.2,13.16,-1.15,0.22,0.01,4.6,-9.0,36.0,34.56,,,,,,,,,,
15.34.30.262,274.0,68.5,0,5.0,,70789.1,14.13,-1.15,0.21,0.0,0.9,-11.6,28.3,34.56,,,,,,,,,,
15.34.30.274,301.8,75.4,0,5.0,,72646.9,13.77,-1.13,0.19,-0.01,-0.5,-18.1,18.8,34.56,,,,,,,,,,
15.34.30.282,388.4,97.1,0,5.0,,72750.8,13.75,-1.13,0.18,-0.03,-0.8,-25.1,8.4,34.56,,,,,,,,,,
15.34.30.294,412.6,103.2,0,5.0,,70434.3,14.2,-1.15,0.17,-0.03,0.7,-21.4,-1.2,34.56,,,,,,,,,,
15.34.30.307,451.2,112.8,0,5.0,,73844.2,13.54,-1.21,0.16,-0.06,7.2,-14.1,-11.6,34.56,,,,,,,,,,
15.34.30.315,409.2,102.3,0,5.0,,68666.9,14.56,-1.24,0.14,-0.11,14.0,-9.7,-21.5,34.56,,,,,,,,,,
15.34.30.327,456.6,114.2,0,5.0,,72875.4,13.72,-1.21,0.14,-0.2,24.4,-6.2,-30.4,34.56,,,,,,,,,,
15.34.30.336,364.8,91.2,0,5.0,,73619.4,13.58,-1.22,0.11,-0.11,25.3,-16.0,-35.3,34.56,,,,,,,,,,
15.34.30.348,339.1,84.8,0,5.0,,73335.7,13.64,-1.21,0.15,-0.13,30.6,-19.8,-43.8,34.56,,,,,,,,,,
15.34.30.360,310.1,77.5,0,5.0,,75170.1,13.3,-1.2,0.14,-0.16,31.5,-17.8,-49.8,34.56,,,,,,,,,,
15.34.30.368,278.7,69.7,0,5.0,,71767.1,13.93,-1.13,0.15,-0.14,30.4,-20.0,-54.9,34.56,,,,,,,,,,
15.34.30.380,197.0,49.2,0,5.0,,67243.8,14.87,-1.07,0.17,-0.11,35.2,-19.8,-65.6,34.56,,,,,,,,,,
15.34.30.389,167.4,41.8,0,5.0,,75518.8,13.24,-0.99,0.2,-0.09,37.8,-15.4,-76.0,34.56,,,,,,,,,,
15.34.30.401,49.1,12.3,0,5.0,,71285.1,14.03,-0.83,0.23,0.02,29.5,-18.0,-82.5,34.56,,,,,,,,,,
15.34.30.413,35.7,8.9,0,5.0,,70908.4,14.1,-0.85,0.23,-0.04,35.0,-11.2,-90.7,34.56,,,,,,,,,,
15.34.30.421,-7.3,1.8,0,5.0,,69857.5,14.31,-0.78,0.24,0.0,37.1,-10.1,-91.1,34.56,,,,,,,,,,
15.34.30.434,29.3,7.3,0,5.0,,68849.1,14.52,-0.78,0.27,0.06,44.4,-8.1,-89.7,34.56,,,,,,,,,,
15.34.30.442,27.9,7.0,0,5.0,,68066.8,14.69,-0.74,0.23,0.06,49.3,2.7,-86.8,34.56,,,,,,,,,,
15.34.30.454,87.3,21.8,0,5.0,,72275.6,13.84,-0.78,0.23,0.1,56.2,12.9,-84.9,34.56,,,,,,,,,,
15.34.30.466,77.6,19.4,0,5.0,,74313.2,13.46,-0.78,0.28,0.13,60.4,21.8,-74.6,34.56,,,,,,,,,,
15.34.30.479,63.6,15.9,0,5.0,,70838.4,14.12,-0.81,0.29,0.14,58.8,27.2,-66.8,34.56,,,,,,,,,,
15.34.30.487,98.2,24.6,0,5.0,,72729.2,13.75,-0.95,0.29,0.15,54.0,26.6,-63.9,34.56,,,,,,,,,,
15.34.30.499,79.4,19.8,0,5.0,,75603.4,13.23,-0.95,0.29,0.17,47.0,16.8,-60.6,34.56,,,,,,,,,,
15.34.30.507,54.9,13.7,0,5.0,,72152.4,13.86,-1.0,0.27,0.18,49.7,12.0,-57.7,34.56,,,,,,,,,,
15.34.30.520,10.0,2.5,0,5.0,,69684.8,14.35,-1.03,0.26,0.19,52.9,5.3,-53.5,34.56,,,,,,,,,,
15.34.30.528,-5.0,1.2,0,5.0,,72388.1,13.81,-1.04,0.27,0.19,55.9,-4.8,-52.0,34.56,,,,,,,,,,
15.34.30.570,-25.2,6.3,0,5.0,,70236.5,14.24,-1.01,0.28,0.19,60.0,-10.2,-52.2,34.63,,,,,,,,,,
15.34.30.577,-20.3,5.1,0,5.0,,73002.6,13.7,-0.85,0.36,0.2,54.3,-10.9,-44.5,34.63,,,,,,,,,,
15.34.30.589,-35.4,8.8,0,5.0,,69869.7,14.31,-0.8,0.35,0.2,48.8,-10.8,-42.9,34.63,,,,,,,,,,
15.34.30.598,-16.7,4.2,0,5.0,,68414.8,14.62,-0.77,0.34,0.2,45.4,-11.1,-38.2,34.63,,,,,,,,,,
15.34.30.610,-57.8,14.4,0,5.0,,74142.3,13.49,-0.75,0.32,0.2,47.1,-7.7,-32.0,34.63,,,,,,,,,,
15.34.30.618,-68.2,17.0,0,5.0,,72324.8,13.83,-0.75,0.32,0.21,47.6,-4.1,-25.8,34.63,,,,,,,,,,
15.34.30.630,-51.1,12.8,0,5.0,,73242.8,13.65,-0.74,0.31,0.22,50.7,-4.0,-21.8,34.63,,,,,,,,,,
15.34.30.643,-70.9,17.7,0,5.0,,70276.8,14.23,-0.76,0.32,0.23,53.8,-7.2,-18.3,34.63,,,,,,,,,,
15.34.30.652,-92.2,23.0,0,5.0,,68482.6,14.6,-0.77,0.31,0.24,56.7,-8.3,-14.8,34.63,,,,,,,,,,
15.34.30.663,-114.1,28.5,0,5.0,,73921.2,13.53,-0.8,0.3,0.23,62.4,-9.9,-13.7,34.63,,,,,,,,,,
15.34.30.671,-124.2,31.0,0,5.0,,74149.5,13.49,-0.82,0.3,0.21,63.1,-13.3,-12.0,34.63,,,,,,,,,,
15.34.30.685,-79.0,19.8,0,5.0,,69898.6,14.31,-0.84,0.29,0.19,64.8,-17.6,-13.4,34.63,,,,,,,,,,
15.34.30.696,-116.2,29.0,0,5.0,,74399.4,13.44,-0.86,0.29,0.17,63.7,-22.3,-14.2,34.63,,,,,,,,,,
15.34.30.704,-103.1,25.8,0,5.0,,72175.9,13.86,-0.89,0.29,0.15,61.8,-28.6,-14.2,34.63,,,,,,,,,,
15.34.30.716,-105.4,26.4,0,5.0,,71487.4,13.99,-0.91,0.3,0.14,59.0,-30.5,-15.6,34.63,,,,,,,,,,
15.34.30.725,-98.9,24.7,0,5.0,,69995.3,14.29,-0.92,0.31,0.11,54.7,-32.1,-18.8,34.63,,,,,,,,,,
15.34.30.737,-144.3,36.1,0,5.0,,73253.0,13.65,-0.91,0.31,0.1,48.3,-35.0,-23.6,34.63,,,,,,,,,,
15.34.30.749,-124.7,31.2,0,5.0,,73060.0,13.69,-0.93,0.29,0.07,40.6,-34.6,-27.6,34.63,,,,,,,,,,
15.34.30.757,-159.2,39.8,0,5.0,,72927.8,13.71,-0.93,0.31,0.04,36.5,-32.4,-33.7,34.63,,,,,,,,,,
15.34.30.770,-183.1,45.8,0,5.0,,66916.5,14.94,-0.94,0.29,0.02,35.7,-30.1,-40.4,34.63,,,,,,,,,,
15.34.30.778,-180.6,45.2,0,5.0,,70867.7,14.11,-0.96,0.3,0.02,34.2,-27.8,-47.3,34.63,,,,,,,,,,
15.34.30.790,44.0,11.0,1,6.0,95.2,72157.6,13.86,-0.98,0.31,0.01,33.6,-24.6,-55.1,34.63,,,,,,,,,,
15.34.30.802,132.8,33.2,0,6.0,,72115.4,13.87,-1.01,0.32,-0.01,31.2,-21.3,-62.9,34.63,,,,,,,,,,
15.34.30.811,147.1,36.8,0,6.0,,68508.9,14.6,-1.04,0.33,0.0,27.1,-20.6,-70.8,34.63,,,,,,,,,,
15.34.30.823,233.3,58.3,0,6.0,,72906.0,13.72,-1.09,0.35,-0.01,22.4,-19.9,-78.7,34.63,,,,,,,,,,
15.34.30.831,270.9,67.7,0,6.0,,74135.5,13.49,-1.12,0.37,-0.02,16.3,-16.7,-86.3,34.63,,,,,,,,,,
15.34.30.843,283.3,70.8,0,6.0,,67860.6,14.74,-1.14,0.39,-0.03,9.9,-17.5,-92.5,34.63,,,,,,,,,,
15.34.30.856,395.2,98.8,0,6.0,,72142.0,13.86,-1.15,0.4,-0.04,4.3,-19.5,-98.0,34.63,,,,,,,,,,
15.34.30.864,410.1,102.5,0,6.0,,69578.8,14.37,-1.13,0.41,-0.06,1.3,-18.3,-101.8,34.63,,,,,,,,,,
15.34.30.876,387.8,97.0,0,6.0,,72129.5,13.86,-1.13,0.42,-0.03,0.0,-15.7,-103.1,34.63,,,,,,,,,,
15.34.30.885,428.8,107.2,0,6.0,,69392.0,14.41,-1.1,0.45,-0.06,1.3,-12.9,-103.5,34.63,,,,,,,,,,
15.34.30.897,449.6,112.4,0,6.0,,71885.9,13.91,-1.03,0.47,-0.22,14.2,-3.6,-102.0,34.63,,,,,,,,,,
15.34.30.909,396.7,99.2,0,6.0,,71800.0,13.93,-0.89,0.6,0.1,-33.9,-11.5,-74.3,34.63,,,,,,,,,,
15.34.30.917,389.6,97.4,0,6.0,,75777.6,13.2,-1.13,0.48,-0.13,-22.4,1.7,-91.6,34.63,,,,,,,,,,
15.34.30.929,336.3,84.1,0,6.0,,74334.4,13.45,-1.06,0.41,-0.21,-27.1,4.6,-81.4,34.63,,,,,,,,,,
15.34.30.938,278.6,69.6,0,6.0,,75524.4,13.24,-1.1,0.5,-0.1,-14.0,5.5,-69.0,34.63,,,,,,,,,,
15.34.30.950,204.3,51.1,0,6.0,,69976.8,14.29,-1.14,0.49,-0.09,-11.2,18.5,-55.8,34.63,,,,,,,,,,
15.34.30.962,98.5,24.6,0,6.0,,67541.5,14.81,-1.15,0.5,-0.12,-13.9,22.8,-44.0,34.63,,,,,,,,,,
15.34.30.974,101.3,25.3,0,6.0,,68772.2,14.54,-1.15,0.51,-0.06,-15.6,21.5,-25.8,34.63,,,,,,,,,,
15.34.30.987,19.9,5.0,0,6.0,,69729.0,14.34,-1.2,0.5,-0.08,-5.5,29.1,-14.5,34.63,,,,,,,,,,
15.34.30.995,4.8,1.2,0,6.0,,72002.9,13.89,-1.13,0.48,-0.04,3.0,28.7,1.8,34.63,,,,,,,,,,
15.34.31.007,53.1,13.3,0,6.0,,75527.8,13.24,-1.11,0.52,-0.02,-1.6,31.1,10.2,34.63,,,,,,,,,,
15.34.31.015,59.2,14.8,0,6.0,,71680.5,13.95,-1.04,0.61,0.01,-14.1,36.7,16.7,34.63,,,,,,,,,,
15.34.31.028,64.5,16.1,0,6.0,,72775.3,13.74,-0.98,0.68,0.04,-42.4,34.7,22.4,34.63,,,,,,,,,,
15.34.31.037,61.5,15.4,0,6.0,,73793.6,13.55,-1.01,0.64,0.09,-82.1,36.2,23.9,34.63,,,,,,,,,,
15.34.31.048,76.4,19.1,0,6.0,,70767.2,14.13,-0.93,0.65,0.06,-122.8,32.6,31.3,34.63,,,,,,,,,,
15.34.31.060,66.6,16.6,0,6.0,,72107.8,13.87,-0.95,0.59,0.06,-154.1,32.2,44.9,34.63,,,,,,,,,,
15.34.31.069,55.9,14.0,0,6.0,,69386.3,14.41,-0.95,0.57,0.08,-183.2,33.7,56.2,34.63,,,,,,,,,,
15.34.31.081,42.9,10.7,0,6.0,,67256.7,14.87,-0.97,0.53,0.05,-209.4,30.1,63.0,34.63,,,,,,,,,,
15.34.31.089,-4.3,1.1,0,6.0,,72379.0,13.82,-1.04,0.46,0.01,-227.0,26.4,68.2,34.63,,,,,,,,,,
15.34.31.101,13.6,3.4,0,6.0,,71943.9,13.9,-1.05,0.4,-0.01,-231.7,26.1,77.7,34.63,,,,,,,,,,
15.34.31.114,-13.8,3.4,0,6.0,,72217.4,13.85,-1.09,0.31,0.0,-226.1,19.5,84.5,34.63,,,,,,,,,,
15.34.31.122,-3.6,0.9,0,6.0,,74105.5,13.49,-1.12,0.28,-0.01,-217.9,14.0,89.8,34.63,,,,,,,,,,
15.34.31.135,-24.3,6.1,0,6.0,,74982.3,13.34,-1.18,0.22,-0.04,-205.9,9.3,93.1,34.63,,,,,,,,,,
15.34.31.142,-12.3,3.1,0,6.0,,71652.4,13.96,-1.19,0.19,-0.04,-186.7,1.8,95.9,34.63,,,,,,,,,,
15.34.31.155,-23.1,5.8,0,6.0,,69742.4,14.34,-1.2,0.16,-0.05,-165.0,-0.6,105.5,34.63,,,,,,,,,,
15.34.31.167,-31.3,7.8,0,6.0,,70110.7,14.26,-1.21,0.13,-0.07,-142.1,-5.3,116.8,34.63,,,,,,,,,,
15.34.31.175,-48.6,12.2,0,6.0,,68255.5,14.65,-1.17,0.1,-0.09,-116.6,-11.2,128.5,34.63,,,,,,,,,,
15.34.31.187,-106.9,26.7,0,6.0,,75484.2,13.25,-1.16,0.08,-0.09,-88.6,-13.2,141.3,34.63,,,,,,,,,,
15.34.31.196,-49.7,12.4,0,6.0,,69377.0,14.41,-1.15,0.06,-0.1,-60.7,-13.6,151.9,34.63,,,,,,,,,,
15.34.31.208,-75.2,18.8,0,6.0,,72129.8,13.86,-1.13,0.05,-0.09,-36.8,-10.9,161.3,34.63,,,,,,,,,,
15.34.31.221,-74.8,18.7,0,6.0,,68166.1,14.67,-1.12,0.06,-0.08,-15.1,-8.1,166.7,34.63,,,,,,,,,,
15.34.31.228,-85.9,21.5,0,6.0,,72274.5,13.84,-1.09,0.06,-0.06,2.0,-8.6,169.9,34.63,,,,,,,,,,
15.34.31.241,-81.5,20.4,0,6.0,,71149.3,14.05,-1.07,0.08,-0.04,17.6,-4.0,171.0,34.63,,,,,,,,,,
15.34.31.253,-89.6,22.4,0,6.0,,68268.2,14.65,-1.06,0.07,-0.04,27.2,-6.1,167.7,34.63,,,,,,,,,,
15.34.31.261,-100.9,25.2,0,6.0,,69646.1,14.36,-1.03,0.08,-0.02,35.7,-6.7,162.2,34.63,,,,,,,,,,
15.34.31.273,-110.2,27.6,0,6.0,,69822.7,14.32,-1.0,0.09,0.0,42.7,-4.7,154.2,34.63,,,,,,,,,,
15.34.31.283,-103.6,25.9,0,6.0,,72556.9,13.78,-0.96,0.11,0.02,45.3,-7.1,143.9,34.63,,,,,,,,,,
15.34.31.294,-137.6,34.4,0,6.0,,73301.6,13.64,-0.94,0.12,0.03,44.3,-8.0,130.7,34.63,,,,,,,,,,
15.34.31.306,-140.2,35.0,0,6.0,,72479.2,13.8,-0.91,0.14,0.04,38.8,-5.8,119.0,34.63,,,,,,,,,,
15.34.31.315,-112.8,28.2,0,6.0,,71724.4,13.94,-0.88,0.16,0.05,30.5,-6.3,107.7,34.63,,,,,,,,,,
15.34.31.327,-134.9,33.7,0,6.0,,72441.9,13.8,-0.86,0.16,0.01,14.3,-4.2,98.5,34.63,,,,,,,,,,
15.34.31.335,-151.8,38.0,0,6.0,,69798.1,14.33,-0.84,0.19,0.05,1.2,-4.8,85.6,34.63,,,,,,,,,,
15.34.31.373,116.0,29.0,1,7.0,106.0,72119.4,13.87,-0.8,0.18,0.04,-11.6,-9.9,77.8,34.63,,,,,,,,,,
15.34.31.384,201.2,50.3,0,7.0,,71397.0,14.01,-0.76,0.11,0.01,-20.2,-14.1,55.3,34.63,,,,,,,,,,
15.34.31.392,224.9,56.2,0,7.0,,71316.8,14.02,-0.76,0.09,0.01,-17.3,-10.8,51.5,34.63,,,,,,,,,,
15.34.31.407,324.8,81.2,0,7.0,,72177.0,13.85,-0.79,0.1,0.0,-12.6,-12.8,47.9,34.63,,,,,,,,,,
15.34.31.417,280.7,70.2,0,7.0,,68845.9,14.53,-0.81,0.08,0.0,-6.0,-7.2,45.2,34.63,,,,,,,,,,
15.34.31.425,383.3,95.8,0,7.0,,68624.8,14.57,-0.88,0.07,-0.02,4.0,-7.4,38.6,34.63,,,,,,,,,,
15.34.31.437,384.1,96.0,0,7.0,,73465.8,13.61,-0.93,0.08,-0.02,13.8,-7.6,31.9,34.63,,,,,,,,,,
15.34.31.446,388.9,97.2,0,7.0,,70542.9,14.18,-1.01,0.05,-0.04,16.8,-6.2,27.0,34.63,,,,,,,,,,
15.34.31.458,377.0,94.2,0,7.0,,73357.6,13.63,-1.04,0.11,-0.04,21.3,-7.5,23.2,34.63,,,,,,,,,,
15.34.31.466,445.9,111.5,0,7.0,,71482.3,13.99,-1.04,0.12,-0.04,28.0,-10.0,11.9,34.63,,,,,,,,,,
15.34.31.478,399.4,99.8,0,7.0,,71637.7,13.96,-1.08,0.15,-0.03,28.1,-10.5,2.9,34.63,,,,,,,,,,
15.34.31.491,326.9,81.7,0,7.0,,74626.6,13.4,-1.08,0.15,-0.04,27.6,-14.6,-8.9,34.63,,,,,,,,,,
15.34.31.504,278.9,69.7,0,7.0,,71875.1,13.91,-1.07,0.13,-0.02,27.5,-13.7,-17.8,34.63,,,,,,,,,,
15.34.31.511,299.6,74.9,0,7.0,,70486.4,14.19,-1.09,0.13,-0.04,28.3,-12.4,-25.8,34.63,,,,,,,,,,
15.34.31.523,200.9,50.2,0,7.0,,70739.8,14.14,-1.12,0.12,-0.03,32.3,-13.1,-33.2,34.63,,,,,,,,,,
15.34.31.536,126.7,31.7,0,7.0,,73074.1,13.68,-1.14,0.11,-0.05,36.8,-11.2,-40.9,34.63,,,,,,,,,,
15.34.31.544,87.6,21.9,0,7.0,,68622.9,14.57,-1.18,0.11,-0.07,43.7,-11.0,-53.3,34.63,,,,,,,,,,
15.34.31.556,41.9,10.5,0,7.0,,70028.2,14.28,-1.2,0.12,-0.08,48.0,-11.0,-63.5,34.63,,,,,,,,,,
15.34.31.564,-6.7,1.7,0,7.0,,68683.4,14.56,-1.23,0.13,-0.09,53.4,-9.5,-74.0,34.63,,,,,,,,,,
15.34.31.577,24.7,6.2,0,7.0,,70217.0,14.24,-1.22,0.16,-0.08,57.7,-11.4,-84.0,34.63,,,,,,,,,,
15.34.31.589,66.4,16.6,0,7.0,,71290.9,14.03,-1.2,0.18,-0.08,60.3,-13.3,-94.1,34.63,,,,,,,,,,
15.34.31.597,60.9,15.2,0,7.0,,70855.2,14.11,-1.16,0.2,-0.07,63.0,-14.0,-106.7,34.63,,,,,,,,,,
15.34.31.609,88.7,22.2,0,7.0,,68811.2,14.53,-1.12,0.22,-0.07,61.0,-9.3,-119.5,34.63,,,,,,,,,,
15.34.31.618,71.2,17.8,0,7.0,,71865.9,13.91,-1.08,0.24,-0.05,62.1,-6.7,-131.5,34.63,,,,,,,,,,
15.34.31.630,82.3,20.6,0,7.0,,72459.3,13.8,-1.05,0.26,-0.04,64.9,-3.5,-140.4,34.63,,,,,,,,,,
15.34.31.642,49.9,12.5,0,7.0,,72073.8,13.87,-1.01,0.27,-0.02,65.1,0.6,-144.5,34.63,,,,,,,,,,
15.34.31.651,58.4,14.6,0,7.0,,74755.4,13.38,-0.98,0.28,0.01,66.3,1.6,-144.6,34.63,,,,,,,,,,
15.34.31.663,14.8,3.7,0,7.0,,73173.7,13.67,-0.97,0.3,0.03,66.3,7.3,-139.9,34.63,,,,,,,,,,
15.34.31.671,13.0,3.2,0,7.0,,70941.8,14.1,-0.99,0.3,0.04,70.3,14.4,-135.0,34.63,,,,,,,,,,
15.34.31.683,-19.5,4.9,0,7.0,,78716.3,12.7,-0.98,0.33,0.04,70.7,18.5,-128.2,34.63,,,,,,,,,,
15.34.31.691,26.9,6.7,0,7.0,,68747.8,14.55,-1.0,0.36,0.06,71.8,19.4,-123.3,34.63,,,,,,,,,,
15.34.31.704,-26.6,6.6,0,7.0,,69712.1,14.34,-1.02,0.37,0.08,66.4,19.7,-118.7,34.63,,,,,,,,,,
15.34.31.717,-44.9,11.2,0,7.0,,70915.1,14.1,-1.05,0.42,0.08,57.3,17.6,-116.6,34.63,,,,,,,,,,
15.34.31.724,-22.9,5.7,0,7.0,,67766.2,14.76,-1.07,0.43,0.12,45.1,16.2,-113.1,34.63,,,,,,,,,,
15.34.31.736,-50.0,12.5,0,7.0,,75040.7,13.33,-1.09,0.47,0.12,35.8,17.4,-110.5,34.63,,,,,,,,,,
15.34.31.745,-55.4,13.8,0,7.0,,69262.7,14.44,-1.11,0.49,0.14,22.4,15.8,-107.5,34.63,,,,,,,,,,
15.34.31.757,-52.0,13.0,0,7.0,,69821.9,14.32,-1.1,0.5,0.14,6.7,14.4,-103.5,34.63,,,,,,,,,,
15.34.31.765,-72.8,18.2,0,7.0,,71675.8,13.95,-1.07,0.5,0.15,-6.3,13.9,-99.1,34.63,,,,,,,,,,
15.34.31.777,-67.5,16.9,0,7.0,,72460.2,13.8,-1.04,0.49,0.14,-18.2,14.3,-92.2,34.63,,,,,,,,,,
15.34.31.790,-87.2,21.8,0,7.0,,69148.1,14.46,-0.97,0.46,0.13,-27.6,12.4,-84.3,34.63,,,,,,,,,,
15.34.31.798,-63.5,15.9,0,7.0,,69420.6,14.4,-0.91,0.44,0.14,-34.7,12.3,-76.5,34.63,,,,,,,,,,
15.34.31.810,-93.9,23.5,0,7.0,,71936.6,13.9,-0.88,0.42,0.14,-40.3,13.7,-68.7,34.63,,,,,,,,,,
15.34.31.818,-116.3,29.1,0,7.0,,71778.0,13.93,-0.86,0.39,0.15,-43.5,17.3,-61.1,34.63,,,,,,,,,,
15.34.31.831,-138.6,34.6,0,7.0,,74563.4,13.41,-0.85,0.39,0.15,-45.5,19.4,-52.6,34.63,,,,,,,,,,
15.34.31.843,-140.4,35.1,0,7.0,,72366.8,13.82,-0.85,0.37,0.16,-47.5,20.2,-45.5,34.63,,,,,,,,,,
15.34.31.851,-113.2,28.3,0,7.0,,72418.6,13.81,-0.87,0.34,0.17,-47.0,20.0,-40.1,34.63,,,,,,,,,,
15.34.31.863,-128.5,32.1,0,7.0,,72552.4,13.78,-0.88,0.31,0.17,-41.1,20.0,-35.3,34.63,,,,,,,,,,
15.34.31.872,-127.7,31.9,0,7.0,,71928.0,13.9,-0.89,0.28,0.18,-30.5,21.8,-30.9,34.63,,,,,,,,,,
15.34.31.884,-113.3,28.3,0,7.0,,69221.3,14.45,-0.85,0.26,0.17,-16.8,15.1,-28.1,34.63,,,,,,,,,,
15.34.31.896,-129.5,32.4,0,7.0,,71917.3,13.9,-0.86,0.24,0.16,-0.5,6.5,-27.6,34.63,,,,,,,,,,
15.34.31.904,-138.5,34.6,0,7.0,,70888.4,14.11,-1.01,0.34,0.13,11.7,9.5,-24.0,34.63,,,,,,,,,,
15.34.31.917,-177.8,44.4,0,7.0,,68737.4,14.55,-0.83,0.24,0.25,18.8,-3.1,-10.8,34.63,,,,,,,,,,
15.34.31.925,-159.6,39.9,0,7.0,,71918.5,13.9,-0.86,0.33,0.23,29.4,-6.6,-6.6,34.63,,,,,,,,,,
15.34.31.937,65.7,16.4,1,8.0,109.8,69425.7,14.4,-0.88,0.26,0.15,32.1,-2.8,-5.3,34.63,,,,,,,,,,
15.34.31.945,95.1,23.8,0,8.0,,73641.7,13.58,-0.87,0.27,0.12,34.6,-12.3,-4.5,34.63,,,,,,,,,,
15.34.31.958,155.6,38.9,0,8.0,,70682.1,14.15,-0.86,0.25,0.14,43.4,-8.4,-5.2,34.63,,,,,,,,,,
15.34.31.970,297.4,74.4,0,8.0,,73963.4,13.52,-0.83,0.22,0.13,61.0,-6.9,-18.5,34.63,,,,,,,,,,
15.34.31.978,288.6,72.2,0,8.0,,70232.8,14.24,-0.66,0.07,0.23,67.1,-17.1,-21.6,34.63,,,,,,,,,,
15.34.31.990,344.1,86.0,0,8.0,,72366.2,13.82,-1.06,0.2,0.04,63.5,4.8,-30.3,34.63,,,,,,,,,,
15.34.31.999,383.4,95.8,0,8.0,,71426.2,14.0,-0.9,0.2,0.13,67.1,-9.7,-35.9,34.63,,,,,,,,,,
15.34.32.015,378.4,94.6,0,8.0,,69971.6,14.29,-0.86,0.36,0.19,67.4,-9.4,-30.0,34.63,,,,,,,,,,
15.34.32.023,382.8,95.7,0,8.0,,71231.7,14.04,-0.98,0.4,0.17,52.9,-17.4,-26.4,34.63,,,,,,,,,,
15.34.32.036,382.5,95.6,0,8.0,,71792.5,13.93,-1.06,0.33,0.07,36.5,-14.3,-35.4,34.63,,,,,,,,,,
15.34.32.044,433.1,108.3,0,8.0,,72188.7,13.85,-1.06,0.32,0.07,36.7,-20.2,-41.0,34.63,,,,,,,,,,
15.34.32.057,423.1,105.8,0,8.0,,68633.2,14.57,-1.09,0.34,0.08,44.1,-24.7,-36.2,34.63,,,,,,,,,,
15.34.32.064,331.1,82.8,0,8.0,,72793.3,13.74,-1.15,0.36,0.0,43.5,-22.0,-34.3,34.63,,,,,,,,,,
15.34.32.076,310.4,77.6,0,8.0,,71665.3,13.95,-1.15,0.39,-0.05,44.0,-25.4,-34.9,34.63,,,,,,,,,,
15.34.32.090,221.9,55.5,0,8.0,,72161.1,13.86,-1.2,0.39,-0.03,43.2,-26.3,-34.3,34.63,,,,,,,,,,
15.34.32.097,191.4,47.8,0,8.0,,69943.3,14.3,-1.03,0.27,-0.14,53.9,-17.5,-31.5,34.63,,,,,,,,,,
15.34.32.109,106.6,26.6,0,8.0,,68761.8,14.54,-0.93,0.47,0.01,28.7,-28.1,-5.6,34.63,,,,,,,,,,
15.34.32.117,60.2,15.0,0,8.0,,69802.7,14.33,-1.14,0.39,-0.13,27.3,-14.7,-12.6,34.63,,,,,,,,,,
15.34.32.130,27.3,6.8,0,8.0,,73470.5,13.61,-1.08,0.34,-0.21,33.1,-16.7,-7.0,34.63,,,,,,,,,,
15.34.32.142,29.1,7.3,0,8.0,,66630.6,15.01,-0.99,0.34,-0.12,45.3,-16.0,3.9,34.63,,,,,,,,,,
15.34.32.180,54.3,13.6,0,8.0,,70885.8,14.11,-1.06,0.4,-0.12,41.0,10.5,7.9,34.63,,,,,,,,,,
15.34.32.187,45.8,11.4,0,8.0,,74256.7,13.47,-1.26,0.42,-0.11,24.6,22.9,26.2,34.63,,,,,,,,,,
15.34.32.199,66.0,16.5,0,8.0,,71045.4,14.08,-1.32,0.44,-0.1,13.7,23.4,24.8,34.63,,,,,,,,,,
15.34.32.208,49.0,12.2,0,8.0,,71571.0,13.97,-1.35,0.45,-0.1,7.3,22.9,24.8,34.63,,,,,,,,,,
15.34.32.220,51.2,12.8,0,8.0,,68971.3,14.5,-1.31,0.49,-0.08,1.8,23.4,29.9,34.63,,,,,,,,,,
15.34.32.228,19.3,4.8,0,8.0,,72710.8,13.75,-1.21,0.51,-0.04,-13.2,20.6,32.5,34.63,,,,,,,,,,
15.34.32.240,6.5,1.6,0,8.0,,72536.4,13.79,-1.09,0.54,0.01,-35.1,22.8,33.4,34.63,,,,,,,,,,
15.34.32.253,-7.5,1.9,0,8.0,,70502.6,14.18,-0.98,0.51,0.05,-52.0,35.4,38.5,34.63,,,,,,,,,,
15.34.32.261,-37.4,9.4,0,8.0,,70721.3,14.14,-0.92,0.49,0.02,-74.7,38.6,42.9,34.63,,,,,,,,,,
15.34.32.273,-36.9,9.2,0,8.0,,70084.6,14.27,-0.87,0.47,0.02,-100.1,36.4,45.6,34.63,,,,,,,,,,
15.34.32.281,-16.9,4.2,0,8.0,,74578.8,13.41,-0.86,0.45,0.05,-125.0,37.8,49.6,34.63,,,,,,,,,,
15.34.32.294,-2.4,0.6,0,8.0,,75029.4,13.33,-0.86,0.41,0.07,-145.5,44.2,56.5,34.63,,,,,,,,,,
15.34.32.306,-38.9,9.7,0,8.0,,73047.5,13.69,-0.92,0.35,0.07,-161.2,45.5,63.2,34.63,,,,,,,,,,
15.34.32.314,-54.7,13.7,0,8.0,,73268.3,13.65,-0.97,0.29,0.09,-170.6,41.7,71.3,34.63,,,,,,,,,,
15.34.32.326,-68.2,17.0,0,8.0,,71348.7,14.02,-1.03,0.25,0.07,-169.0,37.2,82.5,34.63,,,,,,,,,,
15.34.32.335,-71.4,17.8,0,8.0,,71874.0,13.91,-1.09,0.19,0.05,-164.4,21.3,89.3,34.63,,,,,,,,,,
15.34.32.347,-85.9,21.5,0,8.0,,74400.9,13.44,-1.1,0.13,0.04,-147.4,13.6,93.2,34.63,,,,,,,,,,
15.34.32.359,-95.1,23.8,0,8.0,,67831.2,14.74,-1.11,0.08,0.03,-123.1,8.8,100.3,34.63,101.6,,,,,,,,,
15.34.32.367,-72.5,18.1,0,8.0,,70280.1,14.23,-1.09,0.08,0.01,-96.5,7.0,110.1,34.63,,,,,,,,,,
15.34.32.380,-83.4,20.8,0,8.0,,70544.9,14.18,-1.07,0.06,0.01,-70.4,7.9,117.1,34.63,,,,,,,,,,
15.34.32.388,-75.2,18.8,0,8.0,,70905.1,14.1,-1.04,0.12,0.01,-46.2,1.7,126.4,34.63,,,,,,,,,,
15.34.32.400,-61.4,15.4,0,8.0,,73425.1,13.62,-1.02,0.12,0.03,-37.8,-7.0,142.9,34.63,,,,,,,,,,
15.34.32.408,-99.2,24.8,0,8.0,,72523.1,13.79,-1.09,0.14,-0.06,-29.4,-0.7,146.9,34.63,,,,,,,,,,
15.34.32.421,-108.3,27.1,0,8.0,,72597.5,13.77,-1.04,0.06,0.07,-21.7,0.8,134.1,34.63,,,,,,,,,,
15.34.32.433,-146.2,36.6,0,8.0,,73252.6,13.65,-0.99,0.16,0.05,-20.8,-12.3,139.8,34.63,,,,,,,,,,
15.34.32.441,-135.1,33.8,0,8.0,,72707.5,13.75,-0.97,0.14,0.0,-11.5,-2.4,136.3,34.63,,,,,,,,,,
15.34.32.453,-138.2,34.6,0,8.0,,69636.9,14.36,-0.91,0.13,-0.04,-11.7,1.6,128.7,34.63,,,,,,,,,,
15.34.32.462,-164.5,41.1,0,8.0,,72643.1,13.77,-0.87,0.21,0.07,-12.7,-8.9,125.0,34.63,,,,,,,,,,
15.34.32.474,-128.6,32.2,0,8.0,,68248.3,14.65,-0.87,0.14,0.02,-9.7,6.6,111.4,34.63,,,,,,,,,,
15.34.32.486,-108.7,27.2,0,8.0,,72321.6,13.83,-0.85,0.14,0.02,-10.8,5.0,99.3,34.63,,,,,,,,,,
15.34.32.499,-132.3,33.1,0,8.0,,71983.0,13.89,-0.81,0.15,0.07,-9.6,-5.2,93.0,34.63,,,,,,,,,,
15.34.32.507,60.9,15.2,1,9.0,99.0,70546.0,14.18,-0.79,0.18,0.07,-12.7,3.7,84.7,34.63,,,,,,,,,,
15.34.32.519,104.6,26.2,0,9.0,,71861.5,13.92,-0.79,0.17,0.04,-17.6,0.4,78.5,34.63,,,,,,,,,,
15.34.32.527,195.6,48.9,0,9.0,,67905.1,14.73,-0.8,0.16,0.08,-15.4,-6.5,77.5,34.63,,,,,,,,,,
15.34.32.540,249.2,62.3,0,9.0,,74194.3,13.48,-0.82,0.17,0.06,-17.1,-1.7,75.2,34.63,,,,,,,,,,
15.34.32.548,274.3,68.6,0,9.0,,71921.6,13.9,-0.85,0.14,0.04,-21.7,-3.8,67.1,34.63,,,,,,,,,,
15.34.32.560,313.4,78.4,0,9.0,,74044.6,13.51,-0.85,0.12,0.01,-20.6,-9.3,59.7,34.63,,,,,,,,,,
15.34.32.572,357.2,89.3,0,9.0,,67016.8,14.92,-0.87,0.12,0.02,-14.2,-7.1,55.3,34.63,,,,,,,,,,
15.34.32.581,415.5,103.9,0,9.0,,69363.7,14.42,-0.88,0.14,0.0,-10.6,-9.3,48.4,34.63,,,,,,,,,,
15.34.32.593,447.9,112.0,0,9.0,,72088.4,13.87,-0.89,0.14,0.0,-8.6,-12.3,39.5,34.63,,,,,,,,,,
15.34.32.601,427.6,106.9,0,9.0,,71915.9,13.91,-0.89,0.16,0.01,-4.6,-13.5,32.7,34.63,,,,,,,,,,
15.34.32.613,402.6,100.6,0,9.0,,67369.1,14.84,-0.88,0.17,0.0,4.6,-16.5,28.6,34.63,,,,,,,,,,
15.34.32.621,376.6,94.2,0,9.0,,70925.6,14.1,-0.88,0.18,0.0,6.2,-12.8,22.0,34.63,,,,,,,,,,
15.34.32.635,321.3,80.3,0,9.0,,69913.4,14.3,-0.89,0.17,-0.01,8.5,-11.2,14.2,34.63,,,,,,,,,,
15.34.32.646,284.2,71.0,0,9.0,,73680.4,13.57,-0.9,0.18,-0.01,12.5,-12.2,11.6,34.63,,,,,,,,,,
15.34.32.654,272.4,68.1,0,9.0,,74307.6,13.46,-0.94,0.18,0.0,16.3,-10.8,9.7,34.63,,,,,,,,,,
15.34.32.666,205.4,51.4,0,9.0,,75477.4,13.25,-0.99,0.2,0.0,15.3,-11.8,5.4,34.63,,,,,,,,,,
15.34.32.675,143.7,35.9,0,9.0,,71163.7,14.05,-1.03,0.2,0.01,13.4,-11.2,0.3,34.63,,,,,,,,,,
15.34.32.687,70.9,17.7,0,9.0,,71394.7,14.01,-1.04,0.22,0.0,12.0,-11.1,-5.6,34.63,,,,,,,,,,
15.34.32.699,-26.7,6.7,0,9.0,,68952.8,14.5,-1.04,0.21,-0.02,9.1,-16.0,-13.2,34.63,,,,,,,,,,
15.34.32.707,8.2,2.0,0,9.0,,76553.0,13.06,-1.03,0.2,-0.01,9.5,-16.0,-21.6,34.63,,,,,,,,,,
15.34.32.720,50.9,12.7,0,9.0,,74953.8,13.34,-1.03,0.2,-0.02,13.6,-13.0,-28.6,34.63,,,,,,,,,,
15.34.32.728,38.1,9.5,0,9.0,,69413.7,14.41,-1.04,0.19,-0.02,17.8,-12.8,-35.1,34.63,,,,,,,,,,
15.34.32.741,60.7,15.2,0,9.0,,73350.5,13.63,-1.06,0.19,-0.01,23.3,-10.6,-41.2,34.63,,,,,,,,,,
15.34.32.752,65.4,16.4,0,9.0,,76284.7,13.11,-1.12,0.2,-0.02,29.6,-8.5,-47.3,34.63,,,,,,,,,,
15.34.32.761,57.1,14.3,0,9.0,,69160.6,14.46,-1.17,0.21,-0.04,36.2,-7.4,-53.3,34.63,,,,,,,,,,
15.34.32.774,60.4,15.1,0,9.0,,69413.0,14.41,-1.2,0.22,-0.04,41.2,-7.1,-59.9,34.63,,,,,,,,,,
15.34.32.782,65.4,16.4,0,9.0,,72024.5,13.88,-1.22,0.24,-0.05,45.4,-8.1,-67.0,34.63,,,,,,,,,,
15.34.32.793,24.2,6.0,0,9.0,,71517.1,13.98,-1.23,0.24,-0.04,48.1,-10.1,-72.0,34.63,,,,,,,,,,
15.34.32.806,16.9,4.2,0,9.0,,72156.3,13.86,-1.22,0.25,-0.04,52.9,-8.8,-77.1,34.63,,,,,,,,,,
15.34.32.814,4.8,1.2,0,9.0,,75587.8,13.23,-1.23,0.26,-0.03,58.8,-6.1,-82.9,34.63,,,,,,,,,,
15.34.32.826,-19.8,5.0,0,9.0,,72044.3,13.88,-1.2,0.28,-0.02,64.8,-3.3,-89.6,34.63,,,,,,,,,,
15.34.32.834,8.4,2.1,0,9.0,,70919.8,14.1,-1.16,0.29,-0.01,70.1,-3.6,-95.8,34.63,,,,,,,,,,
15.34.32.847,-41.2,10.3,0,9.0,,71891.7,13.91,-1.1,0.3,0.0,77.4,-4.0,-100.8,34.63,,,,,,,,,,
15.34.32.859,-9.4,2.4,0,9.0,,71770.7,13.93,-1.05,0.31,0.03,82.2,-2.7,-103.6,34.63,,,,,,,,,,
15.34.32.867,-45.3,11.3,0,9.0,,71683.8,13.95,-0.99,0.33,0.05,88.3,0.2,-104.9,34.63,,,,,,,,,,
15.34.32.880,-43.6,10.9,0,9.0,,70537.0,14.18,-0.95,0.33,0.06,93.2,4.3,-101.0,34.63,,,,,,,,,,
15.34.32.889,-67.0,16.8,0,9.0,,70736.0,14.14,-0.91,0.33,0.08,99.8,8.3,-94.5,34.63,,,,,,,,,,
15.34.32.900,-49.1,12.3,0,9.0,,70801.1,14.12,-0.88,0.35,0.11,102.1,12.3,-86.2,34.63,,,,,,,,,,
15.34.32.912,-70.8,17.7,0,9.0,,70745.7,14.14,-0.88,0.37,0.11,100.9,14.6,-78.5,34.63,,,,,,,,,,
15.34.32.921,-59.1,14.8,0,9.0,,73350.7,13.63,-0.88,0.38,0.12,98.5,12.8,-75.3,34.63,,,,,,,,,,
15.34.32.933,-118.5,29.6,0,9.0,,69969.4,14.29,-0.86,0.37,0.15,91.8,12.8,-74.5,34.63,,,,,,,,,,
15.34.32.945,-101.3,25.3,0,9.0,,70189.9,14.25,-0.93,0.42,0.15,79.0,14.9,-68.8,34.63,,,,,,,,,,
15.34.32.982,-113.8,28.4,0,9.0,,73543.9,13.6,-0.93,0.43,0.17,69.3,9.2,-65.5,34.63,,,,,,,,,,
15.34.32.994,-114.7,28.7,0,9.0,,71328.1,14.02,-1.02,0.43,0.25,26.9,-3.6,-57.3,34.63,,,,,,,,,,
15.34.33.002,-105.1,26.3,0,9.0,,70166.8,14.25,-0.99,0.41,0.26,13.4,-6.3,-57.6,34.63,,,,,,,,,,
15.34.33.015,-169.4,42.4,0,9.0,,72998.5,13.7,-0.97,0.38,0.16,12.5,-8.9,-57.0,34.63,,,,,,,,,,
15.34.33.023,-124.1,31.0,0,9.0,,78695.1,12.71,-0.92,0.35,0.21,13.2,-9.9,-54.2,34.63,,,,,,,,,,
15.34.33.035,-116.5,29.1,0,9.0,,73063.1,13.69,-0.9,0.35,0.18,11.5,-9.1,-51.0,34.63,,,,,,,,,,
15.34.33.043,-135.0,33.8,0,9.0,,71186.5,14.05,-0.87,0.35,0.18,10.7,-10.5,-49.1,34.63,,,,,,,,,,
15.34.33.057,-129.0,32.2,0,9.0,,73571.9,13.59,-0.86,0.35,0.17,10.4,-10.9,-45.8,34.63,,,,,,,,,,
15.34.33.068,-178.7,44.7,0,9.0,,75141.4,13.31,-0.84,0.32,0.17,10.5,-8.8,-43.1,34.63,,,,,,,,,,
15.34.33.076,2.9,0.7,1,10.0,101.6,68645.9,14.57,-0.83,0.32,0.15,10.4,-6.8,-40.0,34.63,,,,,,,,,,
15.34.33.088,139.3,34.8,0,10.0,,73040.9,13.69,-0.83,0.23,0.18,13.2,-7.9,-42.6,34.63,,,,,,,,,,
15.34.33.097,173.7,43.4,0,10.0,,72603.1,13.77,-0.8,0.32,0.09,17.1,-1.7,-36.5,34.63,,,,,,,,,,
15.34.33.109,238.6,59.6,0,10.0,,73740.8,13.56,-0.88,0.31,0.13,16.8,-3.9,-35.5,34.63,,,,,,,,,,
15.34.33.117,267.7,66.9,0,10.0,,68599.1,14.58,-0.85,0.32,0.14,16.1,-2.8,-36.7,34.63,,,,,,,,,,
15.34.33.129,331.9,83.0,0,10.0,,70286.3,14.23,-0.9,0.31,0.13,15.4,-4.6,-39.2,34.63,,,,,,,,,,
15.34.33.142,381.0,95.2,0,10.0,,71708.5,13.95,-0.9,0.31,0.1,16.5,-8.2,-40.6,34.63,,,,,,,,,,
15.34.33.150,350.9,87.7,0,10.0,,72925.7,13.71,-0.91,0.32,0.11,18.6,-7.0,-42.9,34.63,,,,,,,,,,
15.34.33.162,410.4,102.6,0,10.0,,69660.7,14.36,-0.9,0.32,0.1,17.1,-7.5,-45.4,34.63,,,,,,,,,,
15.34.33.170,379.2,94.8,0,10.0,,73126.0,13.68,-0.9,0.34,0.1,13.9,-10.2,-46.4,34.63,,,,,,,,,,
15.34.33.183,393.4,98.4,0,10.0,,71191.2,14.05,-0.88,0.37,0.09,9.7,-8.6,-46.6,34.63,,,,,,,,,,
15.34.33.195,403.9,101.0,0,10.0,,69453.9,14.4,-0.87,0.37,0.08,5.1,-6.4,-46.3,34.63,,,,,,,,,,
15.34.33.203,346.6,86.6,0,10.0,,75185.7,13.3,-0.86,0.37,0.09,0.5,-5.6,-44.8,34.63,,,,,,,,,,
15.34.33.215,288.0,72.0,0,10.0,,72312.9,13.83,-0.87,0.35,0.1,-2.5,-4.5,-45.2,34.63,,,,,,,,,,
15.34.33.224,323.9,81.0,0,10.0,,73017.6,13.7,-0.89,0.37,0.08,-5.6,-1.9,-44.7,34.63,,,,,,,,,,
15.34.33.236,237.5,59.4,0,10.0,,74650.0,13.4,-0.95,0.4,0.02,-8.9,0.5,-44.8,34.63,,,,,,,,,,
15.34.33.244,184.3,46.1,0,10.0,,71786.2,13.93,-0.96,0.33,0.0,-7.5,2.3,-45.6,34.63,,,,,,,,,,
15.34.33.256,85.7,21.4,0,10.0,,71628.6,13.96,-0.96,0.34,0.05,-3.6,-0.6,-42.8,34.63,,,,,,,,,,
15.34.33.269,23.1,5.8,0,10.0,,73009.1,13.7,-0.99,0.37,0.03,-4.9,-2.5,-38.4,34.63,,,,,,,,,,
15.34.33.277,-10.0,2.5,0,10.0,,71703.1,13.95,-1.04,0.39,0.02,-9.1,-1.7,-38.6,34.63,,,,,,,,,,
15.34.33.289,34.9,8.7,0,10.0,,71852.6,13.92,-1.05,0.35,0.01,-9.3,-5.7,-37.9,34.63,,,,,,,,,,
15.34.33.297,56.7,14.2,0,10.0,,73517.4,13.6,-1.07,0.34,-0.01,-4.7,-1.7,-35.0,34.63,,,,,,,,,,
15.34.33.310,93.2,23.3,0,10.0,,72225.9,13.85,-1.09,0.36,-0.02,-0.7,-2.7,-30.7,34.63,,,,,,,,,,
15.34.33.322,77.1,19.3,0,10.0,,70614.9,14.16,-1.08,0.36,-0.02,2.2,-4.8,-28.0,34.63,,,,,,,,,,
15.34.33.330,52.6,13.2,0,10.0,,69252.9,14.44,-1.07,0.37,-0.03,5.4,-0.3,-25.1,34.63,,,,,,,,,,
15.34.33.342,73.5,18.4,0,10.0,,68880.7,14.52,-1.06,0.36,-0.04,8.6,2.8,-20.7,34.63,,,,,,,,,,
15.34.33.351,66.4,16.6,0,10.0,,71605.8,13.97,-0.99,0.39,-0.04,12.6,7.1,-17.0,34.63,,,,,,,,,,
15.34.33.363,39.2,9.8,0,10.0,,70856.3,14.11,-0.98,0.33,-0.04,15.8,9.7,-13.5,34.63,,,,,,,,,,
15.34.33.371,7.1,1.8,0,10.0,,67896.8,14.73,-1.06,0.44,0.0,16.5,10.7,-4.3,34.63,,,,,,,,,,
15.34.33.383,-6.6,1.6,0,10.0,,71453.2,14.0,-1.04,0.38,-0.03,14.2,15.4,-1.3,34.63,,,,,,,,,,
15.34.33.396,-37.4,9.4,0,10.0,,74613.1,13.4,-1.17,0.42,-0.06,11.0,29.6,-2.2,34.63,,,,,,,,,,
15.34.33.404,32.0,8.0,0,10.0,,70887.0,14.11,-1.1,0.39,0.0,6.0,24.1,-1.3,34.63,,,,,,,,,,
15.34.33.416,-28.3,7.1,0,10.0,,71410.3,14.0,-1.22,0.41,0.05,11.5,27.2,-1.6,34.63,,,,,,,,,,
15.34.33.424,-16.0,4.0,0,10.0,,71109.6,14.06,-1.21,0.48,-0.04,8.4,31.9,0.4,34.63,,,,,,,,,,
15.34.33.437,-49.5,12.4,0,10.0,,75748.4,13.2,-1.28,0.47,0.02,2.5,29.8,1.7,34.63,,,,,,,,,,
15.34.33.449,-18.5,4.6,0,10.0,,72076.1,13.87,-1.28,0.51,0.03,3.0,32.0,4.7,34.63,,,,,,,,,,
15.34.33.457,-39.5,9.9,0,10.0,,70577.0,14.17,-1.25,0.55,0.06,-3.9,31.8,7.1,34.63,,,,,,,,,,
15.34.33.470,-41.8,10.4,0,10.0,,72340.5,13.82,-1.2,0.59,0.09,-20.1,31.6,3.8,34.63,,,,,,,,,,
15.34.33.478,-69.7,17.4,0,10.0,,71198.0,14.05,-1.11,0.6,0.09,-46.2,34.2,2.1,34.63,,,,,,,,,,
15.34.33.490,-64.3,16.1,0,10.0,,67139.4,14.89,-1.05,0.6,0.08,-76.6,30.5,9.5,34.63,,,,,,,,,,
15.34.33.498,-63.6,15.9,0,10.0,,70710.5,14.14,-0.97,0.62,0.12,-112.9,25.3,18.1,34.63,,,,,,,,,,
15.34.33.510,-84.2,21.0,0,10.0,,71140.4,14.06,-0.95,0.56,0.12,-149.4,27.1,23.2,34.63,,,,,,,,,,
15.34.33.523,-88.5,22.1,0,10.0,,69021.4,14.49,-0.88,0.44,0.11,-167.0,28.4,33.5,34.63,,,,,,,,,,
15.34.33.531,-79.9,20.0,0,10.0,,71000.2,14.08,-0.91,0.42,0.07,-175.9,22.9,45.8,34.63,,,,,,,,,,
15.34.33.543,-103.7,25.9,0,10.0,,70043.4,14.28,-0.96,0.42,0.04,-195.7,19.0,46.4,34.63,,,,,,,,,,
15.34.33.551,-111.4,27.8,0,10.0,,69446.9,14.4,-0.95,0.35,0.07,-197.5,17.7,46.4,34.63,,,,,,,,,,
15.34.33.564,-121.4,30.4,0,10.0,,71230.5,14.04,-1.0,0.27,0.04,-187.3,13.5,53.2,34.63,,,,,,,,,,
15.34.33.576,-139.5,34.9,0,10.0,,72219.2,13.85,-0.99,0.22,0.03,-179.7,11.9,58.0,34.63,,,,,,,,,,
15.34.33.584,-108.3,27.1,0,10.0,,73886.3,13.53,-1.05,0.18,0.03,-154.5,24.2,69.7,34.63,,,,,,,,,,
15.34.33.596,-140.6,35.2,0,10.0,,70927.7,14.1,-1.11,0.13,-0.02,-131.0,16.0,94.1,34.63,,,,,,,,,,
15.34.33.606,-133.3,33.3,0,10.0,,73918.4,13.53,-1.1,0.09,0.01,-106.4,-9.0,112.1,34.63,,,,,,,,,,
15.34.33.618,-132.7,33.2,0,10.0,,70583.9,14.17,-1.11,0.06,0.01,-79.7,-23.3,118.1,34.63,,,,,,,,,,
15.34.33.629,-158.9,39.7,0,10.0,,65162.7,15.35,-1.12,0.01,-0.03,-45.9,-33.1,122.8,34.63,,,,,,,,,,
15.34.33.638,-186.4,46.6,0,10.0,,74582.0,13.41,-1.11,-0.01,-0.06,-3.5,-33.1,127.0,34.63,,,,,,,,,,
15.34.33.651,51.8,13.0,1,11.0,103.4,74249.0,13.47,-1.1,0.01,-0.08,38.5,-14.4,122.5,34.63,,,,,,,,,,
15.34.33.662,84.7,21.2,0,11.0,,68817.2,14.53,-1.11,0.07,-0.11,61.1,-7.8,120.6,34.63,,,,,,,,,,
15.34.33.670,179.5,44.9,0,11.0,,73311.1,13.64,-1.11,0.11,-0.11,70.2,-17.9,130.3,34.63,,,,,,,,,,
15.34.33.682,241.3,60.3,0,11.0,,72670.9,13.76,-1.07,0.15,-0.07,79.5,-21.6,139.4,34.63,,,,,,,,,,
15.34.33.691,265.7,66.4,0,11.0,,70954.0,14.09,-1.05,0.17,-0.05,79.7,-19.9,143.1,34.63,,,,,,,,,,
15.34.33.703,318.4,79.6,0,11.0,,73539.2,13.6,-1.04,0.2,-0.06,73.8,-22.7,138.0,34.63,,,,,,,,,,
15.34.33.715,422.8,105.7,0,11.0,,71106.3,14.06,-1.0,0.19,-0.05,67.9,-16.7,128.4,34.63,,,,,,,,,,
15.34.33.724,411.2,102.8,0,11.0,,72798.5,13.74,-0.93,0.18,-0.03,61.3,-8.3,119.7,34.63,,,,,,,,,,
15.34.33.736,422.5,105.6,0,11.0,,71879.6,13.91,-0.94,0.18,-0.07,63.3,-5.6,105.0,34.63,,,,,,,,,,
15.34.33.744,453.8,113.4,0,11.0,,73252.3,13.65,-0.89,0.19,-0.07,59.1,-6.2,96.3,34.63,,,,,,,,,,
15.34.33.785,313.1,78.3,0,11.0,,69909.3,14.3,-0.86,0.22,-0.04,54.6,-2.5,88.5,34.56,,,,,,,,,,
15.34.33.793,334.7,83.7,0,11.0,,73833.0,13.54,-0.78,0.29,0.01,0.0,8.8,63.8,34.56,,,,,,,,,,
15.34.33.805,196.0,49.0,0,11.0,,73015.5,13.7,-0.79,0.29,0.01,-17.9,8.4,56.1,34.56,,,,,,,,,,
15.34.33.813,229.3,57.3,0,11.0,,74351.8,13.45,-0.8,0.26,0.01,-29.1,8.3,49.1,34.56,,,,,,,,,,
15.34.33.826,146.6,36.6,0,11.0,,71268.9,14.03,-0.79,0.24,0.0,-34.9,9.2,44.1,34.56,,,,,,,,,,
15.34.33.834,61.2,15.3,0,11.0,,74190.7,13.48,-0.78,0.23,0.0,-37.3,8.6,40.3,34.56,,,,,,,,,,
15.34.33.846,-14.4,3.6,0,11.0,,71145.9,14.06,-0.79,0.23,0.01,-39.2,7.9,35.9,34.56,,,,,,,,,,
15.34.33.854,22.9,5.7,0,11.0,,70461.0,14.19,-0.79,0.22,0.02,-42.4,8.1,32.5,34.56,,,,,,,,,,
15.34.33.867,78.3,19.6,0,11.0,,69681.4,14.35,-0.79,0.21,0.03,-43.8,9.2,30.9,34.56,,,,,,,,,,
15.34.33.879,55.1,13.8,0,11.0,,72444.0,13.8,-0.81,0.2,0.02,-44.4,9.5,30.2,34.56,,,,,,,,,,
15.34.33.887,74.5,18.6,0,11.0,,73026.4,13.69,-0.85,0.17,0.02,-42.0,9.3,28.9,34.56,,,,,,,,,,
15.34.33.899,52.3,13.1,0,11.0,,65658.6,15.23,-0.89,0.15,0.01,-37.4,7.2,27.1,34.56,,,,,,,,,,
15.34.33.908,61.0,15.2,0,11.0,,75330.8,13.27,-0.94,0.14,0.01,-30.3,6.0,25.5,34.56,,,,,,,,,,
15.34.33.920,87.9,22.0,0,11.0,,72300.1,13.83,-0.98,0.13,0.0,-21.7,3.7,22.2,34.56,,,,,,,,,,
15.34.33.928,67.9,17.0,0,11.0,,73140.0,13.67,-1.0,0.13,0.0,-13.0,0.1,18.5,34.56,,,,,,,,,,
15.34.33.941,54.2,13.6,0,11.0,,69603.1,14.37,-1.01,0.12,0.0,-4.0,-2.8,13.1,34.56,,,,,,,,,,
15.34.33.949,14.8,3.7,0,11.0,,71849.6,13.92,-0.99,0.13,-0.01,3.3,-6.1,7.7,34.56,,,,,,,,,,
15.34.33.965,8.3,2.1,0,11.0,,72480.3,13.8,-0.97,0.14,-0.02,10.1,-6.1,-0.7,34.56,,,,,,,,,,
15.34.33.973,-0.5,0.1,0,11.0,,69527.9,14.38,-0.96,0.14,-0.03,13.2,-3.9,-6.4,34.56,,,,,,,,,,
15.34.33.986,-2.0,0.5,0,11.0,,76753.9,13.03,-0.96,0.15,-0.03,15.2,-3.2,-12.0,34.56,,,,,,,,,,
15.34.33.994,-46.1,11.5,0,11.0,,69953.8,14.3,-0.97,0.15,-0.03,14.9,-2.1,-17.4,34.56,,,,,,,,,,
15.34.34.006,-28.0,7.0,0,11.0,,71763.6,13.93,-0.99,0.14,-0.03,15.3,0.3,-24.8,34.56,,,,,,,,,,
15.34.34.014,-21.4,5.4,0,11.0,,73441.3,13.62,-1.03,0.15,-0.04,17.0,0.8,-33.6,34.56,,,,,,,,,,
15.34.34.026,-38.7,9.7,0,11.0,,71154.1,14.05,-1.07,0.14,-0.02,20.4,-0.2,-45.2,34.56,,,,,,,,,,
15.34.34.039,-63.2,15.8,0,11.0,,69506.9,14.39,-1.12,0.17,-0.02,22.8,3.1,-56.1,34.56,,,,,,,,,,
15.34.34.047,-52.7,13.2,0,11.0,,70746.3,14.14,-1.19,0.17,-0.01,28.8,4.9,-68.3,34.56,,,,,,,,,,
15.34.34.059,-59.7,14.9,0,11.0,,70396.7,14.21,-1.23,0.19,-0.05,30.9,3.1,-79.7,34.56,,,,,,,,,,
15.34.34.067,-50.6,12.6,0,11.0,,70421.3,14.2,-1.23,0.2,-0.04,32.6,-1.4,-91.0,34.56,,,,,,,,,,
15.34.34.080,-66.4,16.6,0,11.0,,71720.6,13.94,-1.23,0.24,-0.04,35.0,-3.0,-103.3,34.56,,,,,,,,,,
15.34.34.088,-98.8,24.7,0,11.0,,72904.4,13.72,-1.21,0.27,-0.03,35.9,-4.4,-114.2,34.56,,,,,,,,,,
15.34.34.100,-106.7,26.7,0,11.0,,72555.5,13.78,-1.17,0.29,-0.03,35.6,-2.5,-123.5,34.56,,,,,,,,,,
15.34.34.113,-87.9,22.0,0,11.0,,69917.2,14.3,-1.16,0.3,-0.02,36.8,1.8,-129.9,34.56,,,,,,,,,,
15.34.34.121,-85.7,21.4,0,11.0,,72298.8,13.83,-1.13,0.33,-0.02,39.2,2.5,-132.6,34.56,,,,,,,,,,
15.34.34.133,-115.9,29.0,0,11.0,,69903.6,14.31,-1.07,0.35,0.01,39.3,-1.2,-130.3,34.56,,,,,,,,,,
15.34.34.141,-105.6,26.4,0,11.0,,74202.6,13.48,-1.0,0.34,0.02,39.1,-3.5,-126.5,34.56,,,,,,,,,,
15.34.34.153,-126.3,31.6,0,11.0,,72967.7,13.7,-0.91,0.33,0.01,43.5,-4.2,-119.6,34.56,,,,,,,,,,
15.34.34.162,-128.2,32.0,0,11.0,,72799.2,13.74,-0.87,0.32,0.02,50.8,-1.4,-109.0,34.56,,,,,,,,,,
15.34.34.174,-140.3,35.1,0,11.0,,69539.2,14.38,-0.83,0.33,0.02,62.0,6.2,-99.5,34.56,,,,,,,,,,
15.34.34.186,-150.1,37.5,0,11.0,,73607.1,13.59,-0.83,0.36,0.03,68.3,16.5,-91.0,34.56,,,,,,,,,,
15.34.34.194,-167.0,41.8,0,11.0,,73808.2,13.55,-0.86,0.38,0.04,71.0,20.0,-83.6,34.56,,,,,,,,,,
15.34.34.207,-163.0,40.8,0,11.0,,70476.6,14.19,-0.89,0.4,0.06,66.1,17.1,-74.1,34.56,,,,,,,,,,
15.34.34.215,6.2,1.6,1,12.0,107.2,70116.9,14.26,-0.93,0.42,0.08,58.5,16.5,-67.4,34.56,,,,,,,,,,
15.34.34.227,99.2,24.8,0,12.0,,71818.8,13.92,-0.98,0.44,0.09,49.4,16.5,-62.8,34.56,,,,,,,,,,
15.34.34.236,140.8,35.2,0,12.0,,70690.0,14.15,-1.03,0.45,0.09,38.0,18.1,-60.1,34.56,,,,,,,,,,
15.34.34.248,258.5,64.6,0,12.0,,72054.2,13.88,-1.05,0.46,0.09,27.1,18.0,-59.1,34.56,,,,,,,,,,
15.34.34.260,285.8,71.4,0,12.0,,70712.4,14.14,-1.07,0.48,0.09,12.9,16.4,-56.9,34.56,,,,,,,,,,
15.34.34.268,328.9,82.2,0,12.0,,71720.5,13.94,-1.07,0.47,0.09,-3.9,13.0,-55.4,34.56,,,,,,,,,,
15.34.34.280,335.9,84.0,0,12.0,,68690.2,14.56,-1.04,0.45,0.1,-17.2,11.7,-54.3,34.56,,,,,,,,,,
15.34.34.289,350.7,87.7,0,12.0,,71304.5,14.02,-1.01,0.4,0.08,-27.1,10.5,-50.1,34.56,,,,,,,,,,
15.34.34.301,403.4,100.8,0,12.0,,70487.0,14.19,-0.99,0.35,0.06,-28.5,9.1,-44.5,34.56,,,,,,,,,,
15.34.34.313,457.5,114.4,0,12.0,,71012.9,14.08,-0.95,0.31,0.05,-24.0,8.2,-37.9,34.56,,,,,,,,,,
15.34.34.321,419.2,104.8,0,12.0,,72612.8,13.77,-0.95,0.29,0.04,-17.6,8.2,-31.6,34.56,,,,,,,,,,
15.34.34.334,316.6,79.2,0,12.0,,70126.1,14.26,-0.93,0.28,0.04,-10.4,8.8,-27.5,34.56,,,,,,,,,,
15.34.34.342,420.4,105.1,0,12.0,,76591.0,13.06,-0.91,0.28,0.05,-5.1,9.5,-23.1,34.56,,,,,,,,,,
15.34.34.355,326.0,81.5,0,12.0,,75403.1,13.26,-0.9,0.28,0.06,-2.6,10.0,-20.4,34.56,,,,,,,,,,
15.34.34.362,300.2,75.0,0,12.0,,75123.7,13.31,-0.89,0.26,0.06,-2.1,10.7,-19.8,34.56,,,,,,,,,,
15.34.34.375,244.9,61.2,0,12.0,,68481.2,14.6,-0.88,0.25,0.06,-1.0,12.0,-21.4,34.56,,,,,,,,,,
15.34.34.387,177.9,44.5,0,12.0,,72213.9,13.85,-0.87,0.26,0.03,2.9,14.0,-25.6,34.56,,,,,,,,,,
15.34.34.395,134.8,33.7,0,12.0,,67908.0,14.73,-0.84,0.23,0.09,7.7,15.0,-28.1,34.56,,,,,,,,,,
15.34.34.407,44.0,11.0,0,12.0,,68602.2,14.58,-0.87,0.23,0.09,12.2,14.3,-32.9,34.56,,,,,,,,,,
15.34.34.416,32.8,8.2,0,12.0,,68363.4,14.63,-0.87,0.24,0.1,15.4,12.1,-38.1,34.56,,,,,,,,,,
15.34.34.428,25.9,6.5,0,12.0,,72990.2,13.7,-0.88,0.27,0.1,14.8,11.5,-41.7,34.56,,,,,,,,,,
15.34.34.436,19.1,4.8,0,12.0,,69720.3,14.34,-0.89,0.29,0.11,12.6,10.8,-45.1,34.56,,,,,,,,,,
15.34.34.449,51.6,12.9,0,12.0,,69069.8,14.48,-0.9,0.3,0.12,10.2,7.1,-48.5,34.56,,,,,,,,,,
15.34.34.461,65.0,16.2,0,12.0,,70214.2,14.24,-0.88,0.32,0.13,6.8,2.5,-51.2,34.56,,,,,,,,,,
15.34.34.469,68.3,17.1,0,12.0,,72706.8,13.75,-0.86,0.32,0.13,2.8,1.0,-52.2,34.56,,,,,,,,,,
15.34.34.481,58.6,14.6,0,12.0,,70950.7,14.09,-0.84,0.32,0.12,4.1,-0.4,-53.3,34.56,,,,,,,,,,
15.34.34.493,77.0,19.2,0,12.0,,74274.5,13.46,-0.83,0.32,0.12,5.0,-0.7,-52.8,34.56,,,,,,,,,,
15.34.34.502,64.3,16.1,0,12.0,,73162.8,13.67,-0.83,0.33,0.12,6.8,-0.6,-52.0,34.56,,,,,,,,,,
15.34.34.514,34.4,8.6,0,12.0,,72620.1,13.77,-0.83,0.35,0.12,7.2,0.3,-51.8,34.56,,,,,,,,,,
15.34.34.522,4.3,1.1,0,12.0,,75406.4,13.26,-0.84,0.35,0.12,7.8,-1.0,-49.0,34.56,,,,,,,,,,
15.34.34.534,-28.8,7.2,0,12.0,,73122.9,13.68,-0.86,0.37,0.12,5.3,-3.3,-46.9,34.56,,,,,,,,,,
15.34.34.543,-29.0,7.2,0,12.0,,69104.8,14.47,-0.89,0.37,0.11,4.4,-2.3,-43.2,34.56,,,,,,,,,,
15.34.34.555,-10.6,2.6,0,12.0,,71234.1,14.04,-0.94,0.37,0.1,5.1,-3.2,-36.9,34.56,,,,,,,,,,
15.34.34.592,-61.7,15.4,0,12.0,,74281.3,13.46,-0.99,0.37,0.08,3.3,-6.5,-32.7,34.63,,,,,,,,,,
15.34.34.600,-41.4,10.4,0,12.0,,75313.2,13.28,-1.16,0.38,0.0,5.9,-11.6,-13.9,34.63,,,,,,,,,,
15.34.34.612,-55.5,13.9,0,12.0,,69506.7,14.39,-1.17,0.39,-0.02,5.3,-14.9,-8.8,34.63,,,,,,,,,,
15.34.34.620,-47.4,11.8,0,12.0,,71835.8,13.92,-1.14,0.39,-0.05,4.4,-11.9,-4.1,34.63,,,,,,,,,,
15.34.34.633,-74.1,18.5,0,12.0,,76953.3,12.99,-1.16,0.43,-0.11,9.8,-5.3,0.5,34.63,,,,,,,,,,
15.34.34.641,-59.4,14.8,0,12.0,,66902.4,14.95,-1.05,0.4,-0.07,-10.4,-5.3,12.8,34.63,,,,,,,,,,
15.34.34.653,-85.8,21.4,0,12.0,,69200.7,14.45,-1.12,0.33,-0.09,-8.7,1.6,11.5,34.63,,,,,,,,,,
15.34.34.666,-57.0,14.2,0,12.0,,67323.0,14.85,-1.11,0.32,-0.11,-3.6,6.3,17.4,34.63,,,,,,,,,,
15.34.34.674,-107.8,27.0,0,12.0,,73563.2,13.59,-1.14,0.32,-0.09,-0.3,12.5,25.9,34.63,,,,,,,,,,
15.34.34.686,-106.6,26.6,0,12.0,,68632.1,14.57,-1.21,0.34,-0.07,-2.5,17.5,26.4,34.63,,,,,,,,,,
15.34.34.694,-94.8,23.7,0,12.0,,71327.4,14.02,-1.24,0.36,-0.06,-7.6,17.3,26.4,34.63,,,,,,,,,,
15.34.34.707,-117.5,29.4,0,12.0,,75460.3,13.25,-1.31,0.36,-0.03,-9.7,20.8,25.0,34.63,,,,,,,,,,
15.34.34.715,-108.2,27.0,0,12.0,,70875.9,14.11,-1.33,0.38,-0.03,-13.6,23.8,19.8,34.63,,,,,,,,,,
15.34.34.727,-157.3,39.3,0,12.0,,70276.6,14.23,-1.34,0.42,-0.01,-22.3,25.0,13.0,34.63,,,,,,,,,,
15.34.34.739,-144.3,36.1,0,12.0,,72925.1,13.71,-1.32,0.45,0.02,-37.1,26.2,8.3,34.63,,,,,,,,,,
15.34.34.747,-165.5,41.4,0,12.0,,71830.4,13.92,-1.28,0.49,0.03,-57.6,23.1,4.7,34.63,,,,,,,,,,
15.34.34.760,-141.2,35.3,0,12.0,,73934.4,13.53,-1.25,0.48,0.06,-85.0,18.7,0.5,34.63,,,,,,,,,,
15.34.34.768,-150.4,37.6,0,12.0,,77158.2,12.96,-1.19,0.47,0.04,-108.5,13.0,2.2,34.63,,,,,,,,,,
15.34.34.780,-131.2,32.8,0,12.0,,71351.4,14.02,-1.12,0.45,0.05,-128.8,10.0,9.5,34.63,,,,,,,,,,
15.34.34.788,7.5,1.9,1,13.0,105.0,70074.8,14.27,-1.05,0.44,0.04,-144.0,12.3,17.7,34.63,,,,,,,,,,
15.34.34.805,123.6,30.9,0,13.0,,77748.2,12.86,-1.02,0.37,0.04,-154.7,13.8,29.0,34.63,,,,,,,,,,
15.34.34.813,151.9,38.0,0,13.0,,74272.5,13.46,-0.99,0.32,0.04,-157.8,11.0,41.7,34.63,,,,,,,,,,
15.34.34.825,226.9,56.7,0,13.0,,75347.0,13.27,-0.98,0.26,0.05,-149.6,10.6,59.4,34.63,,,,,,,,,,
15.34.34.834,280.6,70.2,0,13.0,,72573.8,13.78,-1.0,0.22,0.01,-141.0,1.5,72.8,34.63,,,,,,,,,,
15.34.34.846,346.3,86.6,0,13.0,,67783.2,14.75,-1.0,0.17,0.02,-127.3,-9.1,81.5,34.63,,,,,,,,,,
15.34.34.858,376.9,94.2,0,13.0,,70252.3,14.23,-1.01,0.13,0.01,-100.4,-6.3,93.7,34.63,,,,,,,,,,
15.34.34.866,374.8,93.7,0,13.0,,70551.7,14.17,-1.03,0.11,0.0,-71.6,-9.2,109.5,34.63,,,,,,,,,,
15.34.34.879,443.5,110.9,0,13.0,,75115.7,13.31,-1.04,0.09,0.0,-43.8,-16.0,117.6,34.63,,,,,,,,,,
15.34.34.887,371.0,92.8,0,13.0,,71274.1,14.03,-1.03,0.1,-0.02,-18.2,-17.3,122.4,34.63,,,,,,,,,,
15.34.34.899,415.4,103.8,0,13.0,,72180.3,13.85,-1.04,0.11,-0.04,3.1,-18.3,132.7,34.63,,,,,,,,,,
15.34.34.907,364.3,91.1,0,13.0,,69292.3,14.43,-1.04,0.12,-0.05,21.0,-23.1,140.2,34.63,,,,,,,,,,
15.34.34.920,381.7,95.4,0,13.0,,73868.4,13.54,-1.01,0.16,-0.07,32.3,-19.7,148.1,34.63,,,,,,,,,,
15.34.34.932,313.2,78.3,0,13.0,,74583.4,13.41,-1.01,0.16,-0.08,35.8,-19.2,151.7,34.63,,,,,,,,,,
15.34.34.940,288.8,72.2,0,13.0,,71869.5,13.91,-0.98,0.17,-0.09,37.9,-20.1,150.5,34.63,,,,,,,,,,
15.34.34.952,220.7,55.2,0,13.0,,71843.3,13.92,-0.94,0.17,-0.09,37.5,-14.9,150.5,34.63,,,,,,,,,,
15.34.34.961,181.5,45.4,0,13.0,,72661.3,13.76,-0.94,0.17,-0.13,38.8,-9.7,147.1,34.63,,,,,,,,,,
15.34.34.973,57.1,14.3,0,13.0,,71914.8,13.91,-0.92,0.17,-0.12,36.4,-10.4,141.8,34.63,,,,,,,,,,
15.34.34.985,17.0,4.2,0,13.0,,73692.0,13.57,-0.89,0.18,-0.12,33.6,-8.2,134.0,34.63,,,,,,,,,,
15.34.34.993,35.8,9.0,0,13.0,,72535.8,13.79,-0.87,0.17,-0.11,31.0,-2.4,124.2,34.63,,,,,,,,,,
15.34.35.006,39.1,9.8,0,13.0,,72264.3,13.84,-0.86,0.18,-0.12,27.7,0.0,114.3,34.63,,,,,,,,,,
15.34.35.014,42.3,10.6,0,13.0,,71317.6,14.02,-0.87,0.18,-0.08,20.5,3.7,102.9,34.63,,,,,,,,,,
15.34.35.026,66.1,16.5,0,13.0,,72186.9,13.85,-0.87,0.19,-0.06,17.8,5.1,89.2,34.63,,,,,,,,,,
15.34.35.034,65.6,16.4,0,13.0,,71140.2,14.06,-0.87,0.18,-0.06,10.0,5.7,81.4,34.63,,,,,,,,,,
15.34.35.047,77.0,19.2,0,13.0,,72414.2,13.81,-0.86,0.18,-0.07,7.1,2.3,72.7,34.63,,,,,,,,,,
15.34.35.055,125.4,31.4,0,13.0,,70701.7,14.14,-0.84,0.18,-0.07,2.0,2.7,65.0,34.63,,,,,,,,,,
15.34.35.067,58.3,14.6,0,13.0,,70692.4,14.15,-0.82,0.18,-0.07,-4.6,2.8,56.2,34.63,,,,,,,,,,
15.34.35.075,90.5,22.6,0,13.0,,72358.7,13.82,-0.8,0.18,-0.06,-9.2,2.5,46.1,34.63,,,,,,,,,,
15.34.35.088,-2.3,0.6,0,13.0,,73409.8,13.62,-0.8,0.18,-0.04,-12.2,2.2,38.2,34.63,,,,,,,,,,
15.34.35.100,-14.4,3.6,0,13.0,,66557.5,15.02,-0.78,0.18,-0.03,-14.2,3.3,33.5,34.63,,,,,,,,,,
15.34.35.108,-14.4,3.6,0,13.0,,70760.0,14.13,-0.79,0.18,-0.03,-14.0,2.8,31.2,34.63,,,,,,,,,,
15.34.35.120,-12.3,3.1,0,13.0,,70766.6,14.13,-0.78,0.18,-0.03,-13.1,3.3,29.6,34.63,,,,,,,,,,
15.34.35.128,-27.4,6.8,0,13.0,,72348.4,13.82,-0.77,0.18,-0.03,-11.7,3.3,26.4,34.63,,,,,,,,,,
15.34.35.141,6.7,1.7,0,13.0,,72740.4,13.75,-0.77,0.18,-0.03,-9.9,3.8,24.0,34.63,,,,,,,,,,
15.34.35.149,-30.4,7.6,0,13.0,,76046.6,13.15,-0.79,0.16,-0.03,-6.9,5.6,22.0,34.63,,,,,,,,,,
15.34.35.161,-53.5,13.4,0,13.0,,70160.1,14.25,-0.85,0.18,-0.02,-2.4,8.9,21.3,34.63,,,,,,,,,,
15.34.35.174,-31.7,7.9,0,13.0,,75588.8,13.23,-0.87,0.16,-0.01,-2.8,10.3,21.3,34.63,,,,,,,,,,
15.34.35.182,-53.9,13.5,0,13.0,,67111.2,14.9,-0.93,0.15,-0.04,-0.2,10.4,19.5,34.63,,,,,,,,,,
15.34.35.194,-29.3,7.3,0,13.0,,68173.1,14.67,-1.0,0.15,-0.04,2.9,8.7,16.6,34.63,,,,,,,,,,
15.34.35.202,-45.0,11.2,0,13.0,,68904.1,14.51,-1.04,0.15,-0.04,4.5,8.4,12.8,34.63,,,,,,,,,,
15.34.35.215,-63.2,15.8,0,13.0,,74582.4,13.41,-1.08,0.15,-0.04,5.6,6.4,5.0,34.63,,,,,,,,,,
15.34.35.223,-60.2,15.0,0,13.0,,72620.5,13.77,-1.07,0.16,-0.04,5.4,3.7,-3.6,34.63,,,,,,,,,,
15.34.35.235,-85.7,21.4,0,13.0,,74435.3,13.43,-1.06,0.15,-0.04,5.1,1.4,-12.7,34.63,,,,,,,,,,
15.34.35.243,-85.0,21.2,0,13.0,,75296.9,13.28,-1.04,0.15,-0.04,5.2,1.7,-19.3,34.63,,,,,,,,,,
15.34.35.255,-64.6,16.2,0,13.0,,71409.1,14.0,-1.07,0.13,-0.02,6.5,4.3,-27.7,34.63,,,,,,,,,,
15.34.35.268,-135.1,33.8,0,13.0,,71868.4,13.91,-1.1,0.12,-0.03,10.0,5.1,-37.9,34.63,,,,,,,,,,
15.34.35.276,-102.1,25.5,0,13.0,,71642.2,13.96,-1.16,0.08,-0.04,14.7,7.1,-47.8,34.63,,,,,,,,,,
15.34.35.288,-117.5,29.4,0,13.0,,72498.9,13.79,-1.22,0.08,-0.04,21.5,8.5,-56.5,34.63,,,,,,,,,,
15.34.35.296,-121.9,30.5,0,13.0,,74086.9,13.5,-1.28,0.09,-0.06,30.4,7.8,-65.6,34.63,,,,,,,,,,
15.34.35.309,-103.8,26.0,0,13.0,,71394.5,14.01,-1.33,0.1,-0.09,37.3,6.4,-75.8,34.63,,,,,,,,,,
15.34.35.321,-147.0,36.8,0,13.0,,73640.0,13.58,-1.34,0.11,-0.09,42.0,2.1,-86.9,34.63,,,,,,,,,,
15.34.35.329,-139.2,34.8,0,13.0,,72445.3,13.8,-1.33,0.13,-0.1,43.3,-3.7,-98.4,34.63,,,,,,,,,,
15.34.35.342,-164.6,41.2,0,13.0,,74931.2,13.35,-1.31,0.15,-0.11,44.8,-6.8,-111.7,34.63,,,,,,,,,,
15.34.35.350,-139.4,34.8,0,13.0,,69361.8,14.42,-1.29,0.17,-0.12,44.5,-5.3,-127.1,34.63,,,,,,,,,,
15.34.35.362,50.9,12.7,1,14.0,104.3,73067.6,13.69,-1.26,0.21,-0.11,43.9,0.0,-141.1,34.63,,,,,,,,,,
15.34.35.399,277.4,69.4,0,14.0,,67458.9,14.82,-1.21,0.25,-0.11,39.4,2.2,-154.7,34.63,,,,,,,,,,
15.34.35.411,302.8,75.7,0,14.0,,69735.5,14.34,-1.05,0.33,-0.01,23.9,15.8,-178.3,34.63,,,,,,,,,,
15.34.35.423,334.0,83.5,0,14.0,,70318.2,14.22,-1.03,0.34,0.03,25.9,20.6,-168.6,34.63,,,,,,,,,,
15.34.35.436,402.9,100.7,0,14.0,,71572.1,13.97,-1.02,0.34,0.06,33.5,23.6,-162.8,34.63,,,,,,,,,,
15.34.35.444,438.5,109.6,0,14.0,,74734.5,13.38,-1.03,0.37,0.08,34.8,25.9,-155.6,34.63,,,,,,,,,,
15.34.35.456,456.5,114.1,0,14.0,,71160.8,14.05,-1.03,0.4,0.1,38.7,26.2,-150.7,34.63,,,,,,,,,,
15.34.35.464,366.4,91.6,0,14.0,,68955.3,14.5,-1.05,0.43,0.13,39.3,25.8,-142.3,34.63,,,,,,,,,,
15.34.35.477,337.2,84.3,0,14.0,,74938.1,13.34,-1.03,0.44,0.15,45.2,24.2,-134.9,34.63,,,,,,,,,,
15.34.35.489,332.1,83.0,0,14.0,,69170.0,14.46,-1.03,0.48,0.16,44.0,24.0,-120.8,34.63,,,,,,,,,,
15.34.35.497,360.0,90.0,0,14.0,,73838.3,13.54,-1.01,0.51,0.16,39.6,20.9,-105.8,34.63,,,,,,,,,,
15.34.35.510,303.9,76.0,0,14.0,,67682.0,14.77,-1.0,0.48,0.15,33.1,18.9,-89.7,34.63,,,,,,,,,,
15.34.35.519,233.5,58.4,0,14.0,,69896.3,14.31,-0.97,0.47,0.15,30.2,14.0,-72.1,34.63,,,,,,,,,,
15.34.35.530,165.7,41.4,0,14.0,,70750.5,14.13,-0.96,0.44,0.14,26.6,7.7,-52.6,34.63,,,,,,,,,,
15.34.35.539,123.6,30.9,0,14.0,,69811.7,14.32,-0.93,0.41,0.14,24.6,0.7,-34.6,34.63,,,,,,,,,,
15.34.35.551,16.5,4.1,0,14.0,,73553.0,13.6,-0.93,0.36,0.11,27.5,-4.1,-21.3,34.63,,,,,,,,,,
15.34.35.559,-10.9,2.7,0,14.0,,67637.7,14.78,-0.9,0.34,0.12,32.7,-3.9,-6.7,34.63,,,,,,,,,,
15.34.35.571,65.7,16.4,0,14.0,,71648.3,13.96,-0.89,0.35,0.09,35.9,-6.7,5.1,34.63,,,,,,,,,,
15.34.35.583,30.2,7.6,0,14.0,,71089.3,14.07,-0.85,0.28,0.06,37.5,-19.0,10.5,34.63,,,,,,,,,,
15.34.35.591,48.0,12.0,0,14.0,,71910.3,13.91,-0.83,0.28,0.06,40.0,-8.5,12.9,34.63,,,,,,,,,,
15.34.35.604,94.7,23.7,0,14.0,,71038.3,14.08,-0.85,0.28,0.08,44.2,-1.7,13.4,34.63,,,,,,,,,,
15.34.35.612,74.5,18.6,0,14.0,,71839.4,13.92,-0.84,0.29,0.06,43.5,-7.6,13.7,34.63,,,,,,,,,,
15.34.35.625,76.7,19.2,0,14.0,,69694.9,14.35,-0.82,0.26,0.07,41.8,-9.9,12.9,34.63,,,,,,,,,,
15.34.35.632,70.8,17.7,0,14.0,,71088.9,14.07,-0.82,0.26,0.08,42.8,-3.2,12.6,34.63,,,,,,,,,,
15.34.35.645,25.7,6.4,0,14.0,,71824.8,13.92,-0.82,0.24,0.05,43.8,-1.6,11.7,34.63,,,,,,,,,,
15.34.35.653,38.0,9.5,0,14.0,,72710.9,13.75,-0.84,0.24,0.05,43.2,-3.2,9.6,34.63,,,,,,,,,,
15.34.35.665,1.1,0.3,0,14.0,,75805.2,13.19,-0.86,0.24,0.07,43.5,-7.6,5.7,34.63,,,,,,,,,,
15.34.35.674,16.5,4.1,0,14.0,,72171.0,13.86,-0.86,0.24,0.06,44.2,-7.2,1.9,34.63,,,,,,,,,,
15.34.35.686,18.9,4.7,0,14.0,,75580.5,13.23,-0.89,0.24,0.06,42.3,-8.4,-3.7,34.63,,,,,,,,,,
15.34.35.698,-23.2,5.8,0,14.0,,70911.7,14.1,-0.9,0.27,0.08,41.5,-12.6,-6.3,34.63,,,,,,,,,,
15.34.35.706,-62.1,15.5,0,14.0,,70389.1,14.21,-0.85,0.29,0.09,38.8,-15.1,-7.6,34.63,,,,,,,,,,
15.34.35.718,-52.9,13.2,0,14.0,,69731.2,14.34,-0.88,0.3,0.01,39.6,-15.8,-12.9,34.63,,,,,,,,,,
15.34.35.727,-50.7,12.7,0,14.0,,70325.3,14.22,-0.9,0.28,0.06,41.1,-18.2,-14.1,34.63,,,,,,,,,,
15.34.35.739,-58.4,14.6,0,14.0,,69083.3,14.48,-0.84,0.3,0.03,41.2,-19.6,-14.0,34.63,,,,,,,,,,
15.34.35.747,-27.9,7.0,0,14.0,,65997.2,15.15,-0.87,0.31,0.08,35.3,-24.9,-24.7,34.63,,,,,,,,,,
15.34.35.760,-33.8,8.4,0,14.0,,70742.4,14.14,-0.89,0.34,0.06,29.9,-19.4,-36.5,34.63,,,,,,,,,,
15.34.35.772,-79.3,19.8,0,14.0,,73946.9,13.52,-0.94,0.34,-0.01,31.0,-11.9,-36.5,34.63,,,,,,,,,,
15.34.35.780,-58.9,14.7,0,14.0,,75086.9,13.32,-0.98,0.36,0.0,27.6,-10.1,-33.3,34.63,,,,,,,,,,
15.34.35.792,-92.0,23.0,0,14.0,,72842.4,13.73,-0.92,0.45,-0.02,23.5,-2.4,-30.3,34.63,,,,,,,,,,
15.34.35.801,-104.8,26.2,0,14.0,,69181.6,14.45,-1.09,0.35,0.02,30.7,-7.1,-31.9,34.63,,,,,,,,,,
15.34.35.813,-78.3,19.6,0,14.0,,69351.7,14.42,-1.13,0.38,-0.04,29.2,-2.7,-29.3,34.63,,,,,,,,,,
15.34.35.825,-103.2,25.8,0,14.0,,71442.8,14.0,-1.17,0.44,-0.03,20.7,-3.4,-29.2,34.63,,,,,,,,,,
15.34.35.833,-80.4,20.1,0,14.0,,71831.2,13.92,-1.16,0.46,-0.05,4.5,-1.6,-24.8,34.63,,,,,,,,,,
15.34.35.845,-180.2,45.0,0,14.0,,72538.0,13.79,-1.14,0.46,-0.07,-0.8,-4.8,-22.3,34.63,,,,,,,,,,
15.34.35.854,-135.9,34.0,0,14.0,,68761.1,14.54,-1.09,0.45,-0.06,-8.6,-4.4,-13.2,34.63,,,,,,,,,,
15.34.35.866,-108.6,27.2,0,14.0,,70455.8,14.19,-1.07,0.44,-0.09,-16.2,1.3,-5.4,34.63,,,,,,,,,,
15.34.35.878,-142.7,35.7,0,14.0,,70719.9,14.14,-1.03,0.39,-0.11,-22.1,7.1,2.7,34.63,,,,,,,,,,
15.34.35.886,-133.4,33.4,0,14.0,,72179.7,13.85,-1.05,0.36,-0.09,-20.7,9.2,14.5,34.63,,,,,,,,,,
15.34.35.899,-129.7,32.4,0,14.0,,72854.0,13.73,-1.07,0.33,-0.08,-15.0,18.6,23.7,34.63,,,,,,,,,,
15.34.35.907,-91.4,22.8,0,14.0,,73408.8,13.62,-1.12,0.32,-0.09,-11.0,24.6,32.4,34.63,,,,,,,,,,
15.34.35.919,-190.5,47.6,0,14.0,,73624.1,13.58,-1.21,0.31,-0.07,-1.0,20.0,39.9,34.63,,,,,,,,,,
15.34.35.932,48.8,12.2,1,15.0,103.7,71542.0,13.98,-1.26,0.34,-0.06,5.8,22.1,42.2,34.63,,,,,,,,,,
15.34.35.944,85.5,21.4,0,15.0,,70484.1,14.19,-1.3,0.39,-0.04,3.5,22.2,40.3,34.63,,,,,,,,,,
15.34.35.952,151.6,37.9,0,15.0,,73860.8,13.54,-1.31,0.41,-0.02,-4.4,23.2,36.2,34.63,,,,,,,,,,
15.34.35.965,261.6,65.4,0,15.0,,72053.7,13.88,-1.3,0.45,-0.01,-18.4,23.9,33.3,34.63,,,,,,,,,,
15.34.35.972,240.2,60.0,0,15.0,,69991.5,14.29,-1.23,0.51,-0.02,-41.1,24.5,34.4,34.63,,,,,,,,,,
15.34.35.985,339.5,84.9,0,15.0,,75291.2,13.28,-1.12,0.55,0.0,-70.0,27.1,34.1,34.63,,,,,,,,,,
15.34.35.993,384.8,96.2,0,15.0,,72693.0,13.76,-1.12,0.4,0.04,-99.5,22.8,24.9,34.63,,,,,,,,,,
15.34.36.005,399.8,100.0,0,15.0,,69312.2,14.43,-1.05,0.51,-0.03,-131.1,23.2,32.5,34.63,,,,,,,,,,
15.34.36.018,377.7,94.4,0,15.0,,74053.1,13.5,-1.01,0.46,-0.02,-151.1,24.6,39.4,34.63,,,,,,,,,,
15.34.36.026,412.5,103.1,0,15.0,,71144.7,14.06,-0.97,0.38,0.01,-168.3,27.2,40.9,34.63,,,,,,,,,,
15.34.36.038,431.1,107.8,0,15.0,,71590.1,13.97,-0.94,0.35,-0.02,-172.5,30.3,45.2,34.63,,,,,,,,,,
15.34.36.046,383.2,95.8,0,15.0,,70220.5,14.24,-0.95,0.32,-0.01,-180.9,19.9,54.0,34.63,,,,,,,,,,
15.34.36.058,392.0,98.0,0,15.0,,74439.2,13.43,-0.95,0.22,0.02,-176.0,21.4,56.4,34.63,,,,,,,,,,
15.34.36.071,340.9,85.2,0,15.0,,71301.6,14.02,-0.99,0.18,0.01,-171.0,21.5,59.0,34.63,,,,,,,,,,
15.34.36.079,282.5,70.6,0,15.0,,71899.3,13.91,-1.02,0.15,0.01,-158.2,11.5,66.9,34.63,,,,,,,,,,
15.34.36.091,218.5,54.6,0,15.0,,73226.5,13.66,-1.04,0.11,0.03,-134.8,4.7,78.3,34.63,,,,,,,,,,
15.34.36.099,,,0,15.0,,,,,,,,,,,,,,,,,,,,
15.34.36.116,,,0,15.0,,,,,,,,,,,,34.6,,,,,,,,
15.34.36.128,-35.0,8.8,0,15.0,,71309.2,14.02,-1.03,0.06,-0.05,-38.2,-2.9,98.4,34.63,,,,,,,,,,
15.34.36.140,20.8,5.2,0,15.0,,67633.9,14.79,-1.01,0.09,-0.05,-16.2,-8.0,107.7,34.63,,,,,,,,,,
15.34.36.149,22.9,5.7,0,15.0,,77312.2,12.93,-1.0,0.14,-0.03,-2.9,-11.7,111.0,34.63,,,,,,,,,,
15.34.36.161,49.0,12.2,0,15.0,,70595.3,14.17,-0.98,0.18,-0.03,0.4,-11.1,110.2,34.63,,,,,,,,,,
15.34.36.170,75.1,18.8,0,15.0,,70234.5,14.24,-0.95,0.19,0.0,1.6,-11.6,110.3,34.63,,,,,,,,,,
15.34.36.210,43.6,10.9,0,15.0,,71912.6,13.91,-0.97,0.17,-0.02,5.4,-8.0,110.6,34.63,,,,,,,,,,
15.34.36.219,87.3,21.8,0,15.0,,72871.0,13.72,-0.9,0.16,-0.02,14.3,-10.0,102.0,34.63,,,,,,,,,,
15.34.36.231,13.4,3.4,0,15.0,,71229.2,14.04,-0.88,0.15,-0.02,17.9,-11.6,98.8,34.63,,,,,,,,,,
15.34.36.239,-9.9,2.5,0,15.0,,72048.6,13.88,-0.87,0.15,-0.01,21.4,-11.2,96.6,34.63,,,,,,,,,,
15.34.36.251,17.0,4.2,0,15.0,,71877.8,13.91,-0.86,0.16,-0.02,23.1,-11.3,94.7,34.63,,,,,,,,,,
15.34.36.263,-21.2,5.3,0,15.0,,72035.3,13.88,-0.86,0.16,-0.01,21.2,-12.7,90.1,34.63,,,,,,,,,,
15.34.36.271,15.4,3.8,0,15.0,,72727.0,13.75,-0.88,0.17,0.0,16.7,-12.9,84.3,34.63,,,,,,,,,,
15.34.36.284,-19.4,4.8,0,15.0,,77223.2,12.95,-0.89,0.16,-0.01,16.3,-11.7,80.1,34.63,,,,,,,,,,
15.34.36.292,-52.2,13.0,0,15.0,,75533.0,13.24,-0.91,0.16,-0.01,16.9,-13.1,76.2,34.63,,,,,,,,,,
15.34.36.304,-28.1,7.0,0,15.0,,72976.1,13.7,-0.92,0.16,-0.02,16.1,-14.8,70.0,34.63,,,,,,,,,,
15.34.36.318,-47.3,11.8,0,15.0,,72544.4,13.78,-0.92,0.17,-0.03,15.4,-14.6,61.6,34.63,,,,,,,,,,
15.34.36.325,-27.7,6.9,0,15.0,,70049.3,14.28,-0.93,0.17,-0.03,15.1,-13.7,54.5,34.63,,,,,,,,,,
15.34.36.337,-68.3,17.1,0,15.0,,67997.4,14.71,-0.92,0.18,-0.02,15.0,-12.3,48.5,34.63,,,,,,,,,,
15.34.36.345,-43.4,10.8,0,15.0,,72956.1,13.71,-0.91,0.19,-0.01,13.4,-13.1,44.0,34.63,,,,,,,,,,
15.34.36.357,-79.1,19.8,0,15.0,,73266.2,13.65,-0.9,0.17,0.0,14.5,-12.6,40.2,34.63,,,,,,,,,,
15.34.36.370,-110.1,27.5,0,15.0,,71935.7,13.9,-0.91,0.17,0.01,17.1,-11.0,38.5,34.63,,,,,,,,,,
15.34.36.378,-59.6,14.9,0,15.0,,65547.7,15.26,-0.92,0.16,0.02,22.3,-8.3,36.4,34.63,,,,,,,,,,
15.34.36.390,-109.3,27.3,0,15.0,,70331.6,14.22,-0.95,0.15,0.0,27.7,-8.1,35.4,34.63,,,,,,,,,,
15.34.36.398,-113.2,28.3,0,15.0,,72031.5,13.88,-0.97,0.15,0.02,34.2,-11.2,34.4,34.63,,,,,,,,,,
15.34.36.411,-139.7,34.9,0,15.0,,68362.1,14.63,-1.01,0.14,0.01,41.1,-10.2,32.2,34.63,,,,,,,,,,
15.34.36.419,-106.2,26.6,0,15.0,,73723.2,13.56,-1.04,0.16,0.01,45.2,-11.3,30.2,34.63,,,,,,,,,,
15.34.36.435,-66.6,16.6,0,15.0,,71736.2,13.94,-1.07,0.18,0.02,43.6,-14.5,25.5,34.63,,,,,,,,,,
15.34.36.444,-130.0,32.5,0,15.0,,69275.6,14.44,-1.07,0.18,0.0,39.5,-15.0,18.9,34.63,,,,,,,,,,
15.34.36.456,-148.7,37.2,0,15.0,,68357.8,14.63,-1.07,0.16,-0.01,36.3,-15.4,11.7,34.63,,,,,,,,,,
15.34.36.464,-151.5,37.9,0,15.0,,71679.3,13.95,-1.09,0.14,-0.02,35.6,-14.9,3.7,34.63,,,,,,,,,,
15.34.36.476,-150.8,37.7,0,15.0,,72800.8,13.74,-1.14,0.13,-0.02,35.9,-16.2,-6.5,34.63,,,,,,,,,,
15.34.36.485,-134.0,33.5,0,15.0,,68403.2,14.62,-1.18,0.12,-0.04,37.3,-15.3,-17.9,34.63,,,,,,,,,,
15.34.36.497,-178.2,44.6,0,15.0,,70800.5,14.12,-1.2,0.12,-0.04,41.1,-15.2,-30.6,34.63,,,,,,,,,,
15.34.36.509,49.8,12.4,1,16.0,102.0,72636.1,13.77,-1.23,0.12,-0.05,42.6,-17.1,-43.2,34.63,,,,,,,,,,
15.34.36.517,113.2,28.3,0,16.0,,68978.3,14.5,-1.21,0.11,-0.08,48.3,-22.6,-56.8,34.63,,,,,,,,,,
15.34.36.530,191.6,47.9,0,16.0,,73699.5,13.57,-1.18,0.11,-0.08,51.8,-25.8,-68.8,34.63,,,,,,,,,,
15.34.36.539,209.7,52.4,0,16.0,,71615.0,13.96,-1.14,0.12,-0.08,57.3,-24.6,-80.8,34.63,,,,,,,,,,
15.34.36.550,269.9,67.5,0,16.0,,71262.1,14.03,-1.13,0.14,-0.07,62.9,-20.4,-93.8,34.63,,,,,,,,,,
15.34.36.562,344.8,86.2,0,16.0,,73686.3,13.57,-1.11,0.17,-0.07,67.1,-17.7,-107.1,34.63,,,,,,,,,,
15.34.36.571,322.2,80.6,0,16.0,,74192.4,13.48,-1.07,0.18,-0.07,70.7,-15.9,-117.9,34.63,,,,,,,,,,
15.34.36.583,364.9,91.2,0,16.0,,69029.8,14.49,-1.04,0.21,-0.05,73.8,-16.8,-126.7,34.63,,,,,,,,,,
15.34.36.591,418.0,104.5,0,16.0,,74117.8,13.49,-1.0,0.23,-0.05,75.6,-17.9,-134.3,34.63,,,,,,,,,,
15.34.36.603,393.7,98.4,0,16.0,,74883.6,13.35,-0.98,0.26,-0.03,77.0,-14.1,-139.4,34.63,,,,,,,,,,
15.34.36.617,439.9,110.0,0,16.0,,69996.3,14.29,-0.96,0.28,-0.01,77.7,-8.6,-143.4,34.63,,,,,,,,,,
15.34.36.624,333.8,83.4,0,16.0,,72993.7,13.7,-0.97,0.31,0.01,78.5,-3.8,-145.2,34.63,,,,,,,,,,
15.34.36.636,344.6,86.2,0,16.0,,71099.8,14.06,-0.97,0.33,0.01,78.4,1.1,-144.4,34.63,,,,,,,,,,
15.34.36.644,282.9,70.7,0,16.0,,71483.3,13.99,-0.98,0.36,0.02,77.6,2.7,-141.3,34.63,,,,,,,,,,
15.34.36.657,242.7,60.7,0,16.0,,72138.1,13.86,-1.01,0.39,0.03,73.4,3.0,-137.5,34.63,,,,,,,,,,
15.34.36.665,216.9,54.2,0,16.0,,67667.7,14.78,-1.03,0.42,0.03,67.8,3.6,-134.5,34.63,,,,,,,,,,
15.34.36.677,178.5,44.6,0,16.0,,67497.8,14.82,-1.05,0.45,0.05,59.0,5.0,-131.3,34.63,,,,,,,,,,
15.34.36.689,74.7,18.7,0,16.0,,67772.6,14.76,-1.06,0.47,0.05,50.7,4.7,-129.0,34.63,,,,,,,,,,
15.34.36.698,11.6,2.9,0,16.0,,74372.3,13.45,-1.06,0.47,0.07,42.6,3.4,-121.9,34.63,,,,,,,,,,
15.34.36.710,29.4,7.4,0,16.0,,72374.1,13.82,-1.06,0.49,0.07,36.3,3.8,-113.9,34.63,,,,,,,,,,
15.34.36.718,47.5,11.9,0,16.0,,70759.0,14.13,-1.03,0.49,0.07,29.6,2.7,-105.5,34.63,,,,,,,,,,
15.34.36.730,62.2,15.6,0,16.0,,74752.7,13.38,-0.99,0.48,0.07,23.6,1.6,-97.6,34.63,,,,,,,,,,
15.34.36.738,88.8,22.2,0,16.0,,72892.2,13.72,-0.95,0.46,0.07,19.1,0.9,-87.3,34.63,,,,,,,,,,
15.34.36.751,92.5,23.1,0,16.0,,73570.5,13.59,-0.91,0.46,0.08,16.1,0.4,-75.8,34.63,,,,,,,,,,
15.34.36.759,81.9,20.5,0,16.0,,74969.1,13.34,-0.88,0.43,0.08,11.6,1.7,-62.9,34.63,,,,,,,,,,
15.34.36.771,81.1,20.3,0,16.0,,65457.4,15.28,-0.88,0.42,0.08,11.8,4.5,-55.6,34.63,,,,,,,,,,
15.34.36.779,75.7,18.9,0,16.0,,71100.3,14.06,-0.83,0.41,0.11,10.3,6.5,-46.3,34.63,,,,,,,,,,
15.34.36.792,63.5,15.9,0,16.0,,74011.8,13.51,-0.85,0.4,0.14,9.5,7.2,-39.4,34.63,,,,,,,,,,
15.34.36.804,12.7,3.2,0,16.0,,73630.0,13.58,-0.82,0.39,0.13,6.0,6.8,-32.2,34.63,,,,,,,,,,
15.34.36.812,-18.7,4.7,0,16.0,,69525.0,14.38,-0.83,0.36,0.14,4.8,5.3,-27.2,34.63,,,,,,,,,,
15.34.36.826,16.2,4.0,0,16.0,,70632.7,14.16,-0.85,0.35,0.16,4.8,4.9,-22.8,34.63,,,,,,,,,,
15.34.36.833,-10.9,2.7,0,16.0,,71935.5,13.9,-0.86,0.32,0.16,6.1,4.0,-19.8,34.63,,,,,,,,,,
15.34.36.845,-15.2,3.8,0,16.0,,72464.6,13.8,-0.85,0.32,0.15,9.7,4.5,-18.6,34.63,,,,,,,,,,
15.34.36.853,-24.5,6.1,0,16.0,,72611.5,13.77,-0.87,0.31,0.14,14.5,4.6,-17.6,34.63,,,,,,,,,,
15.34.36.865,-50.3,12.6,0,16.0,,71411.2,14.0,-0.88,0.31,0.14,16.9,0.0,-17.1,34.63,,,,,,,,,,
15.34.36.875,-71.5,17.9,0,16.0,,70584.5,14.17,-0.88,0.31,0.14,18.4,-3.8,-18.4,34.63,,,,,,,,,,
15.34.36.886,-56.1,14.0,0,16.0,,70947.0,14.1,-0.89,0.32,0.15,18.2,-3.2,-20.2,34.63,,,,,,,,,,
15.34.36.898,-48.3,12.1,0,16.0,,76636.8,13.05,-0.9,0.35,0.13,15.6,-7.0,-20.3,34.63,,,,,,,,,,
15.34.36.906,-37.9,9.5,0,16.0,,69600.6,14.37,-0.89,0.34,0.14,12.1,-8.8,-21.7,34.63,,,,,,,,,,
15.34.36.919,-45.7,11.4,0,16.0,,70652.4,14.15,-0.91,0.34,0.13,10.2,-9.4,-24.2,34.63,,,,,,,,,,
15.34.36.927,-39.7,9.9,0,16.0,,73911.6,13.53,-0.93,0.35,0.11,7.6,-10.0,-25.3,34.63,,,,,,,,,,
15.34.36.940,-85.8,21.4,0,16.0,,71302.8,14.02,-0.94,0.34,0.11,6.8,-10.7,-26.7,34.63,,,,,,,,,,
15.34.36.952,-111.0,27.8,0,16.0,,70809.9,14.12,-0.98,0.35,0.08,6.7,-11.6,-28.6,34.63,,,,,,,,,,
15.34.36.964,-86.1,21.5,0,16.0,,70314.5,14.22,-1.01,0.36,0.07,7.0,-13.2,-29.2,34.63,,,,,,,,,,
15.34.36.972,-126.8,31.7,0,16.0,,73776.7,13.55,-1.04,0.36,0.06,8.0,-14.2,-29.7,34.63,,,,,,,,,,
15.34.37.009,-115.2,28.8,0,16.0,,72633.8,13.77,-1.04,0.37,0.04,10.0,-16.5,-29.3,34.63,,,,,,,,,,
15.34.37.022,-165.4,41.4,0,16.0,,74199.1,13.48,-1.12,0.38,-0.05,25.7,-16.1,-21.4,34.63,,,,,,,,,,
15.34.37.033,-132.0,33.0,0,16.0,,70873.3,14.11,-1.12,0.39,-0.08,27.4,-18.6,-16.1,34.63,,,,,,,,,,
15.34.37.042,-111.7,27.9,0,16.0,,75912.9,13.17,-1.09,0.4,-0.09,27.6,-19.1,-13.8,34.63,,,,,,,,,,
15.34.37.054,-156.3,39.1,0,16.0,,70688.6,14.15,-1.06,0.41,-0.09,30.9,-12.0,-8.6,34.63,,,,,,,,,,
15.34.37.062,-169.4,42.4,0,16.0,,71223.5,14.04,-1.0,0.4,-0.12,34.4,-9.1,-0.8,34.63,,,,,,,,,,
15.34.37.074,32.0,8.0,1,17.0,108.6,75579.3,13.23,-0.98,0.4,-0.1,27.0,-5.2,8.5,34.63,,,,,,,,,,
15.34.37.083,61.5,15.4,0,17.0,,71907.0,13.91,-0.91,0.41,-0.24,40.0,4.0,13.5,34.63,,,,,,,,,,
15.34.37.095,146.2,36.6,0,17.0,,71594.4,13.97,-0.81,0.47,-0.04,0.9,2.6,31.3,34.63,,,,,,,,,,
15.34.37.107,199.8,50.0,0,17.0,,68216.8,14.66,-1.11,0.34,-0.1,0.5,18.0,18.6,34.63,,,,,,,,,,
15.34.37.115,272.5,68.1,0,17.0,,71362.4,14.01,-1.08,0.31,-0.17,7.7,14.2,19.2,34.63,,,,,,,,,,
15.34.37.128,318.4,79.6,0,17.0,,74651.9,13.4,-1.13,0.34,-0.09,15.9,13.5,26.6,34.63,,,,,,,,,,
15.34.37.136,356.1,89.0,0,17.0,,69654.4,14.36,-1.26,0.36,-0.11,14.4,27.6,21.7,34.63,,,,,,,,,,
15.34.37.148,377.2,94.3,0,17.0,,66800.7,14.97,-1.29,0.41,-0.12,7.8,27.9,19.3,34.63,,,,,,,,,,
15.34.37.156,400.2,100.0,0,17.0,,71725.4,13.94,-1.31,0.45,-0.1,2.7,23.5,25.4,34.63,,,,,,,,,,
15.34.37.169,467.7,116.9,0,17.0,,67396.0,14.84,-1.3,0.44,-0.1,-5.2,25.8,25.5,34.63,,,,,,,,,,
15.34.37.177,370.6,92.6,0,17.0,,73267.3,13.65,-1.23,0.47,-0.09,-18.8,24.5,26.3,34.63,,,,,,,,,,
15.34.37.189,387.8,97.0,0,17.0,,73361.3,13.63,-1.13,0.5,-0.04,-38.6,26.8,29.0,34.63,,,,,,,,,,
15.34.37.201,397.9,99.5,0,17.0,,76389.2,13.09,-1.07,0.5,-0.02,-61.3,32.9,31.7,34.63,,,,,,,,,,
15.34.37.210,325.7,81.4,0,17.0,,73238.0,13.65,-0.98,0.52,-0.01,-88.8,32.5,32.5,34.63,,,,,,,,,,
15.34.37.222,289.6,72.4,0,17.0,,73008.0,13.7,-0.92,0.52,0.01,-119.3,34.6,33.5,34.63,,,,,,,,,,
15.34.37.230,236.5,59.1,0,17.0,,70032.2,14.28,-0.89,0.49,0.02,-147.7,39.4,35.8,34.63,,,,,,,,,,
15.34.37.242,199.4,49.8,0,17.0,,67813.0,14.75,-0.87,0.47,0.03,-171.9,40.5,42.5,34.63,,,,,,,,,,
15.34.37.255,101.5,25.4,0,17.0,,70582.3,14.17,-0.87,0.42,0.04,-191.8,42.1,49.8,34.63,,,,,,,,,,
15.34.37.263,25.4,6.4,0,17.0,,72859.2,13.73,-0.9,0.37,0.04,-206.2,45.2,53.9,34.63,,,,,,,,,,
15.34.37.275,18.5,4.6,0,17.0,,74102.5,13.49,-0.94,0.3,0.03,-215.3,40.5,57.6,34.63,,,,,,,,,,
15.34.37.283,40.9,10.2,0,17.0,,72825.6,13.73,-1.02,0.23,0.03,-214.8,31.4,61.6,34.63,,,,,,,,,,
15.34.37.296,45.8,11.4,0,17.0,,72243.9,13.84,-1.08,0.18,0.03,-201.6,26.4,69.5,34.63,,,,,,,,,,
15.34.37.308,89.2,22.3,0,17.0,,74774.2,13.37,-1.1,0.16,0.0,-175.4,29.4,83.8,34.63,,,,,,,,,,
15.34.37.316,118.0,29.5,0,17.0,,71384.0,14.01,-1.12,0.1,-0.01,-152.6,15.4,94.0,34.63,,,,,,,,,,
15.34.37.328,94.9,23.7,0,17.0,,73900.7,13.53,-1.09,0.07,-0.04,-126.6,2.0,95.9,34.63,,,,,,,,,,
15.34.37.337,66.9,16.7,0,17.0,,70060.1,14.27,-1.1,0.06,-0.05,-92.3,0.5,101.0,34.63,,,,,,,,,,
15.34.37.349,62.2,15.6,0,17.0,,73696.5,13.57,-1.05,0.06,-0.03,-62.1,-9.0,111.6,34.63,,,,,,,,,,
15.34.37.361,41.7,10.4,0,17.0,,70815.0,14.12,-0.99,0.09,-0.01,-37.2,-6.4,115.2,34.63,106.3,,,,,,,,,
15.34.37.369,13.0,3.2,0,17.0,,71279.3,14.03,-0.94,0.13,0.0,-19.2,-1.9,117.8,34.63,,,,,,,,,,
15.34.37.382,-11.3,2.8,0,17.0,,72728.3,13.75,-0.98,0.13,-0.03,-10.5,-5.7,120.8,34.63,,,,,,,,,,
15.34.37.390,29.1,7.3,0,17.0,,74070.7,13.5,-0.98,0.17,-0.01,-2.6,0.9,125.7,34.63,,,,,,,,,,
15.34.37.402,12.6,3.2,0,17.0,,73098.7,13.68,-0.98,0.17,-0.01,1.3,-0.1,126.5,34.63,,,,,,,,,,
15.34.37.410,28.8,7.2,0,17.0,,72963.0,13.71,-0.94,0.15,-0.02,4.9,-5.1,124.2,34.63,,,,,,,,,,
15.34.37.423,-45.5,11.4,0,17.0,,71699.9,13.95,-0.94,0.13,-0.02,12.9,-2.2,121.8,34.63,,,,,,,,,,
15.34.37.435,15.5,3.9,0,17.0,,72553.3,13.78,-0.92,0.17,-0.04,25.3,-4.4,120.0,34.63,,,,,,,,,,
15.34.37.447,-16.3,4.1,0,17.0,,68982.7,14.5,-0.91,0.15,0.02,27.3,-4.4,112.1,34.63,,,,,,,,,,
15.34.37.455,-55.1,13.8,0,17.0,,73072.9,13.68,-0.88,0.16,0.02,28.0,-4.2,100.9,34.63,,,,,,,,,,
15.34.37.468,-25.3,6.3,0,17.0,,71961.8,13.9,-0.88,0.17,0.0,32.0,-9.5,94.1,34.63,,,,,,,,,,
15.34.37.476,-52.5,13.1,0,17.0,,68715.2,14.55,-0.86,0.19,0.02,31.7,-8.7,88.3,34.63,,,,,,,,,,
15.34.37.488,-60.7,15.2,0,17.0,,68851.8,14.52,-0.85,0.22,0.0,24.4,-11.0,78.0,34.63,,,,,,,,,,
15.34.37.500,-84.1,21.0,0,17.0,,76014.4,13.16,-0.85,0.2,-0.02,18.2,-12.1,67.3,34.63,,,,,,,,,,
15.34.37.509,-63.5,15.9,0,17.0,,73352.8,13.63,-0.83,0.19,-0.02,17.8,-11.5,61.8,34.63,,,,,,,,,,
15.34.37.521,-75.8,19.0,0,17.0,,72776.4,13.74,-0.83,0.18,-0.03,19.4,-11.2,57.7,34.63,,,,,,,,,,
15.34.37.529,-84.6,21.2,0,17.0,,69625.8,14.36,-0.83,0.18,-0.03,20.1,-12.4,53.9,34.63,,,,,,,,,,
15.34.37.541,-123.6,30.9,0,17.0,,75408.6,13.26,-0.83,0.17,-0.02,26.0,-13.6,51.6,34.63,,,,,,,,,,
15.34.37.554,-102.8,25.7,0,17.0,,69575.6,14.37,-0.82,0.18,0.0,35.9,-17.0,50.7,34.63,,,,,,,,,,
15.34.37.562,-85.1,21.3,0,17.0,,71816.3,13.92,-0.8,0.19,0.0,45.4,-19.7,48.8,34.63,,,,,,,,,,
15.34.37.574,-120.1,30.0,0,17.0,,71989.0,13.89,-0.8,0.21,0.01,48.9,-19.7,45.0,34.63,,,,,,,,,,
15.34.37.582,-117.5,29.4,0,17.0,,65638.4,15.23,-0.81,0.21,0.02,53.5,-21.2,42.2,34.63,,,,,,,,,,
15.34.37.595,-126.9,31.7,0,17.0,,70981.3,14.09,-0.84,0.23,0.03,59.0,-14.9,40.8,34.63,,,,,,,,,,
15.34.37.603,-143.4,35.8,0,17.0,,73393.1,13.63,-0.89,0.25,0.03,59.0,-8.5,38.7,34.63,,,,,,,,,,
15.34.37.615,-156.5,39.1,0,17.0,,73075.9,13.68,-0.96,0.26,0.03,52.5,-8.6,33.8,34.63,,,,,,,,,,
15.34.37.627,-156.8,39.2,0,17.0,,70850.8,14.11,-1.01,0.27,0.03,44.3,-10.1,27.7,34.63,,,,,,,,,,
15.34.37.636,-130.6,32.6,0,17.0,,70890.5,14.11,-1.07,0.26,0.02,38.8,-9.5,23.6,34.63,,,,,,,,,,
15.34.37.648,22.1,5.5,1,18.0,102.8,71258.7,14.03,-1.11,0.26,0.02,33.6,-10.1,18.6,34.63,,,,,,,,,,
15.34.37.656,115.4,28.8,0,18.0,,71750.6,13.94,-1.12,0.25,0.0,28.3,-14.5,10.3,34.63,,,,,,,,,,
15.34.37.668,169.2,42.3,0,18.0,,70651.0,14.15,-1.12,0.23,0.0,24.1,-17.3,-0.8,34.63,,,,,,,,,,
15.34.37.681,200.4,50.1,0,18.0,,72521.6,13.79,-1.12,0.21,0.01,23.4,-16.4,-11.6,34.63,,,,,,,,,,
15.34.37.689,275.2,68.8,0,18.0,,72863.7,13.72,-1.16,0.21,0.0,26.9,-13.0,-22.7,34.63,,,,,,,,,,
15.34.37.701,337.8,84.4,0,18.0,,73604.8,13.59,-1.21,0.19,0.01,30.4,-10.4,-32.8,34.63,,,,,,,,,,
15.34.37.709,391.4,97.8,0,18.0,,73313.8,13.64,-1.27,0.18,-0.01,34.8,-9.2,-43.1,34.63,,,,,,,,,,
15.34.37.722,359.6,89.9,0,18.0,,75066.7,13.32,-1.27,0.18,-0.02,39.5,-12.2,-50.6,34.63,,,,,,,,,,
15.34.37.734,407.0,101.8,0,18.0,,70448.6,14.19,-1.26,0.2,-0.02,43.0,-17.8,-57.5,34.63,,,,,,,,,,
15.34.37.742,425.9,106.5,0,18.0,,72157.5,13.86,-1.19,0.24,-0.05,42.4,-23.3,-65.7,34.63,,,,,,,,,,
15.34.37.754,418.4,104.6,0,18.0,,70087.0,14.27,-1.19,0.23,-0.02,43.1,-22.6,-79.5,34.63,,,,,,,,,,
15.34.37.763,346.5,86.6,0,18.0,,70921.9,14.1,-1.13,0.25,-0.02,43.6,-19.1,-90.6,34.63,,,,,,,,,,
15.34.37.775,325.7,81.4,0,18.0,,71328.8,14.02,-1.09,0.26,-0.02,44.1,-15.9,-98.9,34.63,,,,,,,,,,
15.34.37.812,196.8,49.2,0,18.0,,70444.4,14.2,-1.05,0.27,-0.01,43.4,-15.6,-108.6,34.63,,,,,,,,,,
15.34.37.824,136.2,34.0,0,18.0,,74019.6,13.51,-0.93,0.3,0.05,54.3,-4.7,-119.3,34.63,,,,,,,,,,
15.34.37.832,78.5,19.6,0,18.0,,71897.7,13.91,-0.93,0.31,0.05,59.7,-0.7,-116.3,34.63,,,,,,,,,,
15.34.37.845,33.9,8.5,0,18.0,,71741.3,13.94,-0.93,0.32,0.07,63.2,0.5,-112.7,34.63,,,,,,,,,,
15.34.37.857,15.4,3.8,0,18.0,,73052.2,13.69,-0.93,0.35,0.09,64.2,1.6,-108.7,34.63,,,,,,,,,,
15.34.37.865,32.0,8.0,0,18.0,,72926.1,13.71,-0.95,0.36,0.1,61.9,3.3,-103.0,34.63,,,,,,,,,,
15.34.37.877,32.9,8.2,0,18.0,,71455.9,13.99,-0.98,0.38,0.13,56.2,1.4,-99.6,34.63,,,,,,,,,,
15.34.37.886,80.2,20.0,0,18.0,,71641.7,13.96,-1.01,0.39,0.14,50.3,-0.7,-97.1,34.63,,,,,,,,,,
15.34.37.898,114.5,28.6,0,18.0,,76970.3,12.99,-1.03,0.4,0.17,46.1,-4.2,-94.9,34.63,,,,,,,,,,
15.34.37.910,52.5,13.1,0,18.0,,70585.7,14.17,-1.06,0.39,0.16,43.4,-8.4,-92.0,34.63,,,,,,,,,,
15.34.37.922,58.6,14.6,0,18.0,,71062.4,14.07,-1.05,0.39,0.15,40.0,-14.8,-87.1,34.63,,,,,,,,,,
15.34.37.931,37.7,9.4,0,18.0,,69554.2,14.38,-1.02,0.4,0.16,37.9,-20.3,-82.9,34.63,,,,,,,,,,
15.34.37.943,45.4,11.4,0,18.0,,74046.6,13.51,-1.0,0.4,0.15,34.5,-24.6,-79.9,34.63,,,,,,,,,,
15.34.37.951,-16.9,4.2,0,18.0,,68781.1,14.54,-0.96,0.39,0.14,32.2,-28.1,-76.4,34.63,,,,,,,,,,
15.34.37.963,7.4,1.8,0,18.0,,72413.3,13.81,-0.91,0.39,0.14,32.3,-27.9,-72.3,34.63,,,,,,,,,,
15.34.37.973,-13.5,3.4,0,18.0,,69084.9,14.47,-0.88,0.4,0.12,31.7,-28.2,-67.1,34.63,,,,,,,,,,
15.34.37.984,-36.2,9.0,0,18.0,,75822.6,13.19,-0.85,0.39,0.09,32.9,-27.4,-62.7,34.63,,,,,,,,,,
15.34.37.996,-51.0,12.8,0,18.0,,67348.1,14.85,-0.84,0.38,0.11,33.3,-23.7,-58.9,34.63,,,,,,,,,,
15.34.38.004,-25.8,6.4,0,18.0,,69817.5,14.32,-0.81,0.38,0.1,32.1,-22.0,-53.3,34.63,,,,,,,,,,
15.34.38.017,-52.8,13.2,0,18.0,,71165.3,14.05,-0.8,0.37,0.11,32.0,-19.9,-47.8,34.63,,,,,,,,,,
15.34.38.025,-31.7,7.9,0,18.0,,74478.0,13.43,-0.79,0.37,0.1,31.3,-18.4,-42.0,34.63,,,,,,,,,,
15.34.38.037,-34.5,8.6,0,18.0,,67648.2,14.78,-0.8,0.36,0.1,31.1,-18.6,-36.4,34.63,,,,,,,,,,
15.34.38.049,-77.5,19.4,0,18.0,,71497.8,13.99,-0.81,0.34,0.09,34.5,-17.2,-33.1,34.63,,,,,,,,,,
15.34.38.059,-65.8,16.4,0,18.0,,69760.9,14.33,-0.82,0.32,0.08,38.1,-17.1,-29.6,34.63,,,,,,,,,,
15.34.38.070,-64.3,16.1,0,18.0,,72429.0,13.81,-0.84,0.3,0.07,43.8,-17.7,-28.3,34.63,,,,,,,,,,
15.34.38.078,-58.4,14.6,0,18.0,,71755.3,13.94,-0.86,0.3,0.06,49.5,-19.6,-24.9,34.63,,,,,,,,,,
15.34.38.090,-61.6,15.4,0,18.0,,71426.7,14.0,-0.88,0.31,0.06,53.8,-20.3,-22.8,34.63,,,,,,,,,,
15.34.38.103,-104.5,26.1,0,18.0,,71192.0,14.05,-0.9,0.32,0.06,55.1,-20.9,-21.7,34.63,,,,,,,,,,
15.34.38.111,-117.8,29.4,0,18.0,,71073.3,14.07,-0.89,0.34,0.03,57.6,-26.1,-23.6,34.63,,,,,,,,,,
15.34.38.123,-110.9,27.7,0,18.0,,69082.5,14.48,-0.91,0.33,0.03,54.8,-27.8,-23.9,34.63,,,,,,,,,,
15.34.38.131,-115.5,28.9,0,18.0,,66443.1,15.05,-0.92,0.35,0.03,52.1,-23.4,-30.0,34.63,,,,,,,,,,
15.34.38.144,-99.1,24.8,0,18.0,,70722.7,14.14,-0.91,0.36,-0.01,50.7,-27.6,-33.5,34.63,,,,,,,,,,
15.34.38.156,-117.9,29.5,0,18.0,,72253.7,13.84,-0.94,0.37,0.03,49.1,-23.3,-34.4,34.63,,,,,,,,,,
15.34.38.164,-127.8,32.0,0,18.0,,73062.0,13.69,-0.96,0.39,0.0,44.4,-21.1,-35.5,34.63,,,,,,,,,,
15.34.38.176,-130.6,32.6,0,18.0,,70210.9,14.24,-0.97,0.41,-0.01,32.6,-25.9,-40.5,34.63,,,,,,,,,,
15.34.38.185,-123.9,31.0,0,18.0,,73751.4,13.56,-0.99,0.41,-0.01,25.0,-22.0,-44.4,34.63,,,,,,,,,,
15.34.38.197,-132.5,33.1,0,18.0,,68041.0,14.7,-1.02,0.42,-0.04,19.3,-19.4,-45.7,34.63,,,,,,,,,,
15.34.38.209,-156.2,39.0,0,18.0,,72556.8,13.78,-1.06,0.43,-0.06,12.0,-18.4,-46.5,34.63,,,,,,,,,,
15.34.38.217,22.3,5.6,1,19.0,108.4,74010.9,13.51,-1.09,0.44,-0.08,4.1,-18.5,-49.5,34.63,,,,,,,,,,
15.34.38.230,101.2,25.3,0,19.0,,71380.8,14.01,-1.06,0.43,-0.08,-1.8,-19.1,-50.4,34.63,,,,,,,,,,
15.34.38.242,164.4,41.1,0,19.0,,71258.7,14.03,-1.09,0.45,-0.13,-7.3,-12.9,-50.1,34.63,,,,,,,,,,
15.34.38.250,222.2,55.6,0,19.0,,72038.0,13.88,-1.08,0.44,-0.15,-10.3,-9.0,-47.7,34.63,,,,,,,,,,
15.34.38.262,269.8,67.4,0,19.0,,70260.6,14.23,-1.06,0.43,-0.16,-9.2,-6.9,-43.7,34.63,,,,,,,,,,
15.34.38.271,326.9,81.7,0,19.0,,75175.6,13.3,-1.04,0.44,-0.14,-11.2,-3.1,-38.6,34.63,,,,,,,,,,
15.34.38.283,440.1,110.0,0,19.0,,70263.2,14.23,-0.98,0.43,-0.14,-14.3,1.5,-36.7,34.63,,,,,,,,,,
15.34.38.295,470.9,117.7,0,19.0,,70402.2,14.2,-0.92,0.4,-0.14,-13.0,5.3,-29.3,34.63,,,,,,,,,,
15.34.38.303,421.1,105.3,0,19.0,,73669.4,13.57,-0.89,0.4,-0.12,-9.0,12.7,-17.2,34.63,,,,,,,,,,
15.34.38.316,366.6,91.6,0,19.0,,72009.9,13.89,-0.92,0.4,-0.14,-7.3,22.2,-9.0,34.63,,,,,,,,,,
15.34.38.324,410.5,102.6,0,19.0,,72029.7,13.88,-0.99,0.41,-0.13,-11.3,30.7,-4.2,34.63,,,,,,,,,,
15.34.38.336,373.5,93.4,0,19.0,,69980.2,14.29,-1.06,0.42,-0.11,-9.7,34.7,1.6,34.63,,,,,,,,,,
15.34.38.344,387.6,96.9,0,19.0,,69359.8,14.42,-1.13,0.42,-0.11,-7.0,36.2,8.0,34.63,,,,,,,,,,
15.34.38.357,290.3,72.6,0,19.0,,71502.0,13.99,-1.2,0.43,-0.1,-5.4,41.1,10.8,34.63,,,,,,,,,,
15.34.38.369,304.5,76.1,0,19.0,,68843.7,14.53,-1.25,0.45,-0.09,-5.3,45.9,12.2,34.63,,,,,,,,,,
15.34.38.377,230.7,57.7,0,19.0,,73057.7,13.69,-1.26,0.48,-0.09,-6.4,45.3,14.2,34.63,,,,,,,,,,
15.34.38.389,157.8,39.4,0,19.0,,70524.7,14.18,-1.23,0.49,-0.07,-10.3,40.7,17.8,34.63,,,,,,,,,,
15.34.38.402,120.7,30.2,0,19.0,,69913.0,14.3,-1.13,0.52,-0.04,-19.6,40.6,24.7,34.63,,,,,,,,,,
15.34.38.414,8.7,2.2,0,19.0,,74842.9,13.36,-1.04,0.54,-0.01,-33.2,40.4,31.2,34.63,,,,,,,,,,
15.34.38.422,5.5,1.4,0,19.0,,73207.3,13.66,-0.97,0.56,0.0,-53.0,41.2,35.9,34.63,,,,,,,,,,
15.34.38.435,19.3,4.8,0,19.0,,69309.4,14.43,-0.94,0.56,0.01,-76.2,44.0,38.4,34.63,,,,,,,,,,
15.34.38.443,65.9,16.5,0,19.0,,69164.0,14.46,-0.93,0.57,0.02,-101.5,47.9,42.6,34.63,,,,,,,,,,
15.34.38.455,69.5,17.4,0,19.0,,69210.7,14.45,-0.91,0.57,0.02,-129.7,50.5,47.9,34.63,,,,,,,,,,
15.34.38.463,63.7,15.9,0,19.0,,73462.0,13.61,-0.92,0.58,0.01,-160.9,49.6,52.9,34.63,,,,,,,,,,
15.34.38.476,60.6,15.2,0,19.0,,70310.7,14.22,-0.95,0.53,0.0,-190.7,49.2,58.1,34.63,,,,,,,,,,
15.34.38.488,52.6,13.2,0,19.0,,73420.8,13.62,-0.99,0.48,-0.01,-214.4,48.9,62.5,34.63,,,,,,,,,,
15.34.38.496,45.7,11.4,0,19.0,,69603.0,14.37,-1.04,0.44,-0.02,-232.1,44.9,67.4,34.63,,,,,,,,,,
15.34.38.508,25.2,6.3,0,19.0,,72853.0,13.73,-1.1,0.4,-0.02,-243.2,41.0,73.1,34.63,,,,,,,,,,
15.34.38.517,46.3,11.6,0,19.0,,76363.7,13.1,-1.15,0.35,-0.04,-248.3,36.1,78.2,34.63,,,,,,,,,,
15.34.38.529,-25.5,6.4,0,19.0,,71454.0,14.0,-1.18,0.27,-0.06,-244.7,29.6,82.8,34.63,,,,,,,,,,
15.34.38.542,0.3,0.1,0,19.0,,70091.8,14.27,-1.2,0.2,-0.07,-232.0,24.0,91.6,34.63,,,,,,,,,,
15.34.38.549,-8.1,2.0,0,19.0,,70319.6,14.22,-1.2,0.12,-0.08,-209.1,19.4,102.5,34.63,,,,,,,,,,
15.34.38.562,-28.8,7.2,0,19.0,,73340.6,13.64,-1.18,0.05,-0.09,-172.2,14.1,112.7,34.63,,,,,,,,,,
15.34.38.574,-48.2,12.0,0,19.0,,69517.0,14.38,-1.15,0.02,-0.11,-131.2,8.3,126.1,34.63,,,,,,,,,,
15.34.38.583,-28.6,7.2,0,19.0,,72246.1,13.84,-1.13,-0.01,-0.11,-90.5,5.9,138.9,34.63,,,,,,,,,,
15.34.38.619,-49.4,12.4,0,19.0,,76423.8,13.08,-1.1,0.01,-0.09,-51.3,6.8,148.1,34.63,,,,,,,,,,
15.34.38.631,-67.7,16.9,0,19.0,,75322.5,13.28,-1.04,0.1,0.01,6.9,8.8,155.7,34.63,,,,,,,,,,
15.34.38.639,-61.2,15.3,0,19.0,,73947.5,13.52,-1.0,0.11,0.03,12.2,4.1,151.5,34.63,,,,,,,,,,
15.34.38.652,-92.2,23.0,0,19.0,,72266.6,13.84,-0.98,0.11,0.04,22.3,9.2,148.1,34.63,,,,,,,,,,
15.34.38.666,-105.4,26.4,0,19.0,,70387.1,14.21,-0.95,0.11,0.04,30.4,5.2,139.5,34.63,,,,,,,,,,
15.34.38.672,-78.5,19.6,0,19.0,,71530.8,13.98,-0.92,0.11,0.04,33.5,-0.2,127.1,34.63,,,,,,,,,,
15.34.38.684,-110.5,27.6,0,19.0,,66835.6,14.96,-0.84,0.15,0.09,30.4,-1.1,120.1,34.63,,,,,,,,,,
15.34.38.693,-100.5,25.1,0,19.0,,69935.8,14.3,-0.86,0.13,0.02,35.4,-1.5,103.8,34.63,,,,,,,,,,
15.34.38.705,-63.6,15.9,0,19.0,,75348.6,13.27,-0.83,0.19,0.08,30.6,-4.6,95.0,34.63,,,,,,,,,,
15.34.38.713,-98.4,24.6,0,19.0,,77479.5,12.91,-0.82,0.23,0.08,17.9,0.4,90.0,34.63,,,,,,,,,,
15.34.38.725,-138.3,34.6,0,19.0,,71305.8,14.02,-0.83,0.21,0.06,3.3,3.8,82.2,34.63,,,,,,,,,,
15.34.38.734,-103.6,25.9,0,19.0,,64593.0,15.48,-0.83,0.21,0.04,-12.0,-0.1,74.6,34.63,,,,,,,,,,
15.34.38.746,-141.9,35.5,0,19.0,,71299.0,14.03,-0.83,0.18,0.03,-24.8,-4.5,68.3,34.63,,,,,,,,,,
15.34.38.758,-150.6,37.6,0,19.0,,75022.7,13.33,-0.84,0.15,0.03,-29.5,-2.9,58.0,34.63,,,,,,,,,,
15.34.38.766,-166.0,41.5,0,19.0,,73790.2,13.55,-0.83,0.13,0.01,-30.5,-3.6,50.2,34.63,,,,,,,,,,
15.34.38.779,-112.9,28.2,0,19.0,,74976.9,13.34,-0.84,0.16,0.04,-28.0,-4.7,44.2,34.63,,,,,,,,,,
15.34.38.787,11.3,2.8,1,20.0,102.9,71546.5,13.98,-0.84,0.14,0.02,-26.7,-3.3,36.5,34.63,,,,,,,,,,
15.34.38.799,77.9,19.5,0,20.0,,71859.7,13.92,-0.87,0.13,0.03,-24.2,-3.9,29.8,34.63,,,,,,,,,,
15.34.38.811,160.2,40.0,0,20.0,,69874.2,14.31,-0.89,0.12,0.02,-20.0,-2.2,26.0,34.63,,,,,,,,,,
15.34.38.820,222.9,55.7,0,20.0,,73005.7,13.7,-0.94,0.12,0.03,-14.5,1.9,22.0,34.63,,,,,,,,,,
15.34.38.832,248.7,62.2,0,20.0,,71144.1,14.06,-0.98,0.12,0.02,-9.2,0.5,16.4,34.63,,,,,,,,,,
15.34.38.840,308.4,77.1,0,20.0,,72240.3,13.84,-1.01,0.11,0.02,-6.9,-2.0,11.5,34.63,,,,,,,,,,
15.34.38.852,362.9,90.7,0,20.0,,72564.1,13.78,-1.04,0.1,0.01,-2.3,-4.4,5.4,34.63,,,,,,,,,,
15.34.38.861,412.8,103.2,0,20.0,,71024.1,14.08,-1.05,0.1,0.02,1.0,-8.6,-1.4,34.63,,,,,,,,,,
15.34.38.873,436.0,109.0,0,20.0,,75173.7,13.3,-1.07,0.09,0.02,6.4,-10.6,-9.4,34.63,,,,,,,,,,
15.34.38.881,392.1,98.0,0,20.0,,73172.9,13.67,-1.1,0.08,0.02,15.0,-10.6,-18.3,34.63,,,,,,,,,,
15.34.38.893,386.9,96.7,0,20.0,,71256.6,14.03,-1.15,0.07,0.02,23.3,-9.6,-26.4,34.63,,,,,,,,,,
15.34.38.906,367.3,91.8,0,20.0,,69930.0,14.3,-1.23,0.07,-0.02,35.5,-8.0,-35.2,34.63,,,,,,,,,,
15.34.38.914,311.8,78.0,0,20.0,,69316.3,14.43,-1.28,0.07,-0.05,46.3,-7.0,-44.6,34.63,,,,,,,,,,
15.34.38.926,351.5,87.9,0,20.0,,69936.7,14.3,-1.28,0.08,-0.08,54.6,-9.6,-54.4,34.63,,,,,,,,,,
15.34.38.938,279.3,69.8,0,20.0,,70767.6,14.13,-1.29,0.1,-0.11,56.5,-16.1,-61.7,34.63,,,,,,,,,,
15.34.38.951,243.7,60.9,0,20.0,,70040.9,14.28,-1.28,0.12,-0.13,57.3,-19.4,-69.7,34.63,,,,,,,,,,
15.34.38.959,155.1,38.8,0,20.0,,68810.0,14.53,-1.24,0.12,-0.13,55.3,-19.4,-81.3,34.63,,,,,,,,,,
15.34.38.971,111.0,27.8,0,20.0,,74435.5,13.43,-1.22,0.16,-0.12,57.3,-16.4,-95.1,34.63,,,,,,,,,,
15.34.38.979,41.7,10.4,0,20.0,,70980.7,14.09,-1.17,0.18,-0.12,58.9,-15.8,-109.3,34.63,,,,,,,,,,
15.34.38.992,-4.9,1.2,0,20.0,,73417.4,13.62,-1.1,0.19,-0.08,58.0,-14.8,-124.3,34.63,,,,,,,,,,
15.34.39.004,2.3,0.6,0,20.0,,70923.2,14.1,-1.03,0.21,-0.05,61.1,-11.6,-136.7,34.63,,,,,,,,,,
15.34.39.012,49.1,12.3,0,20.0,,68187.9,14.67,-0.99,0.22,-0.03,66.5,-8.3,-143.4,34.63,,,,,,,,,,
15.34.39.024,47.1,11.8,0,20.0,,67957.1,14.72,-0.97,0.23,-0.03,75.0,-3.7,-145.9,34.63,,,,,,,,,,
15.34.39.033,55.8,14.0,0,20.0,,69350.0,14.42,-0.96,0.27,0.01,80.2,4.6,-143.2,34.63,,,,,,,,,,
15.34.39.045,57.8,14.4,0,20.0,,73140.3,13.67,-0.95,0.31,0.05,84.1,11.4,-140.4,34.63,,,,,,,,,,
15.34.39.053,66.2,16.6,0,20.0,,71754.8,13.94,-0.96,0.34,0.07,85.2,15.4,-136.0,34.63,,,,,,,,,,
15.34.39.065,66.0,16.5,0,20.0,,73746.7,13.56,-0.98,0.37,0.11,77.0,16.9,-130.9,34.63,,,,,,,,,,
15.34.39.078,68.7,17.2,0,20.0,,71502.4,13.99,-0.99,0.39,0.13,68.9,14.3,-128.1,34.63,,,,,,,,,,
15.34.39.086,57.1,14.3,0,20.0,,70590.9,14.17,-1.04,0.43,0.15,61.6,11.1,-125.8,34.63,,,,,,,,,,
15.34.39.098,-3.6,0.9,0,20.0,,73523.2,13.6,-1.06,0.43,0.17,51.3,9.6,-120.6,34.63,,,,,,,,,,
15.34.39.106,-27.4,6.8,0,20.0,,73186.8,13.66,-1.08,0.43,0.19,47.1,5.6,-116.6,34.63,,,,,,,,,,
15.34.39.119,-33.0,8.2,0,20.0,,72341.6,13.82,-1.1,0.43,0.18,44.9,-2.3,-113.6,34.63,,,,,,,,,,
15.34.39.131,-22.3,5.6,0,20.0,,73435.0,13.62,-1.07,0.44,0.2,42.2,-6.8,-107.6,34.63,,,,,,,,,,
15.34.39.140,-6.4,1.6,0,20.0,,69268.8,14.44,-1.04,0.44,0.18,40.5,-9.4,-98.1,34.63,,,,,,,,,,
15.34.39.151,15.1,3.8,0,20.0,,71202.9,14.04,-1.0,0.44,0.17,41.3,-14.7,-88.0,34.63,,,,,,,,,,
15.34.39.160,-51.9,13.0,0,20.0,,73919.7,13.53,-0.96,0.43,0.14,40.7,-17.4,-77.3,34.63,,,,,,,,,,
15.34.39.172,-58.7,14.7,0,20.0,,71722.4,13.94,-0.91,0.43,0.13,41.9,-19.9,-67.0,34.63,,,,,,,,,,
15.34.39.184,-27.7,6.9,0,20.0,,74191.3,13.48,-0.88,0.42,0.13,41.5,-20.2,-56.6,34.63,,,,,,,,,,
15.34.39.193,-71.6,17.9,0,20.0,,73560.2,13.59,-0.84,0.42,0.12,41.1,-19.1,-48.3,34.63,,,,,,,,,,
15.34.39.205,-88.8,22.2,0,20.0,,74425.5,13.44,-0.82,0.42,0.11,39.0,-16.9,-41.9,34.63,,,,,,,,,,
15.34.39.213,-51.6,12.9,0,20.0,,75360.8,13.27,-0.8,0.42,0.12,35.7,-14.3,-36.4,34.63,,,,,,,,,,
15.34.39.226,-68.8,17.2,0,20.0,,70183.2,14.25,-0.8,0.39,0.11,29.9,-11.4,-32.3,34.63,,,,,,,,,,
15.34.39.237,-71.3,17.8,0,20.0,,77566.7,12.89,-0.8,0.39,0.12,26.5,-10.0,-30.0,34.63,,,,,,,,,,
15.34.39.246,-142.8,35.7,0,20.0,,71913.6,13.91,-0.8,0.37,0.13,26.3,-7.5,-26.6,34.63,,,,,,,,,,
15.34.39.258,-101.0,25.2,0,20.0,,72494.4,13.79,-0.79,0.31,0.08,27.5,-4.1,-25.8,34.63,,,,,,,,,,
15.34.39.266,-95.6,23.9,0,20.0,,74684.7,13.39,-0.85,0.33,0.08,28.6,-1.1,-25.5,34.63,,,,,,,,,,
15.34.39.278,-153.7,38.4,0,20.0,,72333.7,13.82,-0.88,0.33,0.13,27.7,-5.0,-26.3,34.63,,,,,,,,,,
15.34.39.287,-93.5,23.4,0,20.0,,72794.5,13.74,-0.92,0.36,0.13,25.2,-7.1,-29.6,34.63,,,,,,,,,,
15.34.39.299,-146.2,36.6,0,20.0,,74688.8,13.39,-0.96,0.36,0.11,19.2,-10.1,-31.4,34.63,,,,,,,,,,
15.34.39.311,-127.9,32.0,0,20.0,,67959.6,14.71,-0.96,0.35,0.12,12.6,-12.1,-34.0,34.63,,,,,,,,,,
15.34.39.319,-150.3,37.6,0,20.0,,73913.2,13.53,-0.95,0.35,0.12,5.7,-15.3,-39.3,34.63,,,,,,,,,,
15.34.39.332,-145.4,36.4,0,20.0,,71549.6,13.98,-0.96,0.34,0.09,-0.4,-16.3,-44.6,34.63,,,,,,,,,,
15.34.39.340,-173.3,43.3,0,20.0,,72557.3,13.78,-0.97,0.34,0.11,-3.3,-16.9,-46.2,34.63,,,,,,,,,,
15.34.39.352,-121.4,30.4,0,20.0,,73934.6,13.53,-0.91,0.35,0.06,-0.3,-17.4,-46.0,34.63,,,,,,,,,,
15.34.39.364,55.5,13.9,1,21.0,101.3,68540.8,14.59,-0.93,0.36,0.04,-0.3,-14.5,-46.5,34.63,,,,,,,,,,
15.34.39.374,104.7,26.2,0,21.0,,67223.9,14.88,-0.93,0.35,0.03,-2.6,-7.6,-53.5,34.63,,,,,,,,,,
15.34.39.385,199.5,49.9,0,21.0,,75970.3,13.16,-0.98,0.35,0.0,3.8,-9.7,-47.8,34.63,,,,,,,,,,
15.34.39.393,236.6,59.2,0,21.0,,73298.8,13.64,-0.99,0.39,0.03,8.7,-11.7,-39.7,34.63,,,,,,,,,,
15.34.39.430,343.7,85.9,0,21.0,,67907.3,14.73,-1.05,0.39,0.02,8.4,-9.9,-37.6,34.63,,,,,,,,,,
15.34.39.442,411.4,102.8,0,21.0,,77052.7,12.98,-1.09,0.43,-0.06,17.1,-1.4,-29.2,34.63,,,,,,,,,,
15.34.39.451,396.1,99.0,0,21.0,,71671.0,13.95,-1.06,0.47,-0.06,8.7,-3.2,-31.1,34.63,,,,,,,,,,
15.34.39.467,380.5,95.1,0,21.0,,72248.7,13.84,-1.06,0.45,-0.09,3.9,8.6,-28.6,34.63,,,,,,,,,,
15.34.39.475,338.3,84.6,0,21.0,,73835.3,13.54,-1.07,0.44,-0.11,6.5,7.8,-16.9,34.63,,,,,,,,,,
15.34.39.487,347.6,86.9,0,21.0,,72498.3,13.79,-1.08,0.45,-0.12,1.9,13.7,-7.6,34.63,,,,,,,,,,
15.34.39.496,336.1,84.0,0,21.0,,67367.5,14.84,-1.11,0.47,-0.11,-11.0,19.2,-0.6,34.63,,,,,,,,,,
15.34.39.508,290.1,72.5,0,21.0,,66718.1,14.99,-1.18,0.46,-0.12,-16.3,21.2,8.7,34.63,,,,,,,,,,
15.34.39.516,239.2,59.8,0,21.0,,78107.2,12.8,-1.21,0.45,-0.1,-20.5,20.5,17.7,34.63,,,,,,,,,,
15.34.39.528,221.2,55.3,0,21.0,,74148.4,13.49,-1.27,0.49,-0.12,-25.3,21.7,23.2,34.63,,,,,,,,,,
15.34.39.541,84.4,21.1,0,21.0,,72578.7,13.78,-1.3,0.51,-0.1,-31.5,24.6,25.3,34.63,,,,,,,,,,
15.34.39.549,85.1,21.3,0,21.0,,69916.7,14.3,-1.23,0.49,-0.09,-31.0,27.4,31.2,34.63,,,,,,,,,,
15.34.39.561,32.4,8.1,0,21.0,,71963.4,13.9,-1.25,0.52,-0.09,-31.3,32.2,35.8,34.63,,,,,,,,,,
15.34.39.569,-9.6,2.4,0,21.0,,68890.0,14.52,-1.15,0.5,-0.08,-40.0,33.0,42.2,34.63,,,,,,,,,,
15.34.39.582,69.7,17.4,0,21.0,,73640.8,13.58,-1.08,0.49,-0.03,-47.4,36.9,52.1,34.63,,,,,,,,,,
15.34.39.590,59.9,15.0,0,21.0,,69600.6,14.37,-1.04,0.48,-0.02,-55.1,40.2,64.5,34.63,,,,,,,,,,
15.34.39.602,87.0,21.8,0,21.0,,70392.9,14.21,-0.99,0.48,0.0,-67.0,39.0,73.8,34.63,,,,,,,,,,
15.34.39.614,53.1,13.3,0,21.0,,75453.1,13.25,-1.0,0.46,0.03,-83.9,39.5,80.6,34.63,,,,,,,,,,
15.34.39.623,43.9,11.0,0,21.0,,70847.9,14.11,-1.0,0.43,0.01,-97.1,44.6,86.7,34.63,,,,,,,,,,
15.34.39.635,81.1,20.3,0,21.0,,72368.2,13.82,-1.0,0.4,0.05,-112.3,44.9,91.9,34.63,,,,,,,,,,
15.34.39.643,70.2,17.6,0,21.0,,70272.6,14.23,-1.02,0.3,0.09,-132.0,36.8,93.0,34.63,,,,,,,,,,
15.34.39.655,19.0,4.8,0,21.0,,71214.1,14.04,-1.09,0.5,-0.05,-149.9,40.2,103.7,34.63,,,,,,,,,,
15.34.39.664,27.6,6.9,0,21.0,,69643.0,14.36,-1.0,0.29,0.05,-157.0,30.1,106.5,34.63,,,,,,,,,,
15.34.39.676,13.1,3.3,0,21.0,,77342.6,12.93,-1.08,0.25,0.02,-153.3,23.9,95.5,34.63,,,,,,,,,,
15.34.39.688,4.7,1.2,0,21.0,,69383.4,14.41,-1.16,0.17,-0.02,-147.9,23.6,90.3,34.63,,,,,,,,,,
15.34.39.696,-11.2,2.8,0,21.0,,72862.3,13.72,-1.16,0.2,-0.04,-140.4,16.0,95.3,34.63,,,,,,,,,,
15.34.39.709,-39.1,9.8,0,21.0,,73353.3,13.63,-1.19,0.12,-0.01,-128.2,8.8,98.4,34.63,,,,,,,,,,
15.34.39.717,-17.9,4.5,0,21.0,,72662.6,13.76,-1.19,0.1,-0.06,-106.5,8.6,101.5,34.63,,,,,,,,,,
15.34.39.729,-16.1,4.0,0,21.0,,71515.0,13.98,-1.13,0.09,-0.05,-85.6,2.5,112.2,34.63,,,,,,,,,,
15.34.39.741,-41.3,10.3,0,21.0,,71980.5,13.89,-1.1,0.1,-0.06,-66.7,-1.5,120.7,34.63,,,,,,,,,,
15.34.39.750,-60.6,15.2,0,21.0,,73367.2,13.63,-1.05,0.1,-0.05,-48.8,-0.3,124.2,34.63,,,,,,,,,,
15.34.39.762,-53.3,13.3,0,21.0,,68451.3,14.61,-1.02,0.12,-0.05,-36.1,-3.2,125.0,34.63,,,,,,,,,,
15.34.39.770,-27.3,6.8,0,21.0,,68485.3,14.6,-1.0,0.11,-0.04,-25.9,-0.2,124.5,34.63,,,,,,,,,,
15.34.39.782,-73.8,18.4,0,21.0,,70407.0,14.2,-0.94,0.14,-0.02,-17.8,5.8,128.7,34.63,,,,,,,,,,
15.34.39.795,-79.0,19.8,0,21.0,,70941.4,14.1,-0.91,0.26,0.03,-10.8,-1.9,140.0,34.63,,,,,,,,,,
15.34.39.803,-82.9,20.7,0,21.0,,70498.8,14.18,-0.89,0.1,0.04,-6.6,-1.1,137.3,34.63,,,,,,,,,,
15.34.39.815,-66.4,16.6,0,21.0,,71738.4,13.94,-0.87,0.14,-0.07,-12.9,6.2,131.0,34.63,,,,,,,,,,
15.34.39.823,-89.0,22.2,0,21.0,,71114.0,14.06,-0.95,0.1,0.02,-9.7,-0.4,126.8,34.63,,,,,,,,,,
15.34.39.836,-102.1,25.5,0,21.0,,71054.0,14.07,-0.92,0.14,0.02,-3.5,7.1,125.0,34.63,,,,,,,,,,
15.34.39.848,-112.1,28.0,0,21.0,,70247.0,14.24,-0.89,0.16,0.01,-6.2,6.4,119.7,34.63,,,,,,,,,,
15.34.39.856,-104.2,26.0,0,21.0,,72199.1,13.85,-0.89,0.11,-0.01,-7.9,-1.2,111.2,34.63,,,,,,,,,,
15.34.39.868,-112.5,28.1,0,21.0,,71971.3,13.89,-0.9,0.1,-0.02,-0.6,-1.8,104.7,34.63,,,,,,,,,,
15.34.39.877,-122.1,30.5,0,21.0,,73750.7,13.56,-0.9,0.15,-0.03,2.5,-3.4,100.6,34.63,,,,,,,,,,
15.34.39.889,-115.7,28.9,0,21.0,,70121.2,14.26,-0.88,0.12,-0.01,-0.9,-4.2,91.9,34.63,,,,,,,,,,
15.34.39.897,-128.0,32.0,0,21.0,,71320.7,14.02,-0.88,0.12,-0.03,-1.0,-4.9,81.1,34.63,,,,,,,,,,
15.34.39.909,-132.1,33.0,0,21.0,,67956.0,14.72,-0.87,0.11,-0.03,-1.2,-3.5,72.7,34.63,,,,,,,,,,
15.34.39.918,-141.6,35.4,0,21.0,,74573.0,13.41,-0.86,0.12,-0.03,-3.2,-6.8,63.2,34.63,,,,,,,,,,
15.34.39.930,3.2,0.8,1,22.0,105.8,73516.0,13.6,-0.81,0.1,-0.02,-3.3,-9.5,53.1,34.63,,,,,,,,,,
15.34.39.942,89.8,22.4,0,22.0,,75386.1,13.27,-0.8,0.12,-0.01,-2.0,-7.8,43.1,34.63,,,,,,,,,,
15.34.39.950,146.4,36.6,0,22.0,,73525.4,13.6,-0.83,0.14,-0.03,-2.8,-2.4,34.9,34.63,,,,,,,,,,
15.34.39.963,184.3,46.1,0,22.0,,72508.9,13.79,-0.83,0.12,-0.02,-2.3,-5.8,24.7,34.63,,,,,,,,,,
15.34.39.975,249.8,62.4,0,22.0,,72527.7,13.79,-0.83,0.13,0.0,3.9,-2.6,18.1,34.63,,,,,,,,,,
15.34.39.983,314.2,78.6,0,22.0,,73834.3,13.54,-0.92,0.12,-0.01,8.9,0.7,13.3,34.63,,,,,,,,,,
15.34.39.995,311.3,77.8,0,22.0,,70591.6,14.17,-0.95,0.15,-0.03,11.3,-3.9,7.7,34.63,,,,,,,,,,
15.34.40.004,381.4,95.4,0,22.0,,72977.7,13.7,-0.97,0.16,-0.01,15.0,-4.9,0.2,34.63,,,,,,,,,,
15.34.40.016,424.6,106.2,0,22.0,,74205.6,13.48,-1.0,0.18,-0.02,16.2,-5.3,-6.9,34.63,,,,,,,,,,
15.34.40.024,449.1,112.3,0,22.0,,71007.8,14.08,-0.99,0.19,-0.02,15.5,-9.7,-16.0,34.63,,,,,,,,,,
15.34.40.036,431.6,107.9,0,22.0,,71059.1,14.07,-1.0,0.2,-0.01,13.5,-9.0,-26.7,34.63,,,,,,,,,,
15.34.40.049,399.5,99.9,0,22.0,,66730.1,14.99,-1.0,0.19,-0.02,12.2,-9.8,-35.2,34.63,,,,,,,,,,
15.34.40.057,406.4,101.6,0,22.0,,72963.2,13.71,-1.01,0.18,-0.03,14.5,-9.5,-41.6,34.63,,,,,,,,,,
15.34.40.070,352.9,88.2,0,22.0,,75434.0,13.26,-1.03,0.17,-0.04,18.5,-8.8,-47.7,34.63,,,,,,,,,,
15.34.40.077,273.2,68.3,0,22.0,,72250.0,13.84,-1.07,0.17,-0.06,22.9,-7.8,-53.8,34.63,,,,,,,,,,
15.34.40.090,275.5,68.9,0,22.0,,71680.2,13.95,-1.12,0.16,-0.07,27.9,-8.0,-61.3,34.63,,,,,,,,,,
15.34.40.098,194.9,48.7,0,22.0,,69415.2,14.41,-1.17,0.16,-0.08,35.8,-6.3,-67.8,34.63,,,,,,,,,,
15.34.40.110,108.5,27.1,0,22.0,,74572.5,13.41,-1.19,0.18,-0.09,44.3,-4.7,-74.5,34.63,,,,,,,,,,
15.34.40.122,32.1,8.0,0,22.0,,74316.1,13.46,-1.2,0.2,-0.09,49.1,-8.6,-81.7,34.63,,,,,,,,,,
15.34.40.131,23.2,5.8,0,22.0,,74900.1,13.35,-1.21,0.22,-0.07,53.4,-11.2,-91.6,34.63,,,,,,,,,,
15.34.40.143,31.0,7.8,0,22.0,,74419.1,13.44,-1.2,0.23,-0.06,58.2,-9.7,-102.2,34.63,,,,,,,,,,
15.34.40.151,40.8,10.2,0,22.0,,73780.3,13.55,-1.19,0.25,-0.06,63.3,-7.5,-112.4,34.63,,,,,,,,,,
15.34.40.163,59.1,14.8,0,22.0,,69393.8,14.41,-1.17,0.27,-0.06,68.3,-6.3,-120.7,34.63,,,,,,,,,,
15.34.40.176,63.1,15.8,0,22.0,,68693.0,14.56,-1.13,0.3,-0.04,71.6,-7.5,-126.3,34.63,,,,,,,,,,
15.34.40.184,77.4,19.4,0,22.0,,72249.3,13.84,-1.09,0.33,-0.01,71.4,-8.0,-130.1,34.63,,,,,,,,,,
15.34.40.196,77.5,19.4,0,22.0,,72331.9,13.83,-1.05,0.35,-0.01,73.0,-7.2,-131.9,34.63,,,,,,,,,,
15.34.40.234,47.1,11.8,0,22.0,,66946.2,14.94,-1.02,0.39,0.03,72.1,-4.6,-131.7,34.63,,,,,,,,,,
15.34.40.245,-15.2,3.8,0,22.0,,73580.2,13.59,-0.96,0.45,0.04,62.8,10.1,-117.7,34.63,,,,,,,,,,
15.34.40.253,-33.5,8.4,0,22.0,,75748.7,13.2,-0.98,0.48,0.05,52.3,13.5,-116.0,34.63,,,,,,,,,,
15.34.40.266,-9.4,2.4,0,22.0,,74588.0,13.41,-1.0,0.49,0.08,42.6,14.0,-113.5,34.63,,,,,,,,,,
15.34.40.274,-10.3,2.6,0,22.0,,73261.3,13.65,-1.04,0.52,0.11,33.6,15.6,-109.6,34.63,,,,,,,,,,
15.34.40.286,-37.8,9.4,0,22.0,,70312.5,14.22,-1.07,0.52,0.12,22.5,17.6,-106.6,34.63,,,,,,,,,,
15.34.40.299,-66.9,16.7,0,22.0,,69576.1,14.37,-1.07,0.55,0.14,10.3,16.3,-103.9,34.63,,,,,,,,,,
15.34.40.307,-46.1,11.5,0,22.0,,71767.9,13.93,-1.07,0.54,0.14,-1.2,12.4,-100.9,34.63,,,,,,,,,,
15.34.40.319,-40.4,10.1,0,22.0,,75118.4,13.31,-1.06,0.53,0.17,-10.1,10.0,-96.5,34.63,,,,,,,,,,
15.34.40.327,-64.9,16.2,0,22.0,,74342.1,13.45,-1.03,0.52,0.16,-16.6,7.6,-90.7,34.63,,,,,,,,,,
15.34.40.340,-72.8,18.2,0,22.0,,67796.0,14.75,-0.96,0.51,0.2,-22.8,2.0,-81.0,34.63,,,,,,,,,,
15.34.40.352,-77.8,19.4,0,22.0,,70146.4,14.26,-0.92,0.49,0.17,-22.7,2.3,-73.7,34.63,,,,,,,,,,
15.34.40.360,-55.9,14.0,0,22.0,,66225.2,15.1,-0.87,0.46,0.16,-27.7,0.8,-63.2,34.63,,,,,,,,,,
15.34.40.372,-91.5,22.9,0,22.0,,69186.4,14.45,-0.85,0.45,0.14,-33.2,0.0,-54.0,34.63,,,,,,,,,,
15.34.40.380,-110.9,27.7,0,22.0,,71137.6,14.06,-0.82,0.44,0.15,-36.6,1.3,-44.1,34.63,,,,,,,,,,
15.34.40.393,-100.7,25.2,0,22.0,,69659.5,14.36,-0.79,0.47,0.11,-42.0,1.8,-37.9,34.63,,,,,,,,,,
15.34.40.401,-103.4,25.8,0,22.0,,72925.8,13.71,-0.8,0.36,0.13,-47.2,-0.1,-29.8,34.63,,,,,,,,,,
15.34.40.413,-112.5,28.1,0,22.0,,72898.8,13.72,-0.78,0.33,0.08,-45.2,-1.4,-22.7,34.63,,,,,,,,,,
15.34.40.426,-133.8,33.4,0,22.0,,72682.1,13.76,-0.85,0.3,0.11,-41.4,5.0,-19.5,34.63,,,,,,,,,,
15.34.40.434,-151.2,37.8,0,22.0,,75432.7,13.26,-0.83,0.27,0.11,-35.5,-1.9,-19.9,34.63,,,,,,,,,,
15.34.40.446,-142.5,35.6,0,22.0,,72852.3,13.73,-0.83,0.26,0.12,-29.5,-0.3,-18.5,34.63,,,,,,,,,,
15.34.40.454,-123.8,31.0,0,22.0,,71698.7,13.95,-0.84,0.25,0.09,-26.2,2.4,-16.2,34.63,,,,,,,,,,
15.34.40.471,-142.2,35.6,0,22.0,,71633.8,13.96,-0.83,0.23,0.08,-14.7,-0.8,-16.4,34.63,,,,,,,,,,
15.34.40.479,-153.9,38.5,0,22.0,,73356.6,13.63,-0.88,0.21,0.1,-4.4,-0.3,-18.1,34.63,,,,,,,,,,
15.34.40.491,-153.2,38.3,0,22.0,,72953.3,13.71,-0.86,0.24,0.07,0.3,-3.3,-18.8,34.63,,,,,,,,,,
15.34.40.499,-180.3,45.1,0,22.0,,74458.6,13.43,-0.87,0.23,0.09,5.8,-7.9,-19.4,34.63,,,,,,,,,,
15.34.40.512,74.3,18.6,1,23.0,101.0,67511.9,14.81,-0.88,0.25,0.08,11.6,-4.0,-19.7,34.63,,,,,,,,,,
15.34.40.520,128.7,32.2,0,23.0,,75165.5,13.3,-0.88,0.25,0.09,16.2,-6.4,-20.0,34.63,,,,,,,,,,
15.34.40.532,212.7,53.2,0,23.0,,68802.1,14.53,-0.88,0.27,0.08,19.7,-5.2,-20.1,34.63,,,,,,,,,,
15.34.40.540,219.1,54.8,0,23.0,,72898.4,13.72,-0.89,0.28,0.07,23.1,-5.2,-18.5,34.63,,,,,,,,,,
15.34.40.553,312.5,78.1,0,23.0,,73744.7,13.56,-0.9,0.29,0.07,25.5,-5.2,-17.1,34.63,,,,,,,,,,
15.34.40.565,343.9,86.0,0,23.0,,73111.9,13.68,-0.91,0.31,0.05,27.6,-4.9,-16.2,34.63,,,,,,,,,,
15.34.40.573,355.5,88.9,0,23.0,,72417.3,13.81,-0.92,0.32,0.06,30.2,-5.7,-15.2,34.63,,,,,,,,,,
15.34.40.585,389.2,97.3,0,23.0,,72736.0,13.75,-0.94,0.35,0.02,30.0,-4.9,-17.5,34.63,,,,,,,,,,
15.34.40.593,407.1,101.8,0,23.0,,70161.1,14.25,-0.98,0.33,-0.01,31.1,6.1,-15.7,34.63,,,,,,,,,,
15.34.40.606,398.7,99.7,0,23.0,,72380.2,13.82,-1.02,0.35,0.02,33.3,3.9,-14.2,34.63,,,,,,,,,,
15.34.40.614,368.8,92.2,0,23.0,,73254.8,13.65,-1.0,0.4,0.04,27.2,-3.5,-11.9,34.63,,,,,,,,,,
15.34.40.626,374.9,93.7,0,23.0,,73567.1,13.59,-1.04,0.43,0.0,16.1,-2.3,-10.9,34.63,,,,,,,,,,
15.34.40.640,289.1,72.3,0,23.0,,72466.6,13.8,-1.05,0.43,-0.01,2.3,-6.9,-11.9,34.63,,,,,,,,,,
15.34.40.647,305.9,76.5,0,23.0,,74178.2,13.48,-1.06,0.44,-0.02,-6.8,1.7,-9.8,34.63,,,,,,,,,,
15.34.40.660,272.3,68.1,0,23.0,,74412.6,13.44,-1.05,0.42,-0.06,-7.0,7.5,-3.5,34.63,,,,,,,,,,
15.34.40.667,204.3,51.1,0,23.0,,73372.2,13.63,-1.02,0.41,-0.05,-8.6,4.6,4.3,34.63,,,,,,,,,,
15.34.40.680,144.4,36.1,0,23.0,,72875.5,13.72,-1.02,0.39,-0.04,-9.1,10.9,10.0,34.63,,,,,,,,,,
15.34.40.692,4.3,1.1,0,23.0,,69032.6,14.49,-1.05,0.38,-0.05,-7.9,21.7,17.4,34.63,,,,,,,,,,
15.34.40.700,3.3,0.8,0,23.0,,69299.1,14.43,-1.11,0.35,-0.06,-4.4,27.0,25.9,34.63,,,,,,,,,,
15.34.40.712,28.0,7.0,0,23.0,,75163.7,13.3,-1.15,0.33,-0.06,-0.3,28.6,33.9,34.63,,,,,,,,,,
15.34.40.720,51.1,12.8,0,23.0,,72175.4,13.86,-1.21,0.31,-0.04,6.0,27.5,39.9,34.63,,,,,,,,,,
15.34.40.733,76.5,19.1,0,23.0,,74043.9,13.51,-1.26,0.32,-0.03,12.0,28.3,43.6,34.63,,,,,,,,,,
15.34.40.745,79.6,19.9,0,23.0,,75701.1,13.21,-1.3,0.33,-0.01,16.8,28.8,46.3,34.63,,,,,,,,,,
15.34.40.753,88.5,22.1,0,23.0,,71681.1,13.95,-1.31,0.35,-0.01,19.2,26.0,46.2,34.63,,,,,,,,,,
15.34.40.766,88.0,22.0,0,23.0,,74852.4,13.36,-1.31,0.38,-0.02,18.0,25.8,46.2,34.63,,,,,,,,,,
15.34.40.774,68.6,17.2,0,23.0,,71314.6,14.02,-1.27,0.4,0.0,15.2,24.7,48.9,34.63,,,,,,,,,,
15.34.40.786,45.6,11.4,0,23.0,,69005.9,14.49,-1.21,0.4,0.01,7.5,21.5,52.7,34.63,,,,,,,,,,
15.34.40.794,71.9,18.0,0,23.0,,73289.9,13.64,-1.11,0.42,0.0,-3.1,20.8,55.4,34.63,,,,,,,,,,
15.34.40.807,36.4,9.1,0,23.0,,74839.0,13.36,-1.06,0.43,0.04,-19.0,22.7,58.7,34.63,,,,,,,,,,
15.34.40.815,25.5,6.4,0,23.0,,75186.1,13.3,-1.02,0.42,0.06,-32.3,23.8,58.7,34.63,,,,,,,,,,
15.34.40.827,15.5,3.9,0,23.0,,72354.5,13.82,-0.98,0.41,0.03,-49.0,23.9,58.8,34.63,,,,,,,,,,
15.34.40.839,-14.3,3.6,0,23.0,,71041.7,14.08,-0.97,0.4,0.07,-66.7,24.8,58.5,34.63,,,,,,,,,,
15.34.40.847,-7.8,2.0,0,23.0,,69850.2,14.32,-0.95,0.37,0.06,-81.6,27.1,54.5,34.63,,,,,,,,,,
15.34.40.860,-5.8,1.4,0,23.0,,69936.9,14.3,-1.01,0.26,0.04,-100.3,26.6,44.6,34.63,,,,,,,,,,
15.34.40.872,-11.1,2.8,0,23.0,,72676.9,13.76,-1.01,0.2,0.02,-112.8,24.0,34.1,34.63,,,,,,,,,,
15.34.40.880,-48.4,12.1,0,23.0,,78606.8,12.72,-0.93,0.26,0.06,-122.6,18.3,33.6,34.63,,,,,,,,,,
15.34.40.893,-65.5,16.4,0,23.0,,73126.1,13.67,-0.91,0.32,0.09,-135.1,9.5,46.6,34.63,,,,,,,,,,
15.34.40.905,-53.1,13.3,0,23.0,,72787.2,13.74,-0.91,0.25,0.07,-139.5,6.1,57.6,34.63,,,,,,,,,,
15.34.40.913,-65.3,16.3,0,23.0,,73266.6,13.65,-1.02,0.09,-0.03,-131.7,9.5,57.1,34.63,,,,,,,,,,
15.34.40.925,-42.3,10.6,0,23.0,,71543.7,13.98,-1.03,0.04,-0.11,-110.1,6.8,62.2,34.63,,,,,,,,,,
15.34.40.934,-73.1,18.3,0,23.0,,73820.6,13.55,-0.93,0.07,-0.05,-80.5,8.8,77.3,34.63,,,,,,,,,,
15.34.40.946,-69.5,17.4,0,23.0,,71366.4,14.01,-0.96,0.11,-0.05,-58.0,11.8,89.4,34.63,,,,,,,,,,
15.34.40.954,-96.2,24.0,0,23.0,,75428.6,13.26,-0.89,0.11,0.0,-40.4,1.2,92.3,34.63,,,,,,,,,,
15.34.40.966,-124.1,31.0,0,23.0,,70714.1,14.14,-0.87,0.14,-0.01,-33.2,7.9,97.7,34.63,,,,,,,,,,
15.34.40.979,-116.3,29.1,0,23.0,,70968.8,14.09,-0.95,0.07,-0.02,-23.0,14.0,97.3,34.63,,,,,,,,,,
15.34.40.987,-121.3,30.3,0,23.0,,72632.4,13.77,-0.81,0.06,-0.04,-4.5,12.2,95.9,34.63,,,,,,,,,,
15.34.40.999,-101.3,25.3,0,23.0,,71694.6,13.95,-0.94,0.12,0.06,2.0,13.5,98.9,34.63,,,,,,,,,,
15.34.41.036,-136.7,34.2,0,23.0,,74007.9,13.51,-0.89,0.16,0.0,1.9,10.1,102.9,34.63,,,,,,,,,,
15.34.41.044,-142.0,35.5,0,23.0,,73578.8,13.59,-0.92,0.14,0.01,17.5,8.5,95.4,34.63,,,,,,,,,,
15.34.41.056,-137.1,34.3,0,23.0,,72245.9,13.84,-0.91,0.18,0.03,14.4,4.7,88.1,34.63,,,,,,,,,,
15.34.41.066,-211.7,52.9,0,23.0,,72309.2,13.83,-0.9,0.18,0.03,10.8,1.4,77.1,34.63,,,,,,,,,,
15.34.41.077,34.7,8.7,1,24.0,106.1,71771.4,13.93,-0.88,0.18,0.02,7.8,0.9,68.0,34.63,,,,,,,,,,
15.34.41.089,99.8,25.0,0,24.0,,72158.2,13.86,-0.87,0.19,0.01,4.0,0.7,58.8,34.63,,,,,,,,,,
15.34.41.097,169.9,42.5,0,24.0,,67824.6,14.74,-0.86,0.19,-0.01,-2.9,-0.2,50.5,34.63,,,,,,,,,,
15.34.41.110,230.0,57.5,0,24.0,,67973.0,14.71,-0.84,0.19,0.01,-5.9,1.8,43.6,34.63,,,,,,,,,,
15.34.41.118,244.0,61.0,0,24.0,,67409.7,14.83,-0.81,0.2,-0.01,-11.8,-0.4,40.6,34.63,,,,,,,,,,
15.34.41.130,351.9,88.0,0,24.0,,72819.8,13.73,-0.79,0.18,-0.01,-10.4,1.1,34.2,34.63,,,,,,,,,,
15.34.41.138,325.4,81.4,0,24.0,,73868.0,13.54,-0.78,0.19,-0.01,-8.6,2.9,29.3,34.63,,,,,,,,,,
15.34.41.151,375.8,94.0,0,24.0,,69948.7,14.3,-0.78,0.18,0.01,-3.4,4.7,24.3,34.63,,,,,,,,,,
15.34.41.159,388.5,97.1,0,24.0,,72746.2,13.75,-0.79,0.2,0.01,0.8,7.4,19.8,34.63,,,,,,,,,,
15.34.41.172,430.3,107.6,0,24.0,,75391.3,13.26,-0.81,0.21,0.03,3.8,7.7,15.0,34.63,,,,,,,,,,
15.34.41.179,397.7,99.4,0,24.0,,73517.4,13.6,-0.84,0.23,0.05,6.7,8.4,10.2,34.63,,,,,,,,,,
15.34.41.192,411.9,103.0,0,24.0,,70527.2,14.18,-0.88,0.24,0.07,8.6,10.2,6.1,34.63,,,,,,,,,,
15.34.41.200,337.0,84.2,0,24.0,,68228.8,14.66,-0.94,0.25,0.05,9.5,9.2,2.2,34.63,,,,,,,,,,
15.34.41.212,346.6,86.6,0,24.0,,72225.1,13.85,-0.98,0.25,0.05,8.5,5.8,-1.5,34.63,,,,,,,,,,
15.34.41.221,265.4,66.4,0,24.0,,72757.9,13.74,-1.05,0.27,0.05,9.0,3.7,-6.5,34.63,,,,,,,,,,
15.34.41.233,214.8,53.7,0,24.0,,71665.7,13.95,-1.06,0.28,0.05,5.5,-1.0,-10.6,34.63,,,,,,,,,,
15.34.41.245,181.4,45.4,0,24.0,,69825.3,14.32,-1.09,0.29,0.06,4.0,-4.7,-19.0,34.63,,,,,,,,,,
15.34.41.253,100.6,25.2,0,24.0,,74487.4,13.43,-1.08,0.28,0.04,4.5,-8.5,-26.3,34.63,,,,,,,,,,
15.34.41.265,13.8,3.4,0,24.0,,74625.0,13.4,-1.09,0.26,0.05,9.2,-12.1,-33.8,34.63,,,,,,,,,,
15.34.41.274,23.7,5.9,0,24.0,,73205.4,13.66,-1.07,0.25,0.03,14.6,-12.3,-39.4,34.63,,,,,,,,,,
15.34.41.286,27.3,6.8,0,24.0,,68345.3,14.63,-1.08,0.26,0.03,23.3,-13.8,-42.8,34.63,,,,,,,,,,
15.34.41.294,30.9,7.7,0,24.0,,70259.6,14.23,-1.11,0.26,0.01,30.3,-16.2,-47.1,34.63,,,,,,,,,,
15.34.41.306,67.4,16.8,0,24.0,,73905.9,13.53,-1.18,0.24,-0.01,39.5,-16.4,-52.1,34.63,,,,,,,,,,
15.34.41.319,50.1,12.5,0,24.0,,72080.5,13.87,-1.22,0.25,-0.04,48.8,-16.8,-56.6,34.63,,,,,,,,,,
15.34.41.327,74.6,18.6,0,24.0,,69436.7,14.4,-1.25,0.26,-0.07,55.0,-16.7,-61.3,34.63,,,,,,,,,,
15.34.41.339,42.1,10.5,0,24.0,,71688.1,13.95,-1.27,0.28,-0.07,59.3,-19.0,-67.3,34.63,,,,,,,,,,
15.34.41.347,91.2,22.8,0,24.0,,73955.0,13.52,-1.28,0.31,-0.1,59.7,-22.9,-71.2,34.63,,,,,,,,,,
15.34.41.360,59.1,14.8,0,24.0,,70272.9,14.23,-1.29,0.32,-0.11,59.2,-25.5,-76.9,34.63,,,,,,,,,,
15.34.41.372,6.3,1.6,0,24.0,,75963.3,13.16,-1.27,0.34,-0.11,59.1,-21.8,-85.7,34.63,,,,,,,,,,
15.34.41.380,19.8,5.0,0,24.0,,71414.9,14.0,-1.22,0.36,-0.11,57.6,-20.2,-96.4,34.63,,,,,,,,,,
15.34.41.392,-0.2,0.0,0,24.0,,71413.0,14.0,-1.15,0.38,-0.08,56.0,-20.8,-106.5,34.63,,,,,,,,,,
15.34.41.405,-12.2,3.0,0,24.0,,72799.8,13.74,-1.06,0.41,-0.05,56.0,-17.0,-113.1,34.63,,,,,,,,,,
15.34.41.413,-10.4,2.6,0,24.0,,72844.0,13.73,-0.96,0.41,-0.02,54.0,-13.2,-112.4,34.63,,,,,,,,,,
15.34.41.425,-18.0,4.5,0,24.0,,70895.8,14.11,-0.91,0.43,-0.02,60.6,-6.0,-108.7,34.63,,,,,,,,,,
15.34.41.438,-18.2,4.6,0,24.0,,68818.9,14.53,-0.82,0.44,0.01,57.4,2.7,-99.3,34.63,,,,,,,,,,
15.34.41.450,-13.8,3.4,0,24.0,,72075.2,13.87,-0.79,0.46,0.03,60.5,8.5,-94.9,34.63,,,,,,,,,,
15.34.41.458,-46.3,11.6,0,24.0,,73351.3,13.63,-0.78,0.45,0.04,53.9,12.7,-85.6,34.63,,,,,,,,,,
15.34.41.470,-63.3,15.8,0,24.0,,72032.7,13.88,-0.79,0.46,0.05,48.7,16.4,-74.8,34.63,,,,,,,,,,
15.34.41.478,-32.4,8.1,0,24.0,,68961.1,14.5,-0.82,0.46,0.09,47.0,18.4,-66.0,34.63,,,,,,,,,,
