timestamp,ppg,threshold,beat,beat_count,inst_bpm,gsr_resistance_ohm,gsr_conductance_us,accel_x,accel_y,accel_z,gyro_x,gyro_y,gyro_z,temp_c,window_bpm,window_temp_c,status_message,SpO2,bmi,age,height,weight,env_temp_c,env_humidity_pct
14.29.03.269,0.0,0.0,0,,,68867.0,14.52,0.18,0.83,0.51,0.0,5.3,3.1,35.81,116.3,,,,17.5,21.0,152.4,40.74,31.44,45.0
14.29.03.282,85.4,21.4,0,,,68559.4,14.59,0.18,0.83,0.51,-0.4,3.7,3.9,35.81,,,,,,,,,,
14.29.03.294,177.0,44.2,0,,,64068.8,15.61,0.19,0.83,0.51,-1.8,4.1,5.0,35.81,,,,,,,,,,
14.29.03.302,219.2,54.8,0,,,68920.5,14.51,0.18,0.83,0.51,-4.0,3.9,5.5,35.81,,,,,,,,,,
14.29.03.314,292.5,73.1,0,,,65096.6,15.36,0.19,0.83,0.52,-2.4,4.2,5.5,35.81,,,,,,,,,,
14.29.03.327,317.9,79.5,0,,,65955.8,15.16,0.19,0.82,0.52,-1.6,4.0,5.4,35.81,,,,,,,,,,
14.29.03.335,396.1,99.0,0,,,64299.0,15.55,0.19,0.82,0.53,-2.7,5.3,5.6,35.81,,,,,,,,,,
14.29.03.347,396.7,99.2,0,,,68703.9,14.56,0.19,0.81,0.53,-2.0,5.8,4.8,35.81,,,,,,,,,,
14.29.03.355,438.8,109.7,0,,,65185.3,15.34,0.19,0.82,0.53,-1.2,2.4,4.8,35.81,,,,,,,,,,
14.29.03.368,345.7,86.4,0,,,64986.9,15.39,0.2,0.82,0.53,-0.7,0.3,6.1,35.81,,,,,,,,,,
14.29.03.380,377.1,94.3,0,,,67913.7,14.72,0.2,0.82,0.52,-0.3,3.1,5.6,35.81,,,,,,,,,,
14.29.03.392,331.9,83.0,0,,,68832.8,14.53,0.2,0.83,0.52,-0.5,1.9,5.9,35.81,,,,,,,,,,
14.29.03.400,277.1,69.3,0,,,66024.5,15.15,0.21,0.82,0.51,0.7,0.7,6.9,35.81,,,,,,,,,,
14.29.03.413,244.3,61.1,0,,,63416.4,15.77,0.21,0.82,0.52,0.0,0.7,7.2,35.81,,,,,,,,,,
14.29.03.425,167.1,41.8,0,,,68396.4,14.62,0.21,0.82,0.52,-1.3,0.5,8.0,35.81,,,,,,,,,,
14.29.03.433,109.0,27.2,0,,,64296.2,15.55,0.21,0.82,0.53,-1.3,-1.2,8.3,35.81,,,,,,,,,,
14.29.03.446,3.3,0.8,0,,,65264.6,15.32,0.21,0.81,0.52,-1.6,-1.8,8.9,35.81,,,,,,,,,,
14.29.03.458,42.4,10.6,0,,,65590.7,15.25,0.22,0.81,0.53,-0.7,-2.5,8.7,35.81,,,,,,,,,,
14.29.03.466,36.9,9.2,0,,,65157.6,15.35,0.21,0.81,0.52,0.1,-2.7,7.8,35.81,,,,,,,,,,
14.29.03.478,59.0,14.8,0,,,65468.8,15.27,0.22,0.81,0.53,1.0,-1.6,7.4,35.81,,,,,,,,,,
14.29.03.491,67.6,16.9,0,,,66927.0,14.94,0.21,0.8,0.53,1.7,-2.5,7.5,35.81,,,,,,,,,,
14.29.03.499,90.4,22.6,0,,,64867.9,15.42,0.22,0.8,0.53,4.2,-3.5,7.0,35.81,,,,,,,,,,
14.29.03.511,74.8,18.7,0,,,64779.8,15.44,0.22,0.79,0.52,5.2,-5.5,6.3,35.81,,,,,,,,,,
14.29.03.523,58.7,14.7,0,,,66449.2,15.05,0.22,0.8,0.51,6.3,-5.5,7.2,35.81,,,,,,,,,,
14.29.03.532,32.8,8.2,0,,,67906.0,14.73,0.23,0.82,0.51,4.2,-3.0,6.3,35.81,,,,,,,,,,
14.29.03.544,6.2,1.6,0,,,65483.7,15.27,0.23,0.82,0.51,3.7,-0.1,6.0,35.81,,,,,,,,,,
14.29.03.556,1.5,0.4,0,,,65412.5,15.29,0.23,0.81,0.5,3.0,0.4,5.6,35.81,,,,,,,,,,
14.29.03.564,-24.6,6.2,0,,,67809.5,14.75,0.23,0.81,0.51,3.0,-0.7,6.5,35.81,,,,,,,,,,
14.29.03.577,-19.0,4.8,0,,,65962.9,15.16,0.23,0.81,0.52,2.3,-0.2,6.5,35.81,,,,,,,,,,
14.29.03.589,-32.9,8.2,0,,,64062.3,15.61,0.24,0.8,0.53,2.1,3.1,5.4,35.81,,,,,,,,,,
14.29.03.597,-49.5,12.4,0,,,62199.7,16.08,0.24,0.78,0.51,3.9,1.8,4.3,35.81,,,,,,,,,,
14.29.03.609,-38.2,9.6,0,,,64068.0,15.61,0.24,0.8,0.52,5.0,6.0,3.8,35.81,,,,,,,,,,
14.29.03.622,-60.1,15.0,0,,,64212.7,15.57,0.24,0.82,0.52,4.5,4.0,4.2,35.81,,,,,,,,,,
14.29.03.630,-88.1,22.0,0,,,64278.6,15.56,0.24,0.81,0.49,5.0,4.9,3.5,35.81,,,,,,,,,,
14.29.03.642,-38.5,9.6,0,,,65516.3,15.26,0.25,0.82,0.5,2.9,3.4,4.3,35.81,,,,,,,,,,
14.29.03.654,-62.6,15.6,0,,,60822.3,16.44,0.24,0.81,0.5,2.3,5.3,5.0,35.81,,,,,,,,,,
14.29.03.663,-64.2,16.0,0,,,66467.7,15.04,0.25,0.82,0.5,0.6,5.2,6.4,35.81,,,,,,,,,,
14.29.03.675,-55.2,13.8,0,,,64859.5,15.42,0.24,0.81,0.5,0.7,3.8,6.2,35.81,,,,,,,,,,
14.29.03.687,-120.0,30.0,0,,,67198.3,14.88,0.25,0.8,0.52,1.7,4.1,5.0,35.81,,,,,,,,,,
14.29.03.695,-130.1,32.5,0,,,68069.7,14.69,0.26,0.81,0.52,1.5,5.5,5.3,35.81,,,,,,,,,,
14.29.03.708,-112.7,28.2,0,,,63642.2,15.71,0.26,0.82,0.51,4.7,4.6,5.1,35.81,,,,,,,,,,
14.29.03.720,-133.1,33.3,0,,,64383.1,15.53,0.26,0.81,0.51,2.1,5.5,4.8,35.81,,,,,,,,,,
14.29.03.732,-170.8,42.7,0,,,66071.2,15.14,0.26,0.82,0.51,2.3,5.4,4.6,35.81,,,,,,,,,,
14.29.03.740,-152.4,38.1,0,,,65544.6,15.26,0.25,0.81,0.5,3.2,4.0,4.2,35.81,,,,,,,,,,
14.29.03.753,-167.1,41.8,0,,,63326.7,15.79,0.25,0.82,0.51,2.6,3.4,4.2,35.81,,,,,,,,,,
14.29.03.766,-151.2,37.8,0,,,65035.9,15.38,0.26,0.81,0.5,2.6,4.7,4.5,35.81,,,,,,,,,,
14.29.03.773,-148.6,37.2,0,,,66264.5,15.09,0.27,0.8,0.51,1.4,4.4,4.2,35.81,,,,,,,,,,
14.29.03.786,42.6,10.6,1,1.0,115.6,63111.9,15.84,0.26,0.8,0.52,3.2,5.8,3.3,35.81,,,,,,,,,,
14.29.03.798,105.2,26.3,0,1.0,,62791.3,15.93,0.27,0.8,0.51,2.8,5.1,2.3,35.81,,,,,,,,,,
14.29.03.806,156.3,39.1,0,1.0,,62682.3,15.95,0.26,0.81,0.51,3.5,4.9,1.4,35.81,,,,,,,,,,
14.29.03.818,269.6,67.4,0,1.0,,61544.2,16.25,0.26,0.81,0.51,3.8,7.6,1.1,35.81,,,,,,,,,,
14.29.03.831,331.6,82.9,0,1.0,,64337.7,15.54,0.26,0.81,0.5,2.6,6.6,0.5,35.81,,,,,,,,,,
14.29.03.839,343.3,85.8,0,1.0,,66119.5,15.12,0.26,0.82,0.5,1.9,7.0,0.9,35.81,,,,,,,,,,
14.29.03.851,386.8,96.7,0,1.0,,65429.4,15.28,0.26,0.82,0.49,2.0,5.7,1.0,35.81,,,,,,,,,,
14.29.03.863,364.0,91.0,0,1.0,,60901.4,16.42,0.26,0.8,0.51,0.8,6.9,0.9,35.81,,,,,,,,,,
14.29.03.876,390.2,97.6,0,1.0,,61403.8,16.29,0.26,0.8,0.5,2.4,6.8,0.6,35.81,,,,,,,,,,
14.29.03.884,428.0,107.0,0,1.0,,62693.1,15.95,0.26,0.8,0.51,2.3,6.1,0.1,35.81,,,,,,,,,,
14.29.03.896,352.8,88.2,0,1.0,,64687.4,15.46,0.26,0.84,0.51,1.8,4.9,1.8,35.81,,,,,,,,,,
14.29.03.904,350.6,87.6,0,1.0,,63303.2,15.8,0.26,0.8,0.51,1.6,6.1,0.8,35.81,,,,,,,,,,
14.29.03.917,294.6,73.6,0,1.0,,61302.9,16.31,0.26,0.81,0.5,4.1,7.8,-0.4,35.81,,,,,,,,,,
14.29.03.925,213.9,53.5,0,1.0,,62947.3,15.89,0.26,0.82,0.5,2.2,6.7,0.2,35.81,,,,,,,,,,
14.29.03.938,184.2,46.0,0,1.0,,64025.7,15.62,0.26,0.82,0.5,2.0,6.0,0.0,35.81,,,,,,,,,,
14.29.03.950,36.6,9.2,0,1.0,,64947.7,15.4,0.26,0.82,0.49,2.1,6.0,0.8,35.81,,,,,,,,,,
14.29.03.958,27.5,6.9,0,1.0,,60268.9,16.59,0.26,0.81,0.49,0.5,4.5,1.4,35.81,,,,,,,,,,
14.29.03.970,57.2,14.3,0,1.0,,67395.2,14.84,0.26,0.8,0.51,1.7,4.1,1.6,35.81,,,,,,,,,,
14.29.03.982,62.9,15.7,0,1.0,,63140.2,15.84,0.27,0.8,0.51,2.6,4.6,1.4,35.81,,,,,,,,,,
14.29.03.990,74.2,18.6,0,1.0,,68088.5,14.69,0.27,0.81,0.52,3.7,3.2,1.5,35.81,,,,,,,,,,
14.29.04.003,75.4,18.8,0,1.0,,67456.7,14.82,0.27,0.8,0.52,4.1,2.1,0.3,35.81,,,,,,,,,,
14.29.04.015,91.6,22.9,0,1.0,,62895.9,15.9,0.28,0.82,0.49,6.7,5.8,-0.2,35.81,,,,,,,,,,
14.29.04.023,56.8,14.2,0,1.0,,66987.7,14.93,0.26,0.81,0.5,4.7,7.5,-2.8,35.81,,,,,,,,,,
14.29.04.035,69.6,17.4,0,1.0,,66845.6,14.96,0.26,0.83,0.49,5.4,8.8,-1.8,35.81,,,,,,,,,,
14.29.04.076,-20.4,5.1,0,1.0,,64025.4,15.62,0.26,0.81,0.5,-1.9,5.0,0.7,35.81,,,,,,,,,,
14.29.04.089,-43.8,11.0,0,1.0,,65673.3,15.23,0.27,0.82,0.51,-0.7,6.1,-0.4,35.81,,,,,,,,,,
14.29.04.097,-57.9,14.5,0,1.0,,66241.4,15.1,0.27,0.81,0.51,0.5,5.4,-1.3,35.81,,,,,,,,,,
14.29.04.109,-24.4,6.1,0,1.0,,66310.6,15.08,0.27,0.8,0.51,0.4,4.8,-1.7,35.81,,,,,,,,,,
14.29.04.121,-44.4,11.1,0,1.0,,63411.1,15.77,0.26,0.81,0.51,1.2,6.4,-2.2,35.81,,,,,,,,,,
14.29.04.130,-28.1,7.0,0,1.0,,67040.5,14.92,0.26,0.81,0.5,1.0,6.1,-2.2,35.81,,,,,,,,,,
14.29.04.142,-59.3,14.8,0,1.0,,65465.4,15.28,0.26,0.82,0.49,1.2,3.1,-2.2,35.81,,,,,,,,,,
14.29.04.154,-71.7,17.9,0,1.0,,65240.0,15.33,0.26,0.82,0.49,1.0,5.4,-1.8,35.81,,,,,,,,,,
14.29.04.163,-79.2,19.8,0,1.0,,57675.3,17.34,0.27,0.82,0.49,-0.5,5.2,-1.8,35.81,,,,,,,,,,
14.29.04.175,-79.9,20.0,0,1.0,,69150.8,14.46,0.27,0.81,0.5,-0.9,5.0,-1.5,35.81,,,,,,,,,,
14.29.04.187,-97.7,24.4,0,1.0,,61979.1,16.13,0.27,0.81,0.5,-0.9,4.5,-1.5,35.81,,,,,,,,,,
14.29.04.195,-120.9,30.2,0,1.0,,66820.2,14.97,0.27,0.8,0.5,0.3,6.6,-2.0,35.81,,,,,,,,,,
14.29.04.207,-88.5,22.1,0,1.0,,66839.1,14.96,0.27,0.81,0.5,0.3,6.4,-1.9,35.81,,,,,,,,,,
14.29.04.220,-60.7,15.2,0,1.0,,64680.8,15.46,0.26,0.81,0.5,0.4,5.9,-1.9,35.81,,,,,,,,,,
14.29.04.232,-133.9,33.5,0,1.0,,65359.2,15.3,0.26,0.81,0.51,0.9,5.7,-1.8,35.81,,,,,,,,,,
14.29.04.240,-111.6,27.9,0,1.0,,63658.2,15.71,0.27,0.81,0.5,1.1,4.9,-1.3,35.81,,,,,,,,,,
14.29.04.253,-131.6,32.9,0,1.0,,65789.1,15.2,0.26,0.82,0.49,0.5,4.6,-1.2,35.81,,,,,,,,,,
14.29.04.265,-119.5,29.9,0,1.0,,65204.8,15.34,0.27,0.82,0.5,1.8,6.2,-1.4,35.81,,,,,,,,,,
14.29.04.273,-148.6,37.2,0,1.0,,61243.3,16.33,0.26,0.82,0.5,0.7,6.4,-1.2,35.81,,,,,,,,,,
14.29.04.285,-126.9,31.7,0,1.0,,64475.4,15.51,0.26,0.81,0.5,0.5,6.5,-0.9,35.81,,,,,,,,,,
14.29.04.298,20.6,5.2,1,2.0,117.0,63635.6,15.71,0.26,0.81,0.51,0.0,5.9,-0.9,35.81,,,,,,,,,,
14.29.04.306,99.3,24.8,0,2.0,,65475.6,15.27,0.27,0.81,0.51,0.8,5.7,-1.0,35.81,,,,,,,,,,
14.29.04.318,173.3,43.3,0,2.0,,68555.2,14.59,0.26,0.81,0.5,1.0,6.9,-1.6,35.81,,,,,,,,,,
14.29.04.330,241.3,60.3,0,2.0,,66604.2,15.01,0.26,0.81,0.5,1.6,6.2,-1.3,35.81,,,,,,,,,,
14.29.04.343,352.4,88.1,0,2.0,,63506.9,15.75,0.26,0.82,0.49,1.9,4.6,-1.2,35.81,,,,,,,,,,
14.29.04.351,373.6,93.4,0,2.0,,65121.9,15.36,0.27,0.81,0.5,1.3,5.2,-0.9,35.81,,,,,,,,,,
14.29.04.363,356.0,89.0,0,2.0,,61115.4,16.36,0.26,0.82,0.49,1.0,5.3,-0.7,35.81,,,,,,,,,,
14.29.04.375,411.0,102.8,0,2.0,,66010.0,15.15,0.27,0.82,0.5,0.5,4.2,-1.2,35.81,,,,,,,,,,
14.29.04.384,364.7,91.2,0,2.0,,64654.5,15.47,0.27,0.8,0.5,1.0,6.5,-1.5,35.81,,,,,,,,,,
14.29.04.396,401.1,100.3,0,2.0,,61118.0,16.36,0.27,0.82,0.5,0.2,6.8,-1.8,35.81,,,,,,,,,,
14.29.04.408,339.4,84.8,0,2.0,,70922.3,14.1,0.26,0.81,0.5,0.7,5.1,-1.4,35.81,,,,,,,,,,
14.29.04.416,348.8,87.2,0,2.0,,68636.9,14.57,0.26,0.82,0.5,0.9,4.3,-1.7,35.81,,,,,,,,,,
14.29.04.429,257.4,64.4,0,2.0,,62218.5,16.07,0.27,0.82,0.49,2.3,6.6,-1.6,35.81,,,,,,,,,,
14.29.04.441,192.7,48.2,0,2.0,,64046.7,15.61,0.26,0.82,0.49,0.9,6.3,-2.1,35.81,,,,,,,,,,
14.29.04.449,152.0,38.0,0,2.0,,64426.9,15.52,0.27,0.82,0.49,0.6,4.7,-1.2,35.81,,,,,,,,,,
14.29.04.461,70.0,17.5,0,2.0,,69729.3,14.34,0.26,0.82,0.49,0.5,5.6,-1.0,35.81,,,,,,,,,,
14.29.04.474,-11.6,2.9,0,2.0,,66053.0,15.14,0.26,0.84,0.5,0.5,5.8,-0.9,35.81,,,,,,,,,,
14.29.04.482,24.1,6.0,0,2.0,,62706.9,15.95,0.26,0.81,0.49,-1.2,6.5,-1.4,35.81,,,,,,,,,,
14.29.04.494,54.4,13.6,0,2.0,,64552.8,15.49,0.27,0.81,0.5,-0.5,4.3,-0.9,35.81,,,,,,,,,,
14.29.04.507,64.8,16.2,0,2.0,,65688.5,15.22,0.27,0.81,0.5,0.4,3.9,-1.1,35.81,,,,,,,,,,
14.29.04.515,76.9,19.2,0,2.0,,62471.1,16.01,0.27,0.82,0.5,1.0,5.4,-1.6,35.81,,,,,,,,,,
14.29.04.527,94.3,23.6,0,2.0,,68216.3,14.66,0.27,0.81,0.5,1.8,6.6,-2.0,35.81,,,,,,,,,,
14.29.04.539,44.4,11.1,0,2.0,,64635.1,15.47,0.26,0.82,0.5,0.6,6.8,-2.0,35.81,,,,,,,,,,
14.29.04.548,44.4,11.1,0,2.0,,64917.1,15.4,0.25,0.78,0.49,-0.3,6.4,-1.7,35.81,,,,,,,,,,
14.29.04.560,25.6,6.4,0,2.0,,66332.7,15.08,0.24,0.78,0.48,3.7,6.0,-2.6,35.81,,,,,,,,,,
14.29.04.572,15.0,3.8,0,2.0,,61681.5,16.21,0.26,0.83,0.52,2.9,6.8,-2.0,35.81,,,,,,,,,,
14.29.04.584,18.2,4.6,0,2.0,,60942.5,16.41,0.29,0.81,0.49,-1.5,1.8,1.7,35.81,,,,,,,,,,
14.29.04.593,-5.9,1.5,0,2.0,,65216.4,15.33,0.3,0.82,0.49,-1.8,-6.8,3.3,35.81,,,,,,,,,,
14.29.04.605,-12.6,3.2,0,2.0,,64947.5,15.4,0.28,0.83,0.5,2.0,1.9,-0.3,35.81,,,,,,,,,,
14.29.04.617,-13.5,3.4,0,2.0,,65288.2,15.32,0.25,0.82,0.49,3.9,15.8,-5.0,35.81,,,,,,,,,,
14.29.04.626,-27.1,6.8,0,2.0,,64497.2,15.5,0.24,0.81,0.5,2.6,16.0,-5.2,35.81,,,,,,,,,,
14.29.04.638,-80.9,20.2,0,2.0,,66029.8,15.14,0.24,0.8,0.5,-0.2,4.3,-2.7,35.81,,,,,,,,,,
14.29.04.650,-46.7,11.7,0,2.0,,62574.9,15.98,0.25,0.81,0.51,0.6,3.4,-0.8,35.81,,,,,,,,,,
14.29.04.658,-84.9,21.2,0,2.0,,65597.8,15.24,0.26,0.81,0.5,0.4,3.8,0.1,35.81,,,,,,,,,,
14.29.04.670,-78.4,19.6,0,2.0,,63425.5,15.77,0.27,0.82,0.49,1.8,-0.3,0.4,35.81,,,,,,,,,,
14.29.04.683,-67.6,16.9,0,2.0,,63505.7,15.75,0.28,0.82,0.49,3.1,0.9,0.2,35.81,,,,,,,,,,
14.29.04.691,-55.9,14.0,0,2.0,,63704.6,15.7,0.29,0.82,0.49,2.3,5.6,-1.3,35.81,,,,,,,,,,
14.29.04.703,-81.4,20.4,0,2.0,,64082.4,15.6,0.28,0.82,0.48,2.2,6.1,-1.1,35.81,,,,,,,,,,
14.29.04.716,-91.1,22.8,0,2.0,,61378.8,16.29,0.28,0.82,0.48,-0.5,5.2,-1.0,35.81,,,,,,,,,,
14.29.04.724,-163.1,40.8,0,2.0,,64021.4,15.62,0.27,0.81,0.49,-2.2,6.0,-1.4,35.81,,,,,,,,,,
14.29.04.736,-108.2,27.0,0,2.0,,65952.3,15.16,0.26,0.78,0.5,-0.9,8.6,-2.4,35.81,,,,,,,,,,
14.29.04.748,-151.0,37.8,0,2.0,,63756.3,15.68,0.27,0.79,0.51,-0.5,8.0,-2.2,35.81,,,,,,,,,,
14.29.04.761,-154.7,38.7,0,2.0,,62698.1,15.95,0.26,0.83,0.52,-1.2,3.7,-0.4,35.81,,,,,,,,,,
14.29.04.769,-105.0,26.2,0,2.0,,64467.8,15.51,0.27,0.79,0.49,1.0,4.2,-1.1,35.81,,,,,,,,,,
14.29.04.781,-135.9,34.0,0,2.0,,62178.4,16.08,0.28,0.81,0.5,1.3,7.4,-0.6,35.81,,,,,,,,,,
14.29.04.793,-143.9,36.0,0,2.0,,64616.9,15.48,0.27,0.81,0.47,1.9,3.6,-0.4,35.81,,,,,,,,,,
14.29.04.802,-160.6,40.2,0,2.0,,67360.5,14.85,0.26,0.83,0.5,3.6,5.6,-2.3,35.81,,,,,,,,,,
14.29.04.814,94.7,23.7,1,3.0,114.2,66809.3,14.97,0.25,0.82,0.49,2.8,12.6,-2.6,35.81,,,,,,,,,,
14.29.04.826,158.5,39.6,0,3.0,,68585.4,14.58,0.26,0.81,0.5,-1.1,10.0,-1.3,35.81,,,,,,,,,,
14.29.04.834,204.4,51.1,0,3.0,,63932.5,15.64,0.26,0.81,0.5,-0.6,0.1,-0.1,35.81,,,,,,,,,,
14.29.04.875,353.5,88.4,0,3.0,,65059.3,15.37,0.28,0.82,0.5,2.1,0.2,0.4,35.81,,,,,,,,,,
14.29.04.888,374.0,93.5,0,3.0,,65244.8,15.33,0.28,0.83,0.49,2.2,6.1,-0.6,35.81,,,,,,,,,,
14.29.04.896,418.6,104.6,0,3.0,,63126.3,15.84,0.28,0.83,0.49,0.8,8.7,-1.2,35.81,,,,,,,,,,
14.29.04.908,413.2,103.3,0,3.0,,62102.2,16.1,0.25,0.8,0.49,-2.1,7.5,-1.8,35.81,,,,,,,,,,
14.29.04.920,335.8,84.0,0,3.0,,63135.8,15.84,0.25,0.82,0.5,2.1,8.5,-2.0,35.81,,,,,,,,,,
14.29.04.929,371.2,92.8,0,3.0,,70230.9,14.24,0.27,0.8,0.51,-2.0,9.1,-2.3,35.81,,,,,,,,,,
14.29.04.941,283.5,70.9,0,3.0,,68029.4,14.7,0.29,0.8,0.49,-1.0,1.5,2.0,35.81,,,,,,,,,,
14.29.04.953,169.8,42.4,0,3.0,,62568.9,15.98,0.28,0.83,0.49,1.2,-2.6,1.4,35.81,,,,,,,,,,
14.29.04.961,150.1,37.5,0,3.0,,65182.1,15.34,0.26,0.79,0.48,3.3,12.4,-3.4,35.81,,,,,,,,,,
14.29.04.974,66.2,16.6,0,3.0,,64448.9,15.52,0.26,0.85,0.49,4.4,15.8,-2.2,35.81,,,,,,,,,,
14.29.04.986,3.4,0.8,0,3.0,,63556.9,15.73,0.25,0.79,0.48,-3.4,2.1,-1.2,35.81,,,,,,,,,,
14.29.04.998,47.2,11.8,0,3.0,,64780.8,15.44,0.27,0.81,0.52,0.3,2.3,1.1,35.81,,,,,,,,,,
14.29.05.006,36.1,9.0,0,3.0,,65171.3,15.34,0.28,0.78,0.5,-4.0,4.1,0.3,35.81,,,,,,,,,,
14.29.05.019,73.4,18.4,0,3.0,,70043.8,14.28,0.25,0.72,0.49,-1.8,4.5,-3.1,35.81,,,,,,,,,,
14.29.05.031,66.0,16.5,0,3.0,,66330.6,15.08,0.27,1.04,0.57,10.5,0.4,1.2,35.81,,,,,,,,,,
14.29.05.039,72.3,18.1,0,3.0,,66243.7,15.1,0.29,0.73,0.44,-3.1,17.4,-4.0,35.81,,,,,,,,,,
14.29.05.051,61.0,15.2,0,3.0,,65796.4,15.2,0.26,0.73,0.41,7.6,5.0,1.1,35.81,,,,,,,,,,
14.29.05.064,59.3,14.8,0,3.0,,68025.5,14.7,0.27,0.9,0.49,9.2,-12.8,3.3,35.81,,,,,,,,,,
14.29.05.072,23.5,5.9,0,3.0,,63616.7,15.72,0.31,0.85,0.52,-6.2,16.3,-2.8,35.81,,,,,,,,,,
14.29.05.084,32.6,8.2,0,3.0,,63863.2,15.66,0.28,0.81,0.48,-10.3,15.6,1.1,35.81,,,,,,,,,,
14.29.05.096,-9.9,2.5,0,3.0,,64577.4,15.49,0.26,0.79,0.5,-5.4,-8.9,1.6,35.81,,,,,,,,,,
14.29.05.109,-37.9,9.5,0,3.0,,67429.8,14.83,0.27,0.78,0.57,-0.7,13.7,-3.6,35.81,,,,,,,,,,
14.29.05.117,-13.4,3.4,0,3.0,,64368.8,15.54,0.24,0.75,0.52,1.5,21.4,-3.3,35.81,,,,,,,,,,
14.29.05.129,-15.9,4.0,0,3.0,,61929.0,16.15,0.25,0.8,0.49,9.1,-8.3,0.2,35.81,,,,,,,,,,
14.29.05.142,-29.4,7.4,0,3.0,,65848.2,15.19,0.28,0.8,0.5,5.0,-3.3,0.1,35.81,,,,,,,,,,
14.29.05.154,-27.0,6.8,0,3.0,,66871.0,14.95,0.3,0.82,0.46,2.6,9.3,1.3,35.81,,,,,,,,,,
14.29.05.162,-70.8,17.7,0,3.0,,62112.1,16.1,0.28,0.85,0.46,1.0,1.1,0.4,35.81,,,,,,,,,,
14.29.05.174,-45.2,11.3,0,3.0,,66118.3,15.12,0.28,0.85,0.51,-0.5,6.2,-0.9,35.81,,,,,,,,,,
14.29.05.187,-84.0,21.0,0,3.0,,66388.0,15.06,0.28,0.79,0.49,-5.4,14.2,-2.1,35.81,,,,,,,,,,
14.29.05.195,-90.0,22.5,0,3.0,,65029.4,15.38,0.26,0.79,0.51,-1.7,7.6,-1.6,35.81,,,,,,,,,,
14.29.05.207,-85.5,21.4,0,3.0,,66704.7,14.99,0.26,0.8,0.51,2.4,4.2,-1.2,35.81,,,,,,,,,,
14.29.05.219,-64.8,16.2,0,3.0,,67497.3,14.82,0.26,0.83,0.5,3.4,5.9,-1.0,35.81,,,,,,,,,,
14.29.05.228,-90.4,22.6,0,3.0,,65554.4,15.25,0.27,0.81,0.5,2.4,4.5,-1.3,35.81,,,,,,,,,,
14.29.05.240,-90.3,22.6,0,3.0,,67040.9,14.92,0.27,0.82,0.48,3.3,4.8,-0.5,35.81,,,,,,,,,,
14.29.05.252,-106.5,26.6,0,3.0,,63556.2,15.73,0.28,0.82,0.48,0.8,6.0,-1.7,35.81,,,,,,,,,,
14.29.05.265,-128.4,32.1,0,3.0,,62327.4,16.04,0.26,0.81,0.49,-0.7,7.0,-1.9,35.81,,,,,,,,,,
14.29.05.273,-104.7,26.2,0,3.0,,68243.3,14.65,0.27,0.82,0.5,-0.4,6.9,-1.3,35.81,,,,,,,,,,
14.29.05.285,-117.0,29.2,0,3.0,,63722.5,15.69,0.28,0.8,0.51,-1.9,5.5,-1.7,35.81,,,,,,,,,,
14.29.05.293,-135.0,33.8,0,3.0,,64803.5,15.43,0.27,0.8,0.51,0.2,5.5,-1.7,35.81,,,,,,,,,,
14.29.05.305,-182.0,45.5,0,3.0,,63010.4,15.87,0.27,0.81,0.5,1.9,5.8,-1.5,35.81,,,,,,,,,,
14.29.05.314,-114.9,28.7,0,3.0,,62725.7,15.94,0.27,0.81,0.49,2.3,6.9,-2.2,35.81,,,,,,,,,,
14.29.05.326,103.0,25.8,1,4.0,118.4,65533.3,15.26,0.27,0.82,0.49,2.9,5.9,-1.9,35.81,,,,,,,,,,
14.29.05.334,157.6,39.4,0,4.0,,64719.0,15.45,0.27,0.83,0.48,2.2,5.2,-1.1,35.81,,,,,,,,,,
14.29.05.347,230.1,57.5,0,4.0,,64972.4,15.39,0.27,0.83,0.48,0.1,6.5,-1.0,35.81,,,,,,,,,,
14.29.05.355,246.5,61.6,0,4.0,,65050.0,15.37,0.27,0.82,0.49,-1.2,7.3,-0.9,35.81,,,,,,,,,,
14.29.05.367,294.4,73.6,0,4.0,,69265.7,14.44,0.27,0.81,0.5,-0.9,6.4,-1.4,35.81,,,,,,,,,,
14.29.05.375,329.5,82.4,0,4.0,,67960.6,14.71,0.27,0.81,0.51,0.0,7.2,-2.4,35.81,,,,,,,,,,
14.29.05.388,491.7,122.9,0,4.0,,68196.4,14.66,0.27,0.81,0.51,0.1,6.9,-1.9,35.81,,,,,,,,,,
14.29.05.396,395.9,99.0,0,4.0,,60808.9,16.44,0.27,0.81,0.5,1.7,4.9,-1.6,35.81,,,,,,,,,,
14.29.05.408,451.8,113.0,0,4.0,,66512.1,15.03,0.27,0.81,0.49,2.2,4.6,-1.6,35.81,,,,,,,,,,
14.29.05.416,411.0,102.8,0,4.0,,61318.5,16.31,0.27,0.82,0.49,1.7,5.7,-1.5,35.81,,,,,,,,,,
14.29.05.428,379.0,94.8,0,4.0,,63450.5,15.76,0.27,0.82,0.49,0.6,6.9,-1.9,35.81,,,,,,,,,,
14.29.05.437,350.8,87.7,0,4.0,,68657.1,14.57,0.26,0.81,0.5,-0.5,8.2,-2.3,35.81,,,,,,,,,,
14.29.05.449,272.7,68.2,0,4.0,,68176.7,14.67,0.25,0.81,0.5,-0.9,6.4,-2.5,35.81,,,,,,,,,,
14.29.05.457,265.9,66.5,0,4.0,,67083.3,14.91,0.26,0.81,0.5,-0.4,5.7,-2.0,35.81,,,,,,,,,,
14.29.05.470,172.5,43.1,0,4.0,,66531.0,15.03,0.26,0.81,0.49,1.8,6.1,-1.7,35.81,,,,,,,,,,
14.29.05.478,108.1,27.0,0,4.0,,65672.9,15.23,0.26,0.81,0.49,2.6,5.1,-1.3,35.81,,,,,,,,,,
14.29.05.490,19.4,4.8,0,4.0,,65979.3,15.16,0.28,0.83,0.49,2.0,4.5,-0.6,35.81,,,,,,,,,,
14.29.05.498,33.8,8.4,0,4.0,,67387.0,14.84,0.28,0.83,0.49,0.5,4.1,-0.3,35.81,,,,,,,,,,
14.29.05.510,18.1,4.5,0,4.0,,61757.0,16.19,0.28,0.81,0.49,-1.2,6.1,-1.1,35.81,,,,,,,,,,
14.29.05.519,59.8,15.0,0,4.0,,65645.9,15.23,0.27,0.82,0.5,-1.8,6.9,-1.4,35.81,,,,,,,,,,
14.29.05.531,41.3,10.3,0,4.0,,63329.8,15.79,0.27,0.8,0.51,-1.9,8.2,-2.2,35.81,,,,,,,,,,
14.29.05.539,67.0,16.8,0,4.0,,64178.5,15.58,0.26,0.8,0.52,-0.3,8.6,-2.9,35.81,,,,,,,,,,
14.29.05.551,59.2,14.8,0,4.0,,64555.3,15.49,0.26,0.81,0.51,1.5,5.2,-2.0,35.81,,,,,,,,,,
14.29.05.564,69.6,17.4,0,4.0,,65105.4,15.36,0.26,0.8,0.49,2.5,5.4,-2.5,35.81,,,,,,,,,,
14.29.05.572,33.8,8.4,0,4.0,,63711.2,15.7,0.26,0.82,0.49,3.9,5.4,-1.9,35.81,,,,,,,,,,
14.29.05.584,27.7,6.9,0,4.0,,59900.2,16.69,0.26,0.82,0.48,1.9,4.9,-1.4,35.81,,,,,,,,,,
14.29.05.592,5.6,1.4,0,4.0,,65185.4,15.34,0.27,0.82,0.48,0.2,4.9,-1.1,35.81,,,,,,,,,,
14.29.05.605,-4.1,1.0,0,4.0,,63962.2,15.63,0.28,0.82,0.48,-1.0,5.3,-0.5,35.81,,,,,,,,,,
14.29.05.613,13.1,3.3,0,4.0,,64290.0,15.55,0.28,0.81,0.49,-2.3,5.9,-1.0,35.81,,,,,,,,,,
14.29.05.625,-12.6,3.2,0,4.0,,66485.4,15.04,0.27,0.81,0.5,-1.6,6.7,-0.7,35.81,,,,,,,,,,
14.29.05.633,-13.5,3.4,0,4.0,,65451.6,15.28,0.27,0.81,0.51,-1.3,5.5,-1.5,35.81,,,,,,,,,,
14.29.05.646,-26.7,6.7,0,4.0,,65243.5,15.33,0.27,0.81,0.5,0.4,5.6,-1.6,35.81,,,,,,,,,,
14.29.05.682,-30.6,7.6,0,4.0,,64638.4,15.47,0.27,0.81,0.5,1.3,6.1,-2.0,35.88,,,,,,,,,,
14.29.05.691,-70.6,17.6,0,4.0,,64865.7,15.42,0.26,0.82,0.49,0.8,6.1,-1.6,35.88,,,,,,,,,,
14.29.05.703,-77.2,19.3,0,4.0,,62676.6,15.95,0.27,0.82,0.5,0.4,6.7,-1.2,35.88,,,,,,,,,,
14.29.05.711,-74.2,18.6,0,4.0,,65253.7,15.32,0.26,0.81,0.5,-0.6,6.1,-0.8,35.88,,,,,,,,,,
14.29.05.723,-106.5,26.6,0,4.0,,62944.6,15.89,0.26,0.81,0.51,-0.8,4.9,-0.6,35.88,,,,,,,,,,
14.29.05.732,-119.3,29.8,0,4.0,,63688.4,15.7,0.27,0.81,0.51,0.1,4.7,-0.8,35.88,,,,,,,,,,
14.29.05.744,-131.0,32.8,0,4.0,,62031.7,16.12,0.27,0.81,0.5,1.1,4.8,-1.0,35.88,,,,,,,,,,
14.29.05.752,-118.6,29.6,0,4.0,,66095.6,15.13,0.27,0.81,0.5,2.1,5.8,-1.2,35.88,,,,,,,,,,
14.29.05.764,-121.6,30.4,0,4.0,,69264.4,14.44,0.27,0.81,0.49,2.4,5.5,-1.2,35.88,,,,,,,,,,
14.29.05.772,-106.3,26.6,0,4.0,,66121.3,15.12,0.27,0.83,0.49,1.8,5.7,-1.3,35.88,,,,,,,,,,
14.29.05.785,-157.6,39.4,0,4.0,,58930.7,16.97,0.27,0.83,0.5,1.2,6.8,-1.3,35.88,,,,,,,,,,
14.29.05.793,-148.8,37.2,0,4.0,,65626.4,15.24,0.27,0.82,0.49,0.2,7.6,-1.2,35.88,,,,,,,,,,
14.29.05.806,-182.9,45.7,0,4.0,,64292.5,15.55,0.26,0.82,0.5,-0.2,6.9,-0.8,35.88,,,,,,,,,,
14.29.05.814,-182.3,45.6,0,4.0,,65428.6,15.28,0.26,0.81,0.5,0.1,5.4,-1.0,35.88,,,,,,,,,,
14.29.05.826,6.5,1.6,1,5.0,112.1,67740.8,14.76,0.27,0.81,0.5,1.2,5.0,-0.9,35.88,,,,,,,,,,
14.29.05.834,67.4,16.8,0,5.0,,65517.5,15.26,0.26,0.81,0.5,1.6,6.0,-1.1,35.88,,,,,,,,,,
14.29.05.846,118.1,29.5,0,5.0,,66864.0,14.96,0.26,0.81,0.5,1.3,5.5,-1.3,35.88,,,,,,,,,,
14.29.05.854,202.4,50.6,0,5.0,,65862.9,15.18,0.27,0.82,0.49,1.5,4.8,-0.8,35.88,,,,,,,,,,
14.29.05.867,278.0,69.5,0,5.0,,62376.1,16.03,0.27,0.82,0.5,1.3,5.7,-1.0,35.88,,,,,,,,,,
14.29.05.875,322.3,80.6,0,5.0,,66882.1,14.95,0.27,0.82,0.5,-0.3,6.4,-1.2,35.88,,,,,,,,,,
14.29.05.887,366.2,91.6,0,5.0,,66744.2,14.98,0.27,0.81,0.5,-0.2,5.9,-1.4,35.88,,,,,,,,,,
14.29.05.895,367.7,91.9,0,5.0,,65031.9,15.38,0.28,0.82,0.49,0.1,5.6,-0.8,35.88,,,,,,,,,,
14.29.05.908,389.0,97.2,0,5.0,,67033.8,14.92,0.27,0.81,0.5,0.2,7.7,-1.3,35.88,,,,,,,,,,
14.29.05.916,438.9,109.7,0,5.0,,66767.8,14.98,0.27,0.81,0.5,0.2,6.3,-1.7,35.88,,,,,,,,,,
14.29.05.928,381.0,95.2,0,5.0,,64712.3,15.45,0.27,0.81,0.51,1.0,5.3,-1.4,35.88,,,,,,,,,,
14.29.05.937,395.3,98.8,0,5.0,,63265.6,15.81,0.27,0.8,0.5,0.6,7.6,-1.5,35.88,,,,,,,,,,
14.29.05.949,345.8,86.4,0,5.0,,63660.7,15.71,0.27,0.8,0.49,0.1,6.2,-1.2,35.88,,,,,,,,,,
14.29.05.961,263.0,65.8,0,5.0,,67743.8,14.76,0.27,0.82,0.5,1.2,3.4,-0.9,35.88,,,,,,,,,,
14.29.05.969,260.1,65.0,0,5.0,,64155.0,15.59,0.28,0.82,0.49,0.3,4.8,-1.5,35.88,,,,,,,,,,
14.29.05.982,149.3,37.3,0,5.0,,66333.6,15.08,0.27,0.81,0.5,0.8,7.4,-1.6,35.88,,,,,,,,,,
14.29.05.990,112.2,28.0,0,5.0,,63703.6,15.7,0.27,0.81,0.49,1.5,6.6,-1.8,35.88,,,,,,,,,,
14.29.06.002,39.6,9.9,0,5.0,,64428.9,15.52,0.27,0.82,0.49,0.7,6.6,-1.8,35.88,,,,,,,,,,
14.29.06.010,14.7,3.7,0,5.0,,66862.6,14.96,0.25,0.82,0.49,1.1,5.5,-1.3,35.88,,,,,,,,,,
14.29.06.022,40.6,10.2,0,5.0,,66577.2,15.02,0.26,0.82,0.5,0.5,5.8,-1.0,35.88,,,,,,,,,,
14.29.06.031,58.1,14.5,0,5.0,,64606.5,15.48,0.26,0.81,0.5,0.4,4.7,-0.9,35.88,,,,,,,,,,
14.29.06.043,79.8,20.0,0,5.0,,68081.0,14.69,0.26,0.81,0.5,1.0,5.4,-0.8,35.88,,,,,,,,,,
14.29.06.051,73.8,18.4,0,5.0,,63399.9,15.77,0.27,0.82,0.49,1.1,6.1,-1.0,35.88,,,,,,,,,,
14.29.06.063,64.8,16.2,0,5.0,,63205.9,15.82,0.27,0.81,0.5,0.2,4.8,-0.6,35.88,,,,,,,,,,
14.29.06.072,72.7,18.2,0,5.0,,64914.5,15.4,0.27,0.81,0.5,1.8,5.7,-1.1,35.88,,,,,,,,,,
14.29.06.084,37.8,9.4,0,5.0,,66857.1,14.96,0.28,0.83,0.51,0.9,5.9,-0.9,35.88,,,,,,,,,,
14.29.06.092,35.1,8.8,0,5.0,,69876.7,14.31,0.27,0.82,0.5,1.4,7.1,-1.2,35.88,,,,,,,,,,
14.29.06.104,6.8,1.7,0,5.0,,61609.8,16.23,0.27,0.81,0.48,0.1,6.5,-1.6,35.88,,,,,,,,,,
14.29.06.113,-8.5,2.1,0,5.0,,65168.6,15.34,0.27,0.82,0.5,0.9,6.5,-0.5,35.88,,,,,,,,,,
14.29.06.125,5.3,1.3,0,5.0,,67923.5,14.72,0.27,0.82,0.5,0.4,7.0,-0.8,35.88,,,,,,,,,,
14.29.06.137,-44.7,11.2,0,5.0,,65475.7,15.27,0.26,0.82,0.49,0.8,6.1,-0.4,35.88,,,,,,,,,,
14.29.06.145,-36.2,9.0,0,5.0,,63546.0,15.74,0.26,0.81,0.5,0.7,5.2,-0.5,35.88,,,,,,,,,,
14.29.06.158,-46.2,11.6,0,5.0,,64626.6,15.47,0.26,0.8,0.51,0.7,7.1,-0.6,35.88,,,,,,,,,,
14.29.06.166,-31.8,8.0,0,5.0,,64790.8,15.43,0.26,0.8,0.49,0.9,5.0,-0.4,35.88,,,,,,,,,,
14.29.06.178,-65.2,16.3,0,5.0,,68271.4,14.65,0.27,0.82,0.5,1.8,4.6,-0.4,35.88,,,,,,,,,,
14.29.06.186,-33.3,8.3,0,5.0,,68279.5,14.65,0.28,0.83,0.49,1.5,4.4,-0.5,35.88,,,,,,,,,,
14.29.06.199,-9.1,2.3,0,5.0,,63351.1,15.79,0.28,0.83,0.49,1.1,6.4,-0.6,35.88,,,,,,,,,,
14.29.06.207,-70.9,17.7,0,5.0,,69182.8,14.45,0.26,0.82,0.49,-0.7,3.4,-1.3,35.88,,,,,,,,,,
14.29.06.219,-86.2,21.6,0,5.0,,63976.5,15.63,0.26,0.81,0.51,0.2,10.9,-0.8,35.88,,,,,,,,,,
14.29.06.227,-99.2,24.8,0,5.0,,65834.1,15.19,0.25,0.8,0.5,-0.9,7.9,-1.0,35.88,,,,,,,,,,
14.29.06.239,-92.1,23.0,0,5.0,,65937.9,15.17,0.26,0.81,0.5,0.5,2.7,-0.3,35.88,,,,,,,,,,
14.29.06.248,-79.4,19.8,0,5.0,,63621.2,15.72,0.26,0.82,0.5,0.0,2.4,0.5,35.88,,,,,,,,,,
14.29.06.260,-146.5,36.6,0,5.0,,67030.9,14.92,0.27,0.84,0.51,0.7,5.7,1.6,35.88,,,,,,,,,,
14.29.06.268,-123.6,30.9,0,5.0,,61853.5,16.17,0.27,0.8,0.49,0.8,5.6,0.9,35.88,,,,,,,,,,
14.29.06.280,-75.1,18.8,0,5.0,,66061.7,15.14,0.27,0.79,0.49,0.5,4.8,0.6,35.88,,,,,,,,,,
14.29.06.289,-103.6,25.9,0,5.0,,66805.7,14.97,0.27,0.82,0.5,1.0,2.9,1.1,35.88,,,,,,,,,,
14.29.06.301,-126.7,31.7,0,5.0,,66521.7,15.03,0.28,0.82,0.51,-1.3,4.2,0.5,35.88,,,,,,,,,,
14.29.06.309,-171.8,43.0,0,5.0,,68356.0,14.63,0.28,0.82,0.51,-1.7,6.3,0.7,35.88,,,,,,,,,,
14.29.06.318,-163.9,41.0,0,5.0,,64952.8,15.4,0.27,0.81,0.5,-0.5,4.6,1.1,35.88,,,,,,,,,,
14.29.06.330,-151.0,37.8,0,5.0,,60429.3,16.55,0.27,0.79,0.51,1.9,6.1,-0.4,35.88,,,,,,,,,,
14.29.06.342,14.4,3.6,1,6.0,118.2,68704.1,14.56,0.27,0.78,0.5,2.8,7.6,-1.2,35.88,,,,,,,,,,
14.29.06.354,93.6,23.4,0,6.0,,64470.3,15.51,0.27,0.84,0.49,3.4,0.6,0.8,35.88,,,,,,,,,,
14.29.06.362,206.1,51.5,0,6.0,,64093.4,15.6,0.28,0.87,0.49,0.8,1.9,1.8,35.88,,,,,,,,,,
14.29.06.375,287.7,71.9,0,6.0,,63042.3,15.86,0.27,0.83,0.49,-1.2,8.0,1.9,35.88,,,,,,,,,,
14.29.06.387,293.1,73.3,0,6.0,,62033.8,16.12,0.27,0.8,0.5,-0.7,6.3,1.7,35.88,,,,,,,,,,
14.29.06.395,389.2,97.3,0,6.0,,61251.2,16.33,0.26,0.79,0.5,-0.7,5.0,1.1,35.88,,,,,,,,,,
14.29.06.407,327.5,81.9,0,6.0,,65459.9,15.28,0.27,0.81,0.52,-0.5,7.2,1.0,35.88,,,,,,,,,,
14.29.06.420,389.4,97.4,0,6.0,,67497.3,14.82,0.27,0.8,0.5,-1.6,1.9,1.8,35.88,,,,,,,,,,
14.29.06.428,390.1,97.5,0,6.0,,64022.3,15.62,0.29,0.79,0.49,1.5,3.2,0.9,35.88,,,,,,,,,,
14.29.06.440,338.1,84.5,0,6.0,,65913.0,15.17,0.29,0.82,0.5,2.2,4.8,1.1,35.88,,,,,,,,,,
14.29.06.452,379.1,94.8,0,6.0,,68786.9,14.54,0.3,0.82,0.49,1.6,4.4,0.6,35.88,,,,,,,,,,
14.29.06.489,198.3,49.6,0,6.0,,65335.3,15.31,0.28,0.83,0.5,-1.7,5.9,-2.8,35.81,,,,,,,,,,
14.29.06.502,94.0,23.5,0,6.0,,62867.5,15.91,0.27,0.82,0.55,-5.7,10.4,-2.5,35.81,,,,,,,,,,
14.29.06.514,15.2,3.8,0,6.0,,65570.6,15.25,0.29,0.84,0.54,-6.1,7.4,0.6,35.81,,,,,,,,,,
14.29.06.526,13.7,3.4,0,6.0,,63418.8,15.77,0.23,0.72,0.48,0.1,1.9,-4.0,35.81,,,,,,,,,,
14.29.06.534,64.1,16.0,0,6.0,,66184.8,15.11,0.24,0.78,0.47,18.0,6.2,-3.4,35.81,,,,,,,,,,
14.29.06.547,68.3,17.1,0,6.0,,63051.7,15.86,0.29,0.91,0.48,10.9,8.9,-1.2,35.81,,,,,,,,,,
14.29.06.559,93.2,23.3,0,6.0,,61596.6,16.23,0.3,0.88,0.42,0.3,0.7,2.3,35.81,,,,,,,,,,
14.29.06.567,52.3,13.1,0,6.0,,67324.0,14.85,0.29,0.82,0.44,-1.7,-2.3,2.1,35.81,,,,,,,,,,
14.29.06.580,71.7,17.9,0,6.0,,65506.2,15.27,0.29,0.81,0.53,-7.4,7.8,-0.9,35.81,,,,,,,,,,
14.29.06.592,46.1,11.5,0,6.0,,66424.1,15.05,0.29,0.8,0.57,-13.5,18.2,-2.4,35.81,,,,,,,,,,
14.29.06.600,75.4,18.8,0,6.0,,63457.9,15.76,0.26,0.75,0.53,-7.6,6.3,-1.8,35.81,,,,,,,,,,
14.29.06.612,10.2,2.6,0,6.0,,61663.5,16.22,0.26,0.75,0.53,7.2,-0.7,-2.9,35.81,,,,,,,,,,
14.29.06.625,-26.7,6.7,0,6.0,,67101.8,14.9,0.29,0.81,0.51,12.4,6.2,-2.3,35.81,,,,,,,,,,
14.29.06.633,0.1,0.0,0,6.0,,67330.1,14.85,0.29,0.84,0.46,6.9,5.0,-1.2,35.81,,,,,,,,,,
14.29.06.645,-26.8,6.7,0,6.0,,63078.9,15.85,0.29,0.85,0.44,7.0,-3.8,0.2,35.81,,,,,,,,,,
14.29.06.657,-17.2,4.3,0,6.0,,67579.5,14.8,0.3,0.84,0.45,1.0,5.5,-1.8,35.81,,,,,,,,,,
14.29.06.670,-72.5,18.1,0,6.0,,65355.8,15.3,0.28,0.85,0.49,-7.0,13.6,-2.6,35.81,,,,,,,,,,
14.29.06.678,-61.1,15.3,0,6.0,,64667.2,15.46,0.26,0.82,0.52,-7.3,10.0,-1.7,35.81,,,,,,,,,,
14.29.06.690,-64.2,16.0,0,6.0,,63175.0,15.83,0.25,0.73,0.53,-7.1,11.4,-4.8,35.81,,,,,,,,,,
14.29.06.702,-26.1,6.5,0,6.0,,66432.4,15.05,0.25,0.76,0.54,-0.1,5.5,-3.9,35.81,,,,,,,,,,
14.29.06.715,-84.4,21.1,0,6.0,,66239.2,15.1,0.26,0.81,0.52,4.8,0.7,-2.9,35.81,,,,,,,,,,
14.29.06.723,-113.1,28.3,0,6.0,,66106.8,15.13,0.28,0.8,0.48,7.3,3.2,-2.8,35.81,,,,,,,,,,
14.29.06.735,-101.6,25.4,0,6.0,,60095.4,16.64,0.29,0.82,0.46,7.9,0.8,-1.7,35.81,,,,,,,,,,
14.29.06.747,-91.0,22.8,0,6.0,,64046.4,15.61,0.3,0.83,0.46,3.3,-0.4,-3.0,35.81,,,,,,,,,,
14.29.06.756,-111.0,27.8,0,6.0,,65336.1,15.31,0.3,0.83,0.49,-3.2,8.8,-4.2,35.81,,,,,,,,,,
14.29.06.768,-106.9,26.7,0,6.0,,65293.7,15.32,0.29,0.86,0.49,-3.6,10.8,-2.5,35.81,,,,,,,,,,
14.29.06.780,-143.5,35.9,0,6.0,,61687.0,16.21,0.28,0.82,0.47,-2.9,6.7,-3.2,35.81,,,,,,,,,,
14.29.06.793,-129.2,32.3,0,6.0,,66083.9,15.13,0.27,0.79,0.49,1.1,11.4,-2.7,35.81,,,,,,,,,,
14.29.06.801,-139.6,34.9,0,6.0,,67313.3,14.86,0.27,0.8,0.5,1.9,8.9,-2.9,35.81,,,,,,,,,,
14.29.06.813,-136.6,34.2,0,6.0,,61038.1,16.38,0.26,0.8,0.5,1.9,4.9,-3.6,35.81,,,,,,,,,,
14.29.06.826,-118.7,29.7,0,6.0,,65319.4,15.31,0.27,0.82,0.5,2.2,6.5,-3.3,35.81,,,,,,,,,,
14.29.06.838,-158.4,39.6,0,6.0,,62756.0,15.93,0.27,0.81,0.5,-0.5,6.8,-3.3,35.81,,,,,,,,,,
14.29.06.846,-147.9,37.0,0,6.0,,65306.6,15.31,0.27,0.8,0.51,-2.0,3.7,-2.8,35.81,,,,,,,,,,
14.29.06.858,87.9,22.0,1,7.0,116.8,62568.8,15.98,0.27,0.8,0.52,-0.3,4.4,-2.4,35.81,,,,,,,,,,
14.29.06.866,127.0,31.8,0,7.0,,65062.6,15.37,0.28,0.79,0.51,0.7,5.1,-3.4,35.81,,,,,,,,,,
14.29.06.879,216.0,54.0,0,7.0,,64976.5,15.39,0.28,0.8,0.5,2.9,4.2,-3.3,35.81,,,,,,,,,,
14.29.06.887,283.0,70.8,0,7.0,,68954.0,14.5,0.28,0.82,0.49,3.2,4.8,-3.3,35.81,,,,,,,,,,
14.29.06.899,276.2,69.0,0,7.0,,67510.6,14.81,0.27,0.82,0.49,1.6,6.5,-4.0,35.81,,,,,,,,,,
14.29.06.907,363.4,90.8,0,7.0,,68700.4,14.56,0.27,0.82,0.48,0.9,6.9,-3.7,35.81,,,,,,,,,,
14.29.06.920,377.5,94.4,0,7.0,,63152.6,15.83,0.27,0.82,0.49,-2.1,7.6,-3.4,35.81,,,,,,,,,,
14.29.06.928,371.3,92.8,0,7.0,,60717.1,16.47,0.27,0.8,0.48,-2.8,7.3,-3.5,35.81,,,,,,,,,,
14.29.06.940,371.7,92.9,0,7.0,,61947.7,16.14,0.27,0.86,0.53,-2.4,5.4,-1.0,35.81,,,,,,,,,,
14.29.06.952,411.0,102.8,0,7.0,,62904.3,15.9,0.27,0.78,0.5,-1.5,6.3,-2.1,35.81,,,,,,,,,,
14.29.06.961,390.8,97.7,0,7.0,,65178.1,15.34,0.27,0.78,0.51,2.5,7.0,-3.4,35.81,,,,,,,,,,
14.29.06.973,344.0,86.0,0,7.0,,68702.8,14.56,0.27,0.83,0.49,5.4,4.5,-2.1,35.81,,,,,,,,,,
14.29.06.981,313.2,78.3,0,7.0,,64855.3,15.42,0.27,0.84,0.49,2.2,5.5,-3.2,35.81,,,,,,,,,,
14.29.06.993,247.2,61.8,0,7.0,,65949.9,15.16,0.27,0.83,0.48,0.7,7.2,-2.7,35.81,,,,,,,,,,
14.29.07.002,178.6,44.6,0,7.0,,66968.0,14.93,0.27,0.83,0.49,-0.5,5.8,-1.6,35.81,,,,,,,,,,
14.29.07.014,110.9,27.7,0,7.0,,63941.5,15.64,0.26,0.82,0.51,-2.3,6.2,-2.2,35.81,,,,,,,,,,
14.29.07.022,66.7,16.7,0,7.0,,65282.0,15.32,0.26,0.8,0.51,-1.1,8.9,-2.1,35.81,,,,,,,,,,
14.29.07.034,37.5,9.4,0,7.0,,62560.2,15.98,0.27,0.8,0.51,0.0,5.0,-1.5,35.81,,,,,,,,,,
14.29.07.042,22.7,5.7,0,7.0,,60430.5,16.55,0.27,0.81,0.5,2.7,2.1,-0.8,35.81,,,,,,,,,,
14.29.07.055,59.6,14.9,0,7.0,,65552.6,15.25,0.27,0.81,0.5,2.3,4.7,-1.3,35.81,,,,,,,,,,
14.29.07.063,45.6,11.4,0,7.0,,65117.4,15.36,0.28,0.82,0.49,1.1,5.9,-1.8,35.81,,,,,,,,,,
14.29.07.075,78.1,19.5,0,7.0,,65390.6,15.29,0.27,0.82,0.5,1.5,5.4,-1.7,35.81,,,,,,,,,,
14.29.07.083,67.7,16.9,0,7.0,,67278.6,14.86,0.27,0.82,0.5,-0.4,6.1,-2.1,35.81,,,,,,,,,,
14.29.07.096,50.3,12.6,0,7.0,,68155.3,14.67,0.27,0.81,0.5,-0.2,8.0,-2.5,35.81,,,,,,,,,,
14.29.07.104,46.8,11.7,0,7.0,,64825.2,15.43,0.26,0.81,0.5,0.7,7.6,-2.0,35.81,,,,,,,,,,
14.29.07.116,32.2,8.0,0,7.0,,62915.0,15.89,0.26,0.81,0.5,0.4,7.0,-2.2,35.81,,,,,,,,,,
14.29.07.124,2.3,0.6,0,7.0,,63283.1,15.8,0.26,0.82,0.5,1.3,6.3,-1.4,35.81,,,,,,,,,,
14.29.07.137,3.3,0.8,0,7.0,,61427.8,16.28,0.26,0.81,0.49,0.4,4.2,-1.7,35.81,,,,,,,,,,
14.29.07.145,10.1,2.5,0,7.0,,68656.3,14.57,0.26,0.82,0.5,1.4,5.0,-1.4,35.81,,,,,,,,,,
14.29.07.158,-24.6,6.2,0,7.0,,62548.9,15.99,0.27,0.82,0.49,1.1,6.3,-1.4,35.81,,,,,,,,,,
14.29.07.165,-44.6,11.2,0,7.0,,65301.5,15.31,0.27,0.81,0.49,-0.4,5.8,-1.2,35.81,,,,,,,,,,
14.29.07.178,-39.4,9.8,0,7.0,,61337.6,16.3,0.27,0.82,0.49,0.9,4.5,-0.6,35.81,,,,,,,,,,
14.29.07.186,-36.4,9.1,0,7.0,,65446.0,15.28,0.27,0.82,0.5,0.5,4.8,-1.3,35.81,,,,,,,,,,
14.29.07.198,-53.0,13.2,0,7.0,,64320.5,15.55,0.27,0.82,0.5,0.0,6.3,-1.5,35.81,,,,,,,,,,
14.29.07.206,-29.1,7.3,0,7.0,,61439.3,16.28,0.27,0.82,0.5,0.3,5.3,-1.5,35.81,,,,,,,,,,
14.29.07.219,-49.5,12.4,0,7.0,,62817.0,15.92,0.26,0.79,0.5,0.1,6.3,-2.5,35.81,,,,,,,,,,
14.29.07.231,-82.7,20.7,0,7.0,,62993.4,15.87,0.27,0.83,0.51,0.5,4.5,-1.1,35.81,,,,,,,,,,
14.29.07.239,-59.7,14.9,0,7.0,,65727.4,15.21,0.27,0.8,0.5,-0.9,5.0,-1.7,35.81,,,,,,,,,,
14.29.07.251,-88.7,22.2,0,7.0,,66472.0,15.04,0.26,0.79,0.51,-0.1,5.8,-1.7,35.81,,,,,,,,,,
14.29.07.292,-138.7,34.7,0,7.0,,65648.9,15.23,0.27,0.82,0.48,1.9,5.1,-1.2,35.81,,,,,,,,,,
14.29.07.305,-175.8,44.0,0,7.0,,64893.8,15.41,0.28,0.82,0.5,0.3,5.7,-1.9,35.81,,,,,,,,,,
14.29.07.313,-130.7,32.7,0,7.0,,65611.3,15.24,0.27,0.82,0.49,-0.5,8.5,-1.5,35.81,,,,,,,,,,
14.29.07.325,-140.3,35.1,0,7.0,,62967.2,15.88,0.27,0.81,0.49,-1.4,5.3,-1.1,35.81,,,,,,,,,,
14.29.07.338,-177.1,44.3,0,7.0,,65288.3,15.32,0.27,0.82,0.51,0.2,6.4,-0.8,35.81,,,,,,,,,,
14.29.07.346,-121.3,30.3,0,7.0,,64565.8,15.49,0.27,0.81,0.49,0.0,7.5,-1.5,35.81,,,,,,,,,,
14.29.07.358,-180.6,45.2,0,7.0,,64485.3,15.51,0.27,0.81,0.51,-0.2,4.4,-1.2,35.81,,,,,,,,,,
14.29.07.370,64.9,16.2,1,8.0,114.9,65345.4,15.3,0.27,0.82,0.5,1.3,4.5,-1.0,35.81,,,,,,,,,,
14.29.07.378,121.8,30.4,0,8.0,,62014.1,16.13,0.27,0.81,0.5,0.3,6.7,-2.2,35.81,,,,,,,,,,
14.29.07.391,212.9,53.2,0,8.0,,61792.8,16.18,0.27,0.82,0.5,1.5,6.5,-1.8,35.81,,,,,,,,,,
14.29.07.403,309.0,77.2,0,8.0,,66633.7,15.01,0.27,0.81,0.49,1.6,4.2,-1.5,35.81,,,,,,,,,,
14.29.07.411,374.4,93.6,0,8.0,,63710.6,15.7,0.27,0.82,0.49,1.1,5.3,-1.7,35.81,,,,,,,,,,
14.29.07.423,385.5,96.4,0,8.0,,66525.1,15.03,0.27,0.82,0.49,1.2,5.3,-0.8,35.81,,,,,,,,,,
14.29.07.436,450.6,112.6,0,8.0,,64649.6,15.47,0.27,0.82,0.5,-0.1,4.0,-0.8,35.81,,,,,,,,,,
14.29.07.444,390.4,97.6,0,8.0,,64804.9,15.43,0.27,0.81,0.5,-0.4,5.0,-1.0,35.81,,,,,,,,,,
14.29.07.456,387.9,97.0,0,8.0,,67793.6,14.75,0.27,0.81,0.5,0.4,6.4,-1.6,35.81,,,,,,,,,,
14.29.07.469,454.2,113.6,0,8.0,,65041.9,15.37,0.27,0.8,0.5,1.3,6.9,-2.4,35.81,,,,,,,,,,
14.29.07.481,304.9,76.2,0,8.0,,63653.0,15.71,0.27,0.82,0.5,1.3,6.1,-2.3,35.81,,,,,,,,,,
14.29.07.489,305.5,76.4,0,8.0,,63906.2,15.65,0.26,0.81,0.49,2.1,6.5,-2.1,35.81,,,,,,,,,,
14.29.07.502,263.1,65.8,0,8.0,,66240.3,15.1,0.27,0.82,0.5,1.5,6.5,-1.9,35.81,,,,,,,,,,
14.29.07.514,157.5,39.4,0,8.0,,61788.9,16.18,0.27,0.82,0.49,1.6,5.7,-1.6,35.81,,,,,,,,,,
14.29.07.522,91.8,23.0,0,8.0,,63194.1,15.82,0.27,0.82,0.49,0.9,4.9,-1.2,35.81,,,,,,,,,,
14.29.07.534,23.9,6.0,0,8.0,,61849.1,16.17,0.27,0.82,0.5,0.3,5.1,-1.0,35.81,,,,,,,,,,
14.29.07.546,17.1,4.3,0,8.0,,63382.4,15.78,0.27,0.81,0.5,0.3,5.6,-1.3,35.81,,,,,,,,,,
14.29.07.555,23.6,5.9,0,8.0,,64456.3,15.51,0.26,0.82,0.49,1.0,6.5,-1.0,35.81,,,,,,,,,,
14.29.07.567,30.6,7.6,0,8.0,,64020.4,15.62,0.27,0.81,0.5,1.0,5.8,-1.1,35.81,,,,,,,,,,
14.29.07.579,69.4,17.4,0,8.0,,61976.1,16.14,0.27,0.81,0.5,1.0,5.6,-1.3,35.81,,,,,,,,,,
14.29.07.587,95.4,23.8,0,8.0,,65030.7,15.38,0.27,0.82,0.5,1.1,5.5,-1.5,35.81,,,,,,,,,,
14.29.07.600,34.3,8.6,0,8.0,,65623.9,15.24,0.26,0.81,0.5,0.5,5.4,-2.1,35.81,,,,,,,,,,
14.29.07.612,50.8,12.7,0,8.0,,65238.2,15.33,0.27,0.81,0.5,1.9,6.3,-2.1,35.81,,,,,,,,,,
14.29.07.620,32.2,8.0,0,8.0,,67919.7,14.72,0.27,0.81,0.49,1.3,6.3,-2.3,35.81,,,,,,,,,,
14.29.07.632,75.6,18.9,0,8.0,,66337.8,15.07,0.27,0.82,0.49,2.2,5.2,-2.5,35.81,,,,,,,,,,
14.29.07.645,17.5,4.4,0,8.0,,64105.7,15.6,0.27,0.81,0.49,2.4,5.7,-2.5,35.81,,,,,,,,,,
14.29.07.653,-31.3,7.8,0,8.0,,71880.0,13.91,0.27,0.82,0.49,2.7,6.5,-2.4,35.81,,,,,,,,,,
14.29.07.665,-21.4,5.4,0,8.0,,61911.4,16.15,0.27,0.82,0.48,1.8,5.7,-2.0,35.81,,,,,,,,,,
14.29.07.678,-11.7,2.9,0,8.0,,62875.4,15.9,0.28,0.81,0.49,0.8,7.0,-2.7,35.81,,,,,,,,,,
14.29.07.690,-38.9,9.7,0,8.0,,64078.2,15.61,0.27,0.81,0.49,0.2,9.8,-3.6,35.81,,,,,,,,,,
14.29.07.698,-33.8,8.4,0,8.0,,60929.2,16.41,0.27,0.81,0.48,0.6,11.0,-4.2,35.81,,,,,,,,,,
14.29.07.711,-40.1,10.0,0,8.0,,68203.5,14.66,0.27,0.81,0.49,-0.3,10.2,-4.6,35.81,,,,,,,,,,
14.29.07.722,-43.5,10.9,0,8.0,,62425.3,16.02,0.27,0.82,0.5,0.0,12.0,-5.6,35.81,,,,,,,,,,
14.29.07.731,-63.4,15.8,0,8.0,,62984.4,15.88,0.27,0.81,0.5,-0.3,15.7,-6.4,35.81,,,,,,,,,,
14.29.07.743,-61.1,15.3,0,8.0,,64838.1,15.42,0.27,0.81,0.51,-0.1,16.2,-7.0,35.81,,,,,,,,,,
14.29.07.755,-115.3,28.8,0,8.0,,65622.3,15.24,0.27,0.82,0.5,-1.6,16.3,-6.7,35.81,,,,,,,,,,
14.29.07.767,-101.6,25.4,0,8.0,,62309.9,16.05,0.26,0.81,0.51,-2.1,18.4,-7.0,35.81,,,,,,,,,,
14.29.07.776,-116.5,29.1,0,8.0,,62582.3,15.98,0.25,0.81,0.51,-1.3,20.7,-7.0,35.81,,,,,,,,,,
14.29.07.788,-114.9,28.7,0,8.0,,65098.1,15.36,0.24,0.8,0.51,-0.1,20.4,-7.1,35.81,,,,,,,,,,
14.29.07.800,-149.4,37.4,0,8.0,,64939.3,15.4,0.23,0.81,0.51,2.5,17.4,-6.5,35.81,,,,,,,,,,
14.29.07.813,-130.9,32.7,0,8.0,,67724.5,14.77,0.24,0.82,0.5,2.7,14.2,-5.1,35.81,,,,,,,,,,
14.29.07.821,-91.6,22.9,0,8.0,,65527.8,15.26,0.24,0.83,0.49,1.7,12.5,-4.4,35.81,,,,,,,,,,
14.29.07.833,-119.1,29.8,0,8.0,,65579.3,15.25,0.24,0.83,0.48,0.3,11.3,-4.1,35.81,,,,,,,,,,
14.29.07.846,-167.1,41.8,0,8.0,,65713.0,15.22,0.24,0.84,0.49,-1.0,10.0,-3.6,35.81,,,,,,,,,,
14.29.07.858,-140.7,35.2,0,8.0,,65088.4,15.36,0.24,0.82,0.5,-3.3,11.4,-4.7,35.81,,,,,,,,,,
14.29.07.866,-186.5,46.6,0,8.0,,62381.5,16.03,0.24,0.82,0.51,-5.5,11.0,-5.5,35.81,,,,,,,,,,
14.29.07.878,73.9,18.5,1,9.0,115.7,65077.3,15.37,0.23,0.81,0.51,-4.7,9.2,-6.1,35.81,,,,,,,,,,
14.29.07.891,148.7,37.2,0,9.0,,64048.2,15.61,0.24,0.81,0.51,-5.7,5.8,-6.5,35.81,,,,,,,,,,
14.29.07.899,223.6,55.9,0,9.0,,61897.0,16.16,0.24,0.82,0.51,-5.6,4.6,-6.8,35.81,,,,,,,,,,
14.29.07.911,279.7,69.9,0,9.0,,65078.0,15.37,0.25,0.82,0.51,-6.1,5.2,-7.3,35.81,,,,,,,,,,
14.29.07.923,322.3,80.6,0,9.0,,62585.0,15.98,0.24,0.82,0.51,-6.1,7.4,-8.2,35.81,,,,,,,,,,
14.29.07.936,373.2,93.3,0,9.0,,66800.8,14.97,0.24,0.82,0.51,-6.1,8.6,-8.8,35.81,,,,,,,,,,
14.29.07.944,364.9,91.2,0,9.0,,63841.1,15.66,0.23,0.82,0.51,-6.1,9.1,-8.9,35.81,,,,,,,,,,
14.29.07.956,449.4,112.4,0,9.0,,67122.1,14.9,0.23,0.81,0.53,-5.3,9.4,-8.4,35.81,,,,,,,,,,
14.29.07.968,437.7,109.4,0,9.0,,63391.4,15.78,0.23,0.81,0.51,-3.2,7.1,-7.8,35.81,,,,,,,,,,
14.29.07.976,444.9,111.2,0,9.0,,65524.6,15.26,0.23,0.82,0.51,-3.0,5.8,-6.9,35.81,,,,,,,,,,
14.29.07.989,335.8,84.0,0,9.0,,64584.4,15.48,0.22,0.82,0.51,-1.4,6.2,-6.3,35.81,,,,,,,,,,
14.29.08.001,284.0,71.0,0,9.0,,63129.6,15.84,0.23,0.83,0.51,-2.9,5.6,-5.9,35.81,,,,,,,,,,
14.29.08.009,220.5,55.1,0,9.0,,64389.6,15.53,0.22,0.81,0.51,-4.2,4.7,-5.9,35.81,,,,,,,,,,
14.29.08.022,129.0,32.2,0,9.0,,64950.2,15.4,0.22,0.82,0.52,-5.0,4.5,-6.3,35.81,,,,,,,,,,
14.29.08.034,121.6,30.4,0,9.0,,65346.1,15.3,0.22,0.82,0.52,-5.1,4.0,-6.6,35.81,,,,,,,,,,
14.29.08.046,31.5,7.9,0,9.0,,61790.5,16.18,0.21,0.8,0.52,-5.0,2.3,-7.4,35.81,,,,,,,,,,
14.29.08.054,6.6,1.6,0,9.0,,65950.4,15.16,0.22,0.82,0.52,-4.4,2.4,-8.4,35.81,,,,,,,,,,
14.29.08.095,112.5,28.1,0,9.0,,64821.7,15.43,0.23,0.82,0.54,-6.7,2.8,-7.1,35.88,,,,,,,,,,
14.29.08.108,82.9,20.7,0,9.0,,65317.3,15.31,0.23,0.81,0.54,-6.8,8.5,-7.4,35.88,,,,,,,,,,
14.29.08.116,75.6,18.9,0,9.0,,63099.4,15.85,0.21,0.8,0.54,-4.3,7.5,-10.1,35.88,,,,,,,,,,
14.29.08.128,59.8,15.0,0,9.0,,61917.7,16.15,0.2,0.79,0.55,-2.6,7.0,-10.3,35.88,,,,,,,,,,
14.29.08.140,2.2,0.6,0,9.0,,62958.4,15.88,0.19,0.82,0.55,0.0,3.5,-10.1,35.88,,,,,,,,,,
14.29.08.153,-11.8,3.0,0,9.0,,66626.0,15.01,0.2,0.8,0.53,-1.1,2.1,-12.2,35.88,,,,,,,,,,
14.29.08.161,-5.9,1.5,0,9.0,,59786.0,16.73,0.22,0.83,0.52,1.9,-1.5,-10.8,35.88,,,,,,,,,,
14.29.08.173,-41.3,10.3,0,9.0,,64041.0,15.62,0.21,0.81,0.5,0.6,0.2,-10.5,35.88,,,,,,,,,,
14.29.08.186,-29.8,7.4,0,9.0,,67411.6,14.83,0.21,0.82,0.53,1.0,-2.6,-9.8,35.88,,,,,,,,,,
14.29.08.194,-16.4,4.1,0,9.0,,64200.2,15.58,0.22,0.82,0.52,-1.8,1.5,-6.1,35.88,,,,,,,,,,
14.29.08.206,-43.6,10.9,0,9.0,,64725.6,15.45,0.24,0.86,0.53,-4.8,0.1,-4.2,35.88,,,,,,,,,,
14.29.08.218,-56.3,14.1,0,9.0,,62125.7,16.1,0.22,0.79,0.5,-6.1,2.6,-5.3,35.88,,,,,,,,,,
14.29.08.226,-39.7,9.9,0,9.0,,65865.1,15.18,0.22,0.82,0.55,-0.6,5.7,-5.4,35.88,,,,,,,,,,
14.29.08.239,-33.7,8.4,0,9.0,,65690.4,15.22,0.21,0.81,0.51,-2.5,5.0,-4.8,35.88,,,,,,,,,,
14.29.08.251,-80.0,20.0,0,9.0,,63656.5,15.71,0.24,0.82,0.55,-2.4,5.3,-5.0,35.88,,,,,,,,,,
14.29.08.263,-113.1,28.3,0,9.0,,63875.0,15.66,0.23,0.81,0.51,-0.3,7.3,-2.0,35.88,,,,,,,,,,
14.29.08.271,-76.1,19.0,0,9.0,,63238.1,15.81,0.24,0.83,0.53,0.1,9.2,-0.3,35.88,117.2,,,,,,,,,
14.29.08.284,-89.3,22.3,0,9.0,,67732.1,14.76,0.24,0.81,0.51,0.6,14.5,0.7,35.88,,,,,,,,,,
14.29.08.296,-96.3,24.1,0,9.0,,68182.5,14.67,0.23,0.81,0.52,3.1,19.8,1.4,35.88,,,,,,,,,,
14.29.08.304,-107.0,26.8,0,9.0,,66200.4,15.11,0.22,0.81,0.54,8.4,20.9,3.0,35.88,,,,,,,,,,
14.29.08.316,-128.6,32.2,0,9.0,,66421.1,15.06,0.23,0.78,0.53,10.4,27.0,3.5,35.88,,,,,,,,,,
14.29.08.329,-112.0,28.0,0,9.0,,64501.2,15.5,0.21,0.8,0.55,10.7,27.1,4.7,35.88,,,,,,,,,,
14.29.08.337,-140.0,35.0,0,9.0,,65026.5,15.38,0.21,0.8,0.55,17.1,26.7,5.9,35.88,,,,,,,,,,
14.29.08.350,-160.0,40.0,0,9.0,,67553.1,14.8,0.2,0.81,0.55,13.7,28.5,6.7,35.88,,,,,,,,,,
14.29.08.362,-182.9,45.7,0,9.0,,60983.3,16.4,0.21,0.82,0.53,16.9,30.8,5.1,35.88,,,,,,,,,,
14.29.08.374,-182.4,45.6,0,9.0,,63431.9,15.76,0.21,0.82,0.49,19.3,29.6,4.3,35.88,,,,,,,,,,
14.29.08.382,14.2,3.6,1,10.0,117.2,63696.5,15.7,0.2,0.85,0.49,17.6,27.0,4.6,35.88,,,,,,,,,,
14.29.08.394,90.8,22.7,0,10.0,,64056.6,15.61,0.2,0.86,0.49,15.6,28.2,5.4,35.88,,,,,,,,,,
14.29.08.407,204.4,51.1,0,10.0,,66576.3,15.02,0.18,0.86,0.48,11.8,30.0,6.2,35.88,,,,,,,,,,
14.29.08.415,250.8,62.7,0,10.0,,65674.3,15.23,0.17,0.85,0.49,6.1,28.4,9.5,35.88,,,,,,,,,,
14.29.08.427,295.2,73.8,0,10.0,,65748.5,15.21,0.15,0.85,0.5,-2.0,28.5,13.7,35.88,,,,,,,,,,
14.29.08.439,416.1,104.0,0,10.0,,66403.4,15.06,0.15,0.83,0.5,-9.6,24.9,18.6,35.88,,,,,,,,,,
14.29.08.448,358.6,89.6,0,10.0,,65858.1,15.18,0.16,0.84,0.51,-16.2,19.1,24.9,35.88,,,,,,,,,,
14.29.08.460,390.8,97.7,0,10.0,,62787.3,15.93,0.18,0.83,0.5,-16.8,14.2,30.1,35.88,,,,,,,,,,
14.29.08.472,399.7,99.9,0,10.0,,65793.3,15.2,0.2,0.86,0.5,-15.6,8.6,34.1,35.88,,,,,,,,,,
14.29.08.484,406.8,101.7,0,10.0,,61398.3,16.29,0.24,0.84,0.51,-17.8,-1.8,38.7,35.88,,,,,,,,,,
14.29.08.493,419.7,104.9,0,10.0,,65471.5,15.27,0.25,0.81,0.53,-12.1,2.0,37.5,35.88,,,,,,,,,,
14.29.08.505,316.9,79.2,0,10.0,,65132.7,15.35,0.26,0.79,0.56,-8.5,13.5,34.0,35.88,,,,,,,,,,
14.29.08.517,275.6,68.9,0,10.0,,63695.5,15.7,0.26,0.76,0.54,-5.3,19.6,28.0,35.88,,,,,,,,,,
14.29.08.525,288.9,72.2,0,10.0,,65010.8,15.38,0.28,0.77,0.58,-6.4,16.7,25.7,35.88,,,,,,,,,,
14.29.08.538,167.4,41.8,0,10.0,,61054.3,16.38,0.26,0.78,0.56,0.1,14.0,20.6,35.88,,,,,,,,,,
14.29.08.550,92.5,23.1,0,10.0,,67343.2,14.85,0.23,0.76,0.53,2.2,18.2,17.3,35.88,,,,,,,,,,
14.29.08.562,16.3,4.1,0,10.0,,65070.3,15.37,0.24,0.77,0.56,4.3,15.3,14.8,35.88,,,,,,,,,,
14.29.08.570,1.0,0.2,0,10.0,,67193.2,14.88,0.22,0.77,0.57,8.7,22.8,13.5,35.88,,,,,,,,,,
14.29.08.583,56.7,14.2,0,10.0,,60165.2,16.62,0.23,0.77,0.55,8.3,16.2,12.7,35.88,,,,,,,,,,
14.29.08.595,81.4,20.4,0,10.0,,62511.9,16.0,0.22,0.76,0.58,1.8,13.1,15.6,35.88,,,,,,,,,,
14.29.08.603,81.4,20.4,0,10.0,,65236.4,15.33,0.22,0.79,0.55,21.4,11.5,17.5,35.88,,,,,,,,,,
14.29.08.616,49.0,12.2,0,10.0,,65063.8,15.37,0.24,0.76,0.54,18.4,19.0,12.1,35.88,,,,,,,,,,
14.29.08.628,80.2,20.0,0,10.0,,60516.7,16.52,0.23,0.77,0.53,19.7,20.8,8.2,35.88,,,,,,,,,,
14.29.08.636,83.3,20.8,0,10.0,,64073.1,15.61,0.25,0.84,0.54,19.0,13.8,13.5,35.88,,,,,,,,,,
14.29.08.648,31.1,7.8,0,10.0,,63060.7,15.86,0.25,0.82,0.51,21.1,15.2,15.2,35.88,,,,,,,,,,
14.29.08.661,24.8,6.2,0,10.0,,66827.5,14.96,0.24,0.79,0.47,18.1,18.0,11.3,35.88,,,,,,,,,,
14.29.08.669,3.1,0.8,0,10.0,,67454.6,14.82,0.24,0.81,0.49,12.0,9.5,14.3,35.88,,,,,,,,,,
14.29.08.681,-33.5,8.4,0,10.0,,68624.1,14.57,0.24,0.84,0.51,10.8,3.9,19.5,35.88,,,,,,,,,,
14.29.08.693,-17.6,4.4,0,10.0,,64310.3,15.55,0.26,0.81,0.5,6.6,4.2,19.7,35.88,,,,,,,,,,
14.29.08.702,-26.4,6.6,0,10.0,,64541.1,15.49,0.25,0.78,0.5,5.8,2.6,14.0,35.88,,,,,,,,,,
14.29.08.714,-46.3,11.6,0,10.0,,62099.0,16.1,0.27,0.79,0.51,11.1,-0.8,10.9,35.88,,,,,,,,,,
14.29.08.726,-44.9,11.2,0,10.0,,69699.0,14.35,0.28,0.79,0.53,15.6,1.2,8.7,35.88,,,,,,,,,,
14.29.08.734,-89.2,22.3,0,10.0,,68099.7,14.68,0.28,0.77,0.51,15.9,2.7,2.2,35.88,,,,,,,,,,
14.29.08.747,-68.0,17.0,0,10.0,,62559.4,15.98,0.28,0.8,0.52,18.9,4.6,-1.8,35.88,,,,,,,,,,
14.29.08.759,-58.0,14.5,0,10.0,,66496.0,15.04,0.27,0.81,0.53,23.6,11.0,-1.6,35.88,,,,,,,,,,
14.29.08.767,-64.5,16.1,0,10.0,,69430.0,14.4,0.26,0.81,0.51,15.6,10.5,-4.0,35.88,,,,,,,,,,
14.29.08.779,-84.7,21.2,0,10.0,,62305.8,16.05,0.23,0.8,0.49,13.9,11.4,-4.0,35.88,,,,,,,,,,
14.29.08.792,-92.2,23.0,0,10.0,,62558.0,15.99,0.22,0.78,0.52,13.2,13.3,-2.7,35.88,,,,,,,,,,
14.29.08.804,-73.5,18.4,0,10.0,,65169.3,15.34,0.22,0.82,0.52,0.7,-1.6,-6.0,35.88,,,,,,,,,,
14.29.08.812,-99.7,24.9,0,10.0,,64661.7,15.47,0.24,0.78,0.53,2.3,1.2,-9.0,35.88,,,,,,,,,,
14.29.08.824,-99.7,24.9,0,10.0,,65300.7,15.31,0.22,0.79,0.51,4.1,0.2,-15.0,35.88,,,,,,,,,,
14.29.08.833,-126.1,31.5,0,10.0,,68732.1,14.55,0.26,0.83,0.52,-0.5,-4.6,-19.8,35.88,,,,,,,,,,
14.29.08.845,-133.0,33.2,0,10.0,,65188.4,15.34,0.27,0.86,0.52,12.6,-1.6,-21.8,35.88,,,,,,,,,,
14.29.08.858,-121.2,30.3,0,10.0,,64063.6,15.61,0.29,0.87,0.45,3.1,-3.8,-28.8,35.88,,,,,,,,,,
14.29.08.898,22.0,5.5,1,11.0,118.9,65034.9,15.38,0.27,0.85,0.48,0.1,4.6,-21.1,35.81,,,,,,,,,,
14.29.08.906,96.7,24.2,0,11.0,,64913.8,15.41,0.26,0.84,0.46,4.3,-1.2,-17.3,35.81,,,,,,,,,,
14.29.08.919,156.5,39.1,0,11.0,,64826.6,15.43,0.28,0.83,0.46,3.0,1.2,-14.0,35.81,,,,,,,,,,
14.29.08.931,306.3,76.6,0,11.0,,63679.6,15.7,0.23,0.86,0.54,20.7,5.8,-3.5,35.81,,,,,,,,,,
14.29.08.939,301.3,75.3,0,11.0,,63878.5,15.65,0.22,0.81,0.42,-0.1,-10.6,-10.5,35.81,,,,,,,,,,
14.29.08.951,361.8,90.4,0,11.0,,63943.4,15.64,0.23,0.79,0.52,6.6,-13.6,-9.2,35.81,,,,,,,,,,
14.29.08.964,421.6,105.4,0,11.0,,63887.8,15.65,0.21,0.81,0.52,6.3,-13.1,-11.1,35.81,,,,,,,,,,
14.29.08.972,429.5,107.4,0,11.0,,66492.7,15.04,0.21,0.81,0.54,11.3,-11.3,-20.1,35.81,,,,,,,,,,
14.29.08.984,386.6,96.6,0,11.0,,63111.1,15.85,0.22,0.82,0.51,12.5,-7.8,-23.8,35.81,,,,,,,,,,
14.29.08.997,366.1,91.5,0,11.0,,63331.5,15.79,0.23,0.84,0.5,10.0,-3.8,-29.1,35.81,,,,,,,,,,
14.29.09.009,375.9,94.0,0,11.0,,66685.2,15.0,0.23,0.88,0.46,7.4,1.9,-32.1,35.81,,,,,,,,,,
14.29.09.017,363.5,90.9,0,11.0,,64469.3,15.51,0.24,0.87,0.43,-2.4,10.6,-35.1,35.81,,,,,,,,,,
14.29.09.029,272.2,68.0,0,11.0,,63307.8,15.8,0.3,0.91,0.44,-9.4,19.6,-34.4,35.81,,,,,,,,,,
14.29.09.042,181.5,45.4,0,11.0,,66139.3,15.12,0.31,0.94,0.44,-5.7,33.1,-38.5,35.81,,,,,,,,,,
14.29.09.050,157.1,39.3,0,11.0,,71835.8,13.92,0.28,0.87,0.47,-15.1,50.5,-44.8,35.81,,,,,,,,,,
14.29.09.062,71.4,17.8,0,11.0,,66203.6,15.1,0.27,0.84,0.5,-3.0,62.5,-48.9,35.81,,,,,,,,,,
14.29.09.074,2.5,0.6,0,11.0,,64326.8,15.55,0.16,0.89,0.43,-3.4,69.6,-51.4,35.81,,,,,,,,,,
14.29.09.087,67.4,16.8,0,11.0,,66712.0,14.99,0.21,0.89,0.48,-12.2,72.6,-50.0,35.81,,,,,,,,,,
14.29.09.095,14.7,3.7,0,11.0,,68281.3,14.65,0.14,0.86,0.5,-14.0,70.9,-55.9,35.81,,,,,,,,,,
14.29.09.107,55.0,13.8,0,11.0,,61785.7,16.18,0.13,0.83,0.53,-19.8,78.1,-58.3,35.81,,,,,,,,,,
14.29.09.119,69.7,17.4,0,11.0,,66180.4,15.11,0.1,0.84,0.53,-17.3,87.2,-64.2,35.81,,,,,,,,,,
14.29.09.128,58.9,14.7,0,11.0,,65742.5,15.21,0.09,0.85,0.54,-19.6,93.1,-67.5,35.81,,,,,,,,,,
14.29.09.140,65.6,16.4,0,11.0,,66880.0,14.95,0.07,0.83,0.53,-18.2,100.5,-73.7,35.81,,,,,,,,,,
14.29.09.152,15.8,4.0,0,11.0,,61738.1,16.2,0.05,0.83,0.53,-12.1,101.5,-79.8,35.81,,,,,,,,,,
14.29.09.165,21.9,5.5,0,11.0,,63425.1,15.77,0.03,0.83,0.55,-5.7,103.2,-82.1,35.81,,,,,,,,,,
14.29.09.173,23.6,5.9,0,11.0,,64847.1,15.42,-0.01,0.82,0.54,-3.0,103.3,-82.1,35.81,,,,,,,,,,
14.29.09.185,-0.8,0.2,0,11.0,,66064.1,15.14,-0.04,0.78,0.54,-0.7,108.1,-84.8,35.81,,,,,,,,,,
14.29.09.197,5.0,1.2,0,11.0,,62798.9,15.92,-0.07,0.81,0.54,-3.1,106.7,-85.2,35.81,,,,,,,,,,
14.29.09.206,-18.5,4.6,0,11.0,,66264.1,15.09,-0.09,0.83,0.53,-7.3,104.8,-89.4,35.81,,,,,,,,,,
14.29.09.218,-55.3,13.8,0,11.0,,64329.1,15.55,-0.11,0.83,0.53,-12.6,104.7,-94.8,35.81,,,,,,,,,,
14.29.09.230,-42.7,10.7,0,11.0,,62591.6,15.98,-0.12,0.85,0.52,-14.5,112.3,-98.9,35.81,,,,,,,,,,
14.29.09.242,-54.9,13.7,0,11.0,,68323.3,14.64,-0.13,0.84,0.5,-14.3,126.1,-102.2,35.81,,,,,,,,,,
14.29.09.251,-24.5,6.1,0,11.0,,65450.3,15.28,-0.15,0.89,0.49,-17.6,123.8,-102.6,35.81,,,,,,,,,,
14.29.09.263,-51.2,12.8,0,11.0,,66154.8,15.12,-0.2,0.84,0.43,-14.0,121.5,-105.0,35.81,,,,,,,,,,
14.29.09.275,-74.9,18.7,0,11.0,,67787.0,14.75,-0.27,0.85,0.44,-11.6,123.0,-103.8,35.81,,,,,,,,,,
14.29.09.287,-53.7,13.4,0,11.0,,64923.0,15.4,-0.3,0.83,0.44,-10.1,118.7,-98.0,35.81,,,,,,,,,,
14.29.09.300,-99.8,25.0,0,11.0,,64765.2,15.44,-0.32,0.82,0.45,-3.5,107.4,-101.6,35.81,,,,,,,,,,
14.29.09.308,-108.8,27.2,0,11.0,,66145.5,15.12,-0.32,0.85,0.43,-4.2,95.8,-105.9,35.81,,,,,,,,,,
14.29.09.320,-107.2,26.8,0,11.0,,64839.3,15.42,-0.35,0.83,0.44,0.4,95.7,-111.3,35.81,,,,,,,,,,
14.29.09.332,-129.8,32.4,0,11.0,,64988.6,15.39,-0.4,0.81,0.43,-3.8,100.1,-111.3,35.81,,,,,,,,,,
14.29.09.341,-79.7,19.9,0,11.0,,66653.2,15.0,-0.46,0.8,0.38,6.9,105.8,-112.2,35.81,,,,,,,,,,
14.29.09.353,-144.2,36.0,0,11.0,,65361.6,15.3,-0.51,0.82,0.36,-3.0,108.2,-109.2,35.81,,,,,,,,,,
14.29.09.365,-145.9,36.5,0,11.0,,63750.4,15.69,-0.5,0.84,0.39,-8.7,93.2,-110.8,35.81,,,,,,,,,,
14.29.09.378,-169.2,42.3,0,11.0,,62388.1,16.03,-0.49,0.82,0.46,-24.3,80.3,-111.0,35.81,,,,,,,,,,
14.29.09.386,-144.6,36.2,0,11.0,,62015.9,16.12,-0.54,0.73,0.47,-16.0,76.4,-119.9,35.81,,,,,,,,,,
14.29.09.398,-156.3,39.1,0,11.0,,64740.7,15.45,-0.55,0.72,0.48,-14.6,87.0,-114.0,35.81,,,,,,,,,,
14.29.09.410,43.8,11.0,1,12.0,118.5,63991.0,15.63,-0.63,0.67,0.41,-13.8,85.8,-107.4,35.81,,,,,,,,,,
14.29.09.423,157.6,39.4,0,12.0,,61031.3,16.39,-0.61,0.59,0.43,-9.9,81.5,-101.1,35.81,,,,,,,,,,
14.29.09.431,199.1,49.8,0,12.0,,64587.6,15.48,-0.6,0.49,0.43,-1.7,76.9,-94.8,35.81,,,,,,,,,,
14.29.09.443,291.7,72.9,0,12.0,,67747.3,14.76,-0.59,0.48,0.42,12.6,66.9,-88.3,35.81,,,,,,,,,,
14.29.09.455,322.7,80.7,0,12.0,,64021.0,15.62,-0.53,0.48,0.41,12.4,50.4,-75.0,35.81,,,,,,,,,,
14.29.09.464,320.5,80.1,0,12.0,,64544.2,15.49,-0.62,0.6,0.41,13.0,41.9,-55.7,35.81,,,,,,,,,,
14.29.09.476,394.3,98.6,0,12.0,,64243.2,15.57,-0.64,0.64,0.38,4.4,35.8,-42.6,35.81,,,,,,,,,,
14.29.09.488,395.1,98.8,0,12.0,,68881.9,14.52,-0.64,0.55,0.36,-2.8,41.6,-38.4,35.81,,,,,,,,,,
14.29.09.500,395.7,98.9,0,12.0,,65209.3,15.34,-0.64,0.5,0.36,-3.1,46.8,-35.6,35.81,,,,,,,,,,
14.29.09.509,346.3,86.6,0,12.0,,63710.1,15.7,-0.66,0.5,0.36,8.3,41.4,-26.2,35.81,,,,,,,,,,
14.29.09.521,357.0,89.2,0,12.0,,65473.4,15.27,-0.68,0.57,0.39,13.4,30.1,-14.8,35.81,,,,,,,,,,
14.29.09.533,358.8,89.7,0,12.0,,64330.7,15.54,-0.7,0.6,0.4,21.2,24.0,-5.1,35.81,,,,,,,,,,
14.29.09.542,271.0,67.8,0,12.0,,60272.0,16.59,-0.68,0.64,0.45,25.4,24.9,-2.8,35.81,,,,,,,,,,
14.29.09.554,191.9,48.0,0,12.0,,63842.9,15.66,-0.69,0.65,0.46,30.8,27.1,-4.8,35.81,,,,,,,,,,
14.29.09.562,152.5,38.1,0,12.0,,64272.6,15.56,-0.68,0.65,0.44,35.3,24.8,-6.5,35.81,,,,,,,,,,
14.29.09.574,64.5,16.1,0,12.0,,62153.4,16.09,-0.64,0.66,0.43,33.7,14.3,-5.4,35.81,,,,,,,,,,
14.29.09.587,1.9,0.5,0,12.0,,64132.0,15.59,-0.63,0.64,0.43,33.0,9.8,-2.0,35.81,,,,,,,,,,
14.29.09.595,4.5,1.1,0,12.0,,63175.1,15.83,-0.64,0.68,0.45,28.4,10.5,1.5,35.81,,,,,,,,,,
14.29.09.607,46.4,11.6,0,12.0,,62578.4,15.98,-0.6,0.65,0.45,20.9,9.3,-1.8,35.81,,,,,,,,,,
14.29.09.615,90.9,22.7,0,12.0,,64361.8,15.54,-0.61,0.64,0.46,18.0,12.0,-4.8,35.81,,,,,,,,,,
14.29.09.628,65.0,16.2,0,12.0,,65350.3,15.3,-0.63,0.68,0.45,14.6,11.8,-2.3,35.81,,,,,,,,,,
14.29.09.636,88.7,22.2,0,12.0,,67017.3,14.92,-0.64,0.7,0.45,7.6,7.2,0.4,35.81,,,,,,,,,,
14.29.09.648,47.5,11.9,0,12.0,,64058.5,15.61,-0.66,0.65,0.43,4.9,9.3,-2.4,35.81,,,,,,,,,,
14.29.09.660,28.0,7.0,0,12.0,,67049.0,14.91,-0.67,0.64,0.39,4.3,16.1,-4.0,35.81,,,,,,,,,,
14.29.09.697,-37.5,9.4,0,12.0,,63713.9,15.7,-0.68,0.64,0.38,2.2,17.6,-5.8,35.81,,,,,,,,,,
14.29.09.705,-9.1,2.3,0,12.0,,58292.6,17.15,-0.68,0.63,0.33,5.4,10.5,-5.5,35.81,,,,,,,,,,
14.29.09.718,-49.3,12.3,0,12.0,,67711.7,14.77,-0.68,0.62,0.32,4.3,5.1,-2.1,35.81,,,,,,,,,,
14.29.09.726,-28.3,7.1,0,12.0,,67378.5,14.84,-0.68,0.6,0.31,5.9,1.5,-1.9,35.81,,,,,,,,,,
14.29.09.738,-49.1,12.3,0,12.0,,61946.6,16.14,-0.68,0.68,0.29,7.1,5.9,0.1,35.81,,,,,,,,,,
14.29.09.746,-50.3,12.6,0,12.0,,66440.3,15.05,-0.65,0.66,0.28,6.5,6.5,-3.6,35.81,,,,,,,,,,
14.29.09.759,-55.7,13.9,0,12.0,,65799.9,15.2,-0.65,0.65,0.28,8.0,9.1,-4.6,35.81,,,,,,,,,,
14.29.09.771,-41.1,10.3,0,12.0,,64082.8,15.6,-0.66,0.62,0.26,10.5,12.4,-0.7,35.81,,,,,,,,,,
14.29.09.779,-96.2,24.0,0,12.0,,66667.8,15.0,-0.68,0.63,0.23,13.1,9.9,3.6,35.81,,,,,,,,,,
14.29.09.791,-81.6,20.4,0,12.0,,64234.7,15.57,-0.69,0.6,0.24,14.5,13.8,8.8,35.81,,,,,,,,,,
14.29.09.800,-55.3,13.8,0,12.0,,65926.8,15.17,-0.7,0.6,0.22,18.1,15.3,11.8,35.81,,,,,,,,,,
14.29.09.812,,,0,12.0,,65007.7,15.38,,,,,,,35.81,,,,,,,,,,
14.29.09.828,,,0,12.0,,66380.1,15.06,,,,,,,35.81,,35.83,,,,,,,,
14.29.09.841,-119.9,30.0,0,12.0,,63037.0,15.86,-0.67,0.67,0.32,19.2,1.3,28.9,35.81,,,,,,,,,,
14.29.09.849,-144.1,36.0,0,12.0,,66960.4,14.93,-0.64,0.68,0.36,16.1,0.7,30.5,35.81,,,,,,,,,,
14.29.09.861,-134.2,33.6,0,12.0,,66142.8,15.12,-0.63,0.71,0.37,16.9,4.2,28.5,35.81,,,,,,,,,,
14.29.09.869,-166.7,41.7,0,12.0,,67478.9,14.82,-0.63,0.73,0.39,18.5,3.7,24.0,35.81,,,,,,,,,,
14.29.09.882,-146.5,36.6,0,12.0,,64395.8,15.53,-0.6,0.74,0.43,12.4,3.8,21.1,35.81,,,,,,,,,,
14.29.09.894,-143.3,35.8,0,12.0,,67317.5,14.85,-0.57,0.72,0.43,8.9,9.8,15.7,35.81,,,,,,,,,,
14.29.09.902,-133.5,33.4,0,12.0,,64272.5,15.56,-0.59,0.72,0.42,4.7,16.9,11.0,35.81,,,,,,,,,,
14.29.09.914,28.5,7.1,1,13.0,118.4,63587.4,15.73,-0.58,0.75,0.41,-0.5,18.0,5.7,35.81,,,,,,,,,,
14.29.09.922,48.4,12.1,0,13.0,,62807.7,15.92,-0.57,0.75,0.43,-6.3,18.2,0.9,35.81,,,,,,,,,,
14.29.09.935,110.5,27.6,0,13.0,,65570.1,15.25,-0.56,0.76,0.42,-9.2,24.7,-4.8,35.81,,,,,,,,,,
14.29.09.947,220.1,55.0,0,13.0,,66152.2,15.12,-0.59,0.75,0.38,-12.1,29.4,-12.3,35.81,,,,,,,,,,
14.29.09.955,240.4,60.1,0,13.0,,58784.3,17.01,-0.62,0.72,0.33,-11.3,34.2,-19.0,35.81,,,,,,,,,,
14.29.09.968,317.9,79.5,0,13.0,,68456.4,14.61,-0.64,0.72,0.31,-8.7,37.7,-21.3,35.81,,,,,,,,,,
14.29.09.980,360.5,90.1,0,13.0,,65425.4,15.28,-0.67,0.67,0.29,-6.5,42.2,-21.8,35.81,,,,,,,,,,
14.29.09.988,414.6,103.6,0,13.0,,66265.2,15.09,-0.68,0.66,0.3,-7.1,40.3,-22.8,35.81,,,,,,,,,,
14.29.10.000,368.9,92.2,0,13.0,,62728.1,15.94,-0.66,0.65,0.28,-5.4,39.5,-21.6,35.81,,,,,,,,,,
14.29.10.009,374.4,93.6,0,13.0,,64974.5,15.39,-0.68,0.64,0.25,-1.7,35.1,-21.1,35.81,,,,,,,,,,
14.29.10.021,385.2,96.3,0,13.0,,65605.0,15.24,-0.69,0.63,0.25,-0.5,28.4,-17.3,35.81,,,,,,,,,,
14.29.10.033,272.4,68.1,0,13.0,,62652.3,15.96,-0.68,0.67,0.27,-1.1,22.2,-9.7,35.81,,,,,,,,,,
14.29.10.041,280.4,70.1,0,13.0,,69878.2,14.31,-0.68,0.67,0.25,-1.2,20.3,-6.7,35.81,,,,,,,,,,
14.29.10.055,273.4,68.4,0,13.0,,63077.8,15.85,-0.7,0.66,0.27,-0.7,18.5,-7.0,35.81,,,,,,,,,,
14.29.10.062,197.9,49.5,0,13.0,,64887.6,15.41,-0.69,0.65,0.29,0.0,16.3,-5.8,35.81,,,,,,,,,,
14.29.10.074,155.0,38.8,0,13.0,,66565.0,15.02,-0.69,0.65,0.28,2.3,14.2,-2.6,35.81,,,,,,,,,,
14.29.10.082,86.8,21.7,0,13.0,,64277.8,15.56,-0.71,0.64,0.28,3.6,9.7,0.2,35.81,,,,,,,,,,
14.29.10.094,21.9,5.5,0,13.0,,62630.4,15.97,-0.77,0.77,0.18,-21.3,22.7,11.0,35.81,,,,,,,,,,
14.29.10.107,51.1,12.8,0,13.0,,63869.5,15.66,-0.63,0.61,0.27,-17.4,5.0,4.8,35.81,,,,,,,,,,
14.29.10.115,47.1,11.8,0,13.0,,63519.8,15.74,-0.68,0.62,0.26,-18.5,18.0,1.2,35.81,,,,,,,,,,
14.29.10.127,86.7,21.7,0,13.0,,63544.2,15.74,-0.7,0.64,0.31,-15.5,13.3,-2.9,35.81,,,,,,,,,,
14.29.10.139,55.2,13.8,0,13.0,,64843.3,15.42,-0.72,0.67,0.36,-7.0,7.7,2.5,35.81,,,,,,,,,,
14.29.10.152,45.7,11.4,0,13.0,,66026.9,15.15,-0.71,0.64,0.33,-1.5,6.2,6.5,35.81,,,,,,,,,,
14.29.10.160,96.4,24.1,0,13.0,,65677.8,15.23,-0.68,0.64,0.31,1.7,2.5,4.0,35.81,,,,,,,,,,
14.29.10.172,26.9,6.7,0,13.0,,63039.4,15.86,-0.7,0.67,0.31,2.6,4.5,6.3,35.81,,,,,,,,,,
14.29.10.185,12.4,3.1,0,13.0,,65420.7,15.29,-0.7,0.69,0.28,2.5,-0.6,8.9,35.81,,,,,,,,,,
14.29.10.197,3.8,1.0,0,13.0,,63025.3,15.87,-0.66,0.75,0.27,-3.7,-0.8,11.4,35.81,,,,,,,,,,
14.29.10.205,0.1,0.0,0,13.0,,67324.2,14.85,-0.7,0.78,0.27,-4.2,2.7,7.7,35.81,,,,,,,,,,
14.29.10.218,-30.5,7.6,0,13.0,,66089.1,15.13,-0.68,0.72,0.26,-3.7,0.6,4.0,35.81,,,,,,,,,,
14.29.10.226,-24.3,6.1,0,13.0,,65920.5,15.17,-0.69,0.67,0.25,-6.9,-0.8,5.9,35.81,,,,,,,,,,
14.29.10.238,-42.9,10.7,0,13.0,,62660.3,15.96,-0.7,0.65,0.28,-5.1,-5.3,7.1,35.81,,,,,,,,,,
14.29.10.246,-11.2,2.8,0,13.0,,66728.1,14.99,-0.72,0.65,0.31,-4.1,-6.9,8.5,35.81,,,,,,,,,,
14.29.10.258,-67.6,16.9,0,13.0,,66929.0,14.94,-0.72,0.65,0.34,-7.5,-9.1,7.3,35.81,,,,,,,,,,
14.29.10.267,-27.1,6.8,0,13.0,,63597.2,15.72,-0.69,0.65,0.34,-8.0,-10.4,4.8,35.81,,,,,,,,,,
14.29.10.279,-59.1,14.8,0,13.0,,63237.2,15.81,-0.7,0.64,0.32,-7.0,-10.3,5.3,35.81,,,,,,,,,,
14.29.10.287,-42.4,10.6,0,13.0,,64939.1,15.4,-0.7,0.67,0.33,-5.8,-15.6,7.5,35.81,,,,,,,,,,
14.29.10.300,-79.6,19.9,0,13.0,,63810.0,15.67,-0.74,0.66,0.36,-3.6,-18.3,10.8,35.81,,,,,,,,,,
14.29.10.308,-42.2,10.6,0,13.0,,65174.1,15.34,-0.69,0.69,0.31,-2.4,-16.7,13.2,35.81,,,,,,,,,,
14.29.10.320,-109.7,27.4,0,13.0,,63832.1,15.67,-0.68,0.69,0.32,-1.8,-18.7,12.1,35.81,,,,,,,,,,
14.29.10.328,-118.3,29.6,0,13.0,,64840.1,15.42,-0.67,0.7,0.33,-4.1,-20.9,12.8,35.81,,,,,,,,,,
14.29.10.340,-93.1,23.3,0,13.0,,61809.6,16.18,-0.71,0.68,0.29,4.8,-20.2,13.4,35.81,,,,,,,,,,
14.29.10.348,-128.0,32.0,0,13.0,,64423.7,15.52,-0.66,0.67,0.27,9.3,-25.7,16.4,35.81,,,,,,,,,,
14.29.10.361,-100.7,25.2,0,13.0,,63606.0,15.72,-0.68,0.68,0.29,16.5,-29.1,20.8,35.81,,,,,,,,,,
14.29.10.369,-110.7,27.7,0,13.0,,64131.9,15.59,-0.69,0.73,0.29,24.1,-36.0,28.2,35.81,,,,,,,,,,
14.29.10.381,-167.8,42.0,0,13.0,,65731.5,15.21,-0.71,0.76,0.29,34.3,-42.8,31.9,35.81,,,,,,,,,,
14.29.10.394,-127.9,32.0,0,13.0,,63244.6,15.81,-0.67,0.8,0.3,45.9,-37.9,30.3,35.81,,,,,,,,,,
14.29.10.402,-170.1,42.5,0,13.0,,69709.4,14.35,-0.7,0.74,0.33,65.3,-34.2,24.9,35.81,,,,,,,,,,
14.29.10.414,-133.5,33.4,0,13.0,,68521.3,14.59,-0.69,0.81,0.35,75.7,-34.0,31.6,35.81,,,,,,,,,,
14.29.10.422,-182.2,45.6,0,13.0,,68241.7,14.65,-0.7,0.78,0.33,89.7,-42.6,34.0,35.81,,,,,,,,,,
14.29.10.435,103.4,25.8,1,14.0,115.1,61599.1,16.23,-0.66,0.78,0.31,102.6,-48.5,34.6,35.81,,,,,,,,,,
14.29.10.443,142.7,35.7,0,14.0,,65331.6,15.31,-0.63,0.79,0.27,120.1,-53.3,33.0,35.81,,,,,,,,,,
14.29.10.455,201.2,50.3,0,14.0,,61025.5,16.39,-0.59,0.79,0.27,141.7,-65.5,34.5,35.81,,,,,,,,,,
14.29.10.463,251.4,62.8,0,14.0,,61719.6,16.2,-0.59,0.81,0.24,168.8,-78.4,33.6,35.81,,,,,,,,,,
14.29.10.504,425.9,106.5,0,14.0,,61480.1,16.27,-0.54,0.83,0.25,181.6,-89.3,33.5,35.88,,,,,,,,,,
14.29.10.512,398.9,99.7,0,14.0,,66106.8,15.13,-0.54,0.81,0.21,189.2,-112.5,10.1,35.88,,,,,,,,,,
14.29.10.525,417.5,104.4,0,14.0,,62836.7,15.91,-0.52,0.79,0.23,188.8,-118.2,6.7,35.88,,,,,,,,,,
14.29.10.533,358.3,89.6,0,14.0,,62186.0,16.08,-0.52,0.82,0.22,187.6,-119.1,6.6,35.88,,,,,,,,,,
14.29.10.546,333.1,83.3,0,14.0,,63330.2,15.79,-0.49,0.75,0.23,176.8,-121.6,1.5,35.88,,,,,,,,,,
14.29.10.553,330.5,82.6,0,14.0,,65822.7,15.19,-0.41,0.77,0.19,158.3,-125.2,-6.6,35.88,,,,,,,,,,
14.29.10.566,275.2,68.8,0,14.0,,64066.3,15.61,-0.5,0.86,0.12,160.8,-117.1,-14.4,35.88,,,,,,,,,,
14.29.10.578,179.0,44.8,0,14.0,,67390.0,14.84,-0.44,0.74,0.14,157.4,-119.6,-25.4,35.88,,,,,,,,,,
14.29.10.586,117.9,29.5,0,14.0,,66278.2,15.09,-0.33,0.57,0.07,152.5,-111.5,-49.4,35.88,,,,,,,,,,
14.29.10.598,21.7,5.4,0,14.0,,65735.3,15.21,-0.32,0.66,-0.13,187.8,-130.6,-75.2,35.88,,,,,,,,,,
14.29.10.611,6.7,1.7,0,14.0,,68521.4,14.59,-0.49,0.7,-0.3,225.1,-162.0,-85.9,35.88,,,,,,,,,,
14.29.10.619,61.8,15.4,0,14.0,,66237.6,15.1,-0.77,0.85,0.35,185.2,-222.0,-103.2,35.88,,,,,,,,,,
14.29.10.631,78.2,19.6,0,14.0,,62219.4,16.07,-0.66,0.74,0.28,201.4,-107.0,-94.1,35.88,,,,,,,,,,
14.29.10.643,59.3,14.8,0,14.0,,64348.5,15.54,-0.62,0.76,-0.06,211.9,-77.0,-95.5,35.88,,,,,,,,,,
14.29.10.652,44.1,11.0,0,14.0,,67395.5,14.84,-0.42,1.02,-0.02,250.1,-82.1,-79.5,35.88,,,,,,,,,,
14.29.10.664,65.3,16.3,0,14.0,,68427.3,14.61,-0.43,0.94,0.04,238.8,-102.6,-77.1,35.88,,,,,,,,,,
14.29.10.676,61.8,15.4,0,14.0,,62620.6,15.97,-0.64,1.06,0.28,180.5,-40.0,-66.3,35.88,,,,,,,,,,
14.29.10.684,45.2,11.3,0,14.0,,64949.5,15.4,-0.61,0.95,-0.17,250.1,-32.3,-79.0,35.88,,,,,,,,,,
14.29.10.697,0.1,0.0,0,14.0,,70066.8,14.27,-0.67,0.63,-0.27,250.1,-69.3,-100.0,35.88,,,,,,,,,,
14.29.10.709,-8.1,2.0,0,14.0,,60015.7,16.66,-0.76,0.49,-0.36,250.1,-42.4,-97.9,35.88,,,,,,,,,,
14.29.10.717,-12.3,3.1,0,14.0,,62313.9,16.05,-0.81,0.34,-0.29,250.1,31.5,-97.1,35.88,,,,,,,,,,
14.29.10.730,-15.8,4.0,0,14.0,,60436.0,16.55,-0.65,0.66,-0.13,250.1,24.9,-102.1,35.88,,,,,,,,,,
14.29.10.742,1.8,0.4,0,14.0,,66676.0,15.0,-0.59,0.54,-0.27,243.4,17.2,-67.3,35.88,,,,,,,,,,
14.29.10.750,-41.3,10.3,0,14.0,,61744.7,16.2,-0.67,0.59,-0.32,182.9,37.5,-50.8,35.88,,,,,,,,,,
14.29.10.762,-26.2,6.6,0,14.0,,64439.9,15.52,-0.7,0.44,-0.45,111.4,57.5,-49.3,35.88,,,,,,,,,,
14.29.10.775,-13.3,3.3,0,14.0,,68572.5,14.58,-0.68,0.48,-0.58,-35.6,32.0,-28.0,35.88,,,,,,,,,,
14.29.10.783,-47.1,11.8,0,14.0,,63987.9,15.63,-0.87,0.16,-0.33,76.6,52.0,-49.5,35.88,,,,,,,,,,
14.29.10.795,-70.4,17.6,0,14.0,,63388.4,15.78,-0.63,0.41,-0.65,54.8,83.2,-57.5,35.88,,,,,,,,,,
14.29.10.803,-64.8,16.2,0,14.0,,66036.9,15.14,-0.73,0.57,-0.38,39.4,88.0,-45.3,35.88,,,,,,,,,,
14.29.10.816,-63.7,15.9,0,14.0,,64941.9,15.4,-0.73,0.59,-0.61,37.0,56.2,-39.8,35.88,,,,,,,,,,
14.29.10.828,-91.9,23.0,0,14.0,,67045.8,14.92,-0.59,0.56,-0.27,26.5,64.3,-38.5,35.88,,,,,,,,,,
14.29.10.836,-87.8,22.0,0,14.0,,70269.4,14.23,-0.68,0.53,-0.56,46.0,60.5,-34.3,35.88,,,,,,,,,,
14.29.10.848,-93.1,23.3,0,14.0,,64462.5,15.51,-0.71,0.57,-0.7,34.0,77.0,-39.7,35.88,,,,,,,,,,
14.29.10.861,-125.7,31.4,0,14.0,,63185.6,15.83,-0.78,0.43,-0.39,61.0,56.1,-40.9,35.88,,,,,,,,,,
14.29.10.869,-119.2,29.8,0,14.0,,70858.8,14.11,-0.68,0.58,-0.42,94.7,43.4,-30.7,35.88,,,,,,,,,,
14.29.10.881,-135.7,33.9,0,14.0,,67383.0,14.84,-0.73,0.62,-0.4,74.6,58.2,-25.1,35.88,,,,,,,,,,
14.29.10.894,-152.7,38.2,0,14.0,,68457.3,14.61,-0.76,0.63,-0.53,68.5,60.9,-14.8,35.88,,,,,,,,,,
14.29.10.902,-134.6,33.6,0,14.0,,65683.9,15.22,-0.72,0.53,-0.57,63.6,53.7,-11.7,35.88,,,,,,,,,,
14.29.10.914,-139.6,34.9,0,14.0,,60893.1,16.42,-0.72,0.47,-0.6,63.3,42.7,-5.8,35.88,,,,,,,,,,
14.29.10.922,-170.4,42.6,0,14.0,,63362.1,15.78,-0.72,0.48,-0.57,65.6,36.8,-9.8,35.88,,,,,,,,,,
14.29.10.934,-163.9,41.0,0,14.0,,63661.3,15.71,-0.73,0.51,-0.59,62.2,23.7,5.5,35.88,,,,,,,,,,
14.29.10.947,95.7,23.9,1,15.0,121.4,68225.1,14.66,-0.77,0.56,-0.56,53.5,30.9,-1.0,35.88,,,,,,,,,,
14.29.10.955,135.5,33.9,0,15.0,,64383.3,15.53,-0.69,0.56,-0.6,35.1,27.9,-2.6,35.88,,,,,,,,,,
14.29.10.967,231.0,57.8,0,15.0,,65289.4,15.32,-0.67,0.55,-0.61,24.7,25.7,-7.5,35.88,,,,,,,,,,
14.29.10.975,254.7,63.7,0,15.0,,62401.2,16.03,-0.67,0.57,-0.57,10.6,24.0,-8.3,35.88,,,,,,,,,,
14.29.10.988,289.6,72.4,0,15.0,,66977.1,14.93,-0.67,0.6,-0.58,-8.2,22.5,-9.3,35.88,,,,,,,,,,
14.29.11.000,349.0,87.2,0,15.0,,67691.9,14.77,-0.65,0.54,-0.62,-23.2,23.5,-13.9,35.88,,,,,,,,,,
14.29.11.008,375.4,93.8,0,15.0,,64977.9,15.39,-0.63,0.48,-0.65,-29.1,24.8,-20.6,35.88,,,,,,,,,,
14.29.11.020,412.2,103.0,0,15.0,,64951.5,15.4,-0.62,0.47,-0.65,-27.5,24.8,-25.7,35.88,,,,,,,,,,
14.29.11.033,375.8,94.0,0,15.0,,65769.3,15.2,-0.66,0.36,-0.56,-8.8,26.0,-33.7,35.88,,,,,,,,,,
14.29.11.045,361.8,90.4,0,15.0,,65022.6,15.38,-0.7,0.41,-0.54,11.2,35.5,-35.7,35.88,,,,,,,,,,
14.29.11.057,345.4,86.4,0,15.0,,66799.6,14.97,-0.71,0.5,-0.52,18.4,34.6,-32.1,35.88,,,,,,,,,,
14.29.11.065,313.6,78.4,0,15.0,,65643.2,15.23,-0.75,0.55,-0.56,21.6,32.9,-20.2,35.88,,,,,,,,,,
14.29.11.078,266.9,66.7,0,15.0,,65371.5,15.3,-0.75,0.53,-0.57,20.5,27.5,-14.6,35.88,,,,,,,,,,
14.29.11.086,165.2,41.3,0,15.0,,64424.7,15.52,-0.76,0.49,-0.58,17.2,22.4,-11.5,35.88,,,,,,,,,,
14.29.11.098,102.3,25.6,0,15.0,,65293.8,15.32,-0.76,0.52,-0.58,7.4,19.4,-10.2,35.88,,,,,,,,,,
14.29.11.111,27.6,6.9,0,15.0,,64246.8,15.56,-0.78,0.54,-0.57,-3.5,14.5,-4.8,35.88,,,,,,,,,,
14.29.11.119,-26.7,6.7,0,15.0,,65520.7,15.26,-0.76,0.49,-0.57,-10.3,7.3,-0.4,35.88,,,,,,,,,,
14.29.11.131,32.3,8.1,0,15.0,,63808.1,15.67,-0.77,0.46,-0.55,-10.9,1.6,4.6,35.88,,,,,,,,,,
14.29.11.139,63.8,16.0,0,15.0,,63798.6,15.67,-0.76,0.47,-0.54,-5.9,-4.6,11.9,35.88,,,,,,,,,,
14.29.11.151,36.6,9.2,0,15.0,,65464.7,15.28,-0.79,0.46,-0.53,2.9,-9.6,22.6,35.88,,,,,,,,,,
14.29.11.164,92.5,23.1,0,15.0,,66515.6,15.03,-0.85,0.52,-0.46,-3.5,-13.9,17.6,35.88,,,,,,,,,,
14.29.11.172,65.3,16.3,0,15.0,,59663.2,16.76,-0.78,0.57,-0.5,1.4,-26.0,31.4,35.88,,,,,,,,,,
14.29.11.184,75.7,18.9,0,15.0,,63865.5,15.66,-0.8,0.56,-0.49,-3.1,-31.6,36.0,35.88,,,,,,,,,,
14.29.11.193,54.7,13.7,0,15.0,,63871.9,15.66,-0.76,0.6,-0.53,-6.3,-34.8,40.1,35.88,,,,,,,,,,
14.29.11.205,25.8,6.4,0,15.0,,65453.5,15.28,-0.76,0.57,-0.5,-7.9,-36.7,42.2,35.88,,,,,,,,,,
14.29.11.217,11.0,2.8,0,15.0,,65845.3,15.19,-0.75,0.52,-0.52,-5.2,-35.4,39.9,35.88,,,,,,,,,,
14.29.11.225,11.8,3.0,0,15.0,,69151.4,14.46,-0.76,0.56,-0.54,0.2,-32.7,41.9,35.88,,,,,,,,,,
14.29.11.238,-26.0,6.5,0,15.0,,63264.7,15.81,-0.76,0.54,-0.55,3.9,-33.3,40.7,35.88,,,,,,,,,,
14.29.11.246,-54.9,13.7,0,15.0,,68693.2,14.56,-0.76,0.44,-0.57,7.0,-30.3,34.4,35.88,,,,,,,,,,
14.29.11.258,-8.1,2.0,0,15.0,,60215.4,16.61,-0.75,0.63,-0.58,4.0,-36.0,44.8,35.88,,,,,,,,,,
14.29.11.270,-45.1,11.3,0,15.0,,61277.1,16.32,-0.85,0.56,-0.45,1.3,-38.1,39.2,35.88,,,,,,,,,,
14.29.11.307,-63.4,15.8,0,15.0,,62007.6,16.13,-0.8,0.46,-0.46,4.0,-47.3,39.7,35.88,,,,,,,,,,
14.29.11.315,-73.8,18.4,0,15.0,,67685.7,14.77,-0.83,0.42,-0.37,8.0,-69.7,54.2,35.88,,,,,,,,,,
14.29.11.328,-90.2,22.6,0,15.0,,65723.6,15.22,-0.81,0.47,-0.4,8.0,-74.3,51.4,35.88,,,,,,,,,,
14.29.11.340,-122.8,30.7,0,15.0,,67538.2,14.81,-0.84,0.43,-0.4,2.4,-80.5,57.0,35.88,,,,,,,,,,
14.29.11.352,-109.0,27.2,0,15.0,,68399.6,14.62,-0.81,0.48,-0.42,-4.8,-86.1,49.1,35.88,,,,,,,,,,
14.29.11.361,-104.2,26.0,0,15.0,,64511.6,15.5,-0.83,0.41,-0.39,-10.6,-95.9,52.3,35.88,,,,,,,,,,
14.29.11.373,-126.6,31.6,0,15.0,,64970.7,15.39,-0.77,0.41,-0.43,-15.5,-100.4,47.9,35.88,,,,,,,,,,
14.29.11.386,-130.8,32.7,0,15.0,,64744.4,15.45,-0.78,0.35,-0.41,-18.1,-105.9,45.3,35.88,,,,,,,,,,
14.29.11.394,-98.2,24.6,0,15.0,,65600.9,15.24,-0.76,0.31,-0.43,-18.0,-109.9,43.2,35.88,,,,,,,,,,
14.29.11.405,-125.3,31.3,0,15.0,,67188.7,14.88,-0.73,0.1,-0.39,-11.3,-117.1,44.4,35.88,,,,,,,,,,
14.29.11.418,-153.6,38.4,0,15.0,,64496.1,15.5,-0.74,0.23,-0.45,-6.9,-107.8,41.8,35.88,,,,,,,,,,
14.29.11.426,-147.2,36.8,0,15.0,,66741.5,14.98,-0.75,0.26,-0.44,-8.7,-116.5,40.8,35.88,,,,,,,,,,
14.29.11.438,-174.1,43.5,0,15.0,,65546.6,15.26,-0.73,0.29,-0.43,-14.8,-124.3,28.1,35.88,,,,,,,,,,
14.29.11.451,63.5,15.9,1,16.0,116.4,68032.3,14.7,-0.72,0.28,-0.43,-22.1,-123.2,23.2,35.88,,,,,,,,,,
14.29.11.459,96.6,24.2,0,16.0,,62462.7,16.01,-0.73,0.29,-0.43,-20.5,-124.8,25.2,35.88,,,,,,,,,,
14.29.11.471,189.2,47.3,0,16.0,,66168.3,15.11,-0.75,0.38,-0.42,-29.0,-127.5,19.0,35.88,,,,,,,,,,
14.29.11.483,273.1,68.3,0,16.0,,60559.5,16.51,-0.74,0.34,-0.4,-39.3,-132.4,7.4,35.88,,,,,,,,,,
14.29.11.492,316.8,79.2,0,16.0,,62835.8,15.91,-0.73,0.37,-0.42,-39.9,-131.3,7.0,35.88,,,,,,,,,,
14.29.11.504,429.3,107.3,0,16.0,,63418.4,15.77,-0.76,0.32,-0.39,-48.0,-140.7,-3.6,35.88,,,,,,,,,,
14.29.11.512,381.3,95.3,0,16.0,,64672.2,15.46,-0.73,0.16,-0.43,-29.1,-146.5,-6.1,35.88,,,,,,,,,,
14.29.11.524,368.0,92.0,0,16.0,,67834.4,14.74,-0.7,0.26,-0.44,-50.1,-142.9,-19.5,35.88,,,,,,,,,,
14.29.11.537,455.5,113.9,0,16.0,,64260.4,15.56,-0.65,0.26,-0.41,-45.0,-135.0,-32.1,35.88,,,,,,,,,,
14.29.11.545,439.9,110.0,0,16.0,,62054.8,16.11,-0.7,0.23,-0.41,-38.4,-121.2,-48.3,35.88,,,,,,,,,,
14.29.11.557,342.0,85.5,0,16.0,,68037.4,14.7,-0.72,0.27,-0.39,-30.5,-117.4,-57.6,35.88,,,,,,,,,,
14.29.11.569,318.6,79.6,0,16.0,,62269.1,16.06,-0.83,0.26,-0.3,-16.5,-112.9,-69.7,35.88,,,,,,,,,,
14.29.11.577,308.8,77.2,0,16.0,,66937.3,14.94,-0.82,0.28,-0.31,-14.9,-106.4,-78.6,35.88,,,,,,,,,,
14.29.11.590,226.2,56.6,0,16.0,,60780.8,16.45,-0.77,0.4,-0.29,-39.9,-109.0,-92.7,35.88,,,,,,,,,,
14.29.11.602,192.8,48.2,0,16.0,,62994.9,15.87,-0.82,0.37,-0.27,-53.4,-101.9,-105.6,35.88,,,,,,,,,,
14.29.11.610,98.0,24.5,0,16.0,,63848.9,15.66,-0.86,0.37,-0.24,-44.7,-94.7,-109.9,35.88,,,,,,,,,,
14.29.11.623,27.5,6.9,0,16.0,,62909.9,15.9,-0.86,0.41,-0.17,-57.8,-86.6,-112.9,35.88,,,,,,,,,,
14.29.11.635,28.1,7.0,0,16.0,,66651.0,15.0,-0.85,0.47,-0.13,-83.7,-77.6,-115.3,35.88,,,,,,,,,,
14.29.11.643,60.0,15.0,0,16.0,,60735.6,16.46,-0.88,0.44,-0.11,-115.2,-73.0,-114.0,35.88,,,,,,,,,,
14.29.11.655,14.9,3.7,0,16.0,,64746.0,15.44,-0.9,0.44,-0.15,-116.0,-56.4,-112.0,35.88,,,,,,,,,,
14.29.11.668,59.1,14.8,0,16.0,,64186.8,15.58,-0.94,0.36,-0.08,-147.2,-43.5,-99.0,35.88,,,,,,,,,,
14.29.11.676,67.9,17.0,0,16.0,,65007.6,15.38,-0.96,0.44,-0.1,-117.3,-38.5,-109.0,35.88,,,,,,,,,,
14.29.11.688,64.9,16.2,0,16.0,,64135.4,15.59,-0.95,0.44,0.02,-159.3,-29.6,-114.7,35.88,,,,,,,,,,
14.29.11.700,55.0,13.8,0,16.0,,64936.4,15.4,-0.82,0.25,0.18,-196.8,-15.6,-99.8,35.88,,,,,,,,,,
14.29.11.709,51.0,12.8,0,16.0,,62791.7,15.93,-0.92,0.6,-0.23,-198.7,-30.3,-79.6,35.88,,,,,,,,,,
14.29.11.721,25.7,6.4,0,16.0,,64185.5,15.58,-1.14,0.5,0.2,-146.0,-13.9,-100.9,35.88,,,,,,,,,,
14.29.11.729,7.2,1.8,0,16.0,,64921.3,15.4,-1.06,0.52,0.13,-140.4,11.9,-107.6,35.88,,,,,,,,,,
14.29.11.742,-25.8,6.4,0,16.0,,65807.2,15.2,-0.96,0.42,0.02,-146.6,15.8,-95.3,35.88,,,,,,,,,,
14.29.11.754,-13.0,3.2,0,16.0,,68901.2,14.51,-0.99,0.43,0.03,-122.9,8.5,-78.9,35.88,,,,,,,,,,
14.29.11.762,-66.8,16.7,0,16.0,,65266.9,15.32,-0.96,0.48,0.09,-114.2,16.3,-59.9,35.88,,,,,,,,,,
14.29.11.774,-59.2,14.8,0,16.0,,68676.3,14.56,-0.98,0.5,0.09,-113.2,23.9,-50.4,35.88,,,,,,,,,,
14.29.11.787,-68.4,17.1,0,16.0,,64007.2,15.62,-0.94,0.52,0.16,-104.8,33.2,-41.7,35.88,,,,,,,,,,
14.29.11.795,-61.8,15.4,0,16.0,,63484.4,15.75,-0.9,0.47,0.11,-100.9,41.4,-27.6,35.88,,,,,,,,,,
14.29.11.807,-60.8,15.2,0,16.0,,62826.4,15.92,-0.98,0.42,0.1,-83.9,32.0,-25.2,35.88,,,,,,,,,,
14.29.11.815,-48.7,12.2,0,16.0,,63420.3,15.77,-0.94,0.43,0.25,-77.1,34.5,-21.6,35.88,,,,,,,,,,
14.29.11.828,-81.6,20.4,0,16.0,,62178.1,16.08,-0.96,0.41,0.23,-73.6,36.0,-20.4,35.88,,,,,,,,,,
14.29.11.840,-80.4,20.1,0,16.0,,59091.8,16.92,-0.96,0.41,0.23,-74.3,30.2,-18.7,35.88,,,,,,,,,,
14.29.11.848,-66.2,16.6,0,16.0,,63836.9,15.66,-0.97,0.4,0.26,-58.6,25.3,-18.8,35.88,,,,,,,,,,
14.29.11.860,-78.4,19.6,0,16.0,,67041.2,14.92,-1.01,0.36,0.3,-74.0,35.7,-22.9,35.88,,,,,,,,,,
14.29.11.868,-127.0,31.8,0,16.0,,68181.1,14.67,-0.97,0.38,0.26,-36.3,32.3,-16.3,35.88,,,,,,,,,,
14.29.11.881,-140.7,35.2,0,16.0,,65936.4,15.17,-0.97,0.39,0.26,-25.0,30.7,-16.4,35.88,,,,,,,,,,
14.29.11.893,-128.9,32.2,0,16.0,,62275.4,16.06,-0.96,0.39,0.27,-19.0,35.6,-17.8,35.88,,,,,,,,,,
14.29.11.901,-115.7,28.9,0,16.0,,62445.4,16.01,-0.97,0.4,0.29,-7.3,34.8,-11.8,35.88,,,,,,,,,,
14.29.11.913,-112.4,28.1,0,16.0,,64536.2,15.5,-0.91,0.43,0.29,-2.3,38.0,-10.6,35.88,,,,,,,,,,
14.29.11.922,-124.5,31.1,0,16.0,,64924.5,15.4,-0.96,0.42,0.25,-0.6,33.6,-6.2,35.88,,,,,,,,,,
14.29.11.934,-143.9,36.0,0,16.0,,65631.1,15.24,-0.96,0.4,0.29,4.4,32.5,-1.5,35.88,,,,,,,,,,
14.29.11.942,-157.9,39.5,0,16.0,,61854.0,16.17,-0.91,0.4,0.24,10.0,40.9,-1.8,35.88,,,,,,,,,,
14.29.11.954,-194.5,48.6,0,16.0,,63548.5,15.74,-0.94,0.4,0.25,14.0,35.1,3.1,35.88,,,,,,,,,,
14.29.11.967,69.5,17.4,1,17.0,117.2,63812.5,15.67,-0.92,0.4,0.24,17.5,41.2,1.8,35.88,,,,,,,,,,
14.29.11.975,104.8,26.2,0,17.0,,65272.1,15.32,-0.96,0.39,0.25,13.0,36.5,3.0,35.88,,,,,,,,,,
14.29.11.987,219.5,54.9,0,17.0,,65946.2,15.16,-0.95,0.39,0.24,18.0,35.3,5.8,35.88,,,,,,,,,,
14.29.11.995,326.3,81.6,0,17.0,,66500.9,15.04,-0.96,0.39,0.24,19.8,36.2,8.6,35.88,,,,,,,,,,
14.29.12.008,300.7,75.2,0,17.0,,66715.9,14.99,-0.96,0.38,0.25,16.9,36.2,10.1,35.88,,,,,,,,,,
14.29.12.016,375.7,93.9,0,17.0,,64633.7,15.47,-0.97,0.37,0.24,10.0,37.1,10.7,35.88,,,,,,,,,,
14.29.12.028,396.9,99.2,0,17.0,,63575.6,15.73,-0.99,0.36,0.24,5.0,37.5,13.3,35.88,,,,,,,,,,
14.29.12.036,425.4,106.4,0,17.0,,66952.2,14.94,-0.99,0.35,0.23,1.3,37.4,14.7,35.88,,,,,,,,,,
14.29.12.049,428.2,107.0,0,17.0,,65144.9,15.35,-1.02,0.34,0.25,-14.2,35.6,13.0,35.88,,,,,,,,,,
14.29.12.057,435.4,108.8,0,17.0,,63082.6,15.85,-1.01,0.35,0.23,-4.8,31.1,23.3,35.88,,,,,,,,,,
14.29.12.069,370.3,92.6,0,17.0,,68382.1,14.62,-1.0,0.35,0.2,-8.5,30.6,25.4,35.88,,,,,,,,,,
14.29.12.106,242.9,60.7,0,17.0,,65783.3,15.2,-1.0,0.35,0.21,-13.4,28.6,28.6,35.81,,,,,,,,,,
14.29.12.119,110.8,27.7,0,17.0,,62402.2,16.03,-1.0,0.28,0.18,-22.9,24.2,37.2,35.81,,,,,,,,,,
14.29.12.127,57.3,14.3,0,17.0,,67143.0,14.89,-1.0,0.25,0.17,-21.7,21.9,40.1,35.81,,,,,,,,,,
14.29.12.139,34.6,8.6,0,17.0,,64234.4,15.57,-1.0,0.24,0.16,-19.3,18.7,42.1,35.81,,,,,,,,,,
14.29.12.147,25.7,6.4,0,17.0,,64679.7,15.46,-0.99,0.25,0.16,-18.4,14.4,44.1,35.81,,,,,,,,,,
14.29.12.159,46.8,11.7,0,17.0,,63309.9,15.8,-0.99,0.24,0.15,-17.3,15.7,44.5,35.81,,,,,,,,,,
14.29.12.168,30.9,7.7,0,17.0,,67528.5,14.81,-0.98,0.26,0.13,-17.3,13.4,44.9,35.81,,,,,,,,,,
14.29.12.184,51.8,13.0,0,17.0,,64390.5,15.53,-0.97,0.27,0.13,-16.7,12.2,44.0,35.81,,,,,,,,,,
14.29.12.192,60.0,15.0,0,17.0,,64988.1,15.39,-0.97,0.28,0.13,-18.3,12.7,42.8,35.81,,,,,,,,,,
14.29.12.204,41.9,10.5,0,17.0,,66315.2,15.08,-0.97,0.28,0.12,-20.0,14.1,40.7,35.81,,,,,,,,,,
14.29.12.213,57.8,14.4,0,17.0,,62857.1,15.91,-0.97,0.3,0.1,-24.4,13.5,39.2,35.81,,,,,,,,,,
14.29.12.225,42.2,10.6,0,17.0,,63540.6,15.74,-0.97,0.3,0.08,-29.1,13.2,37.8,35.81,,,,,,,,,,
14.29.12.233,13.0,3.2,0,17.0,,64397.4,15.53,-0.96,0.3,0.06,-35.6,14.2,35.5,35.81,,,,,,,,,,
14.29.12.246,-25.8,6.4,0,17.0,,60721.9,16.47,-0.97,0.32,0.05,-44.3,16.3,32.6,35.81,,,,,,,,,,
14.29.12.258,-3.3,0.8,0,17.0,,70399.9,14.2,-0.96,0.32,0.05,-54.6,18.1,29.8,35.81,,,,,,,,,,
14.29.12.266,-6.9,1.7,0,17.0,,63682.9,15.7,-0.96,0.3,0.06,-63.8,20.1,27.0,35.81,,,,,,,,,,
14.29.12.278,-23.3,5.8,0,17.0,,63321.9,15.79,-1.0,0.29,0.08,-70.6,20.6,25.8,35.81,,,,,,,,,,
14.29.12.286,-22.5,5.6,0,17.0,,64999.9,15.38,-0.94,0.28,0.06,-55.7,26.7,31.0,35.81,,,,,,,,,,
14.29.12.299,-24.8,6.2,0,17.0,,65958.1,15.16,-0.98,0.24,0.06,-83.7,25.4,18.7,35.81,,,,,,,,,,
14.29.12.307,-77.9,19.5,0,17.0,,64316.2,15.55,-0.99,0.21,0.06,-76.1,17.6,20.9,35.81,,,,,,,,,,
14.29.12.319,-64.3,16.1,0,17.0,,65135.3,15.35,-0.97,0.2,0.07,-72.8,19.6,22.5,35.81,,,,,,,,,,
14.29.12.327,-80.7,20.2,0,17.0,,64964.4,15.39,-1.02,0.19,0.06,-69.4,15.6,23.9,35.81,,,,,,,,,,
14.29.12.340,-67.4,16.8,0,17.0,,65121.7,15.36,-0.92,0.22,0.06,-63.1,24.5,20.7,35.81,,,,,,,,,,
14.29.12.348,-88.5,22.1,0,17.0,,65813.2,15.19,-0.97,0.23,0.03,-73.8,18.8,13.6,35.81,,,,,,,,,,
14.29.12.360,-80.7,20.2,0,17.0,,70309.3,14.22,-0.96,0.21,0.03,-62.8,16.5,15.6,35.81,,,,,,,,,,
14.29.12.372,-114.6,28.6,0,17.0,,68618.9,14.57,-0.94,0.24,0.03,-67.0,22.3,8.7,35.81,,,,,,,,,,
14.29.12.381,-102.2,25.6,0,17.0,,66061.8,15.14,-0.94,0.25,0.02,-67.4,19.6,6.2,35.81,,,,,,,,,,
14.29.12.393,-126.3,31.6,0,17.0,,65630.0,15.24,-0.94,0.25,0.03,-68.3,22.9,3.0,35.81,,,,,,,,,,
14.29.12.401,-126.4,31.6,0,17.0,,63134.7,15.84,-0.95,0.25,0.06,-70.2,23.9,1.6,35.81,,,,,,,,,,
14.29.12.414,-142.4,35.6,0,17.0,,61082.6,16.37,-0.95,0.23,0.07,-71.1,26.4,-0.7,35.81,,,,,,,,,,
14.29.12.422,-124.1,31.0,0,17.0,,66041.1,15.14,-0.96,0.22,0.07,-69.8,26.4,-1.7,35.81,,,,,,,,,,
14.29.12.434,-152.3,38.1,0,17.0,,66351.1,15.07,-0.95,0.21,0.08,-65.0,26.1,-0.9,35.81,,,,,,,,,,
14.29.12.446,-161.0,40.2,0,17.0,,65020.3,15.38,-0.96,0.21,0.07,-60.6,24.1,0.2,35.81,,,,,,,,,,
14.29.12.454,-165.6,41.4,0,17.0,,58632.2,17.06,-0.96,0.2,0.06,-54.2,22.9,0.4,35.81,,,,,,,,,,
14.29.12.467,23.9,6.0,1,18.0,116.2,63415.9,15.77,-0.95,0.22,0.07,-49.2,21.9,0.7,35.81,,,,,,,,,,
14.29.12.475,42.0,10.5,0,18.0,,65115.6,15.36,-0.95,0.2,0.08,-43.6,22.5,0.3,35.81,,,,,,,,,,
14.29.12.487,163.1,40.8,0,18.0,,61446.1,16.27,-0.95,0.19,0.06,-35.9,20.9,0.0,35.81,,,,,,,,,,
14.29.12.495,205.9,51.5,0,18.0,,66807.1,14.97,-0.96,0.2,0.07,-28.4,19.4,-1.2,35.81,,,,,,,,,,
14.29.12.507,249.7,62.4,0,18.0,,64819.8,15.43,-0.97,0.21,0.08,-21.7,19.2,-1.6,35.81,,,,,,,,,,
14.29.12.516,322.5,80.6,0,18.0,,62359.1,16.04,-0.97,0.21,0.08,-16.6,17.6,-1.9,35.81,,,,,,,,,,
14.29.12.528,386.9,96.7,0,18.0,,61441.1,16.28,-0.97,0.21,0.09,-11.5,16.4,-2.6,35.81,,,,,,,,,,
14.29.12.540,400.8,100.2,0,18.0,,64762.4,15.44,-0.98,0.21,0.09,-5.3,15.8,-4.0,35.81,,,,,,,,,,
14.29.12.548,388.0,97.0,0,18.0,,65883.7,15.18,-0.98,0.22,0.1,0.2,14.7,-4.0,35.81,,,,,,,,,,
14.29.12.561,411.4,102.8,0,18.0,,61485.9,16.26,-0.98,0.22,0.1,5.6,13.9,-4.4,35.81,,,,,,,,,,
14.29.12.570,385.3,96.3,0,18.0,,63883.1,15.65,-0.98,0.23,0.11,9.6,13.5,-4.7,35.81,,,,,,,,,,
14.29.12.582,356.2,89.0,0,18.0,,65718.5,15.22,-0.99,0.23,0.13,13.9,11.8,-4.9,35.81,,,,,,,,,,
14.29.12.590,344.5,86.1,0,18.0,,62060.5,16.11,-0.99,0.23,0.14,18.5,10.3,-4.5,35.81,,,,,,,,,,
14.29.12.602,293.4,73.4,0,18.0,,66781.5,14.97,-0.99,0.23,0.14,23.7,8.7,-3.9,35.81,,,,,,,,,,
14.29.12.610,212.5,53.1,0,18.0,,64697.0,15.46,-0.98,0.23,0.15,27.8,6.6,-3.6,35.81,,,,,,,,,,
14.29.12.622,132.4,33.1,0,18.0,,64343.9,15.54,-0.98,0.24,0.15,30.8,4.7,-3.8,35.81,,,,,,,,,,
14.29.12.631,99.6,24.9,0,18.0,,66767.8,14.98,-0.97,0.26,0.15,31.7,3.7,-4.1,35.81,,,,,,,,,,
14.29.12.643,37.5,9.4,0,18.0,,67273.8,14.86,-0.97,0.27,0.14,31.5,2.8,-4.7,35.81,,,,,,,,,,
14.29.12.655,11.4,2.8,0,18.0,,62111.0,16.1,-0.96,0.28,0.14,30.5,1.7,-5.2,35.81,,,,,,,,,,
14.29.12.663,61.1,15.3,0,18.0,,67198.8,14.88,-0.96,0.29,0.13,27.9,1.5,-7.0,35.81,,,,,,,,,,
14.29.12.675,47.4,11.8,0,18.0,,67964.4,14.71,-0.96,0.3,0.12,26.4,0.7,-7.8,35.81,,,,,,,,,,
14.29.12.684,88.9,22.2,0,18.0,,63077.0,15.85,-0.96,0.3,0.13,25.1,-0.2,-8.3,35.81,,,,,,,,,,
14.29.12.696,72.8,18.2,0,18.0,,66074.2,15.13,-0.95,0.3,0.12,21.0,-0.1,-9.0,35.81,,,,,,,,,,
14.29.12.704,46.8,11.7,0,18.0,,64180.1,15.58,-0.97,0.3,0.11,17.4,-0.7,-9.7,35.81,,,,,,,,,,
14.29.12.716,74.5,18.6,0,18.0,,64563.5,15.49,-0.95,0.3,0.11,14.5,-2.3,-9.8,35.81,,,,,,,,,,
14.29.12.725,27.0,6.8,0,18.0,,65218.2,15.33,-0.96,0.29,0.11,12.7,-3.4,-10.5,35.81,,,,,,,,,,
14.29.12.737,19.0,4.8,0,18.0,,60747.5,16.46,-0.95,0.3,0.1,11.7,-4.3,-10.6,35.81,,,,,,,,,,
14.29.12.746,-5.7,1.4,0,18.0,,60577.5,16.51,-0.96,0.29,0.1,10.3,-3.6,-11.4,35.81,,,,,,,,,,
14.29.12.758,-11.3,2.8,0,18.0,,60852.1,16.43,-0.96,0.28,0.1,9.6,-4.0,-12.5,35.81,,,,,,,,,,
14.29.12.770,-7.6,1.9,0,18.0,,67451.6,14.83,-0.96,0.28,0.09,10.2,-3.6,-12.8,35.81,,,,,,,,,,
14.29.12.778,-54.9,13.7,0,18.0,,65453.2,15.28,-0.95,0.28,0.09,10.8,-4.7,-12.8,35.81,,,,,,,,,,
14.29.12.790,-66.9,16.7,0,18.0,,63837.9,15.66,-0.95,0.28,0.09,12.5,-3.8,-12.8,35.81,,,,,,,,,,
14.29.12.798,-15.8,4.0,0,18.0,,67831.5,14.74,-0.97,0.25,0.08,17.5,-5.7,-10.5,35.81,,,,,,,,,,
14.29.12.811,-78.3,19.6,0,18.0,,65970.9,15.16,-0.94,0.26,0.08,15.6,-3.9,-11.9,35.81,,,,,,,,,,
14.29.12.823,-45.2,11.3,0,18.0,,66648.9,15.0,-0.96,0.25,0.07,17.0,-5.5,-10.8,35.81,,,,,,,,,,
14.29.12.831,-38.0,9.5,0,18.0,,68047.4,14.7,-0.95,0.26,0.07,17.6,-6.1,-9.7,35.81,,,,,,,,,,
14.29.12.844,-80.2,20.0,0,18.0,,58535.5,17.08,-0.96,0.25,0.06,22.0,-6.4,-7.5,35.81,,,,,,,,,,
14.29.12.852,-78.9,19.7,0,18.0,,64178.3,15.58,-0.96,0.27,0.05,18.8,-4.4,-8.4,35.81,,,,,,,,,,
14.29.12.864,-84.3,21.1,0,18.0,,67089.6,14.91,-0.97,0.26,0.06,19.7,-6.6,-8.1,35.81,,,,,,,,,,
14.29.12.872,-104.5,26.1,0,18.0,,66707.6,14.99,-0.97,0.27,0.08,20.7,-5.4,-8.3,35.81,,,,,,,,,,
14.29.12.913,-113.2,28.3,0,18.0,,62601.9,15.97,-0.97,0.26,0.08,21.8,-4.5,-8.8,35.88,,,,,,,,,,
14.29.12.921,-112.8,28.2,0,18.0,,63709.5,15.7,-0.94,0.26,0.07,30.3,-6.1,-8.3,35.88,,,,,,,,,,
14.29.12.934,-124.9,31.2,0,18.0,,65012.1,15.38,-0.93,0.25,0.06,30.6,-6.3,-8.5,35.88,,,,,,,,,,
14.29.12.942,-153.0,38.2,0,18.0,,65541.1,15.26,-0.92,0.25,0.06,31.5,-6.9,-7.8,35.88,,,,,,,,,,
14.29.12.954,-137.8,34.4,0,18.0,,65687.8,15.22,-0.91,0.25,0.07,31.8,-7.4,-6.8,35.88,,,,,,,,,,
14.29.12.962,-160.6,40.2,0,18.0,,64487.3,15.51,-0.9,0.24,0.07,31.6,-7.5,-5.8,35.88,,,,,,,,,,
14.29.12.974,-183.4,45.8,0,18.0,,63660.4,15.71,-0.9,0.24,0.07,31.7,-7.4,-5.4,35.88,,,,,,,,,,
14.29.12.987,95.5,23.9,1,19.0,122.5,64022.7,15.62,-0.9,0.24,0.08,33.2,-7.7,-4.3,35.88,,,,,,,,,,
14.29.12.995,135.8,34.0,0,19.0,,69712.4,14.34,-0.92,0.24,0.08,34.3,-8.1,-3.9,35.88,,,,,,,,,,
14.29.13.007,231.2,57.8,0,19.0,,62676.0,15.96,-0.94,0.25,0.09,35.4,-7.4,-4.1,35.88,,,,,,,,,,
14.29.13.015,278.1,69.5,0,19.0,,63727.6,15.69,-0.96,0.25,0.09,36.1,-7.9,-4.6,35.88,,,,,,,,,,
14.29.13.028,303.6,75.9,0,19.0,,66986.6,14.93,-0.99,0.26,0.08,37.3,-7.8,-4.8,35.88,,,,,,,,,,
14.29.13.040,336.4,84.1,0,19.0,,64377.7,15.53,-1.01,0.26,0.09,36.8,-8.5,-4.9,35.88,,,,,,,,,,
14.29.13.048,382.9,95.7,0,19.0,,63884.6,15.65,-1.02,0.26,0.1,35.7,-8.7,-5.1,35.88,,,,,,,,,,
14.29.13.061,431.0,107.8,0,19.0,,63389.0,15.78,-1.04,0.26,0.11,35.0,-9.2,-4.0,35.88,,,,,,,,,,
14.29.13.069,373.2,93.3,0,19.0,,66851.1,14.96,-1.05,0.26,0.12,34.7,-11.3,-3.6,35.88,,,,,,,,,,
14.29.13.081,384.6,96.2,0,19.0,,65708.0,15.22,-1.05,0.26,0.13,37.4,-11.5,-2.9,35.88,,,,,,,,,,
14.29.13.094,387.6,96.9,0,19.0,,67273.0,14.86,-1.05,0.26,0.15,41.5,-12.9,-1.8,35.88,,,,,,,,,,
14.29.13.102,325.8,81.4,0,19.0,,63947.1,15.64,-1.04,0.26,0.16,45.9,-13.8,-1.5,35.88,,,,,,,,,,
14.29.13.114,239.6,59.9,0,19.0,,68986.5,14.5,-1.04,0.24,0.16,50.8,-14.3,-1.5,35.88,,,,,,,,,,
14.29.13.122,266.9,66.7,0,19.0,,63762.1,15.68,-1.02,0.24,0.18,53.7,-14.0,-3.4,35.88,,,,,,,,,,
14.29.13.134,137.8,34.4,0,19.0,,64296.8,15.55,-1.02,0.23,0.18,62.7,-18.5,-1.4,35.88,,,,,,,,,,
14.29.13.147,59.9,15.0,0,19.0,,68652.4,14.57,-0.99,0.23,0.17,71.7,-18.2,-0.4,35.88,,,,,,,,,,
14.29.13.155,14.0,3.5,0,19.0,,64979.9,15.39,-0.98,0.24,0.16,78.5,-21.5,-0.5,35.88,,,,,,,,,,
14.29.13.167,82.6,20.6,0,19.0,,64667.2,15.46,-0.99,0.24,0.16,83.0,-25.6,-0.7,35.88,,,,,,,,,,
14.29.13.179,61.0,15.2,0,19.0,,61289.3,16.32,-0.96,0.24,0.14,91.9,-26.3,0.5,35.88,,,,,,,,,,
14.29.13.188,67.9,17.0,0,19.0,,64434.8,15.52,-0.94,0.28,0.16,84.5,-25.9,-3.1,35.88,,,,,,,,,,
14.29.13.200,89.0,22.2,0,19.0,,67724.1,14.77,-0.96,0.29,0.19,86.6,-27.2,-3.0,35.88,,,,,,,,,,
14.29.13.208,98.2,24.6,0,19.0,,62726.5,15.94,-0.93,0.31,0.16,83.1,-28.9,-6.3,35.88,,,,,,,,,,
14.29.13.225,48.4,12.1,0,19.0,,59872.5,16.7,-0.95,0.3,0.12,78.2,-33.1,-9.6,35.88,,,,,,,,,,
14.29.13.233,84.4,21.1,0,19.0,,64797.0,15.43,-0.93,0.33,0.13,78.7,-29.9,-10.7,35.88,,,,,,,,,,
14.29.13.245,22.1,5.5,0,19.0,,60467.4,16.54,-0.94,0.33,0.12,70.5,-31.3,-15.7,35.88,,,,,,,,,,
14.29.13.253,5.1,1.3,0,19.0,,66338.6,15.07,-0.92,0.36,0.15,71.6,-28.7,-14.8,35.88,,,,,,,,,,
14.29.13.265,-38.7,9.7,0,19.0,,66432.4,15.05,-0.93,0.38,0.18,59.3,-28.8,-19.9,35.88,,,,,,,,,,
14.29.13.278,-27.7,6.9,0,19.0,,69460.1,14.4,-0.95,0.37,0.16,60.6,-29.4,-20.3,35.88,116.1,,,,,,,,,
14.29.13.286,-26.3,6.6,0,19.0,,66308.8,15.08,-0.94,0.38,0.16,56.1,-28.6,-22.2,35.88,,,,,,,,,,
14.29.13.298,-21.8,5.4,0,19.0,,66078.6,15.13,-0.96,0.38,0.16,51.5,-27.1,-23.8,35.88,,,,,,,,,,
14.29.13.310,-19.0,4.8,0,19.0,,63102.6,15.85,-0.96,0.38,0.17,45.8,-26.1,-25.1,35.88,,,,,,,,,,
14.29.13.319,-71.9,18.0,0,19.0,,60883.2,16.42,-0.97,0.38,0.17,40.8,-24.7,-25.1,35.88,,,,,,,,,,
14.29.13.331,-65.6,16.4,0,19.0,,63652.4,15.71,-0.97,0.38,0.17,35.7,-25.7,-25.0,35.88,,,,,,,,,,
14.29.13.339,-56.3,14.1,0,19.0,,65929.1,15.17,-0.96,0.39,0.18,30.1,-24.9,-23.9,35.88,,,,,,,,,,
14.29.13.352,-69.4,17.4,0,19.0,,67172.2,14.89,-0.96,0.39,0.17,25.9,-25.3,-22.2,35.88,,,,,,,,,,
14.29.13.364,-93.8,23.4,0,19.0,,65895.1,15.18,-0.94,0.38,0.19,21.1,-23.7,-21.2,35.88,,,,,,,,,,
14.29.13.372,-71.3,17.8,0,19.0,,65313.2,15.31,-0.94,0.36,0.19,18.5,-23.4,-20.0,35.88,,,,,,,,,,
14.29.13.384,-111.5,27.9,0,19.0,,67843.4,14.74,-0.93,0.36,0.19,18.0,-21.6,-18.7,35.88,,,,,,,,,,
14.29.13.393,-116.2,29.0,0,19.0,,64453.0,15.52,-0.93,0.35,0.19,16.9,-21.3,-16.9,35.88,,,,,,,,,,
14.29.13.405,-118.1,29.5,0,19.0,,66969.6,14.93,-0.94,0.34,0.18,16.4,-21.2,-15.1,35.88,,,,,,,,,,
14.29.13.417,-121.8,30.4,0,19.0,,63128.7,15.84,-0.93,0.34,0.18,15.1,-19.8,-14.6,35.88,,,,,,,,,,
14.29.13.425,-141.8,35.4,0,19.0,,66765.0,14.98,-0.92,0.34,0.18,14.8,-19.6,-13.2,35.88,,,,,,,,,,
14.29.13.438,-135.3,33.8,0,19.0,,63883.2,15.65,-0.91,0.33,0.17,14.1,-18.4,-11.9,35.88,,,,,,,,,,
14.29.13.450,-133.2,33.3,0,19.0,,64347.4,15.54,-0.9,0.33,0.17,12.6,-17.3,-10.8,35.88,,,,,,,,,,
14.29.13.458,-153.2,38.3,0,19.0,,65796.2,15.2,-0.9,0.33,0.18,12.9,-16.6,-10.3,35.88,,,,,,,,,,
14.29.13.470,-155.6,38.9,0,19.0,,67138.5,14.89,-0.89,0.31,0.18,14.4,-16.3,-10.2,35.88,,,,,,,,,,
14.29.13.479,-179.3,44.8,0,19.0,,66166.3,15.11,-0.88,0.31,0.18,15.8,-14.5,-10.1,35.88,,,,,,,,,,
14.29.13.491,37.6,9.4,1,20.0,116.7,66030.4,15.14,-0.89,0.31,0.19,16.8,-13.2,-10.7,35.88,,,,,,,,,,
14.29.13.503,129.5,32.4,0,20.0,,64767.1,15.44,-0.89,0.31,0.18,18.0,-12.4,-11.3,35.88,,,,,,,,,,
14.29.13.511,167.5,41.9,0,20.0,,65620.4,15.24,-0.89,0.32,0.19,18.8,-11.7,-11.6,35.88,,,,,,,,,,
14.29.13.524,239.7,59.9,0,20.0,,62049.6,16.12,-0.89,0.32,0.19,18.4,-10.5,-11.7,35.88,,,,,,,,,,
14.29.13.536,342.4,85.6,0,20.0,,66139.6,15.12,-0.89,0.32,0.19,17.9,-10.4,-12.0,35.88,,,,,,,,,,
14.29.13.548,418.6,104.6,0,20.0,,65028.3,15.38,-0.88,0.32,0.2,17.3,-9.1,-11.6,35.88,,,,,,,,,,
14.29.13.556,383.2,95.8,0,20.0,,61781.5,16.19,-0.87,0.32,0.19,15.9,-9.0,-11.2,35.88,,,,,,,,,,
14.29.13.569,400.7,100.2,0,20.0,,61917.9,16.15,-0.87,0.31,0.2,15.0,-7.6,-11.1,35.88,,,,,,,,,,
14.29.13.577,398.0,99.5,0,20.0,,69080.4,14.48,-0.86,0.31,0.19,13.4,-6.7,-11.2,35.88,,,,,,,,,,
14.29.13.589,400.7,100.2,0,20.0,,66418.5,15.06,-0.86,0.3,0.2,12.6,-5.4,-10.3,35.88,,,,,,,,,,
14.29.13.602,358.5,89.6,0,20.0,,65841.9,15.19,-0.86,0.3,0.2,11.6,-4.8,-10.1,35.88,,,,,,,,,,
14.29.13.610,367.3,91.8,0,20.0,,62691.2,15.95,-0.87,0.3,0.2,10.2,-3.4,-9.6,35.88,,,,,,,,,,
14.29.13.622,243.8,61.0,0,20.0,,68473.8,14.6,-0.86,0.3,0.21,9.2,-2.1,-9.3,35.88,,,,,,,,,,
14.29.13.630,215.9,54.0,0,20.0,,62640.7,15.96,-0.87,0.29,0.22,8.4,-1.3,-8.8,35.88,,,,,,,,,,
14.29.13.642,156.3,39.1,0,20.0,,64881.2,15.41,-0.87,0.3,0.22,7.9,-0.4,-8.3,35.88,,,,,,,,,,
14.29.13.651,108.2,27.0,0,20.0,,65053.8,15.37,-0.88,0.3,0.21,5.8,1.1,-7.6,35.88,,,,,,,,,,
14.29.13.663,10.0,2.5,0,20.0,,58702.9,17.03,-0.88,0.31,0.22,3.8,2.4,-5.6,35.88,,,,,,,,,,
14.29.13.671,8.7,2.2,0,20.0,,64045.8,15.61,-0.89,0.3,0.23,1.5,1.9,-5.2,35.88,,,,,,,,,,
14.29.13.683,55.4,13.8,0,20.0,,66457.3,15.05,-0.9,0.29,0.23,2.0,3.8,-5.0,35.88,,,,,,,,,,
14.29.13.720,72.2,18.0,0,20.0,,66139.5,15.12,-0.89,0.29,0.24,2.8,4.1,-4.9,35.81,,,,,,,,,,
14.29.13.728,59.9,15.0,0,20.0,,63914.3,15.65,-0.88,0.27,0.26,10.1,5.1,-3.2,35.81,,,,,,,,,,
14.29.13.741,100.9,25.2,0,20.0,,63953.8,15.64,-0.88,0.27,0.26,12.3,5.6,-3.1,35.81,,,,,,,,,,
14.29.13.749,-7.3,1.8,0,20.0,,64321.8,15.55,-0.89,0.26,0.25,12.8,5.8,-2.4,35.81,,,,,,,,,,
14.29.13.761,6.4,1.6,0,20.0,,64813.6,15.43,-0.9,0.26,0.25,12.5,7.1,-1.6,35.81,,,,,,,,,,
14.29.13.774,-29.4,7.4,0,20.0,,63713.7,15.7,-0.9,0.26,0.25,11.9,7.3,-0.6,35.81,,,,,,,,,,
14.29.13.782,6.7,1.7,0,20.0,,65584.2,15.25,-0.9,0.26,0.26,10.7,6.9,0.5,35.81,,,,,,,,,,
14.29.13.794,1.5,0.4,0,20.0,,65926.1,15.17,-0.91,0.26,0.26,9.5,7.1,1.4,35.81,,,,,,,,,,
14.29.13.802,-26.1,6.5,0,20.0,,66667.1,15.0,-0.9,0.27,0.26,7.4,8.2,1.8,35.81,,,,,,,,,,
14.29.13.815,-18.0,4.5,0,20.0,,66375.8,15.07,-0.87,0.28,0.27,1.2,11.7,-2.3,35.81,,,,,,,,,,
14.29.13.822,-5.6,1.4,0,20.0,,68128.6,14.68,-0.92,0.25,0.32,-0.6,5.8,0.5,35.81,,,,,,,,,,
14.29.13.835,-72.1,18.0,0,20.0,,63510.3,15.75,-0.88,0.24,0.29,6.2,11.4,2.4,35.81,,,,,,,,,,
14.29.13.847,-79.6,19.9,0,20.0,,65219.0,15.33,-0.9,0.23,0.31,7.3,11.5,2.6,35.81,,,,,,,,,,
14.29.13.855,-61.5,15.4,0,20.0,,63148.4,15.84,-0.89,0.22,0.33,8.6,9.2,2.3,35.81,,,,,,,,,,
14.29.13.868,-76.4,19.1,0,20.0,,63983.1,15.63,-0.87,0.24,0.32,5.9,14.5,-3.4,35.81,,,,,,,,,,
14.29.13.880,-102.3,25.6,0,20.0,,64389.8,15.53,-0.91,0.22,0.36,7.0,6.7,-0.3,35.81,,,,,,,,,,
14.29.13.888,-84.1,21.0,0,20.0,,63505.2,15.75,-0.87,0.2,0.36,13.2,7.0,1.0,35.81,,,,,,,,,,
14.29.13.900,-101.7,25.4,0,20.0,,67080.2,14.91,-0.88,0.21,0.32,13.0,8.2,-0.6,35.81,,,,,,,,,,
14.29.13.913,-98.9,24.7,0,20.0,,64958.1,15.39,-0.88,0.21,0.32,12.0,7.6,-2.6,35.81,,,,,,,,,,
14.29.13.925,-117.7,29.4,0,20.0,,64801.5,15.43,-0.87,0.22,0.34,-1.2,5.0,-9.7,35.81,,,,,,,,,,
14.29.13.933,-109.5,27.4,0,20.0,,66112.3,15.13,-0.89,0.22,0.29,12.5,9.8,-7.1,35.81,,,,,,,,,,
14.29.13.946,-132.1,33.0,0,20.0,,65986.0,15.15,-0.87,0.22,0.32,10.1,9.7,-10.4,35.81,,,,,,,,,,
14.29.13.958,-121.5,30.4,0,20.0,,64515.6,15.5,-0.87,0.21,0.33,12.2,7.9,-13.1,35.81,,,,,,,,,,
14.29.13.966,-141.7,35.4,0,20.0,,64701.2,15.46,-0.86,0.22,0.32,15.8,9.3,-15.7,35.81,,,,,,,,,,
14.29.13.978,-151.9,38.0,0,20.0,,70029.6,14.28,-0.87,0.22,0.3,18.0,8.5,-18.5,35.81,,,,,,,,,,
14.29.13.990,-204.6,51.2,0,20.0,,63644.9,15.71,-0.88,0.22,0.3,21.0,9.3,-21.0,35.81,,,,,,,,,,
14.29.14.003,55.9,14.0,1,21.0,118.6,64121.3,15.6,-0.88,0.23,0.29,22.8,8.8,-23.7,35.81,,,,,,,,,,
14.29.14.011,148.6,37.2,0,21.0,,62613.0,15.97,-0.89,0.23,0.3,23.9,9.2,-25.5,35.81,,,,,,,,,,
14.29.14.023,185.0,46.2,0,21.0,,67105.2,14.9,-0.9,0.23,0.31,24.6,8.7,-26.7,35.81,,,,,,,,,,
14.29.14.035,234.2,58.6,0,21.0,,61839.5,16.17,-0.91,0.24,0.3,26.2,8.7,-28.3,35.81,,,,,,,,,,
14.29.14.048,375.8,94.0,0,21.0,,65471.5,15.27,-0.93,0.24,0.3,27.7,9.0,-29.5,35.81,,,,,,,,,,
14.29.14.056,405.6,101.4,0,21.0,,62143.0,16.09,-0.98,0.26,0.29,28.9,10.6,-30.7,35.81,,,,,,,,,,
14.29.14.068,409.9,102.5,0,21.0,,68880.5,14.52,-1.05,0.29,0.27,28.9,13.1,-31.8,35.81,,,,,,,,,,
14.29.14.081,408.5,102.1,0,21.0,,60405.7,16.55,-1.11,0.32,0.29,27.8,14.8,-32.7,35.81,,,,,,,,,,
14.29.14.093,436.9,109.2,0,21.0,,62874.9,15.9,-1.19,0.24,0.31,36.9,-0.6,-22.8,35.81,,,,,,,,,,
14.29.14.101,356.5,89.1,0,21.0,,64222.6,15.57,-1.09,0.32,0.3,32.0,12.0,-30.8,35.81,,,,,,,,,,
14.29.14.114,357.9,89.5,0,21.0,,67535.1,14.81,-1.14,0.33,0.3,30.4,7.7,-34.4,35.81,,,,,,,,,,
14.29.14.126,311.8,78.0,0,21.0,,60705.2,16.47,-1.11,0.34,0.32,26.0,11.3,-34.5,35.81,,,,,,,,,,
14.29.14.138,231.7,57.9,0,21.0,,64554.6,15.49,-1.05,0.33,0.34,33.5,13.2,-28.0,35.81,,,,,,,,,,
14.29.14.150,194.8,48.7,0,21.0,,62817.4,15.92,-1.04,0.3,0.34,26.1,12.8,-30.0,35.81,,,,,,,,,,
14.29.14.158,130.7,32.7,0,21.0,,65485.4,15.27,-1.01,0.26,0.33,28.5,10.0,-24.5,35.81,,,,,,,,,,
14.29.14.171,10.8,2.7,0,21.0,,64811.4,15.43,-1.0,0.25,0.33,32.0,10.8,-18.4,35.81,,,,,,,,,,
14.29.14.183,17.8,4.4,0,21.0,,64482.6,15.51,-1.0,0.23,0.33,36.8,7.5,-9.6,35.81,,,,,,,,,,
14.29.14.195,31.0,7.8,0,21.0,,64247.8,15.56,-1.01,0.24,0.32,41.7,3.5,-2.2,35.81,,,,,,,,,,
14.29.14.204,105.6,26.4,0,21.0,,64129.0,15.59,-0.99,0.26,0.28,46.8,-0.8,2.7,35.81,,,,,,,,,,
14.29.14.216,73.0,18.2,0,21.0,,62137.9,16.09,-0.96,0.27,0.27,47.6,-4.5,3.4,35.81,,,,,,,,,,
14.29.14.228,91.3,22.8,0,21.0,,59498.3,16.81,-0.93,0.29,0.23,46.6,-5.7,0.4,35.81,,,,,,,,,,
14.29.14.236,71.1,17.8,0,21.0,,63777.8,15.68,-0.88,0.33,0.2,40.5,-4.2,-3.1,35.81,,,,,,,,,,
14.29.14.249,50.1,12.5,0,21.0,,65308.6,15.31,-0.85,0.36,0.17,30.2,-2.6,-6.0,35.81,,,,,,,,,,
14.29.14.261,46.0,11.5,0,21.0,,66116.7,15.12,-0.84,0.38,0.14,20.0,-1.7,-7.5,35.81,,,,,,,,,,
14.29.14.274,5.8,1.4,0,21.0,,63265.4,15.81,-0.84,0.39,0.12,6.0,-0.9,-8.4,35.81,,,,,,,,,,
14.29.14.282,-14.1,3.5,0,21.0,,66805.7,14.97,-0.86,0.39,0.1,-8.8,-0.5,-9.5,35.81,,,,,,,,,,
14.29.14.294,-10.7,2.7,0,21.0,,61095.1,16.37,-0.86,0.39,0.1,-24.2,1.0,-11.5,35.81,,,,,,,,,,
14.29.14.306,8.9,2.2,0,21.0,,65610.8,15.24,-0.87,0.39,0.1,-38.5,4.0,-12.5,35.81,,,,,,,,,,
14.29.14.318,-33.7,8.4,0,21.0,,67064.7,14.91,-0.89,0.38,0.1,-52.4,6.8,-13.7,35.81,,,,,,,,,,
14.29.14.326,-18.6,4.6,0,21.0,,64434.4,15.52,-0.93,0.38,0.09,-64.2,10.4,-13.6,35.81,,,,,,,,,,
14.29.14.339,-26.2,6.6,0,21.0,,64312.1,15.55,-0.86,0.4,0.06,-37.4,20.5,0.4,35.81,,,,,,,,,,
14.29.14.351,-77.1,19.3,0,21.0,,65091.2,15.36,-0.94,0.4,0.08,-84.2,16.1,-14.2,35.81,,,,,,,,,,
14.29.14.363,-70.1,17.5,0,21.0,,63313.6,15.79,-0.94,0.33,0.11,-83.3,14.7,-10.9,35.81,,,,,,,,,,
14.29.14.371,-55.7,13.9,0,21.0,,68228.4,14.66,-0.93,0.32,0.09,-83.7,25.7,-11.5,35.81,,,,,,,,,,
14.29.14.384,-61.8,15.4,0,21.0,,63315.9,15.79,-0.94,0.3,0.07,-86.5,20.6,-9.6,35.81,,,,,,,,,,
14.29.14.396,-42.9,10.7,0,21.0,,63454.7,15.76,-0.95,0.28,0.08,-91.1,22.3,-9.6,35.81,,,,,,,,,,
14.29.14.408,-73.6,18.4,0,21.0,,66721.7,14.99,-0.95,0.26,0.06,-91.4,21.0,-8.7,35.81,,,,,,,,,,
14.29.14.416,-75.3,18.8,0,21.0,,65062.0,15.37,-0.96,0.24,0.05,-86.3,16.9,-3.1,35.81,,,,,,,,,,
14.29.14.429,-107.3,26.8,0,21.0,,65081.7,15.37,-0.96,0.25,0.04,-90.5,14.7,-2.9,35.81,,,,,,,,,,
14.29.14.441,-102.1,25.5,0,21.0,,63031.9,15.86,-0.95,0.25,0.04,-85.1,14.6,2.8,35.81,,,,,,,,,,
14.29.14.453,-97.7,24.4,0,21.0,,62411.3,16.02,-0.95,0.25,0.01,-81.4,14.0,5.4,35.81,,,,,,,,,,
14.29.14.461,-150.8,37.7,0,21.0,,64553.4,15.49,-0.95,0.24,0.02,-78.9,11.5,7.9,35.81,,,,,,,,,,
14.29.14.474,-142.7,35.7,0,21.0,,61894.9,16.16,-0.94,0.24,0.01,-71.5,11.6,12.0,35.81,,,,,,,,,,
14.29.14.486,-134.6,33.6,0,21.0,,66108.7,15.13,-0.92,0.24,0.0,-66.1,12.5,15.0,35.81,,,,,,,,,,
14.29.14.527,129.0,32.2,1,22.0,117.1,63575.0,15.73,-1.01,0.13,-0.14,-92.6,-11.9,24.4,35.81,,,,,,,,,,
14.29.14.535,218.6,54.6,0,22.0,,62963.1,15.88,-0.95,0.16,0.01,-35.3,15.5,31.0,35.81,,,,,,,,,,
14.29.14.548,287.4,71.8,0,22.0,,67892.8,14.73,-1.04,0.18,0.02,-19.1,4.8,41.6,35.81,,,,,,,,,,
14.29.14.560,286.7,71.7,0,22.0,,66257.1,15.09,-0.98,0.17,-0.02,-0.3,17.4,46.1,35.81,,,,,,,,,,
14.29.14.568,367.1,91.8,0,22.0,,62359.1,16.04,-1.01,0.11,0.0,22.5,18.1,60.7,35.81,,,,,,,,,,
14.29.14.580,407.2,101.8,0,22.0,,62213.4,16.07,-1.0,0.13,0.02,24.8,14.0,57.7,35.81,,,,,,,,,,
14.29.14.593,422.1,105.5,0,22.0,,62260.0,16.06,-1.01,0.13,0.01,6.8,2.3,50.0,35.81,,,,,,,,,,
14.29.14.605,391.9,98.0,0,22.0,,66511.0,15.04,-0.97,0.13,0.05,30.9,3.2,54.8,35.81,,,,,,,,,,
14.29.14.614,420.5,105.1,0,22.0,,63359.6,15.78,-0.98,0.35,0.14,24.7,-20.9,48.6,35.81,,,,,,,,,,
14.29.14.626,320.5,80.1,0,22.0,,66469.4,15.04,-0.96,0.15,0.16,50.1,-7.6,48.5,35.81,,,,,,,,,,
14.29.14.638,286.2,71.6,0,22.0,,62651.5,15.96,-0.95,0.17,0.09,69.7,-2.7,56.2,35.81,,,,,,,,,,
14.29.14.646,264.8,66.2,0,22.0,,65901.3,15.17,-0.94,0.17,0.08,94.9,5.7,58.2,35.81,,,,,,,,,,
14.29.14.658,184.9,46.2,0,22.0,,69411.9,14.41,-0.9,0.26,0.09,88.3,16.4,50.8,35.81,,,,,,,,,,
14.29.14.670,117.9,29.5,0,22.0,,64502.0,15.5,-0.97,0.22,0.03,71.2,-5.8,41.7,35.81,,,,,,,,,,
14.29.14.679,35.1,8.8,0,22.0,,63139.6,15.84,-0.91,0.23,0.14,86.9,-4.6,42.5,35.81,,,,,,,,,,
14.29.14.691,23.3,5.8,0,22.0,,63367.2,15.78,-0.96,0.25,0.1,86.3,0.2,36.5,35.81,,,,,,,,,,
14.29.14.703,23.4,5.8,0,22.0,,66388.0,15.06,-0.99,0.27,0.11,73.7,-5.8,32.2,35.81,,,,,,,,,,
14.29.14.716,59.2,14.8,0,22.0,,62564.1,15.98,-1.0,0.28,0.12,75.8,4.4,30.9,35.81,,,,,,,,,,
14.29.14.724,100.6,25.2,0,22.0,,65293.1,15.32,-1.04,0.29,0.08,65.0,1.5,27.5,35.81,,,,,,,,,,
14.29.14.736,118.5,29.6,0,22.0,,69470.6,14.39,-1.15,0.31,0.03,61.2,0.6,31.6,35.81,,,,,,,,,,
14.29.14.748,50.5,12.6,0,22.0,,68369.1,14.63,-1.23,0.36,0.02,50.6,3.0,27.3,35.81,,,,,,,,,,
14.29.25.106,80.1,,0,22.0,,66823.2,14.96,,0.23,0.07,1.6,5.6,1.8,35.75,118.1,,,,,,,,,
14.29.25.109,33.4,8.4,0,22.0,,65142.3,15.35,-0.97,0.22,0.06,-0.1,3.6,0.9,35.75,,,,,,,,,,
14.29.25.110,76.0,19.0,0,22.0,,63262.7,15.81,-0.97,0.22,0.06,-0.1,3.6,0.9,35.75,,,,,,,,,,
14.29.25.116,49.1,12.3,0,22.0,,64406.4,15.53,-0.97,0.22,0.06,1.5,6.1,0.7,35.75,,,,,,,,,,
14.29.25.125,34.9,8.7,0,22.0,,59711.0,16.75,-0.97,0.22,0.06,2.0,7.3,0.9,35.75,,,,,,,,,,
14.29.25.137,15.1,3.8,0,22.0,,62811.1,15.92,-0.97,0.22,0.06,1.6,6.3,0.4,35.75,,,,,,,,,,
14.29.25.145,3.4,0.8,0,22.0,,68223.7,14.66,-0.97,0.22,0.07,2.1,7.7,0.3,35.75,,,,,,,,,,
14.29.25.158,-4.0,1.0,0,22.0,,70354.4,14.21,-0.96,0.22,0.07,2.6,8.4,0.2,35.75,,,,,,,,,,
14.29.25.170,-31.5,7.9,0,22.0,,64180.5,15.58,-0.97,0.22,0.07,1.3,6.5,-0.2,35.75,,,,,,,,,,
14.29.25.178,-31.9,8.0,0,22.0,,57467.5,17.4,-0.97,0.23,0.07,0.3,6.9,-0.5,35.75,,,,,,,,,,
14.29.25.191,-58.4,14.6,0,22.0,,64173.3,15.58,-0.97,0.22,0.07,1.0,7.6,-0.8,35.75,,,,,,,,,,
14.29.25.203,-23.7,5.9,0,22.0,,67896.8,14.73,-0.97,0.22,0.07,1.0,7.1,-1.1,35.75,,,,,,,,,,
14.29.25.211,-47.1,11.8,0,22.0,,66664.2,15.0,-0.97,0.22,0.06,0.6,7.6,-1.1,35.75,,,,,,,,,,
14.29.25.223,-65.1,16.3,0,22.0,,67850.7,14.74,-0.97,0.23,0.06,0.5,7.8,-1.3,35.75,,,,,,,,,,
14.29.28.796,-63.2,15.8,0,22.0,,64361.4,15.54,,,0.07,6.6,7.5,-5.6,35.75,,,,,,,,,,
14.29.28.797,-62.7,15.7,0,22.0,,64674.6,15.46,-0.96,0.24,0.07,6.3,6.6,-5.6,35.75,,,,,,,,,,
14.29.28.798,-71.2,17.8,0,22.0,,62689.0,15.95,-0.96,0.24,0.07,6.3,9.5,-5.8,35.75,,,,,,,,,,
14.29.28.804,-72.9,18.2,0,22.0,,65820.4,15.19,-0.97,0.23,0.07,5.3,9.1,-6.2,35.75,,,,,,,,,,
14.29.28.812,-95.0,23.8,0,22.0,,63958.7,15.64,-0.97,0.24,0.07,5.7,9.4,-6.2,35.75,,,,,,,,,,
14.29.28.825,-101.3,25.3,0,22.0,,65054.6,15.37,-0.98,0.24,0.07,6.9,9.5,-5.6,35.75,,,,,,,,,,
14.29.28.833,-104.7,26.2,0,22.0,,65378.3,15.3,-0.98,0.24,0.08,6.1,6.4,-5.0,35.75,,,,,,,,,,
14.29.28.845,-92.0,23.0,0,22.0,,63838.1,15.66,-0.98,0.24,0.07,5.2,7.4,-5.9,35.75,,,,,,,,,,
14.29.28.853,-133.9,33.5,0,22.0,,67987.6,14.71,-0.97,0.24,0.07,4.3,6.9,-5.8,35.75,,,,,,,,,,
14.29.28.865,-123.4,30.8,0,22.0,,65986.6,15.15,-0.97,0.23,0.07,5.4,7.0,-5.6,35.75,,,,,,,,,,
14.29.28.874,-129.4,32.4,0,22.0,,64070.2,15.61,-0.97,0.24,0.08,6.6,7.1,-5.4,35.75,,,,,,,,,,
14.29.28.886,-130.1,32.5,0,22.0,,62743.4,15.94,-0.97,0.24,0.08,7.5,6.5,-5.2,35.75,,,,,,,,,,
14.29.28.894,-122.4,30.6,0,22.0,,62129.5,16.1,-0.97,0.24,0.08,7.6,5.8,-5.0,35.75,,,,,,,,,,
14.29.28.906,-135.7,33.9,0,22.0,,62749.7,15.94,-0.97,0.24,0.07,7.4,6.4,-4.7,35.75,,,,,,,,,,
14.29.28.914,-125.7,31.4,0,22.0,,63580.5,15.73,-0.96,0.24,0.08,8.0,6.9,-4.6,35.75,,,,,,,,,,
14.29.28.927,-158.5,39.6,0,22.0,,62853.6,15.91,-0.96,0.24,0.08,7.6,6.3,-3.9,35.75,,,,,,,,,,
14.29.28.935,-155.7,38.9,0,22.0,,61622.5,16.23,-0.97,0.24,0.06,6.1,5.4,-3.8,35.75,,,,,,,,,,
14.29.28.947,67.2,16.8,1,23.0,119.8,67247.9,14.87,-0.97,0.25,0.07,5.4,5.3,-3.6,35.75,,,,,,,,,,
14.29.28.955,146.1,36.5,0,23.0,,63793.0,15.68,-0.97,0.25,0.07,4.2,6.0,-3.4,35.75,,,,,,,,,,
14.29.28.968,192.9,48.2,0,23.0,,66229.4,15.1,-0.97,0.25,0.07,1.7,5.3,-3.2,35.75,,,,,,,,,,
14.29.29.004,401.7,100.4,0,23.0,,63734.7,15.69,-0.97,0.25,0.07,2.4,5.2,-3.0,35.75,,,,,,,,,,
14.29.29.017,395.1,98.8,0,23.0,,60999.1,16.39,-0.97,0.24,0.06,1.6,4.8,-2.0,35.75,,,,,,,,,,
14.29.29.025,400.1,100.0,0,23.0,,60768.2,16.46,-0.97,0.24,0.07,1.7,4.3,-1.9,35.75,,,,,,,,,,
14.29.29.037,381.7,95.4,0,23.0,,62160.8,16.09,-0.97,0.24,0.07,2.1,4.1,-1.5,35.75,,,,,,,,,,
14.29.29.046,425.9,106.5,0,23.0,,65951.0,15.16,-0.97,0.24,0.07,3.2,4.6,-1.2,35.75,,,,,,,,,,
14.29.29.058,367.2,91.8,0,23.0,,64565.3,15.49,-0.97,0.24,0.07,3.8,5.4,-0.7,35.75,,,,,,,,,,
14.29.29.066,302.2,75.6,0,23.0,,66557.2,15.02,-0.97,0.24,0.07,3.3,5.4,-0.9,35.75,,,,,,,,,,
14.29.29.078,256.6,64.2,0,23.0,,64312.6,15.55,-0.97,0.24,0.06,2.7,5.0,-0.3,35.75,,,,,,,,,,
14.29.29.087,242.9,60.7,0,23.0,,63401.0,15.77,-0.97,0.24,0.07,1.7,4.6,-0.1,35.75,,,,,,,,,,
14.29.29.099,113.1,28.3,0,23.0,,66333.1,15.08,-0.97,0.24,0.06,0.2,4.3,-0.2,35.75,,,,,,,,,,
14.29.29.107,85.0,21.2,0,23.0,,65996.5,15.15,-0.97,0.24,0.06,-0.8,4.1,-0.1,35.75,,,,,,,,,,
14.29.29.119,5.8,1.4,0,23.0,,65151.1,15.35,-0.97,0.24,0.06,-1.4,4.3,-0.3,35.75,,,,,,,,,,
14.29.29.146,46.4,11.6,0,23.0,,66244.1,15.1,-0.97,0.24,0.06,-1.6,3.6,0.4,35.75,,,,,,,,,,
14.29.30.435,-169.4,42.4,1,24.0,120.1,62056.6,16.11,-0.97,0.23,0.06,5.7,6.1,-2.9,35.75,118.8,,,,,,,,,
14.29.30.442,-139.3,34.8,0,24.0,,63990.6,15.63,-0.96,0.23,0.06,4.2,4.6,-2.7,35.75,,,,,,,,,,
14.29.30.451,-186.8,46.7,0,24.0,,66707.3,14.99,-0.96,0.24,0.06,3.1,4.7,-2.6,35.75,,,,,,,,,,
14.29.30.463,14.5,3.6,1,25.0,121.6,64509.8,15.5,-0.96,0.23,0.05,3.4,5.4,-2.4,35.75,,,,,,,,,,
14.29.30.476,106.9,26.7,0,25.0,,66978.5,14.93,-0.96,0.23,0.05,2.8,4.9,-2.0,35.75,,,,,,,,,,
14.29.30.483,137.6,34.4,0,25.0,,66347.3,15.07,-0.96,0.23,0.05,1.9,5.4,-2.0,35.75,,,,,,,,,,
14.29.30.496,222.2,55.6,0,25.0,,67212.4,14.88,-0.96,0.24,0.05,0.5,5.5,-2.4,35.75,,,,,,,,,,
14.29.30.508,292.4,73.1,0,25.0,,68147.4,14.67,-0.97,0.23,0.06,1.0,4.7,-3.1,35.75,,,,,,,,,,
14.29.30.516,346.5,86.6,0,25.0,,62969.6,15.88,-0.97,0.23,0.06,1.6,4.7,-2.4,35.75,,,,,,,,,,
14.29.30.529,355.9,89.0,0,25.0,,70352.9,14.21,-0.97,0.23,0.06,2.9,5.6,-2.3,35.75,,,,,,,,,,
14.29.30.537,400.9,100.2,0,25.0,,64699.7,15.46,-0.97,0.23,0.05,3.8,5.3,-2.3,35.75,,,,,,,,,,
14.29.30.549,417.1,104.3,0,25.0,,65280.3,15.32,-0.97,0.23,0.06,4.0,4.9,-2.6,35.75,,,,,,,,,,
14.29.31.060,,114.6,1,26.0,121.4,67462.2,14.82,-0.97,0.23,0.05,-0.9,5.2,-1.2,35.75,,,,,,,,,,
14.29.31.061,413.4,103.4,0,26.0,,65111.2,15.36,-0.97,0.23,0.05,-0.9,5.2,-1.2,35.75,,,,,,,,,,
14.29.31.065,400.4,100.1,0,26.0,,65572.0,15.25,-0.97,0.24,0.06,-2.6,4.2,-1.6,35.75,,,,,,,,,,
14.29.31.073,445.8,111.4,0,26.0,,67466.0,14.82,-0.97,0.23,0.05,-0.7,6.5,-1.2,35.75,,,,,,,,,,
14.29.31.085,368.5,92.1,0,26.0,,60736.7,16.46,-0.97,0.22,0.05,0.3,5.2,-0.8,35.75,,,,,,,,,,
14.29.31.093,284.1,71.0,0,26.0,,66690.2,14.99,-0.97,0.23,0.05,0.1,4.5,-0.6,35.75,,,,,,,,,,
14.29.31.106,235.2,58.8,0,26.0,,64326.4,15.55,-0.97,0.23,0.05,1.4,6.3,-1.0,35.75,,,,,,,,,,
14.29.31.114,181.8,45.4,0,26.0,,65334.0,15.31,-0.97,0.23,0.05,2.3,5.2,-1.0,35.75,,,,,,,,,,
14.29.31.126,144.0,36.0,0,26.0,,66711.0,14.99,-0.97,0.23,0.05,1.9,4.5,-0.7,35.75,,,,,,,,,,
14.29.31.135,93.2,23.3,0,26.0,,61317.1,16.31,-0.96,0.23,0.04,1.6,4.1,-0.8,35.75,,,,,,,,,,
14.29.31.147,38.1,9.5,0,26.0,,59999.9,16.67,-0.97,0.23,0.05,2.2,4.2,-0.5,35.75,,,,,,,,,,
14.29.31.155,-0.2,0.0,0,26.0,,68746.2,14.55,-0.97,0.23,0.05,2.4,4.6,-0.3,35.75,,,,,,,,,,
14.29.31.167,42.5,10.6,0,26.0,,66074.6,15.13,-0.97,0.23,0.06,1.9,4.8,-0.5,35.75,,,,,,,,,,
14.29.31.175,23.1,5.8,0,26.0,,60682.9,16.48,-0.97,0.23,0.06,0.8,5.1,0.0,35.72,,,,,,,,,,
14.29.45.177,79.9,20.0,0,26.0,,69597.2,14.37,-0.97,0.21,0.01,-15.1,6.7,0.5,35.69,117.0,,,,,,,,,
14.29.45.180,53.5,13.4,0,26.0,,64215.5,15.57,-0.98,0.21,0.02,-15.1,5.1,0.9,35.69,,,,,,,,,,
14.29.45.190,52.3,13.1,0,26.0,,64793.1,15.43,-0.98,0.22,0.02,-14.5,3.7,0.9,35.69,,,,,,,,,,
14.29.45.198,73.8,18.4,0,26.0,,66379.5,15.06,-0.98,0.21,0.02,-13.0,4.3,1.3,35.69,,,,,,,,,,
14.29.45.211,76.3,19.1,0,26.0,,65042.4,15.37,-0.98,0.21,0.02,-11.2,6.0,1.3,35.69,,,,,,,,,,
14.29.45.219,61.0,15.2,0,26.0,,59911.4,16.69,-0.96,0.22,0.05,-15.9,11.8,0.5,35.69,,,,,,,,,,
14.29.45.231,53.5,13.4,0,26.0,,59261.7,16.87,-0.97,0.22,0.04,-14.5,8.0,0.3,35.69,,,,,,,,,,
14.29.45.239,47.2,11.8,0,26.0,,70650.7,14.15,-0.97,0.21,0.02,-14.7,5.2,1.1,35.69,,,,,,,,,,
14.29.45.252,-8.1,2.0,0,26.0,,66691.7,14.99,-0.97,0.21,0.02,-13.4,6.7,0.8,35.69,,,,,,,,,,
14.29.45.260,-20.1,5.0,0,26.0,,65121.9,15.36,-0.97,0.21,0.03,-13.7,9.3,1.1,35.69,,,,,,,,,,
14.29.45.272,-3.5,0.9,0,26.0,,62459.7,16.01,-0.97,0.22,0.03,-15.5,7.6,0.7,35.69,,,,,,,,,,
14.29.45.284,-36.1,9.0,0,26.0,,64506.3,15.5,-0.96,0.22,0.03,-16.6,7.7,0.8,35.69,,,,,,,,,,
14.29.45.293,-46.5,11.6,0,26.0,,61432.6,16.28,-0.96,0.21,0.03,-17.0,9.2,0.8,35.69,,,,,,,,,,
14.29.48.865,-32.5,8.1,0,26.0,,66124.6,15.12,-0.93,0.2,0.03,-33.8,6.1,11.2,35.69,,,,,,,,,,
14.29.48.869,-36.9,9.2,0,26.0,,62084.3,16.11,-0.93,0.2,0.04,-32.9,7.4,10.5,35.69,,,,,,,,,,
14.29.48.881,-35.0,8.8,0,26.0,,62876.4,15.9,-0.94,0.2,0.03,-34.8,6.7,9.1,35.69,,,,,,,,,,
14.29.48.889,-40.1,10.0,0,26.0,,67936.5,14.72,-0.94,0.21,0.03,-37.5,5.7,8.0,35.69,,,,,,,,,,
14.29.48.901,-77.7,19.4,0,26.0,,63331.1,15.79,-0.94,0.22,0.04,-38.2,9.1,6.5,35.69,,,,,,,,,,
14.29.48.910,-73.5,18.4,0,26.0,,64851.2,15.42,-0.95,0.23,0.03,-41.7,8.5,4.8,35.69,,,,,,,,,,
14.29.48.922,-93.8,23.4,0,26.0,,62755.4,15.93,-0.95,0.21,0.03,-43.0,9.2,3.3,35.69,,,,,,,,,,
14.29.48.930,-122.1,30.5,0,26.0,,63696.7,15.7,-0.95,0.22,0.04,-45.7,10.0,1.6,35.69,,,,,,,,,,
14.29.48.943,-123.9,31.0,0,26.0,,62125.4,16.1,-0.96,0.22,0.04,-46.8,11.1,-0.1,35.69,,,,,,,,,,
14.29.48.955,-46.1,11.5,0,26.0,,69824.8,14.32,-0.96,0.23,0.04,-48.8,11.9,-1.6,35.69,,,,,,,,,,
14.29.48.963,-104.7,26.2,0,26.0,,61865.5,16.16,-0.96,0.22,0.03,-49.8,12.6,-2.7,35.69,,,,,,,,,,
14.29.48.975,-150.0,37.5,0,26.0,,65344.2,15.3,-0.97,0.22,0.03,-50.4,13.2,-3.5,35.69,,,,,,,,,,
14.29.48.983,-101.7,25.4,0,26.0,,65835.0,15.19,-0.97,0.22,0.03,-51.3,14.0,-4.5,35.69,,,,,,,,,,
14.29.48.996,-124.1,31.0,0,26.0,,65144.2,15.35,-0.96,0.19,-0.02,-64.1,17.4,-5.1,35.69,,,,,,,,,,
14.29.49.004,-150.7,37.7,0,26.0,,63996.5,15.63,-0.97,0.23,0.06,-54.4,16.6,-6.5,35.69,,,,,,,,,,
14.29.49.016,-140.2,35.0,0,26.0,,64461.7,15.51,-0.99,0.23,0.04,-48.6,14.8,-6.6,35.69,,,,,,,,,,
14.29.49.028,-160.9,40.2,0,26.0,,65848.3,15.19,-0.98,0.22,0.05,-47.8,14.5,-7.4,35.69,,,,,,,,,,
14.29.49.037,-169.9,42.5,0,26.0,,60932.2,16.41,-0.98,0.22,0.05,-47.9,14.4,-7.8,35.69,,,,,,,,,,
14.29.49.049,33.9,8.5,1,27.0,119.5,60966.0,16.4,-0.98,0.22,0.05,-46.4,15.9,-8.6,35.69,,,,,,,,,,
14.29.49.057,136.4,34.1,0,27.0,,62887.5,15.9,-0.96,0.22,0.04,-48.0,16.7,-9.0,35.69,,,,,,,,,,
14.29.49.069,175.3,43.8,0,27.0,,63421.8,15.77,-0.96,0.22,0.05,-49.2,15.8,-9.0,35.69,,,,,,,,,,
14.29.49.106,332.3,83.1,0,27.0,,62978.5,15.88,-0.97,0.22,0.04,-48.6,15.7,-8.5,35.69,,,,,,,,,,
14.29.49.119,377.9,94.5,0,27.0,,64218.0,15.57,-0.98,0.23,0.04,-48.4,13.5,-8.9,35.69,,,,,,,,,,
14.29.49.127,371.4,92.8,0,27.0,,63593.4,15.72,-0.99,0.23,0.04,-48.3,13.2,-9.0,35.69,,,,,,,,,,
14.29.49.139,421.8,105.4,0,27.0,,63533.2,15.74,-0.99,0.23,0.04,-47.3,13.8,-9.2,35.69,,,,,,,,,,
14.29.49.147,395.3,98.8,0,27.0,,62726.0,15.94,-0.99,0.24,0.05,-47.0,16.4,-10.0,35.69,,,,,,,,,,
14.29.49.160,344.9,86.2,0,27.0,,64677.9,15.46,-0.99,0.24,0.05,-46.0,17.7,-9.5,35.69,,,,,,,,,,
14.29.49.172,313.7,78.4,0,27.0,,64449.9,15.52,-1.0,0.24,0.05,-44.1,17.8,-9.6,35.69,,,,,,,,,,
14.29.49.180,290.8,72.7,0,27.0,,66229.2,15.1,-1.0,0.23,0.05,-43.5,18.4,-9.3,35.69,,,,,,,,,,
14.29.49.193,170.7,42.7,0,27.0,,62599.5,15.97,-0.99,0.24,0.05,-43.7,17.5,-9.0,35.69,,,,,,,,,,
14.29.49.201,110.0,27.5,0,27.0,,63798.9,15.67,-0.98,0.24,0.05,-42.1,17.5,-8.3,35.69,,,,,,,,,,
14.29.49.213,51.8,13.0,0,27.0,,60434.0,16.55,-0.98,0.25,0.06,,-1.2,-8.1,35.69,,,,,,,,,,
14.30.01.176,22.1,5.5,0,27.0,,66887.3,14.95,-1.01,0.22,0.02,19.4,-1.2,-8.1,35.69,125.0,,,99.0,,,,,,
14.30.01.178,-24.0,6.0,0,27.0,,65830.4,15.19,-1.0,0.21,0.04,19.5,1.2,-8.1,35.69,,,,,,,,,,
14.30.01.183,31.9,8.0,0,27.0,,67700.5,14.77,-0.96,0.18,0.02,16.9,4.1,-6.2,35.69,,,,,,,,,,
14.30.01.195,18.8,4.7,0,27.0,,65840.0,15.19,-0.95,0.18,0.01,15.5,6.5,-5.1,35.69,,,,,,,,,,
14.30.01.204,62.3,15.6,0,27.0,,64823.6,15.43,-0.97,0.18,0.01,14.5,6.9,-3.9,35.69,,,,,,,,,,
14.30.01.216,96.1,24.0,0,27.0,,64842.5,15.42,-0.97,0.18,0.01,13.0,7.1,-3.4,35.69,,,,,,,,,,
14.30.01.228,85.3,21.3,0,27.0,,66149.3,15.12,-0.98,0.18,0.02,11.2,8.9,-3.0,35.69,,,,,,,,,,
14.30.01.237,67.7,16.9,0,27.0,,62906.7,15.9,-0.99,0.18,0.02,11.2,10.5,-3.5,35.69,,,,,,,,,,
14.30.01.249,47.3,11.8,0,27.0,,65293.0,15.32,-1.0,0.19,0.02,10.0,11.3,-3.6,35.69,,,,,,,,,,
14.30.01.257,55.3,13.8,0,27.0,,66520.9,15.03,-1.0,0.19,0.02,8.5,11.4,-4.6,35.69,,,,,,,,,,
14.30.01.269,8.6,2.2,0,27.0,,63323.4,15.79,-0.99,0.19,0.05,8.1,10.4,-5.5,35.69,,,,,,,,,,
14.30.01.278,-7.5,1.9,0,27.0,,63374.7,15.78,-0.99,0.17,0.02,4.6,11.7,-6.6,35.69,,,,,,,,,,
14.30.01.290,9.8,2.4,0,27.0,,59045.9,16.94,-0.98,0.16,0.03,0.9,9.6,-8.7,35.69,,,,,,,,,,
14.30.01.298,-45.2,11.3,0,27.0,,65279.1,15.32,-1.0,0.24,0.23,26.1,17.2,-421.5,35.69,,,,,,,,,,
14.30.05.253,-22.4,5.6,0,27.0,,67798.2,14.75,-1.0,0.24,0.23,26.1,17.2,-42.5,35.69,,,,,,,,,,
14.30.05.254,-49.1,12.3,0,27.0,,64614.2,15.48,-1.0,0.24,0.23,26.1,17.2,-42.5,35.69,,,,,,,,,,
14.30.05.257,19.4,4.8,0,27.0,,64044.5,15.61,-1.02,0.26,0.26,27.4,16.0,-43.8,35.69,,,,,,,,,,
14.30.05.268,-38.7,9.7,0,27.0,,61779.6,16.19,-1.01,0.29,0.26,30.2,16.7,-44.7,35.69,,,,,,,,,,
14.30.05.280,-11.0,2.8,0,27.0,,66937.0,14.94,-1.03,0.31,0.28,28.4,15.7,-45.9,35.69,,,,,,,,,,
14.30.05.288,-44.8,11.2,0,27.0,,66680.7,15.0,-1.05,0.34,0.28,21.8,17.7,-47.6,35.69,,,,,,,,,,
14.30.05.301,-56.2,14.0,0,27.0,,67264.9,14.87,-1.08,0.36,0.29,17.9,22.4,-50.6,35.69,,,,,,,,,,
14.30.05.313,-49.5,12.4,0,27.0,,66784.0,14.97,-1.08,0.37,0.29,16.3,21.9,-50.0,35.69,,,,,,,,,,
14.30.05.321,-64.9,16.2,0,27.0,,66145.4,15.12,-1.07,0.39,0.29,13.3,18.4,-47.6,35.69,,,,,,,,,,
14.30.05.333,-71.5,17.9,0,27.0,,61759.0,16.19,-1.05,0.43,0.31,9.7,17.1,-45.0,35.69,,,,,,,,,,
14.30.05.345,-95.2,23.8,0,27.0,,61058.4,16.38,-1.03,0.43,0.33,6.8,16.9,-43.3,35.69,,,,,,,,,,
14.30.05.354,-73.5,18.4,0,27.0,,64614.7,15.48,-1.01,0.43,0.32,4.7,17.5,-41.7,35.69,,,,,,,,,,
14.30.05.366,-84.3,21.1,0,27.0,,64697.5,15.46,-0.99,0.49,0.3,-1.5,18.3,-38.9,35.69,,,,,,,,,,
14.30.08.939,-110.4,27.6,0,27.0,,59355.5,16.85,,,,,,,35.69,116.0,,,,,,,,,
14.30.08.941,-101.1,25.3,0,27.0,,65989.5,15.15,-0.99,0.27,0.22,-7.4,8.5,-33.1,35.69,,,,,,,,,,
14.30.08.942,-115.2,28.8,0,27.0,,68158.0,14.67,-0.99,0.28,0.21,-5.7,7.0,-30.4,35.69,,,,,,,,,,
14.30.08.950,-103.8,26.0,0,27.0,,66997.4,14.93,-1.25,1.1,0.08,21.9,-29.5,-64.1,35.69,,,,,,,,,,
14.30.08.963,-118.2,29.6,0,27.0,,65670.8,15.23,-1.04,0.12,0.09,67.2,5.6,-36.0,35.69,,,,,,,,,,
14.30.08.975,-138.1,34.5,0,27.0,,62722.2,15.94,-1.06,0.33,0.15,-6.5,-10.5,-24.0,35.69,,,,,,,,,,
14.30.08.983,-119.2,29.8,0,27.0,,61985.9,16.13,-1.08,0.29,0.18,2.6,5.3,-20.1,35.69,,,,,,,,,,
14.30.08.995,-151.4,37.8,0,27.0,,64177.8,15.58,-1.09,0.29,0.17,-4.4,-5.5,-20.4,35.69,,,,,,,,,,
14.30.09.003,-143.5,35.9,0,27.0,,67528.4,14.81,-1.09,0.28,0.19,2.8,-2.7,-16.8,35.69,,,,,,,,,,
14.30.09.016,-139.7,34.9,0,27.0,,66752.3,14.98,-1.08,0.29,0.2,7.6,-5.5,-11.9,35.69,,,,,,,,,,
14.30.09.028,43.0,10.8,1,28.0,122.1,60206.3,16.61,-1.07,0.29,0.18,8.9,-6.5,-11.3,35.69,,,,,,,,,,
14.30.09.036,45.0,11.2,0,28.0,,62556.8,15.99,-1.1,0.28,0.19,13.5,-8.3,-7.6,35.69,,,,,,,,,,
14.30.09.049,159.3,39.8,0,28.0,,58635.8,17.05,-1.01,0.38,0.12,12.0,-10.9,-1.9,35.69,,,,,,,,,,
14.30.09.057,181.1,45.3,0,28.0,,61597.1,16.23,-1.09,0.31,0.22,18.2,-5.8,2.1,35.63,,,,,,,,,,
14.30.24.170,249.5,62.4,0,28.0,,63733.0,15.69,-0.97,0.17,0.07,23.6,6.7,-13.7,35.63,119.7,,,,,,,,,
14.30.24.171,239.3,59.8,0,28.0,,62254.9,16.06,-0.97,0.17,0.07,23.6,8.1,-22.0,35.63,,,,,,,,,,
14.30.24.178,245.8,61.4,0,28.0,,65521.3,15.26,-0.97,0.19,0.09,21.4,9.1,-30.6,35.63,,,,,,,,,,
14.30.24.186,299.5,74.9,0,28.0,,65494.4,15.27,-0.96,0.21,0.12,18.9,11.2,-37.4,35.63,,,,,,,,,,
14.30.24.198,371.7,92.9,0,28.0,,65277.8,15.32,-0.98,0.19,0.09,16.9,12.1,-45.7,35.63,,,,,,,,,,
14.30.24.206,379.4,94.8,0,28.0,,68028.5,14.7,-1.01,0.19,0.09,16.1,13.9,-53.0,35.63,,,,,,,,,,
14.30.24.218,384.4,96.1,0,28.0,,65448.3,15.28,-1.05,0.18,0.07,15.2,15.7,-60.4,35.63,,,,,,,,,,
14.30.24.231,403.4,100.8,0,28.0,,64294.9,15.55,-1.08,0.17,0.05,15.8,17.1,-67.0,35.63,,,,,,,,,,
14.30.24.239,451.2,112.8,0,28.0,,64230.0,15.57,-1.13,0.17,0.03,15.6,16.1,-74.1,35.63,,,,,,,,,,
14.30.24.251,328.1,82.0,0,28.0,,65953.0,15.16,-1.19,0.17,0.01,17.6,16.0,-80.7,35.63,,,,,,,,,,
14.30.24.260,345.1,86.3,0,28.0,,65549.8,15.26,-1.22,0.19,0.02,20.8,16.9,-87.2,35.63,,,,,,,,,,
14.30.24.272,254.6,63.6,0,28.0,,67055.2,14.91,-1.24,0.21,0.02,24.9,17.0,-93.4,35.63,,,,,,,,,,
14.30.24.280,223.2,55.8,0,28.0,,60108.6,16.64,-1.22,0.21,0.06,28.1,16.2,-98.8,35.63,,,,,,,,,,
14.30.24.292,183.1,45.8,0,28.0,,67762.4,14.76,-1.16,0.21,0.09,-0.3,17.5,-90.8,35.63,,,,,,,,,,
14.30.24.496,-67.2,16.8,0,28.0,,61401.5,16.29,-1.27,0.28,0.12,-0.3,17.5,-90.8,35.63,,,,,,,,,,
14.30.24.503,-78.8,19.7,0,28.0,,65497.9,15.27,-1.07,0.22,0.12,1.1,24.9,-90.3,35.63,,,,,,,,,,
14.30.24.509,-83.2,20.8,0,28.0,,66344.2,15.07,-1.03,0.22,0.14,-0.2,22.2,-85.2,35.63,,,,,,,,,,
14.30.24.522,-81.3,20.3,0,28.0,,65711.6,15.22,-0.98,0.24,0.16,-5.2,21.7,-78.7,35.63,,,,,,,,,,
14.30.24.530,-97.1,24.3,0,28.0,,65017.1,15.38,-0.97,0.19,0.14,5.7,25.9,-78.6,35.63,,,,,,,,,,
14.30.24.542,-110.0,27.5,0,28.0,,65336.0,15.31,-0.93,0.21,0.17,9.2,23.7,-74.0,35.63,,,,,,,,,,
14.30.24.550,-93.3,23.3,0,28.0,,62761.2,15.93,-0.92,0.2,0.14,12.7,20.3,-71.0,35.63,,,,,,,,,,
14.30.24.563,-111.2,27.8,0,28.0,,64980.4,15.39,-0.9,0.2,0.14,17.6,20.4,-69.0,35.63,,,,,,,,,,
14.30.24.575,-122.8,30.7,0,28.0,,65855.2,15.18,-0.88,0.21,0.14,21.4,21.0,-68.1,35.63,,,,,,,,,,
14.30.24.583,-141.1,35.3,0,28.0,,66167.5,15.11,-0.88,0.21,0.16,24.6,18.5,-65.9,35.63,,,,,,,,,,
14.30.24.596,-145.5,36.4,0,28.0,,65067.2,15.37,-0.88,0.23,0.15,25.1,18.3,-64.5,35.63,,,,,,,,,,
14.30.24.604,-159.5,39.9,0,28.0,,66778.9,14.97,-0.88,0.25,0.14,21.9,16.9,-64.1,35.63,,,,,,,,,,
14.30.24.616,-148.9,37.2,0,28.0,,67013.5,14.92,-0.9,0.24,0.17,28.7,19.4,-60.8,35.63,,,,,,,,,,
14.30.24.624,-158.2,39.6,0,28.0,,65973.1,15.16,-0.9,0.25,0.17,24.6,13.9,-60.0,35.63,,,,,,,,,,
14.30.24.637,-180.3,45.1,0,28.0,,65476.6,15.27,-0.92,0.26,0.18,25.3,12.8,-59.1,35.63,,,,,,,,,,
14.30.24.649,47.6,11.9,1,29.0,114.2,61633.8,16.22,-0.92,0.27,0.17,24.0,11.4,-57.9,35.63,,,,,,,,,,
14.30.24.657,127.3,31.8,0,29.0,,61900.4,16.15,-0.92,0.28,0.18,21.9,9.9,-57.2,35.63,,,,,,,,,,
14.30.24.669,159.5,39.9,0,29.0,,67765.2,14.76,-0.92,0.29,0.17,21.2,7.9,-56.5,35.63,,,,,,,,,,
14.30.24.678,266.5,66.6,0,29.0,,64777.1,15.44,-0.92,0.28,0.17,19.6,6.1,-55.5,35.63,,,,,,,,,,
14.30.24.690,305.1,76.3,0,29.0,,66645.6,15.0,-0.92,0.28,0.18,19.2,4.3,-53.3,35.63,,,,,,,,,,
14.30.24.698,357.9,89.5,0,29.0,,68303.0,14.64,-0.94,0.27,0.18,18.7,3.2,-50.7,35.63,,,,,,,,,,
14.30.24.710,388.5,97.1,0,29.0,,64283.1,15.56,-0.95,0.28,0.19,19.1,3.0,-48.4,35.63,,,,,,,,,,
14.30.24.718,390.3,97.6,0,29.0,,67454.5,14.82,-1.01,0.19,0.05,10.3,-1.3,20.5,35.69,,,,,,,,,,
14.30.39.175,411.5,102.9,0,29.0,,64093.5,15.6,-1.04,0.18,0.07,6.3,-0.1,13.2,35.69,118.1,,,,,,,,,
14.30.39.184,396.0,99.0,0,29.0,,61784.8,16.19,-1.06,0.18,0.07,2.5,1.2,5.8,35.69,,,,,,,,,,
14.30.39.196,371.8,93.0,0,29.0,,66068.9,15.14,-1.06,0.19,0.08,0.9,-0.6,0.1,35.69,,,,,,,,,,
14.30.39.204,401.9,100.5,0,29.0,,67618.2,14.79,-1.06,0.2,0.09,2.5,0.4,-7.9,35.69,,,,,,,,,,
14.30.39.216,307.1,76.8,0,29.0,,67965.4,14.71,-1.07,0.19,0.08,2.5,0.6,-15.1,35.69,,,,,,,,,,
14.30.39.224,333.3,83.3,0,29.0,,65133.9,15.35,-1.13,0.18,0.04,6.0,2.0,-23.4,35.69,,,,,,,,,,
14.30.39.237,288.1,72.0,0,29.0,,63821.3,15.67,-1.19,0.17,0.03,10.4,3.6,-31.7,35.69,,,,,,,,,,
14.30.39.245,184.2,46.0,0,29.0,,62629.9,15.97,-1.25,0.17,0.02,14.8,7.3,-40.4,35.69,,,,,,,,,,
14.30.39.257,105.2,26.3,0,29.0,,62716.7,15.94,-1.3,0.16,0.0,17.8,8.6,-47.7,35.69,,,,,,,,,,
14.30.39.270,36.0,9.0,0,29.0,,65456.9,15.28,-1.29,0.17,0.0,21.2,5.4,-51.9,35.69,,,,,,,,,,
14.30.39.278,19.8,5.0,0,29.0,,71386.9,14.01,-1.23,0.16,,,1.8,-61.1,35.69,,,,,,,,,,
14.30.39.333,81.2,20.3,0,29.0,,65906.9,15.17,-0.75,0.11,0.09,63.8,5.4,-58.7,35.69,,,,,,,,,,
14.30.39.339,78.8,19.7,0,29.0,,65568.0,15.25,-0.74,0.12,0.08,63.7,10.6,-57.9,35.69,,,,,,,,,,
14.30.39.352,9.6,2.4,0,29.0,,66047.6,15.14,-0.75,0.12,0.08,58.7,14.2,-57.1,35.69,,,,,,,,,,
14.30.39.364,29.6,7.4,0,29.0,,64324.8,15.55,-0.79,0.14,0.07,50.5,17.1,-57.3,35.69,,,,,,,,,,
14.30.39.372,11.5,2.9,0,29.0,,66601.8,15.01,-0.86,0.17,0.09,39.0,20.7,-57.8,35.69,,,,,,,,,,
14.30.39.384,-3.5,0.9,0,29.0,,64147.8,15.59,-0.92,0.19,0.1,28.4,22.6,-58.1,35.69,,,,,,,,,,
14.30.39.392,-5.3,1.3,0,29.0,,68210.1,14.66,-1.0,0.22,0.11,16.7,23.2,-58.7,35.69,,,,,,,,,,
14.30.39.405,-23.4,5.8,0,29.0,,63495.8,15.75,-1.06,0.25,0.1,5.4,24.1,-59.8,35.69,,,,,,,,,,
14.30.39.413,-32.6,8.2,0,29.0,,63750.5,15.69,-1.12,0.27,0.1,-4.8,23.8,-61.6,35.69,,,,,,,,,,
14.30.39.425,-44.3,11.1,0,29.0,,65414.3,15.29,-1.13,0.28,0.09,-11.5,22.3,-63.0,35.69,,,,,,,,,,
14.30.39.437,-92.9,23.2,0,29.0,,64476.6,15.51,-1.12,0.27,0.09,-17.4,18.0,-65.0,35.69,,,,,,,,,,
14.30.39.446,-45.2,11.3,0,29.0,,66790.0,14.97,-1.09,0.25,0.12,-17.1,20.2,-67.9,35.69,,,,,,,,,,
14.30.39.458,-82.4,20.6,0,29.0,,66361.1,15.07,-1.05,0.22,0.13,-19.5,20.0,-68.5,35.69,,,,,,,,,,
14.30.39.466,-73.7,18.4,0,29.0,,65028.3,15.38,-1.01,0.2,0.14,-13.6,20.1,-69.6,35.69,,,,,,,,,,
14.30.39.478,-87.0,21.8,0,29.0,,65091.7,15.36,-0.96,0.19,0.16,-9.9,22.2,-67.8,35.69,,,,,,,,,,
14.30.39.491,-69.3,17.3,0,29.0,,64554.1,15.49,-0.93,0.19,0.18,-5.7,20.7,-64.5,35.69,,,,,,,,,,
14.30.39.499,-121.9,30.5,0,29.0,,64941.0,15.4,-0.9,0.2,0.19,2.1,21.4,-62.0,35.69,,,,,,,,,,
14.30.39.511,-139.6,34.9,0,29.0,,60607.5,16.5,-0.87,0.21,0.2,1.8,20.6,-59.6,35.69,,,,,,,,,,
14.30.39.519,-105.8,26.4,0,29.0,,60756.0,16.46,-0.87,0.22,0.2,-2.3,22.7,-58.7,35.69,,,,,,,,,,
14.30.39.532,-116.7,29.2,0,29.0,,60192.8,16.61,-0.87,0.25,0.22,-7.0,25.2,-61.6,35.69,,,,,,,,,,
14.30.39.540,-111.6,27.9,0,29.0,,65603.1,15.24,-0.87,0.26,0.21,-11.0,27.1,-59.4,35.69,,,,,,,,,,
14.30.39.552,-143.1,35.8,0,29.0,,66651.4,15.0,-0.88,0.27,0.19,-24.0,29.8,-62.0,35.69,,,,,,,,,,
14.30.39.565,-109.9,27.5,0,29.0,,62732.3,15.94,-0.89,0.27,0.2,-29.4,30.7,-64.6,35.69,,,,,,,,,,
14.30.39.577,-136.5,34.1,0,29.0,,65529.9,15.26,-0.89,0.29,0.19,-34.3,31.3,-63.8,35.69,,,,,,,,,,
14.30.39.585,-128.7,32.2,0,29.0,,68175.2,14.67,-0.9,0.3,0.17,-43.2,30.9,-63.4,35.69,,,,,,,,,,
14.30.39.597,-155.0,38.8,0,29.0,,66301.4,15.08,-0.91,0.28,0.18,-50.4,29.9,-64.4,35.69,,,,,,,,,,
14.30.39.606,43.1,10.8,1,30.0,114.8,63311.3,15.79,-0.93,0.28,0.19,-52.1,30.4,-64.2,35.69,,,,,,,,,,
14.30.39.618,88.0,22.0,0,30.0,,61013.0,16.39,-0.93,0.27,0.2,-54.6,28.4,-62.8,35.69,,,,,,,,,,
14.30.39.626,135.7,33.9,0,30.0,,65009.4,15.38,-0.95,0.25,0.2,-55.8,28.2,-61.6,35.69,,,,,,,,,,
14.30.39.638,260.4,65.1,0,30.0,,65542.3,15.26,-0.96,0.24,0.21,-55.7,26.9,-60.1,35.69,,,,,,,,,,
14.30.39.651,333.5,83.4,0,30.0,,64450.3,15.52,-0.96,0.24,0.23,-53.1,24.8,-56.7,35.69,,,,,,,,,,
14.30.39.659,329.6,82.4,0,30.0,,62610.1,15.97,-0.96,0.24,0.22,-48.2,21.6,-52.4,35.69,,,,,,,,,,
14.30.39.671,411.7,102.9,0,30.0,,67272.2,14.86,-0.96,0.22,0.22,-36.5,20.3,-45.8,35.69,,,,,,,,,,
14.30.39.679,410.6,102.6,0,30.0,,67410.0,14.83,-0.95,0.21,0.21,-32.5,18.8,-43.8,35.69,,,,,,,,,,
14.30.39.691,427.6,106.9,0,30.0,,65990.5,15.15,-0.96,0.21,0.22,-28.3,16.8,-40.2,35.69,,,,,,,,,,
14.30.39.700,386.8,96.7,0,30.0,,61130.5,16.36,-0.94,0.22,0.22,-21.4,17.4,-37.0,35.69,,,,,,,,,,
14.30.39.712,394.5,98.6,0,30.0,,63045.0,15.86,-0.97,0.22,0.21,-18.0,15.2,-34.5,35.69,,,,,,,,,,
14.30.39.725,363.5,90.9,0,30.0,,66691.4,14.99,-0.99,0.23,0.19,-8.4,14.8,-27.9,35.69,,,,,,,,,,
14.30.39.733,274.3,68.6,0,30.0,,64866.2,15.42,-1.03,0.26,0.2,-8.2,13.0,-26.8,35.69,,,,,,,,,,
14.30.39.745,223.7,55.9,0,30.0,,62222.5,16.07,-1.09,0.28,0.19,-8.8,12.8,-22.9,35.69,,,,,,,,,,
14.30.39.753,228.3,57.1,0,30.0,,64474.0,15.51,-1.12,0.29,0.2,-12.2,10.3,-21.1,35.69,,,,,,,,,,
14.30.39.765,104.0,26.0,0,30.0,,66741.0,14.98,-1.15,0.29,0.22,-11.6,7.1,-17.1,35.69,,,,,,,,,,
14.30.39.802,61.4,15.4,0,30.0,,63059.4,15.86,-1.15,0.3,0.22,-14.8,7.3,-16.4,35.69,,,,,,,,,,
14.30.39.810,75.5,18.9,0,30.0,,68749.9,14.55,-1.26,0.3,0.2,-2.6,-1.3,-9.7,35.69,,,,,,,,,,
14.30.39.823,78.9,19.7,0,30.0,,64201.6,15.58,-1.26,0.29,0.21,0.7,-1.3,-8.7,35.69,,,,,,,,,,
14.30.39.831,49.8,12.4,0,30.0,,64199.8,15.58,-1.22,0.28,0.21,7.5,-3.5,-5.4,35.69,,,,,,,,,,
14.30.39.843,14.8,3.7,0,30.0,,65586.7,15.25,-1.19,0.28,0.23,9.0,-4.6,-1.5,35.69,,,,,,,,,,
14.30.39.851,47.4,11.8,0,30.0,,65631.1,15.24,-1.15,0.29,0.23,15.9,-6.6,4.1,35.69,,,,,,,,,,
14.30.39.868,43.1,10.8,0,30.0,,63683.1,15.7,-1.05,0.29,0.22,20.7,-9.8,12.9,35.69,,,,,,,,,,
14.30.39.876,-2.4,0.6,0,30.0,,61606.3,16.23,-0.98,0.28,0.21,23.0,-13.6,22.1,35.69,,,,,,,,,,
14.30.39.888,,,0,30.0,,64862.7,15.42,,,,,,,35.69,,,,,,,,,,
14.30.39.905,,,0,30.0,,66139.0,15.12,,,,,,,35.69,,35.79,,,,,,,,
14.30.39.913,-3.9,1.0,0,30.0,,64820.5,15.43,-0.88,0.26,0.07,4.7,-17.9,48.1,35.69,,,,,,,,,,
14.30.39.925,-40.5,10.1,0,30.0,,61749.0,16.19,-0.9,0.25,0.05,-7.2,-19.7,53.8,35.69,,,,,,,,,,
14.30.39.933,-42.2,10.6,0,30.0,,63169.5,15.83,-0.91,0.25,0.04,-17.7,-18.1,58.9,35.69,,,,,,,,,,
14.30.39.945,-34.6,8.6,0,30.0,,67368.9,14.84,-0.93,0.25,0.04,-30.3,-18.9,64.6,35.69,,,,,,,,,,
14.30.39.958,-17.1,4.3,0,30.0,,64045.6,15.61,-1.0,0.25,0.07,-32.5,-21.9,77.7,35.69,,,,,,,,,,
14.30.39.966,-53.4,13.4,0,30.0,,62653.8,15.96,-0.95,0.29,-0.01,-38.8,-4.7,74.3,35.69,,,,,,,,,,
14.30.39.978,-71.9,18.0,0,30.0,,64197.1,15.58,-1.02,0.28,0.06,-71.5,-9.4,70.5,35.69,,,,,,,,,,
14.30.39.986,-100.8,25.2,0,30.0,,62402.9,16.02,-1.06,0.23,0.03,-72.9,-15.7,79.1,35.69,,,,,,,,,,
14.30.39.999,-86.7,21.7,0,30.0,,64576.6,15.49,-1.06,0.26,0.09,-64.9,-1.7,79.4,35.69,,,,,,,,,,
14.30.40.011,-119.1,29.8,0,30.0,,64750.3,15.44,-1.11,0.25,0.06,-87.8,-5.3,78.0,35.69,,,,,,,,,,
14.30.40.019,-72.1,18.0,0,30.0,,66967.8,14.93,-1.13,0.24,0.09,-95.0,-6.3,78.8,35.69,,,,,,,,,,
14.30.40.032,-116.8,29.2,0,30.0,,64184.9,15.58,-1.13,0.23,0.09,-94.6,-2.7,78.5,35.69,,,,,,,,,,
14.30.40.040,-87.0,21.8,0,30.0,,63631.4,15.72,-1.12,0.21,0.07,-96.9,-6.7,79.9,35.69,,,,,,,,,,
14.30.40.052,-113.5,28.4,0,30.0,,59835.3,16.71,-1.1,0.2,0.06,-92.4,-10.8,84.0,35.69,,,,,,,,,,
14.30.40.065,-135.9,34.0,0,30.0,,68999.2,14.49,-1.07,0.19,0.05,-84.9,-12.3,85.6,35.69,,,,,,,,,,
14.30.40.073,-152.3,38.1,0,30.0,,66483.5,15.04,-1.04,0.17,0.03,-78.6,-13.3,87.2,35.69,,,,,,,,,,
14.30.40.085,-164.0,41.0,0,30.0,,67031.4,14.92,-1.0,0.17,0.02,-77.2,-15.0,89.1,35.69,,,,,,,,,,
14.30.40.093,-163.9,41.0,0,30.0,,65442.7,15.28,-1.0,0.16,0.0,-69.7,-14.6,88.6,35.69,,,,,,,,,,
14.30.40.105,-140.8,35.2,0,30.0,,64464.8,15.51,-0.97,0.12,-0.01,-60.2,-10.2,86.5,35.69,,,,,,,,,,
14.30.40.118,31.2,7.8,1,31.0,119.7,64037.3,15.62,-0.96,0.11,-0.01,-49.0,-11.0,87.0,35.69,,,,,,,,,,
14.30.40.126,92.0,23.0,0,31.0,,61422.7,16.28,-0.94,0.1,-0.02,-42.3,-13.4,87.1,35.69,,,,,,,,,,
14.30.40.138,180.0,45.0,0,31.0,,58620.6,17.06,-0.94,0.09,-0.03,-30.9,-16.6,88.7,35.69,,,,,,,,,,
14.30.40.146,227.4,56.8,0,31.0,,64705.5,15.45,-0.95,0.08,-0.03,-18.2,-13.3,85.8,35.69,,,,,,,,,,
14.30.40.159,322.5,80.6,0,31.0,,65658.5,15.23,-0.93,0.05,-0.04,-8.7,-21.7,85.6,35.69,,,,,,,,,,
14.30.40.171,361.8,90.4,0,31.0,,63717.0,15.69,-0.92,0.07,-0.01,5.6,-21.2,85.4,35.69,,,,,,,,,,
14.30.40.179,395.3,98.8,0,31.0,,65667.6,15.23,-0.9,0.06,-0.06,18.8,-19.0,82.7,35.69,,,,,,,,,,
14.30.40.192,432.2,108.0,0,31.0,,63259.7,15.81,-0.9,0.06,-0.05,30.2,-26.3,80.1,35.69,,,,,,,,,,
