timestamp,ppg,threshold,beat,beat_count,inst_bpm,gsr_resistance_ohm,gsr_conductance_us,accel_x,accel_y,accel_z,gyro_x,gyro_y,gyro_z,temp_c,window_bpm,window_temp_c,status_message,SpO2,bmi,age,height,weight,env_temp_c,env_humidity_pct
14.22.00.990,,,0,,,93306.3,10.72,,,,,7.9,-0.4,32.81,102.9,,,97.0,17.5,21.0,152.4,40.74,31.44,45.0
14.22.00.990,-1.1,0.3,0,,,93194.5,10.73,0.08,0.59,0.8,-2.8,4.1,-0.3,32.81,,,,,,,,,,
14.22.01.002,54.5,13.6,0,,,91561.3,10.92,0.09,0.59,0.79,-1.5,7.7,-0.8,32.81,,,,,,,,,,
14.22.01.011,94.8,23.7,0,,,93325.4,10.72,0.09,0.6,0.8,-0.8,5.6,-1.5,32.81,,,,,,,,,,
14.22.01.023,167.5,41.9,0,,,91934.7,10.88,0.09,0.59,0.81,-3.0,5.4,-1.0,32.81,,,,,,,,,,
14.22.01.031,177.6,44.4,0,,,92247.0,10.84,0.09,0.57,0.8,-1.6,4.6,-1.8,32.81,,,,,,,,,,
14.22.01.043,241.4,60.4,0,,,91644.3,10.91,0.08,0.58,0.8,-1.8,6.2,-2.0,32.81,,,,,,,,,,
14.22.01.056,289.4,72.4,0,,,93245.8,10.72,0.09,0.58,0.8,-0.3,6.0,-1.8,32.81,,,,,,,,,,
14.22.01.064,264.6,66.2,0,,,91966.2,10.87,0.09,0.6,0.8,0.4,6.2,-1.7,32.81,,,,,,,,,,
14.22.01.076,306.2,76.6,0,,,91893.8,10.88,0.09,0.59,0.8,-0.7,5.8,-2.0,32.81,,,,,,,,,,
14.22.01.084,303.0,75.8,0,,,92958.0,10.76,0.08,0.58,0.8,-1.2,6.6,-1.8,32.81,,,,,,,,,,
14.22.01.097,314.5,78.6,0,,,93291.9,10.72,0.08,0.58,0.79,0.5,5.3,-1.5,32.81,,,,,,,,,,
14.22.01.105,293.0,73.2,0,,,92270.5,10.84,0.08,0.58,0.79,-2.5,5.5,-1.8,32.81,,,,,,,,,,
14.22.01.117,300.1,75.0,0,,,91321.9,10.95,0.08,0.57,0.8,-0.3,5.6,-1.4,32.81,,,,,,,,,,
14.22.01.125,261.7,65.4,0,,,93132.7,10.74,0.08,0.58,0.8,-0.3,5.7,-2.1,32.81,,,,,,,,,,
14.22.01.142,229.4,57.4,0,,,91641.4,10.91,0.09,0.59,0.79,-0.5,4.8,-1.6,32.81,,,,,,,,,,
14.22.01.150,204.2,51.0,0,,,91993.4,10.87,0.09,0.59,0.8,-1.2,4.9,-2.1,32.81,,,,,,,,,,
14.22.01.162,176.5,44.1,0,,,92111.7,10.86,0.09,0.58,0.8,-0.8,5.9,-1.6,32.81,,,,,,,,,,
14.22.01.170,132.2,33.0,0,,,91954.1,10.87,0.09,0.58,0.8,-0.1,5.8,-1.7,32.81,,,,,,,,,,
14.22.01.183,69.8,17.4,0,,,92067.0,10.86,0.08,0.59,0.8,-0.5,5.1,-1.7,32.81,,,,,,,,,,
14.22.01.191,37.6,9.4,0,,,92597.1,10.8,0.09,0.59,0.8,0.0,5.4,-1.7,32.81,,,,,,,,,,
14.22.01.203,4.5,1.1,0,,,91848.1,10.89,0.08,0.59,0.8,0.1,6.1,-1.5,32.81,,,,,,,,,,
14.22.01.211,22.4,5.6,0,,,91815.9,10.89,0.09,0.58,0.79,0.0,5.9,-1.7,32.81,,,,,,,,,,
14.22.01.225,34.8,8.7,0,,,92422.7,10.82,0.08,0.59,0.81,0.1,4.6,-1.6,32.81,,,,,,,,,,
14.22.01.232,53.9,13.5,0,,,92952.3,10.76,0.09,0.59,0.8,0.6,7.5,-1.8,32.81,,,,,,,,,,
14.22.01.244,59.1,14.8,0,,,92071.3,10.86,0.08,0.59,0.79,0.0,7.3,-1.3,32.81,,,,,,,,,,
14.22.01.252,56.7,14.2,0,,,92045.2,10.86,0.08,0.58,0.8,-0.5,6.2,-1.3,32.81,,,,,,,,,,
14.22.01.265,63.4,15.8,0,,,92916.6,10.76,0.08,0.59,0.79,-0.2,5.9,-0.6,32.81,,,,,,,,,,
14.22.01.277,46.2,11.6,0,,,92244.9,10.84,0.08,0.59,0.79,-0.5,5.4,-1.5,32.81,,,,,,,,,,
14.22.01.285,46.6,11.6,0,,,91553.6,10.92,0.09,0.6,0.82,-1.4,4.4,-1.3,32.81,,,,,,,,,,
14.22.01.297,21.2,5.3,0,,,90876.1,11.0,0.09,0.59,0.8,-0.4,7.5,-1.9,32.81,,,,,,,,,,
14.22.01.306,19.6,4.9,0,,,91555.3,10.92,0.08,0.59,0.79,-1.1,6.0,-1.8,32.81,,,,,,,,,,
14.22.01.318,0.9,0.2,0,,,91607.7,10.92,0.09,0.58,0.8,-2.4,6.1,-2.0,32.81,,,,,,,,,,
14.22.01.326,4.6,1.2,0,,,91631.5,10.91,0.08,0.57,0.8,-0.7,6.3,-2.0,32.81,,,,,,,,,,
14.22.01.338,-3.5,0.9,0,,,92081.4,10.86,0.08,0.58,0.8,-0.7,5.8,-2.0,32.81,,,,,,,,,,
14.22.01.347,-13.6,3.4,0,,,90374.3,11.07,0.08,0.59,0.8,-0.7,6.2,-2.1,32.81,,,,,,,,,,
14.22.01.359,-24.4,6.1,0,,,92426.9,10.82,0.08,0.58,0.8,-1.6,5.9,-1.8,32.81,,,,,,,,,,
14.22.01.371,-27.4,6.8,0,,,91841.9,10.89,0.09,0.57,0.8,-0.8,6.0,-1.9,32.81,,,,,,,,,,
14.22.01.379,-17.8,4.4,0,,,92692.2,10.79,0.09,0.58,0.8,0.4,6.8,-1.8,32.81,,,,,,,,,,
14.22.01.392,-30.5,7.6,0,,,93008.8,10.75,0.08,0.59,0.8,0.6,6.0,-2.1,32.81,,,,,,,,,,
14.22.01.428,-49.2,12.3,0,,,91398.0,10.94,0.08,0.59,0.79,-0.5,5.5,-2.3,32.81,,,,,,,,,,
14.22.01.437,-44.4,11.1,0,,,91667.2,10.91,0.09,0.6,0.81,-2.4,5.8,-1.9,32.81,,,,,,,,,,
14.22.01.449,-65.6,16.4,0,,,92280.9,10.84,0.08,0.58,0.8,-0.2,8.8,-2.6,32.81,,,,,,,,,,
14.22.01.457,-56.0,14.0,0,,,92089.2,10.86,0.08,0.59,0.79,-0.9,5.8,-2.5,32.81,,,,,,,,,,
14.22.01.469,-83.4,20.8,0,,,91282.5,10.96,0.08,0.58,0.8,-2.0,4.9,-2.6,32.81,,,,,,,,,,
14.22.01.482,-70.7,17.7,0,,,91903.8,10.88,0.08,0.58,0.8,-1.9,6.2,-2.7,32.81,,,,,,,,,,
14.22.01.490,-90.9,22.7,0,,,92350.4,10.83,0.09,0.59,0.81,-2.4,6.7,-2.0,32.81,,,,,,,,,,
14.22.01.503,-97.6,24.4,0,,,91203.7,10.96,0.08,0.58,0.79,-0.6,7.9,-3.0,32.81,,,,,,,,,,
14.22.01.510,-85.8,21.4,0,,,91087.0,10.98,0.08,0.58,0.79,-1.0,5.1,-2.0,32.81,,,,,,,,,,
14.22.01.523,-98.8,24.7,0,,,91047.1,10.98,0.08,0.57,0.8,-1.2,6.3,-3.2,32.81,,,,,,,,,,
14.22.01.531,-98.5,24.6,0,,,90633.1,11.03,0.08,0.59,0.81,1.3,4.9,-2.7,32.81,,,,,,,,,,
14.22.01.543,-114.4,28.6,0,,,91648.7,10.91,0.09,0.59,0.8,0.5,6.4,-3.5,32.81,,,,,,,,,,
14.22.01.551,-111.8,28.0,0,,,92296.5,10.83,0.08,0.6,0.8,-1.7,5.4,-2.4,32.81,,,,,,,,,,
14.22.01.564,-130.0,32.5,0,,,92045.3,10.86,0.08,0.58,0.8,-0.3,8.5,-3.3,32.81,,,,,,,,,,
14.22.01.572,-119.9,30.0,0,,,90398.6,11.06,0.08,0.58,0.8,0.6,6.8,-3.6,32.81,,,,,,,,,,
14.22.01.584,6.4,1.6,1,1.0,104.3,90581.1,11.04,0.07,0.57,0.81,-1.5,4.4,-3.8,32.81,,,,,,,,,,
14.22.01.596,55.6,13.9,0,1.0,,91049.7,10.98,0.08,0.55,0.8,1.1,5.0,-4.6,32.81,,,,,,,,,,
14.22.01.605,105.2,26.3,0,1.0,,91774.7,10.9,0.09,0.59,0.81,3.2,6.1,-4.2,32.81,,,,,,,,,,
14.22.01.617,159.7,39.9,0,1.0,,91271.1,10.96,0.08,0.61,0.8,1.1,5.9,-4.3,32.81,,,,,,,,,,
14.22.01.626,190.8,47.7,0,1.0,,90543.6,11.04,0.09,0.58,0.8,-4.1,6.2,-3.9,32.81,,,,,,,,,,
14.22.01.637,229.2,57.3,0,1.0,,91141.3,10.97,0.09,0.58,0.8,-1.4,9.3,-4.0,32.81,,,,,,,,,,
14.22.01.646,255.7,63.9,0,1.0,,91533.3,10.92,0.07,0.57,0.8,0.5,11.0,-4.4,32.81,,,,,,,,,,
14.22.01.658,278.2,69.6,0,1.0,,91868.4,10.89,0.06,0.59,0.82,-1.7,7.5,-3.2,32.81,,,,,,,,,,
14.22.01.666,278.6,69.6,0,1.0,,90166.8,11.09,0.07,0.57,0.8,-1.1,9.1,-2.6,32.81,,,,,,,,,,
14.22.01.678,327.7,81.9,0,1.0,,92758.0,10.78,0.09,0.58,0.81,0.5,7.3,-1.8,32.81,,,,,,,,,,
14.22.01.691,324.8,81.2,0,1.0,,91210.5,10.96,0.08,0.57,0.8,1.8,8.3,-3.4,32.81,,,,,,,,,,
14.22.01.703,325.0,81.2,0,1.0,,93009.6,10.75,0.07,0.58,0.78,2.3,6.3,-2.5,32.81,,,,,,,,,,
14.22.01.711,319.2,79.8,0,1.0,,92779.7,10.78,0.07,0.58,0.81,0.8,5.5,-3.8,32.81,,,,,,,,,,
14.22.01.723,263.6,65.9,0,1.0,,91121.0,10.97,0.08,0.6,0.82,1.1,6.8,-3.7,32.81,,,,,,,,,,
14.22.01.732,273.4,68.4,0,1.0,,92608.8,10.8,0.08,0.58,0.79,-0.3,7.1,-4.7,32.81,,,,,,,,,,
14.22.01.744,208.6,52.2,0,1.0,,92556.8,10.8,0.07,0.57,0.79,-0.7,4.4,-6.0,32.81,,,,,,,,,,
14.22.01.752,191.2,47.8,0,1.0,,91531.4,10.93,0.07,0.58,0.82,1.7,4.9,-5.8,32.81,,,,,,,,,,
14.22.01.764,137.6,34.4,0,1.0,,92130.4,10.85,0.06,0.59,0.81,2.7,9.4,-5.7,32.81,,,,,,,,,,
14.22.01.773,81.7,20.4,0,1.0,,92336.8,10.83,0.06,0.57,0.79,2.1,8.1,-7.9,32.81,,,,,,,,,,
14.22.01.785,30.3,7.6,0,1.0,,92361.7,10.83,0.07,0.59,0.81,-3.1,5.8,-5.7,32.81,,,,,,,,,,
14.22.01.793,7.9,2.0,0,1.0,,91307.2,10.95,0.06,0.58,0.81,-2.6,8.3,-4.6,32.81,,,,,,,,,,
14.22.01.805,17.2,4.3,0,1.0,,92626.8,10.8,0.06,0.57,0.8,-1.2,6.5,-5.1,32.81,,,,,,,,,,
14.22.01.814,35.0,8.8,0,1.0,,92053.8,10.86,0.07,0.58,0.8,-1.8,5.5,-4.8,32.81,,,,,,,,,,
14.22.01.826,40.2,10.0,0,1.0,,91971.6,10.87,0.06,0.56,0.8,-1.9,5.1,-5.6,32.81,,,,,,,,,,
14.22.01.834,55.9,14.0,0,1.0,,89220.7,11.21,0.07,0.59,0.82,-1.5,4.4,-4.5,32.81,,,,,,,,,,
14.22.01.846,64.9,16.2,0,1.0,,93393.4,10.71,0.07,0.59,0.79,-1.1,6.9,-4.2,32.81,,,,,,,,,,
14.22.01.859,51.1,12.8,0,1.0,,90785.2,11.02,0.06,0.59,0.8,-4.4,6.2,-3.6,32.81,,,,,,,,,,
14.22.01.867,63.3,15.8,0,1.0,,92545.5,10.81,0.08,0.55,0.81,-0.4,7.2,-5.2,32.81,,,,,,,,,,
14.22.01.879,46.6,11.6,0,1.0,,92552.1,10.8,0.07,0.56,0.81,2.3,6.8,-4.9,32.81,,,,,,,,,,
14.22.01.887,29.3,7.3,0,1.0,,91767.2,10.9,0.07,0.57,0.8,0.1,6.5,-4.2,32.81,,,,,,,,,,
14.22.01.900,10.0,2.5,0,1.0,,92013.6,10.87,0.06,0.57,0.81,0.5,6.3,-3.2,32.81,,,,,,,,,,
14.22.01.908,8.3,2.1,0,1.0,,91394.9,10.94,0.07,0.57,0.8,2.2,9.1,-3.6,32.81,,,,,,,,,,
14.22.01.920,-9.3,2.3,0,1.0,,92169.5,10.85,0.06,0.57,0.8,3.0,8.6,-2.9,32.81,,,,,,,,,,
14.22.01.928,-14.8,3.7,0,1.0,,91956.9,10.87,0.06,0.57,0.8,1.5,6.5,-2.7,32.81,,,,,,,,,,
14.22.01.941,-7.5,1.9,0,1.0,,90516.1,11.05,0.06,0.59,0.81,2.0,7.2,-2.0,32.81,,,,,,,,,,
14.22.01.949,-14.9,3.7,0,1.0,,91691.3,10.91,0.06,0.59,0.81,1.6,9.8,-2.0,32.81,,,,,,,,,,
14.22.01.961,-20.5,5.1,0,1.0,,91385.7,10.94,0.06,0.59,0.8,1.3,10.8,-2.1,32.81,,,,,,,,,,
14.22.01.969,-17.5,4.4,0,1.0,,92054.6,10.86,0.06,0.58,0.8,-1.1,8.8,-2.3,32.81,,,,,,,,,,
14.22.01.982,-36.4,9.1,0,1.0,,93174.2,10.73,0.06,0.59,0.8,-2.8,7.4,-1.6,32.81,,,,,,,,,,
14.22.01.994,-47.8,12.0,0,1.0,,92464.5,10.81,0.06,0.56,0.8,-2.1,8.7,-2.5,32.81,,,,,,,,,,
14.22.02.002,-49.7,12.4,0,1.0,,91338.1,10.95,0.06,0.57,0.81,-1.6,7.5,-2.3,32.81,,,,,,,,,,
14.22.02.014,-46.7,11.7,0,1.0,,91925.1,10.88,0.06,0.56,0.8,-0.3,7.0,-4.4,32.81,,,,,,,,,,
14.22.02.024,-57.2,14.3,0,1.0,,90468.0,11.05,0.06,0.56,0.8,-0.3,4.1,-4.0,32.81,,,,,,,,,,
14.22.02.035,-65.1,16.3,0,1.0,,92247.7,10.84,0.06,0.56,0.81,1.7,6.0,-5.0,32.81,,,,,,,,,,
14.22.02.043,-59.9,15.0,0,1.0,,91754.6,10.9,0.07,0.59,0.81,1.7,6.5,-4.6,32.81,,,,,,,,,,
14.22.02.055,-79.7,19.9,0,1.0,,90468.4,11.05,0.06,0.6,0.8,-0.9,7.7,-4.9,32.81,,,,,,,,,,
14.22.02.063,-78.9,19.7,0,1.0,,94033.5,10.63,0.06,0.59,0.8,-4.3,5.9,-3.7,32.81,,,,,,,,,,
14.22.02.076,-77.1,19.3,0,1.0,,93202.1,10.73,0.06,0.57,0.81,-3.7,7.1,-4.5,32.81,,,,,,,,,,
14.22.02.088,-88.9,22.2,0,1.0,,90868.0,11.0,0.05,0.56,0.8,-2.6,7.3,-3.7,32.81,,,,,,,,,,
14.22.02.096,-86.7,21.7,0,1.0,,91532.6,10.93,0.04,0.54,0.81,0.1,6.4,-4.7,32.81,,,,,,,,,,
14.22.02.109,-99.8,25.0,0,1.0,,91670.6,10.91,0.06,0.58,0.82,0.2,7.2,-3.7,32.81,,,,,,,,,,
14.22.02.117,-94.1,23.5,0,1.0,,93598.6,10.68,0.05,0.59,0.8,-0.3,7.1,-2.6,32.81,,,,,,,,,,
14.22.02.129,-98.6,24.6,0,1.0,,92261.5,10.84,0.06,0.58,0.81,-4.3,5.5,-1.9,32.81,,,,,,,,,,
14.22.02.137,-105.6,26.4,0,1.0,,91044.6,10.98,0.06,0.56,0.81,-3.2,7.2,-2.4,32.81,,,,,,,,,,
14.22.02.150,-110.9,27.7,0,1.0,,91715.6,10.9,0.06,0.57,0.81,-0.2,7.5,-3.4,32.81,,,,,,,,,,
14.22.02.158,-126.9,31.7,0,1.0,,92128.5,10.85,0.06,0.58,0.8,-2.1,6.4,-3.4,32.81,,,,,,,,,,
14.22.02.170,-125.0,31.2,0,1.0,,90958.2,10.99,0.06,0.58,0.8,-1.9,5.9,-3.3,32.81,,,,,,,,,,
14.22.02.178,7.9,2.0,1,2.0,100.8,93047.3,10.75,0.05,0.57,0.81,-2.2,6.1,-4.0,32.81,,,,,,,,,,
14.22.02.190,81.4,20.4,0,2.0,,91744.8,10.9,0.05,0.58,0.81,-1.8,7.2,-4.0,32.81,,,,,,,,,,
14.22.02.227,223.2,55.8,0,2.0,,91846.5,10.89,0.05,0.55,0.81,-0.4,7.2,-5.2,32.81,,,,,,,,,,
14.22.02.240,266.6,66.6,0,2.0,,92361.0,10.83,0.05,0.57,0.82,-0.4,5.7,-4.0,32.81,,,,,,,,,,
14.22.02.248,277.0,69.2,0,2.0,,90669.5,11.03,0.05,0.56,0.82,-1.6,6.4,-3.8,32.81,,,,,,,,,,
14.22.02.260,318.3,79.6,0,2.0,,90400.6,11.06,0.05,0.56,0.82,-0.8,3.8,-4.3,32.81,,,,,,,,,,
14.22.02.273,319.3,79.8,0,2.0,,91954.4,10.87,0.05,0.57,0.81,1.7,6.4,-4.9,32.81,,,,,,,,,,
14.22.02.281,310.1,77.5,0,2.0,,91856.5,10.89,0.05,0.59,0.8,0.3,5.2,-4.0,32.81,,,,,,,,,,
14.22.02.293,301.2,75.3,0,2.0,,91980.2,10.87,0.05,0.58,0.81,-0.4,6.0,-4.0,32.81,,,,,,,,,,
14.22.02.301,308.6,77.2,0,2.0,,91692.4,10.91,0.05,0.57,0.81,-1.2,6.4,-3.7,32.81,,,,,,,,,,
14.22.02.313,283.2,70.8,0,2.0,,92249.5,10.84,0.05,0.56,0.81,-0.7,6.4,-4.5,32.81,,,,,,,,,,
14.22.02.326,262.7,65.7,0,2.0,,90992.9,10.99,0.05,0.57,0.81,-1.6,5.1,-4.3,32.81,,,,,,,,,,
14.22.02.334,185.4,46.4,0,2.0,,92092.0,10.86,0.05,0.56,0.81,-3.1,4.4,-4.2,32.81,,,,,,,,,,
14.22.02.346,177.7,44.4,0,2.0,,91301.8,10.95,0.05,0.58,0.82,-1.1,5.8,-4.0,32.81,,,,,,,,,,
14.22.02.354,133.1,33.3,0,2.0,,91330.8,10.95,0.05,0.57,0.81,-1.0,7.7,-4.3,32.81,,,,,,,,,,
14.22.02.368,75.2,18.8,0,2.0,,91402.9,10.94,0.04,0.58,0.81,-1.2,5.8,-3.9,32.81,,,,,,,,,,
14.22.02.375,39.1,9.8,0,2.0,,91540.2,10.92,0.04,0.57,0.81,-2.7,5.7,-3.5,32.81,,,,,,,,,,
14.22.02.387,14.8,3.7,0,2.0,,90556.8,11.04,0.05,0.56,0.82,-3.0,5.4,-2.8,32.81,,,,,,,,,,
14.22.02.395,11.2,2.8,0,2.0,,91517.6,10.93,0.04,0.56,0.82,-1.9,5.8,-2.6,32.81,,,,,,,,,,
14.22.02.408,34.8,8.7,0,2.0,,92219.5,10.84,0.05,0.55,0.81,-1.3,5.9,-2.4,32.81,,,,,,,,,,
14.22.02.420,52.3,13.1,0,2.0,,91420.7,10.94,0.05,0.56,0.82,0.5,4.6,-2.6,32.81,,,,,,,,,,
14.22.02.428,41.3,10.3,0,2.0,,91035.8,10.98,0.05,0.56,0.81,0.5,5.0,-2.7,32.81,,,,,,,,,,
14.22.02.441,60.0,15.0,0,2.0,,91679.0,10.91,0.05,0.57,0.81,0.6,5.3,-2.4,32.81,,,,,,,,,,
14.22.02.449,56.8,14.2,0,2.0,,90846.4,11.01,0.05,0.57,0.81,1.3,5.3,-3.4,32.81,,,,,,,,,,
14.22.02.461,54.7,13.7,0,2.0,,91732.9,10.9,0.05,0.59,0.82,-0.8,5.3,-3.0,32.81,,,,,,,,,,
14.22.02.469,40.5,10.1,0,2.0,,92730.4,10.78,0.04,0.58,0.81,-0.9,6.9,-3.3,32.81,,,,,,,,,,
14.22.02.481,34.1,8.5,0,2.0,,92529.8,10.81,0.04,0.58,0.8,-1.3,4.9,-2.9,32.81,,,,,,,,,,
14.22.02.490,18.6,4.6,0,2.0,,93175.4,10.73,0.05,0.57,0.82,-2.1,5.0,-3.2,32.81,,,,,,,,,,
14.22.02.502,0.7,0.2,0,2.0,,91483.2,10.93,0.05,0.55,0.81,-0.4,4.9,-2.6,32.81,,,,,,,,,,
14.22.02.510,-7.3,1.8,0,2.0,,91893.0,10.88,0.04,0.56,0.82,1.0,6.2,-2.6,32.81,,,,,,,,,,
14.22.02.522,-3.4,0.8,0,2.0,,91960.2,10.87,0.04,0.57,0.82,3.4,6.8,-1.8,32.81,,,,,,,,,,
14.22.02.535,-15.4,3.8,0,2.0,,91189.6,10.97,0.04,0.58,0.81,2.8,4.8,-2.3,32.81,,,,,,,,,,
14.22.02.543,-8.3,2.1,0,2.0,,90817.1,11.01,0.05,0.59,0.8,1.3,4.1,-1.6,32.81,,,,,,,,,,
14.22.02.555,-30.8,7.7,0,2.0,,91192.7,10.97,0.04,0.57,0.81,-0.2,6.2,-1.7,32.81,,,,,,,,,,
14.22.02.563,-32.3,8.1,0,2.0,,93772.6,10.66,0.04,0.56,0.82,-0.5,5.2,-1.9,32.81,,,,,,,,,,
14.22.02.576,-36.1,9.0,0,2.0,,92971.8,10.76,0.05,0.55,0.82,1.8,6.0,-1.7,32.81,,,,,,,,,,
14.22.02.584,-33.9,8.5,0,2.0,,90986.0,10.99,0.04,0.57,0.81,3.5,6.2,-1.2,32.81,,,,,,,,,,
14.22.02.596,-53.2,13.3,0,2.0,,91936.0,10.88,0.04,0.57,0.8,1.5,5.9,-1.1,32.81,,,,,,,,,,
14.22.02.604,-62.0,15.5,0,2.0,,91669.3,10.91,0.05,0.56,0.81,0.3,4.6,-1.2,32.81,,,,,,,,,,
14.22.02.617,-53.9,13.5,0,2.0,,91344.7,10.95,0.05,0.56,0.82,1.0,4.7,-1.1,32.81,,,,,,,,,,
14.22.02.625,-55.0,13.8,0,2.0,,91789.6,10.89,0.05,0.57,0.81,2.2,5.0,-1.3,32.81,,,,,,,,,,
14.22.02.637,-70.7,17.7,0,2.0,,91931.3,10.88,0.05,0.57,0.82,1.1,6.6,-1.5,32.81,,,,,,,,,,
14.22.02.645,-77.1,19.3,0,2.0,,93703.0,10.67,0.04,0.57,0.81,1.4,7.0,-1.4,32.81,,,,,,,,,,
14.22.02.659,-74.7,18.7,0,2.0,,92352.5,10.83,0.04,0.57,0.8,1.1,5.6,-1.0,32.81,,,,,,,,,,
14.22.02.670,-83.2,20.8,0,2.0,,92320.7,10.83,0.04,0.57,0.81,-0.9,4.1,-0.6,32.81,,,,,,,,,,
14.22.02.678,-88.4,22.1,0,2.0,,92157.9,10.85,0.05,0.57,0.81,0.6,4.8,-1.2,32.81,,,,,,,,,,
14.22.02.691,-93.1,23.3,0,2.0,,92968.2,10.76,0.05,0.58,0.81,1.3,5.6,-0.8,32.81,,,,,,,,,,
14.22.02.699,-106.8,26.7,0,2.0,,91364.8,10.95,0.04,0.57,0.81,-0.1,6.2,-1.4,32.81,,,,,,,,,,
14.22.02.711,-107.8,27.0,0,2.0,,91454.3,10.93,0.04,0.56,0.81,0.4,6.2,-0.8,32.81,,,,,,,,,,
14.22.02.719,-107.6,26.9,0,2.0,,91713.8,10.9,0.04,0.56,0.82,1.7,5.8,-1.0,32.81,,,,,,,,,,
14.22.02.731,-95.7,23.9,0,2.0,,92750.9,10.78,0.04,0.57,0.81,2.9,5.4,-0.6,32.81,,,,,,,,,,
14.22.02.739,-118.1,29.5,0,2.0,,91637.6,10.91,0.04,0.57,0.82,1.3,5.4,-0.3,32.81,,,,,,,,,,
14.22.02.753,-125.2,31.3,0,2.0,,90750.1,11.02,0.04,0.57,0.81,0.9,5.5,-0.3,32.81,,,,,,,,,,
14.22.02.760,-119.2,29.8,0,2.0,,92175.2,10.85,0.05,0.56,0.81,1.6,4.5,-0.2,32.81,,,,,,,,,,
14.22.02.772,12.2,3.0,1,3.0,98.6,92546.9,10.81,0.05,0.57,0.81,0.8,4.8,-0.5,32.81,,,,,,,,,,
14.22.02.784,72.5,18.1,0,3.0,,90816.1,11.01,0.05,0.56,0.81,2.0,5.4,-0.8,32.81,,,,,,,,,,
14.22.02.793,126.8,31.7,0,3.0,,92272.8,10.84,0.04,0.57,0.81,3.7,6.1,-0.6,32.81,,,,,,,,,,
14.22.02.805,180.2,45.0,0,3.0,,92370.6,10.83,0.05,0.57,0.8,2.9,5.4,-0.3,32.81,,,,,,,,,,
14.22.02.818,238.8,59.7,0,3.0,,91876.3,10.88,0.05,0.57,0.82,2.9,5.9,-0.6,32.81,,,,,,,,,,
14.22.02.826,239.2,59.8,0,3.0,,92485.4,10.81,0.05,0.58,0.81,3.7,6.0,-0.2,32.81,,,,,,,,,,
14.22.02.838,256.0,64.0,0,3.0,,92773.4,10.78,0.04,0.58,0.8,3.0,5.9,-0.1,32.81,,,,,,,,,,
14.22.02.850,324.7,81.2,0,3.0,,92066.6,10.86,0.05,0.57,0.81,1.7,4.9,-0.2,32.81,,,,,,,,,,
14.22.02.862,314.3,78.6,0,3.0,,92606.9,10.8,0.04,0.57,0.81,2.0,5.8,-0.2,32.81,,,,,,,,,,
14.22.02.871,300.1,75.0,0,3.0,,91339.6,10.95,0.05,0.57,0.81,4.7,7.0,-0.7,32.81,,,,,,,,,,
14.22.02.883,326.7,81.7,0,3.0,,90892.5,11.0,0.04,0.57,0.81,3.1,6.7,-0.1,32.81,,,,,,,,,,
14.22.02.895,346.9,86.7,0,3.0,,93043.5,10.75,0.05,0.57,0.81,2.9,5.7,0.3,32.81,,,,,,,,,,
14.22.02.904,287.9,72.0,0,3.0,,91399.4,10.94,0.05,0.58,0.8,2.4,5.7,0.0,32.81,,,,,,,,,,
14.22.02.916,262.6,65.6,0,3.0,,91792.3,10.89,0.04,0.59,0.8,2.6,5.5,0.3,32.81,,,,,,,,,,
14.22.02.928,195.3,48.8,0,3.0,,91140.0,10.97,0.05,0.57,0.8,0.8,4.9,-0.2,32.81,,,,,,,,,,
14.22.02.940,158.3,39.6,0,3.0,,91036.2,10.98,0.05,0.57,0.81,1.1,6.2,-0.2,32.81,,,,,,,,,,
14.22.02.948,126.9,31.7,0,3.0,,92057.0,10.86,0.05,0.58,0.81,0.4,6.2,-0.2,32.81,,,,,,,,,,
14.22.02.961,77.0,19.2,0,3.0,,91760.7,10.9,0.05,0.57,0.81,0.0,5.2,-0.7,32.81,,,,,,,,,,
14.22.02.973,14.8,3.7,0,3.0,,91852.6,10.89,0.04,0.57,0.81,2.0,6.5,-0.7,32.81,,,,,,,,,,
14.22.02.981,10.9,2.7,0,3.0,,91880.6,10.88,0.05,0.6,0.82,0.0,8.6,1.1,32.81,,,,,,,,,,
14.22.02.993,17.8,4.4,0,3.0,,93413.4,10.71,0.04,0.56,0.8,-0.3,7.9,0.9,32.81,,,,,,,,,,
14.22.03.034,51.2,12.8,0,3.0,,92937.8,10.76,0.06,0.56,0.82,4.5,7.1,2.7,32.81,,,,,,,,,,
14.22.03.047,57.5,14.4,0,3.0,,93023.3,10.75,0.05,0.57,0.8,7.4,7.0,3.4,32.81,,,,,,,,,,
14.22.03.055,48.0,12.0,0,3.0,,90336.8,11.07,0.04,0.58,0.82,7.3,7.3,3.9,32.81,,,,,,,,,,
14.22.03.067,38.2,9.6,0,3.0,,92410.5,10.82,0.04,0.58,0.82,6.6,7.4,4.0,32.81,,,,,,,,,,
14.22.03.079,26.8,6.7,0,3.0,,90521.6,11.05,0.04,0.59,0.8,7.8,6.5,4.7,32.81,,,,,,,,,,
14.22.03.088,,,0,3.0,,91296.8,10.95,,,,,,,,,,,,,,,,,
14.22.03.104,,,0,3.0,,93189.7,10.73,,,,,,,,,32.81,,,,,,,,
14.22.03.116,-8.4,2.1,0,3.0,,93014.8,10.75,0.07,0.56,0.81,5.3,1.3,2.3,32.81,,,,,,,,,,
14.22.03.125,-15.1,3.8,0,3.0,,92617.0,10.8,0.07,0.6,0.8,8.6,3.5,1.1,32.81,,,,,,,,,,
14.22.03.137,-18.9,4.7,0,3.0,,92415.9,10.82,0.05,0.6,0.79,6.4,4.3,-0.8,32.81,,,,,,,,,,
14.22.03.149,-30.4,7.6,0,3.0,,92103.6,10.86,0.07,0.59,0.8,3.1,4.3,-1.5,32.81,,,,,,,,,,
14.22.03.157,-33.6,8.4,0,3.0,,92214.9,10.84,0.05,0.59,0.8,2.9,6.5,-1.9,32.81,,,,,,,,,,
14.22.03.170,-37.1,9.3,0,3.0,,92726.6,10.78,0.05,0.59,0.78,1.0,3.2,-1.3,32.81,,,,,,,,,,
14.22.03.178,-30.7,7.7,0,3.0,,90679.2,11.03,0.05,0.56,0.82,-1.5,2.6,-1.8,32.81,,,,,,,,,,
14.22.03.190,-42.0,10.5,0,3.0,,92093.0,10.86,0.05,0.57,0.8,3.3,2.6,-1.6,32.81,,,,,,,,,,
14.22.03.198,-52.9,13.2,0,3.0,,91250.7,10.96,0.06,0.6,0.8,4.0,2.3,-0.2,32.81,,,,,,,,,,
14.22.03.211,-53.5,13.4,0,3.0,,91559.0,10.92,0.06,0.57,0.79,1.2,4.9,-1.5,32.81,,,,,,,,,,
14.22.03.219,-70.6,17.6,0,3.0,,91695.9,10.91,0.06,0.59,0.81,3.5,2.2,-0.7,32.81,,,,,,,,,,
14.22.03.231,-72.8,18.2,0,3.0,,91895.8,10.88,0.05,0.6,0.79,2.8,6.0,-1.1,32.81,,,,,,,,,,
14.22.03.243,-71.0,17.8,0,3.0,,91388.5,10.94,0.05,0.59,0.79,0.2,4.5,-1.0,32.81,,,,,,,,,,
14.22.03.252,-75.7,18.9,0,3.0,,90002.5,11.11,0.06,0.59,0.81,-1.3,2.6,-0.9,32.81,,,,,,,,,,
14.22.03.264,-67.4,16.8,0,3.0,,91924.2,10.88,0.05,0.59,0.8,-0.9,4.8,-0.8,32.81,,,,,,,,,,
14.22.03.272,-85.9,21.5,0,3.0,,91479.2,10.93,0.05,0.59,0.78,-2.2,3.3,-1.1,32.81,,,,,,,,,,
14.22.03.284,-90.6,22.6,0,3.0,,91598.2,10.92,0.06,0.58,0.8,-5.4,1.9,-0.8,32.81,,,,,,,,,,
14.22.03.297,-91.1,22.8,0,3.0,,92396.3,10.82,0.05,0.58,0.8,-4.3,0.5,-1.5,32.81,,,,,,,,,,
14.22.03.309,-109.3,27.3,0,3.0,,92020.1,10.87,0.07,0.6,0.8,-4.1,-1.8,-1.7,32.81,,,,,,,,,,
14.22.03.317,-104.7,26.2,0,3.0,,91944.3,10.88,0.07,0.58,0.81,-4.6,-4.3,-1.8,32.81,,,,,,,,,,
14.22.03.329,-125.4,31.4,0,3.0,,91724.1,10.9,0.07,0.6,0.81,-4.1,-2.6,-3.0,32.81,,,,,,,,,,
14.22.03.338,-120.4,30.1,0,3.0,,91806.7,10.89,0.08,0.58,0.8,3.6,-6.7,-0.9,32.81,,,,,,,,,,
14.22.03.350,-116.2,29.0,0,3.0,,91010.4,10.99,0.08,0.58,0.79,0.0,-5.6,-1.5,32.81,,,,,,,,,,
14.22.03.358,-119.4,29.8,0,3.0,,91947.3,10.88,0.07,0.56,0.82,2.4,-1.1,-2.1,32.81,,,,,,,,,,
14.22.03.370,27.0,6.8,1,4.0,101.5,91107.4,10.98,0.06,0.57,0.81,11.5,1.3,-0.8,32.81,,,,,,,,,,
14.22.03.379,86.3,21.6,0,4.0,,91377.8,10.94,0.06,0.57,0.81,5.4,4.0,-1.1,32.81,,,,,,,,,,
14.22.03.391,126.3,31.6,0,4.0,,90775.1,11.02,0.05,0.58,0.8,9.5,0.7,1.7,32.81,,,,,,,,,,
14.22.03.399,177.5,44.4,0,4.0,,92252.7,10.84,0.07,0.59,0.81,2.8,4.7,0.7,32.81,,,,,,,,,,
14.22.03.411,211.7,52.9,0,4.0,,93404.8,10.71,0.06,0.59,0.8,8.7,5.8,1.4,32.81,,,,,,,,,,
14.22.03.420,250.4,62.6,0,4.0,,92261.6,10.84,0.08,0.59,0.79,4.0,5.3,2.2,32.81,,,,,,,,,,
14.22.03.433,300.4,75.1,0,4.0,,89646.6,11.15,0.07,0.59,0.79,2.2,3.7,2.4,32.81,,,,,,,,,,
14.22.03.440,304.4,76.1,0,4.0,,92081.3,10.86,0.08,0.59,0.79,1.9,7.1,-0.1,32.81,,,,,,,,,,
14.22.03.452,317.5,79.4,0,4.0,,91596.0,10.92,0.08,0.59,0.8,2.2,6.3,-0.3,32.81,,,,,,,,,,
14.22.03.460,355.4,88.8,0,4.0,,92009.0,10.87,0.08,0.59,0.8,1.5,6.8,-1.3,32.81,,,,,,,,,,
14.22.03.473,337.4,84.4,0,4.0,,92849.5,10.77,0.08,0.59,0.8,2.3,6.4,-1.8,32.81,,,,,,,,,,
14.22.03.481,303.5,75.9,0,4.0,,92040.9,10.86,0.07,0.6,0.78,2.0,5.9,-1.9,32.81,,,,,,,,,,
14.22.03.493,289.7,72.4,0,4.0,,92530.3,10.81,0.07,0.6,0.8,0.8,5.1,-1.5,32.81,,,,,,,,,,
14.22.03.501,293.3,73.3,0,4.0,,92166.1,10.85,0.07,0.58,0.8,1.1,5.7,-1.5,32.81,,,,,,,,,,
14.22.03.514,215.5,53.9,0,4.0,,90898.0,11.0,0.07,0.59,0.8,1.5,4.8,-1.1,32.81,,,,,,,,,,
14.22.03.522,201.3,50.3,0,4.0,,92536.3,10.81,0.08,0.59,0.8,0.2,4.6,-0.8,32.81,,,,,,,,,,
14.22.03.534,167.3,41.8,0,4.0,,92486.0,10.81,0.07,0.58,0.8,0.4,4.8,-0.8,32.81,,,,,,,,,,
14.22.03.543,122.8,30.7,0,4.0,,91863.1,10.89,0.08,0.59,0.8,2.7,5.3,-0.9,32.81,,,,,,,,,,
14.22.03.555,50.5,12.6,0,4.0,,92590.9,10.8,0.07,0.59,0.8,3.0,5.9,-0.8,32.81,,,,,,,,,,
14.22.03.567,7.8,2.0,0,4.0,,92493.9,10.81,0.07,0.59,0.8,2.4,7.2,-1.0,32.81,,,,,,,,,,
14.22.03.575,9.0,2.2,0,4.0,,91746.3,10.9,0.07,0.59,0.8,4.1,6.5,-0.8,32.81,,,,,,,,,,
14.22.03.587,29.2,7.3,0,4.0,,91220.0,10.96,0.07,0.59,0.79,3.5,6.9,-0.2,32.81,,,,,,,,,,
14.22.03.596,37.2,9.3,0,4.0,,91363.5,10.95,0.07,0.59,0.8,2.9,7.5,-0.7,32.81,,,,,,,,,,
14.22.03.609,40.2,10.0,0,4.0,,92848.0,10.77,0.07,0.59,0.8,2.0,6.3,0.0,32.81,,,,,,,,,,
14.22.03.616,56.9,14.2,0,4.0,,91542.9,10.92,0.07,0.59,0.79,2.3,6.9,-0.2,32.81,,,,,,,,,,
14.22.03.628,54.3,13.6,0,4.0,,92334.9,10.83,0.07,0.6,0.79,1.7,6.3,0.2,32.81,,,,,,,,,,
14.22.03.637,57.8,14.4,0,4.0,,91378.3,10.94,0.07,0.59,0.8,1.0,6.9,-0.1,32.81,,,,,,,,,,
14.22.03.649,53.3,13.3,0,4.0,,91641.8,10.91,0.07,0.59,0.79,2.0,6.3,-0.2,32.81,,,,,,,,,,
14.22.03.657,38.2,9.6,0,4.0,,92526.7,10.81,0.07,0.6,0.8,0.4,5.9,-0.3,32.81,,,,,,,,,,
14.22.03.669,19.2,4.8,0,4.0,,92422.7,10.82,0.08,0.59,0.79,0.5,6.8,0.1,32.81,,,,,,,,,,
14.22.03.678,10.9,2.7,0,4.0,,91705.9,10.9,0.07,0.59,0.79,2.8,6.3,-0.4,32.81,,,,,,,,,,
14.22.03.690,-0.5,0.1,0,4.0,,92969.1,10.76,0.07,0.59,0.8,2.5,6.7,-0.4,32.81,,,,,,,,,,
14.22.03.698,6.0,1.5,0,4.0,,91266.7,10.96,0.07,0.6,0.79,3.8,6.4,0.4,32.81,,,,,,,,,,
14.22.03.710,-9.2,2.3,0,4.0,,91195.9,10.97,0.07,0.6,0.79,2.8,7.0,-0.1,32.81,,,,,,,,,,
14.22.03.719,-14.2,3.6,0,4.0,,91817.1,10.89,0.07,0.59,0.8,2.9,6.7,0.0,32.81,,,,,,,,,,
14.22.03.731,-17.9,4.5,0,4.0,,92523.2,10.81,0.07,0.59,0.8,3.5,7.1,1.2,32.81,,,,,,,,,,
14.22.03.739,-16.1,4.0,0,4.0,,93621.1,10.68,0.07,0.59,0.79,3.2,7.5,0.6,32.81,,,,,,,,,,
14.22.03.751,-24.4,6.1,0,4.0,,90614.7,11.04,0.07,0.6,0.79,2.9,6.5,0.7,32.81,,,,,,,,,,
14.22.03.760,-40.7,10.2,0,4.0,,91908.7,10.88,0.07,0.6,0.79,2.2,6.0,0.6,32.81,,,,,,,,,,
14.22.03.772,-41.2,10.3,0,4.0,,92910.2,10.76,0.07,0.6,0.79,2.4,6.4,0.1,32.81,,,,,,,,,,
14.22.03.780,-48.8,12.2,0,4.0,,92020.0,10.87,0.08,0.6,0.79,2.2,8.0,0.3,32.81,,,,,,,,,,
14.22.03.793,-53.2,13.3,0,4.0,,91318.0,10.95,0.07,0.6,0.79,1.5,8.2,0.3,32.81,,,,,,,,,,
14.22.03.805,-57.0,14.2,0,4.0,,91710.7,10.9,0.07,0.61,0.79,1.9,7.5,1.0,32.81,,,,,,,,,,
14.22.03.842,-80.5,20.1,0,4.0,,91769.5,10.9,0.07,0.59,0.79,2.0,7.9,0.4,32.81,,,,,,,,,,
14.22.03.850,-73.1,18.3,0,4.0,,93035.1,10.75,0.07,0.6,0.79,1.7,6.7,0.8,32.81,,,,,,,,,,
14.22.03.862,-78.9,19.7,0,4.0,,93037.8,10.75,0.07,0.6,0.79,2.1,7.3,0.9,32.81,,,,,,,,,,
14.22.03.870,-95.8,24.0,0,4.0,,91245.5,10.96,0.07,0.6,0.79,2.1,7.1,0.0,32.81,,,,,,,,,,
14.22.03.882,-96.8,24.2,0,4.0,,93365.9,10.71,0.07,0.6,0.79,1.1,5.9,0.0,32.81,,,,,,,,,,
14.22.03.891,-97.6,24.4,0,4.0,,91472.5,10.93,0.07,0.59,0.78,1.1,6.2,-0.1,32.81,,,,,,,,,,
14.22.03.903,-109.4,27.4,0,4.0,,92147.8,10.85,0.06,0.6,0.79,0.9,6.6,0.0,32.81,,,,,,,,,,
14.22.03.915,-118.6,29.6,0,4.0,,92185.3,10.85,0.07,0.58,0.78,1.6,6.2,-0.4,32.81,,,,,,,,,,
14.22.03.923,-114.2,28.6,0,4.0,,91342.7,10.95,0.07,0.58,0.79,2.1,5.5,-0.3,32.81,,,,,,,,,,
14.22.03.936,-107.8,27.0,0,4.0,,92582.3,10.8,0.07,0.59,0.79,2.5,6.6,-0.7,32.81,,,,,,,,,,
14.22.03.944,-118.2,29.6,0,4.0,,90699.5,11.03,0.07,0.6,0.78,3.2,6.8,-0.7,32.81,,,,,,,,,,
14.22.03.956,8.0,2.0,1,5.0,99.2,92229.5,10.84,0.07,0.61,0.79,1.8,5.7,-0.2,32.81,,,,,,,,,,
14.22.03.964,39.1,9.8,0,5.0,,92499.9,10.81,0.07,0.61,0.78,1.1,6.3,-0.6,32.81,,,,,,,,,,
14.22.03.977,112.5,28.1,0,5.0,,92396.4,10.82,0.07,0.6,0.78,-0.6,5.7,-0.2,32.81,,,,,,,,,,
14.22.03.985,138.3,34.6,0,5.0,,93063.3,10.75,0.07,0.6,0.79,-0.6,5.9,-0.2,32.81,,,,,,,,,,
14.22.03.997,178.6,44.6,0,5.0,,91825.5,10.89,0.07,0.6,0.79,0.1,6.3,-0.5,32.81,,,,,,,,,,
14.22.04.005,209.5,52.4,0,5.0,,90180.4,11.09,0.08,0.59,0.79,0.5,5.0,-1.1,32.81,,,,,,,,,,
14.22.04.018,267.9,67.0,0,5.0,,93189.2,10.73,0.07,0.6,0.79,0.5,5.3,-0.9,32.81,,,,,,,,,,
14.22.04.026,277.7,69.4,0,5.0,,91649.5,10.91,0.08,0.6,0.79,2.1,7.5,-1.1,32.81,,,,,,,,,,
14.22.04.038,313.9,78.5,0,5.0,,91512.2,10.93,0.07,0.6,0.79,2.6,8.0,-1.5,32.81,,,,,,,,,,
14.22.04.046,282.9,70.7,0,5.0,,91129.9,10.97,0.07,0.59,0.79,0.5,6.1,-0.8,32.81,,,,,,,,,,
14.22.04.059,298.1,74.5,0,5.0,,90762.9,11.02,0.07,0.59,0.79,1.7,5.9,-0.9,32.81,,,,,,,,,,
14.22.04.067,294.4,73.6,0,5.0,,90478.2,11.05,0.07,0.61,0.78,1.5,5.3,-0.5,32.81,,,,,,,,,,
14.22.04.079,303.6,75.9,0,5.0,,92008.4,10.87,0.07,0.61,0.79,-0.9,4.9,-0.8,32.81,,,,,,,,,,
14.22.04.087,284.0,71.0,0,5.0,,92749.1,10.78,0.07,0.6,0.79,-0.1,6.4,-1.2,32.81,,,,,,,,,,
14.22.04.100,238.6,59.6,0,5.0,,91485.2,10.93,0.07,0.6,0.78,0.4,5.7,-1.6,32.81,,,,,,,,,,
14.22.04.108,220.8,55.2,0,5.0,,92172.6,10.85,0.07,0.6,0.78,-1.1,4.9,-1.4,32.81,,,,,,,,,,
14.22.04.120,188.6,47.2,0,5.0,,93217.4,10.73,0.07,0.6,0.78,-0.5,5.1,-1.9,32.81,,,,,,,,,,
14.22.04.132,131.8,33.0,0,5.0,,91962.2,10.87,0.08,0.6,0.78,0.0,5.7,-2.2,32.81,,,,,,,,,,
14.22.04.141,87.2,21.8,0,5.0,,91064.7,10.98,0.07,0.6,0.79,-1.0,4.8,-2.1,32.81,,,,,,,,,,
14.22.04.153,31.2,7.8,0,5.0,,92047.4,10.86,0.07,0.59,0.8,-0.5,4.1,-2.0,32.81,,,,,,,,,,
14.22.04.161,-5.7,1.4,0,5.0,,91264.8,10.96,0.07,0.6,0.79,0.5,5.1,-1.9,32.81,,,,,,,,,,
14.22.04.173,22.1,5.5,0,5.0,,92270.3,10.84,0.07,0.6,0.78,0.2,6.0,-1.7,32.81,,,,,,,,,,
14.22.04.181,22.2,5.6,0,5.0,,91130.9,10.97,0.07,0.61,0.78,1.0,5.9,-1.5,32.81,,,,,,,,,,
14.22.04.194,46.5,11.6,0,5.0,,90601.5,11.04,0.07,0.6,0.78,-0.2,4.4,-1.7,32.81,,,,,,,,,,
14.22.04.202,51.0,12.8,0,5.0,,92684.1,10.79,0.07,0.59,0.78,-0.9,4.2,-1.3,32.81,,,,,,,,,,
14.22.04.214,61.3,15.3,0,5.0,,92022.8,10.87,0.07,0.59,0.79,0.2,5.3,-1.9,32.81,,,,,,,,,,
14.22.04.222,65.0,16.2,0,5.0,,92356.5,10.83,0.08,0.59,0.79,1.8,6.0,-1.2,32.81,,,,,,,,,,
14.22.04.235,59.1,14.8,0,5.0,,91277.6,10.96,0.07,0.6,0.79,0.6,6.6,-1.4,32.81,,,,,,,,,,
14.22.04.243,58.9,14.7,0,5.0,,90624.9,11.03,0.07,0.59,0.79,0.6,5.9,-1.5,32.81,,,,,,,,,,
14.22.04.255,32.0,8.0,0,5.0,,92602.3,10.8,0.07,0.6,0.79,0.5,5.4,-1.5,32.81,,,,,,,,,,
14.22.04.268,10.5,2.6,0,5.0,,92685.0,10.79,0.07,0.6,0.79,-0.5,5.6,-1.7,32.81,,,,,,,,,,
14.22.04.276,4.6,1.2,0,5.0,,91139.0,10.97,0.07,0.6,0.78,-1.3,4.8,-1.6,32.81,,,,,,,,,,
14.22.04.288,-4.4,1.1,0,5.0,,92775.4,10.78,0.07,0.6,0.78,-1.5,4.9,-1.7,32.81,,,,,,,,,,
14.22.04.296,-4.7,1.2,0,5.0,,91966.6,10.87,0.07,0.6,0.79,-1.5,5.1,-1.7,32.81,,,,,,,,,,
14.22.04.308,-16.8,4.2,0,5.0,,91716.0,10.9,0.08,0.6,0.79,-1.9,4.9,-1.8,32.81,,,,,,,,,,
14.22.04.317,-27.4,6.8,0,5.0,,91173.2,10.97,0.07,0.59,0.79,-3.3,4.5,-2.0,32.81,,,,,,,,,,
14.22.04.329,-20.5,5.1,0,5.0,,92357.5,10.83,0.08,0.6,0.79,-3.0,5.0,-2.7,32.81,,,,,,,,,,
14.22.04.337,-21.6,5.4,0,5.0,,92287.1,10.84,0.07,0.59,0.79,-3.0,5.5,-2.6,32.81,,,,,,,,,,
14.22.04.349,-28.3,7.1,0,5.0,,92238.7,10.84,0.07,0.59,0.79,-2.4,4.5,-2.3,32.81,,,,,,,,,,
14.22.04.362,-49.0,12.2,0,5.0,,90052.5,11.1,0.08,0.6,0.79,-1.2,4.2,-2.3,32.81,,,,,,,,,,
14.22.04.370,-39.9,10.0,0,5.0,,91489.0,10.93,0.07,0.6,0.79,-1.3,5.7,-2.3,32.81,,,,,,,,,,
14.22.04.382,-42.3,10.6,0,5.0,,91957.8,10.87,0.07,0.6,0.79,-2.6,5.1,-2.6,32.81,,,,,,,,,,
14.22.04.390,-53.7,13.4,0,5.0,,91942.2,10.88,0.07,0.6,0.79,-1.8,4.7,-2.5,32.81,,,,,,,,,,
14.22.04.403,-62.9,15.7,0,5.0,,90630.4,11.03,0.07,0.59,0.79,-2.3,5.3,-2.6,32.81,,,,,,,,,,
14.22.04.415,-62.2,15.6,0,5.0,,92229.1,10.84,0.07,0.59,0.79,-1.9,3.9,-2.3,32.81,,,,,,,,,,
14.22.04.423,-76.3,19.1,0,5.0,,92676.0,10.79,0.07,0.59,0.79,-1.0,3.9,-2.2,32.81,,,,,,,,,,
14.22.04.435,-81.8,20.4,0,5.0,,90393.9,11.06,0.07,0.59,0.79,-1.5,4.4,-1.8,32.81,,,,,,,,,,
14.22.04.444,-82.6,20.6,0,5.0,,91950.6,10.88,0.07,0.59,0.79,-2.2,3.7,-2.1,32.81,,,,,,,,,,
14.22.04.456,-88.5,22.1,0,5.0,,91018.2,10.99,0.08,0.6,0.79,-1.6,3.7,-2.2,32.81,,,,,,,,,,
14.22.04.468,-87.8,22.0,0,5.0,,91945.4,10.88,0.07,0.59,0.79,-2.3,3.8,-2.2,32.81,,,,,,,,,,
14.22.04.476,-111.7,27.9,0,5.0,,90949.7,11.0,0.07,0.59,0.79,-2.1,4.0,-2.4,32.81,,,,,,,,,,
14.22.04.489,-95.3,23.8,0,5.0,,91856.3,10.89,0.08,0.6,0.79,-1.0,3.8,-2.4,32.81,,,,,,,,,,
14.22.04.497,-99.1,24.8,0,5.0,,91824.9,10.89,0.07,0.6,0.78,-1.5,3.9,-2.7,32.81,,,,,,,,,,
14.22.04.509,-105.4,26.4,0,5.0,,93271.0,10.72,0.07,0.59,0.79,-2.0,4.0,-2.3,32.81,,,,,,,,,,
14.22.04.517,-115.3,28.8,0,5.0,,92746.0,10.78,0.07,0.58,0.8,-1.6,4.2,-1.8,32.81,,,,,,,,,,
14.22.04.530,-126.8,31.7,0,5.0,,93178.3,10.73,0.07,0.58,0.8,-0.9,4.4,-1.8,32.81,,,,,,,,,,
14.22.04.538,-128.6,32.2,0,5.0,,91160.8,10.97,0.08,0.59,0.79,-0.2,3.7,-1.8,32.81,,,,,,,,,,
14.22.04.550,20.2,5.0,1,6.0,102.1,90275.0,11.08,0.08,0.59,0.79,-0.1,3.6,-1.6,32.81,,,,,,,,,,
14.22.04.562,75.1,18.8,0,6.0,,90722.2,11.02,0.08,0.59,0.8,0.8,4.5,-1.7,32.81,,,,,,,,,,
14.22.04.571,124.0,31.0,0,6.0,,91069.9,10.98,0.08,0.59,0.79,1.5,5.2,-1.9,32.81,,,,,,,,,,
14.22.04.583,151.8,38.0,0,6.0,,91896.5,10.88,0.07,0.59,0.8,1.1,5.1,-2.1,32.81,,,,,,,,,,
14.22.04.591,198.3,49.6,0,6.0,,93178.1,10.73,0.08,0.59,0.79,1.4,4.3,-1.8,32.81,,,,,,,,,,
14.22.04.603,230.2,57.6,0,6.0,,91778.7,10.9,0.08,0.6,0.79,0.9,4.9,-1.9,32.81,,,,,,,,,,
14.22.04.612,283.1,70.8,0,6.0,,92176.6,10.85,0.08,0.59,0.8,0.6,5.8,-1.7,32.81,,,,,,,,,,
14.22.04.648,316.1,79.0,0,6.0,,92546.0,10.81,0.08,0.59,0.8,2.3,6.6,-1.8,32.81,,,,,,,,,,
14.22.04.661,322.0,80.5,0,6.0,,91445.2,10.94,0.07,0.61,0.79,0.5,6.3,-1.7,32.81,,,,,,,,,,
14.22.04.669,306.1,76.5,0,6.0,,91932.5,10.88,0.07,0.6,0.79,-2.8,4.5,-0.9,32.81,,,,,,,,,,
14.22.04.681,268.7,67.2,0,6.0,,90942.5,11.0,0.07,0.59,0.79,-2.7,3.9,-1.4,32.81,,,,,,,,,,
14.22.04.689,275.8,69.0,0,6.0,,90167.9,11.09,0.07,0.59,0.8,-3.8,3.7,-1.9,32.81,,,,,,,,,,
14.22.04.702,212.1,53.0,0,6.0,,92030.3,10.87,0.07,0.59,0.79,-4.6,3.3,-2.1,32.81,,,,,,,,,,
14.22.04.714,176.5,44.1,0,6.0,,91871.7,10.88,0.08,0.6,0.8,-2.9,3.8,-2.2,32.81,,,,,,,,,,
14.22.04.722,151.0,37.8,0,6.0,,91971.0,10.87,0.08,0.6,0.79,-3.5,3.0,-3.0,32.81,,,,,,,,,,
14.22.04.735,82.1,20.5,0,6.0,,92657.2,10.79,0.08,0.59,0.79,-5.2,1.6,-3.0,32.81,,,,,,,,,,
14.22.04.743,42.6,10.6,0,6.0,,92975.9,10.76,0.09,0.59,0.81,0.2,2.4,-1.9,32.81,,,,,,,,,,
14.22.04.755,-3.7,0.9,0,6.0,,91764.7,10.9,0.08,0.58,0.79,-0.7,3.1,-2.1,32.81,,,,,,,,,,
14.22.04.763,25.9,6.5,0,6.0,,91069.9,10.98,0.08,0.57,0.81,-0.6,4.3,-2.9,32.81,,,,,,,,,,
14.22.04.776,31.2,7.8,0,6.0,,91203.5,10.96,0.07,0.58,0.81,1.4,9.0,-2.4,32.81,,,,,,,,,,
14.22.04.784,35.5,8.9,0,6.0,,90528.7,11.05,0.07,0.59,0.79,2.2,7.8,-2.0,32.81,,,,,,,,,,
14.22.04.796,48.9,12.2,0,6.0,,93157.0,10.73,0.07,0.59,0.8,-1.1,4.5,-1.1,32.81,,,,,,,,,,
14.22.04.808,60.9,15.2,0,6.0,,90935.9,11.0,0.08,0.59,0.81,-0.9,7.2,-1.2,32.81,,,,,,,,,,
14.22.04.816,46.2,11.6,0,6.0,,91936.7,10.88,0.08,0.59,0.78,0.5,7.1,-0.8,32.81,,,,,,,,,,
14.22.04.829,52.1,13.0,0,6.0,,90495.1,11.05,0.08,0.59,0.78,-4.7,2.1,-1.7,32.81,,,,,,,,,,
14.22.04.837,51.1,12.8,0,6.0,,91988.8,10.87,0.08,0.57,0.81,-2.3,2.8,-1.9,32.81,,,,,,,,,,
14.22.04.849,30.1,7.5,0,6.0,,91579.4,10.92,0.08,0.58,0.81,0.9,6.0,-2.3,32.81,,,,,,,,,,
14.22.04.857,25.6,6.4,0,6.0,,90531.5,11.05,0.07,0.59,0.8,1.9,4.9,-3.5,32.81,,,,,,,,,,
14.22.04.870,3.8,1.0,0,6.0,,91032.2,10.99,0.07,0.6,0.79,-1.7,1.7,-3.0,32.81,,,,,,,,,,
14.22.04.878,1.1,0.3,0,6.0,,91096.2,10.98,0.07,0.58,0.81,-0.8,3.0,-2.7,32.81,,,,,,,,,,
14.22.04.890,-13.0,3.2,0,6.0,,92090.2,10.86,0.07,0.58,0.81,3.2,5.9,-2.3,32.81,,,,,,,,,,
14.22.04.898,-14.8,3.7,0,6.0,,92360.8,10.83,0.07,0.59,0.79,3.3,7.4,-2.3,32.81,,,,,,,,,,
14.22.04.911,-17.5,4.4,0,6.0,,92061.4,10.86,0.07,0.59,0.8,-0.1,3.8,-1.7,32.81,,,,,,,,,,
14.22.04.923,-23.7,5.9,0,6.0,,91786.6,10.89,0.17,0.68,0.92,-10.2,27.0,-6.2,32.81,,,,,,,,,,
14.22.04.931,-21.4,5.4,0,6.0,,92047.3,10.86,0.08,0.59,0.74,-0.2,2.0,2.5,32.81,,,,,,,,,,
14.22.04.943,-32.4,8.1,0,6.0,,91085.6,10.98,0.08,0.6,0.79,-7.3,1.5,-0.6,32.81,,,,,,,,,,
14.22.04.952,-31.9,8.0,0,6.0,,91929.5,10.88,0.07,0.58,0.81,1.1,6.9,-1.1,32.81,,,,,,,,,,
14.22.04.964,-43.1,10.8,0,6.0,,91666.6,10.91,0.06,0.6,0.76,-0.1,1.2,-1.2,32.81,,,,,,,,,,
14.22.04.972,-43.9,11.0,0,6.0,,91637.2,10.91,0.07,0.58,0.79,-4.5,3.4,-2.4,32.81,,,,,,,,,,
14.22.04.984,-57.6,14.4,0,6.0,,91949.7,10.88,0.08,0.59,0.8,0.7,5.4,-2.3,32.81,,,,,,,,,,
14.22.04.997,-57.0,14.2,0,6.0,,90738.0,11.02,0.08,0.58,0.81,-3.7,5.2,-2.6,32.81,,,,,,,,,,
14.22.05.005,-62.1,15.5,0,6.0,,90657.4,11.03,0.08,0.58,0.8,-1.2,4.4,-3.0,32.81,,,,,,,,,,
14.22.05.017,-71.9,18.0,0,6.0,,92417.5,10.82,0.07,0.59,0.8,-1.8,4.9,-3.3,32.81,,,,,,,,,,
14.22.05.030,-62.4,15.6,0,6.0,,91354.3,10.95,0.07,0.59,0.79,-1.8,2.9,-3.7,32.81,,,,,,,,,,
14.22.05.038,-84.4,21.1,0,6.0,,92377.6,10.83,0.07,0.59,0.8,-1.2,4.0,-3.1,32.81,,,,,,,,,,
14.22.05.050,-93.9,23.5,0,6.0,,91695.4,10.91,0.07,0.58,0.8,-1.7,4.6,-3.4,32.81,,,,,,,,,,
14.22.05.058,-87.3,21.8,0,6.0,,91751.7,10.9,0.07,0.57,0.8,-3.6,5.3,-3.0,32.81,,,,,,,,,,
14.22.05.071,-104.0,26.0,0,6.0,,92838.3,10.77,0.07,0.58,0.8,-0.9,5.4,-2.6,32.81,,,,,,,,,,
14.22.05.079,-105.4,26.4,0,6.0,,91837.5,10.89,0.08,0.59,0.8,1.3,6.8,-2.2,32.81,,,,,,,,,,
14.22.05.092,-104.7,26.2,0,6.0,,91332.2,10.95,0.08,0.59,0.8,-2.7,3.9,-2.4,32.81,,,,,,,,,,
14.22.05.099,-124.8,31.2,0,6.0,,91424.1,10.94,0.08,0.58,0.8,-2.3,4.2,-2.2,32.81,,,,,,,,,,
14.22.05.111,-117.0,29.2,0,6.0,,92272.7,10.84,0.08,0.58,0.81,-0.5,7.4,-2.4,32.81,,,,,,,,,,
14.22.05.120,-122.7,30.7,0,6.0,,90653.8,11.03,0.08,0.58,0.8,0.1,6.3,-2.3,32.81,,,,,,,,,,
14.22.05.132,-113.3,28.3,0,6.0,,91164.6,10.97,0.08,0.58,0.8,-1.3,5.1,-2.6,32.81,,,,,,,,,,
14.22.05.140,21.1,5.3,1,7.0,102.5,90675.3,11.03,0.08,0.59,0.79,-2.1,4.8,-2.9,32.81,,,,,,,,,,
14.22.05.152,76.3,19.1,0,7.0,,91232.7,10.96,0.08,0.58,0.8,-0.9,5.7,-3.0,32.81,,,,,,,,,,
14.22.05.161,105.1,26.3,0,7.0,,91623.0,10.91,0.08,0.58,0.81,-0.9,6.9,-2.6,32.81,,,,,,,,,,
14.22.05.173,167.6,41.9,0,7.0,,91464.3,10.93,0.07,0.57,0.8,0.2,5.3,-2.0,32.81,,,,,,,,,,
14.22.05.185,209.2,52.3,0,7.0,,90720.7,11.02,0.08,0.57,0.81,0.9,5.2,-1.4,32.81,,,,,,,,,,
14.22.05.193,236.2,59.0,0,7.0,,91831.3,10.89,0.07,0.59,0.8,1.3,6.8,-1.6,32.81,,,,,,,,,,
14.22.05.206,297.6,74.4,0,7.0,,92046.7,10.86,0.07,0.59,0.79,-0.5,5.1,-1.8,32.81,,,,,,,,,,
14.22.05.214,293.1,73.3,0,7.0,,91906.3,10.88,0.08,0.59,0.79,-2.0,4.8,-2.4,32.81,,,,,,,,,,
14.22.05.226,310.3,77.6,0,7.0,,92881.2,10.77,0.08,0.58,0.81,-2.1,4.0,-2.7,32.81,,,,,,,,,,
14.22.05.234,324.1,81.0,0,7.0,,92305.8,10.83,0.07,0.56,0.8,-2.3,4.4,-3.1,32.81,,,,,,,,,,
14.22.05.247,337.0,84.2,0,7.0,,91493.9,10.93,0.08,0.58,0.8,-0.7,5.4,-2.8,32.81,,,,,,,,,,
14.22.05.255,324.7,81.2,0,7.0,,94320.8,10.6,0.08,0.59,0.79,-0.1,6.2,-2.7,32.81,,,,,,,,,,
14.22.05.267,292.8,73.2,0,7.0,,90695.6,11.03,0.07,0.58,0.81,-3.6,4.8,-2.8,32.81,,,,,,,,,,
14.22.05.276,257.6,64.4,0,7.0,,91046.0,10.98,0.08,0.58,0.81,-0.6,4.8,-2.7,32.81,,,,,,,,,,
14.22.05.288,236.8,59.2,0,7.0,,91483.1,10.93,0.07,0.59,0.8,0.5,6.0,-2.5,32.81,,,,,,,,,,
14.22.05.300,204.5,51.1,0,7.0,,90337.8,11.07,0.07,0.58,0.8,-2.1,6.1,-2.5,32.81,,,,,,,,,,
14.22.05.308,174.3,43.6,0,7.0,,92982.9,10.75,0.07,0.58,0.8,0.2,5.9,-1.4,32.81,,,,,,,,,,
14.22.05.320,105.9,26.5,0,7.0,,90881.5,11.0,0.07,0.59,0.8,0.8,7.7,-1.5,32.81,,,,,,,,,,
14.22.05.329,78.7,19.7,0,7.0,,91084.6,10.98,0.07,0.57,0.83,-3.2,7.1,-0.8,32.81,,,,,,,,,,
14.22.05.341,18.3,4.6,0,7.0,,91758.4,10.9,0.08,0.57,0.8,1.3,6.3,-2.2,32.81,,,,,,,,,,
14.22.05.349,9.7,2.4,0,7.0,,92043.5,10.86,0.08,0.57,0.79,1.0,7.0,-2.3,32.81,,,,,,,,,,
14.22.05.361,19.6,4.9,0,7.0,,90838.8,11.01,0.07,0.6,0.8,-2.2,4.7,-2.6,32.81,,,,,,,,,,
14.22.05.370,36.6,9.2,0,7.0,,90937.6,11.0,0.08,0.58,0.81,-3.3,4.7,-2.6,32.81,,,,,,,,,,
14.22.05.382,48.8,12.2,0,7.0,,91852.2,10.89,0.08,0.57,0.8,-1.4,6.6,-2.9,32.81,,,,,,,,,,
14.22.05.390,47.3,11.8,0,7.0,,91794.3,10.89,0.07,0.58,0.81,-0.6,6.1,-2.7,32.81,,,,,,,,,,
14.22.05.402,51.2,12.8,0,7.0,,92806.9,10.78,0.07,0.57,0.8,-1.3,6.3,-2.0,32.81,,,,,,,,,,
14.22.05.411,55.9,14.0,0,7.0,,92007.9,10.87,0.07,0.58,0.8,0.9,6.0,-1.9,32.81,,,,,,,,,,
14.22.05.423,52.5,13.1,0,7.0,,92026.5,10.87,0.08,0.59,0.81,1.8,6.2,-1.6,32.81,,,,,,,,,,
14.22.05.460,1.3,0.3,0,7.0,,92074.2,10.86,0.07,0.58,0.8,0.0,5.8,-1.5,32.81,,,,,,,,,,
14.22.05.472,5.1,1.3,0,7.0,,91846.8,10.89,0.06,0.6,0.8,-0.5,4.1,0.1,32.81,,,,,,,,,,
14.22.05.480,-14.4,3.6,0,7.0,,90862.4,11.01,0.07,0.57,0.8,-1.1,6.2,-0.4,32.81,,,,,,,,,,
14.22.05.492,-24.3,6.1,0,7.0,,91842.4,10.89,0.07,0.57,0.82,-0.5,6.4,0.4,32.81,,,,,,,,,,
14.22.05.501,-15.1,3.8,0,7.0,,91468.1,10.93,0.07,0.55,0.8,-1.6,5.7,0.5,32.81,,,,,,,,,,
14.22.05.513,-20.4,5.1,0,7.0,,90685.6,11.03,0.08,0.56,0.81,0.9,4.0,1.1,32.81,,,,,,,,,,
14.22.05.521,-18.6,4.6,0,7.0,,91842.1,10.89,0.07,0.58,0.8,-0.6,3.8,0.9,32.81,,,,,,,,,,
14.22.05.533,-41.9,10.5,0,7.0,,90935.4,11.0,0.08,0.58,0.8,-1.0,4.7,0.6,32.81,,,,,,,,,,
14.22.05.542,-36.0,9.0,0,7.0,,92468.2,10.81,0.07,0.58,0.8,-1.5,4.5,0.7,32.81,,,,,,,,,,
14.22.05.554,-42.9,10.7,0,7.0,,91391.7,10.94,0.07,0.57,0.81,-1.0,4.7,0.1,32.81,,,,,,,,,,
14.22.05.562,-51.3,12.8,0,7.0,,92584.7,10.8,0.08,0.56,0.81,-1.1,3.9,-0.2,32.81,,,,,,,,,,
14.22.05.574,-56.3,14.1,0,7.0,,91227.8,10.96,0.09,0.58,0.81,-0.2,3.3,-0.7,32.81,,,,,,,,,,
14.22.05.587,-68.8,17.2,0,7.0,,92003.3,10.87,0.09,0.58,0.8,0.1,4.7,-1.3,32.81,,,,,,,,,,
14.22.05.599,-63.5,15.9,0,7.0,,91661.2,10.91,0.09,0.58,0.8,0.5,7.1,-1.8,32.81,,,,,,,,,,
14.22.05.607,-76.1,19.0,0,7.0,,91132.0,10.97,0.09,0.58,0.79,2.3,6.8,-2.9,32.81,,,,,,,,,,
14.22.05.619,-65.7,16.4,0,7.0,,91589.9,10.92,0.07,0.58,0.82,-0.3,7.5,-1.9,32.81,,,,,,,,,,
14.22.05.628,-80.2,20.0,0,7.0,,91793.6,10.89,0.07,0.57,0.82,1.8,7.4,-1.9,32.81,,,,,,,,,,
14.22.05.641,-83.6,20.9,0,7.0,,91937.4,10.88,0.08,0.59,0.8,2.3,6.4,-1.9,32.81,,,,,,,,,,
14.22.05.648,-92.7,23.2,0,7.0,,90644.3,11.03,0.07,0.57,0.79,0.9,7.5,-2.3,32.81,,,,,,,,,,
14.22.05.660,-96.2,24.0,0,7.0,,92156.8,10.85,0.07,0.57,0.81,2.0,7.4,-1.5,32.81,,,,,,,,,,
14.22.05.669,-104.9,26.2,0,7.0,,91746.3,10.9,0.07,0.57,0.8,2.1,6.7,-1.3,32.81,,,,,,,,,,
14.22.05.681,-99.5,24.9,0,7.0,,91926.3,10.88,0.07,0.58,0.8,-0.3,4.7,-0.9,32.81,,,,,,,,,,
14.22.05.689,-98.0,24.5,0,7.0,,91119.6,10.97,0.07,0.59,0.8,-0.2,3.6,-1.0,32.81,,,,,,,,,,
14.22.05.701,-122.3,30.6,0,7.0,,90689.7,11.03,0.08,0.58,0.8,-1.7,3.5,-0.9,32.81,,,,,,,,,,
14.22.05.710,-122.3,30.6,0,7.0,,91068.0,10.98,0.07,0.58,0.8,-3.4,3.6,-1.3,32.81,,,,,,,,,,
14.22.05.723,-142.4,35.6,0,7.0,,92401.4,10.82,0.07,0.58,0.81,-2.0,4.3,-1.2,32.81,,,,,,,,,,
14.22.05.730,9.0,2.2,1,8.0,104.7,89914.0,11.12,0.08,0.58,0.81,-3.2,4.3,-1.7,32.81,,,,,,,,,,
14.22.05.742,67.4,16.8,0,8.0,,91461.1,10.93,0.08,0.58,0.8,-2.6,3.2,-1.0,32.81,,,,,,,,,,
14.22.05.751,109.4,27.4,0,8.0,,92686.6,10.79,0.08,0.57,0.81,-2.3,4.4,-0.9,32.81,,,,,,,,,,
14.22.05.763,147.1,36.8,0,8.0,,91518.6,10.93,0.08,0.57,0.81,-0.2,6.1,-1.4,32.81,,,,,,,,,,
14.22.05.771,192.8,48.2,0,8.0,,91709.5,10.9,0.07,0.57,0.81,0.4,6.1,-1.2,32.81,,,,,,,,,,
14.22.05.783,234.0,58.5,0,8.0,,90763.8,11.02,0.08,0.57,0.81,0.1,5.7,-1.6,32.81,,,,,,,,,,
14.22.05.792,251.0,62.8,0,8.0,,92123.4,10.86,0.08,0.57,0.81,1.0,6.1,-1.5,32.81,,,,,,,,,,
14.22.05.804,307.8,77.0,0,8.0,,92059.7,10.86,0.08,0.56,0.81,1.1,7.6,-1.4,32.81,,,,,,,,,,
14.22.05.812,302.8,75.7,0,8.0,,91319.9,10.95,0.08,0.57,0.81,1.7,8.2,-2.2,32.81,,,,,,,,,,
14.22.05.824,315.3,78.8,0,8.0,,91399.2,10.94,0.07,0.57,0.8,0.9,7.0,-2.3,32.81,,,,,,,,,,
14.22.05.837,291.4,72.8,0,8.0,,91167.3,10.97,0.08,0.58,0.81,-0.5,5.5,-2.2,32.81,,,,,,,,,,
14.22.05.845,291.1,72.8,0,8.0,,92801.4,10.78,0.07,0.57,0.81,0.7,6.3,-2.0,32.81,,,,,,,,,,
14.22.05.857,278.9,69.7,0,8.0,,92964.9,10.76,0.07,0.56,0.81,1.2,7.2,-1.7,32.81,,,,,,,,,,
14.22.05.865,288.3,72.1,0,8.0,,92244.0,10.84,0.08,0.57,0.81,1.3,5.8,-1.6,32.81,,,,,,,,,,
14.22.05.878,246.3,61.6,0,8.0,,92324.0,10.83,0.08,0.56,0.8,2.5,4.7,-1.8,32.81,,,,,,,,,,
14.22.05.886,208.1,52.0,0,8.0,,91625.7,10.91,0.07,0.59,0.81,2.1,4.6,-1.1,32.81,,,,,,,,,,
14.22.05.898,163.9,41.0,0,8.0,,91816.5,10.89,0.08,0.59,0.8,0.2,6.2,-1.4,32.81,,,,,,,,,,
14.22.05.906,130.1,32.5,0,8.0,,92735.1,10.78,0.07,0.57,0.79,-1.5,4.7,-1.5,32.81,,,,,,,,,,
14.22.05.918,82.7,20.7,0,8.0,,90345.9,11.07,0.08,0.57,0.81,0.1,5.2,-1.4,32.81,,,,,,,,,,
14.22.05.927,40.9,10.2,0,8.0,,91236.1,10.96,0.07,0.58,0.81,-0.2,6.0,-1.6,32.81,,,,,,,,,,
14.22.05.939,6.2,1.6,0,8.0,,91332.1,10.95,0.07,0.58,0.8,-1.7,5.1,-1.3,32.81,,,,,,,,,,
14.22.05.951,22.6,5.6,0,8.0,,91462.8,10.93,0.07,0.58,0.81,-0.9,4.6,-1.3,32.81,,,,,,,,,,
14.22.05.960,36.7,9.2,0,8.0,,92378.9,10.82,0.07,0.58,0.81,-1.9,4.5,-1.1,32.81,,,,,,,,,,
14.22.05.972,46.0,11.5,0,8.0,,92050.6,10.86,0.08,0.57,0.81,-1.8,4.7,-0.9,32.81,,,,,,,,,,
14.22.05.980,52.6,13.2,0,8.0,,92077.5,10.86,0.08,0.57,0.81,0.2,5.4,-1.0,32.81,,,,,,,,,,
14.22.05.992,50.9,12.7,0,8.0,,92315.4,10.83,0.07,0.58,0.8,0.5,5.3,-1.5,32.81,104.2,,,,,,,,,
14.22.06.000,61.3,15.3,0,8.0,,92117.0,10.86,0.08,0.58,0.81,-1.1,4.5,-1.4,32.81,,,,,,,,,,
14.22.06.013,51.4,12.8,0,8.0,,91000.1,10.99,0.08,0.58,0.81,-0.9,6.3,-1.6,32.81,,,,,,,,,,
14.22.06.021,48.4,12.1,0,8.0,,92093.0,10.86,0.07,0.57,0.81,-0.8,6.4,-1.8,32.81,,,,,,,,,,
14.22.06.033,34.2,8.6,0,8.0,,90494.6,11.05,0.07,0.57,0.81,-0.6,5.4,-1.5,32.81,,,,,,,,,,
14.22.06.042,13.5,3.4,0,8.0,,91975.6,10.87,0.08,0.57,0.81,-0.3,4.9,-1.1,32.81,,,,,,,,,,
14.22.06.054,-1.3,0.3,0,8.0,,91852.2,10.89,0.07,0.57,0.81,0.8,5.6,-0.9,32.81,,,,,,,,,,
14.22.06.066,-4.6,1.2,0,8.0,,91329.3,10.95,0.08,0.57,0.81,0.7,5.6,-1.2,32.81,,,,,,,,,,
14.22.06.074,-8.5,2.1,0,8.0,,91807.5,10.89,0.08,0.57,0.81,0.1,5.8,-1.5,32.81,,,,,,,,,,
14.22.06.087,-21.6,5.4,0,8.0,,90368.5,11.07,0.08,0.57,0.8,1.7,5.1,-1.3,32.81,,,,,,,,,,
14.22.06.095,-12.6,3.2,0,8.0,,92655.2,10.79,0.07,0.58,0.8,-0.6,5.5,-0.9,32.81,,,,,,,,,,
14.22.06.107,-34.4,8.6,0,8.0,,91828.5,10.89,0.07,0.57,0.81,-0.6,6.1,-1.4,32.81,,,,,,,,,,
14.22.06.119,-30.3,7.6,0,8.0,,92600.2,10.8,0.07,0.57,0.81,-0.4,5.6,-0.7,32.81,,,,,,,,,,
14.22.06.127,-35.0,8.8,0,8.0,,90044.4,11.11,0.07,0.57,0.81,-1.7,5.1,-0.9,32.81,,,,,,,,,,
14.22.06.140,-43.1,10.8,0,8.0,,90897.5,11.0,0.08,0.57,0.81,-0.8,5.3,-0.7,32.81,,,,,,,,,,
14.22.06.148,-43.0,10.8,0,8.0,,91888.1,10.88,0.07,0.56,0.81,0.3,6.7,-0.6,32.81,,,,,,,,,,
14.22.06.160,-56.5,14.1,0,8.0,,91825.1,10.89,0.07,0.57,0.81,0.1,6.2,-0.8,32.81,,,,,,,,,,
14.22.06.168,-59.7,14.9,0,8.0,,90171.5,11.09,0.07,0.56,0.81,-0.3,4.9,-0.5,32.81,,,,,,,,,,
14.22.06.181,-55.5,13.9,0,8.0,,91464.4,10.93,0.08,0.57,0.82,0.2,5.2,-0.7,32.81,,,,,,,,,,
14.22.06.193,-73.8,18.4,0,8.0,,91096.1,10.98,0.07,0.57,0.81,1.7,6.6,-0.8,32.81,,,,,,,,,,
14.22.06.201,-70.8,17.7,0,8.0,,92465.7,10.81,0.08,0.58,0.8,-0.3,6.3,-1.3,32.81,,,,,,,,,,
14.22.06.213,-80.5,20.1,0,8.0,,92693.5,10.79,0.08,0.57,0.81,0.8,4.2,-1.1,32.81,,,,,,,,,,
14.22.06.222,-82.1,20.5,0,8.0,,93118.6,10.74,0.06,0.58,0.81,0.4,6.1,-0.9,32.81,,,,,,,,,,
14.22.06.234,-86.4,21.6,0,8.0,,91549.7,10.92,0.07,0.55,0.81,-1.3,5.0,-1.4,32.81,,,,,,,,,,
14.22.06.272,-104.9,26.2,0,8.0,,91632.8,10.91,0.08,0.56,0.8,1.4,4.3,-1.3,32.81,,,,,,,,,,
14.22.06.279,-110.3,27.6,0,8.0,,90744.6,11.02,0.07,0.57,0.81,1.7,5.9,-1.9,32.81,,,,,,,,,,
14.22.06.292,-127.3,31.8,0,8.0,,93508.0,10.69,0.08,0.56,0.81,2.4,6.6,-1.4,32.81,,,,,,,,,,
14.22.06.299,-113.8,28.4,0,8.0,,92926.3,10.76,0.08,0.57,0.81,3.2,4.8,-0.3,32.81,,,,,,,,,,
14.22.06.312,-113.0,28.2,0,8.0,,90911.4,11.0,0.07,0.56,0.81,1.9,5.3,-1.1,32.81,,,,,,,,,,
14.22.06.320,1.8,0.4,1,9.0,107.4,92342.7,10.83,0.08,0.57,0.8,3.6,7.1,-1.2,32.81,,,,,,,,,,
14.22.06.332,72.1,18.0,0,9.0,,93409.4,10.71,0.08,0.58,0.8,3.3,5.9,-1.5,32.81,,,,,,,,,,
14.22.06.341,103.7,25.9,0,9.0,,90818.6,11.01,0.07,0.58,0.81,0.6,5.5,-1.4,32.81,,,,,,,,,,
14.22.06.353,143.9,36.0,0,9.0,,90910.1,11.0,0.07,0.56,0.81,0.9,5.9,-1.9,32.81,,,,,,,,,,
14.22.06.365,201.6,50.4,0,9.0,,91859.4,10.89,0.08,0.56,0.81,2.6,5.8,-1.9,32.81,,,,,,,,,,
14.22.06.374,235.8,59.0,0,9.0,,91674.7,10.91,0.08,0.56,0.81,2.9,5.2,-1.7,32.81,,,,,,,,,,
14.22.06.386,307.5,76.9,0,9.0,,91906.8,10.88,0.08,0.57,0.81,3.5,5.7,-1.8,32.81,,,,,,,,,,
14.22.06.394,284.0,71.0,0,9.0,,93154.4,10.73,0.08,0.57,0.81,4.4,6.9,-1.4,32.81,,,,,,,,,,
14.22.06.406,278.5,69.6,0,9.0,,91865.6,10.89,0.07,0.57,0.8,3.9,5.8,-1.3,32.81,,,,,,,,,,
14.22.06.414,286.5,71.6,0,9.0,,91456.5,10.93,0.08,0.58,0.81,4.2,5.9,-1.1,32.81,,,,,,,,,,
14.22.06.426,342.2,85.6,0,9.0,,91809.6,10.89,0.08,0.57,0.81,4.1,5.6,-1.1,32.81,,,,,,,,,,
14.22.06.435,318.2,79.6,0,9.0,,91765.4,10.9,0.08,0.58,0.81,5.2,6.3,-1.1,32.81,,,,,,,,,,
14.22.06.447,306.5,76.6,0,9.0,,91733.5,10.9,0.07,0.58,0.8,5.5,7.1,-1.0,32.81,,,,,,,,,,
14.22.06.455,287.2,71.8,0,9.0,,91316.2,10.95,0.07,0.58,0.8,4.5,6.9,-0.9,32.81,,,,,,,,,,
14.22.06.467,236.7,59.2,0,9.0,,91388.3,10.94,0.07,0.58,0.8,4.0,6.0,-0.9,32.81,,,,,,,,,,
14.22.06.476,238.3,59.6,0,9.0,,91411.8,10.94,0.07,0.58,0.8,4.2,5.9,-0.9,32.81,,,,,,,,,,
14.22.06.488,176.0,44.0,0,9.0,,91391.3,10.94,0.08,0.58,0.8,3.7,6.4,-0.5,32.81,,,,,,,,,,
14.22.06.500,120.0,30.0,0,9.0,,92338.3,10.83,0.07,0.59,0.8,4.0,4.8,-0.1,32.81,,,,,,,,,,
14.22.06.508,82.3,20.6,0,9.0,,91108.5,10.98,0.08,0.59,0.8,2.6,4.7,-0.3,32.81,,,,,,,,,,
14.22.06.521,20.0,5.0,0,9.0,,91188.4,10.97,0.08,0.58,0.8,3.5,6.9,-0.5,32.81,,,,,,,,,,
14.22.06.529,7.3,1.8,0,9.0,,92407.8,10.82,0.07,0.59,0.8,2.0,6.8,-0.7,32.81,,,,,,,,,,
14.22.06.541,21.9,5.5,0,9.0,,91601.7,10.92,0.08,0.58,0.79,1.3,5.0,-0.4,32.81,,,,,,,,,,
14.22.06.549,29.6,7.4,0,9.0,,91179.3,10.97,0.08,0.59,0.8,1.2,4.8,-0.8,32.81,,,,,,,,,,
14.22.06.562,47.1,11.8,0,9.0,,92208.6,10.84,0.07,0.57,0.81,2.1,5.7,-1.1,32.81,,,,,,,,,,
14.22.06.570,53.9,13.5,0,9.0,,94279.9,10.61,0.08,0.58,0.81,2.8,6.8,-0.6,32.81,,,,,,,,,,
14.22.06.582,55.7,13.9,0,9.0,,92231.6,10.84,0.08,0.59,0.79,2.3,6.1,-0.7,32.81,,,,,,,,,,
14.22.06.591,54.0,13.5,0,9.0,,91549.0,10.92,0.08,0.59,0.8,1.1,4.5,-0.7,32.81,,,,,,,,,,
14.22.06.603,55.6,13.9,0,9.0,,92416.1,10.82,0.08,0.58,0.8,0.5,5.6,-0.8,32.81,,,,,,,,,,
14.22.06.611,37.3,9.3,0,9.0,,92986.6,10.75,0.08,0.58,0.8,2.1,7.1,-0.8,32.81,,,,,,,,,,
14.22.06.623,26.3,6.6,0,9.0,,90624.3,11.03,0.07,0.58,0.8,1.2,5.8,-0.9,32.81,,,,,,,,,,
14.22.06.631,22.1,5.5,0,9.0,,92222.3,10.84,0.08,0.58,0.81,1.2,6.1,-0.7,32.81,,,,,,,,,,
14.22.06.644,5.5,1.4,0,9.0,,92062.8,10.86,0.08,0.58,0.8,2.8,7.7,-0.8,32.81,,,,,,,,,,
14.22.06.656,2.2,0.6,0,9.0,,92476.2,10.81,0.07,0.57,0.8,1.7,6.6,-0.8,32.81,,,,,,,,,,
14.22.06.664,-6.9,1.7,0,9.0,,90606.3,11.04,0.07,0.58,0.8,2.2,5.5,-0.1,32.81,,,,,,,,,,
14.22.06.677,-10.3,2.6,0,9.0,,91219.5,10.96,0.08,0.58,0.8,2.7,6.9,-0.1,32.81,,,,,,,,,,
14.22.06.689,-20.6,5.2,0,9.0,,91736.3,10.9,0.07,0.59,0.79,2.6,5.3,-0.6,32.81,,,,,,,,,,
14.22.06.697,-28.1,7.0,0,9.0,,92178.8,10.85,0.08,0.59,0.8,0.4,5.8,-0.9,32.81,,,,,,,,,,
14.22.06.709,-35.8,9.0,0,9.0,,90991.2,10.99,0.07,0.58,0.8,1.6,5.6,-0.8,32.81,,,,,,,,,,
14.22.06.717,-38.4,9.6,0,9.0,,92251.1,10.84,0.08,0.58,0.81,1.6,6.3,-0.3,32.81,,,,,,,,,,
14.22.06.730,-26.3,6.6,0,9.0,,91547.2,10.92,0.07,0.57,0.79,1.8,5.9,-0.4,32.81,,,,,,,,,,
14.22.06.738,-39.8,10.0,0,9.0,,90915.2,11.0,0.08,0.59,0.8,2.3,4.9,-0.5,32.81,,,,,,,,,,
14.22.06.750,-52.6,13.2,0,9.0,,92999.3,10.75,0.07,0.59,0.8,2.8,5.9,-0.4,32.81,,,,,,,,,,
14.22.06.759,-54.6,13.6,0,9.0,,91954.4,10.87,0.07,0.59,0.8,2.4,5.8,-0.2,32.81,,,,,,,,,,
14.22.06.771,-59.9,15.0,0,9.0,,92210.3,10.84,0.07,0.58,0.79,1.9,6.5,-0.3,32.81,,,,,,,,,,
14.22.06.779,-65.2,16.3,0,9.0,,92803.7,10.78,0.08,0.59,0.8,1.4,6.1,-0.2,32.81,,,,,,,,,,
14.22.06.791,-67.7,16.9,0,9.0,,91762.0,10.9,0.07,0.58,0.79,1.5,5.3,-0.8,32.81,,,,,,,,,,
14.22.06.799,-72.6,18.2,0,9.0,,91704.5,10.9,0.08,0.59,0.8,0.7,4.0,-0.6,32.81,,,,,,,,,,
14.22.06.812,-86.5,21.6,0,9.0,,92206.2,10.85,0.08,0.59,0.8,2.3,5.1,-0.4,32.81,,,,,,,,,,
14.22.06.824,-91.8,23.0,0,9.0,,91731.0,10.9,0.08,0.6,0.79,1.7,6.0,-1.0,32.81,,,,,,,,,,
14.22.06.832,-95.3,23.8,0,9.0,,91785.1,10.9,0.08,0.59,0.79,0.5,6.0,-0.7,32.81,,,,,,,,,,
14.22.06.844,-100.5,25.1,0,9.0,,92390.2,10.82,0.08,0.58,0.79,-0.2,5.1,-0.7,32.81,,,,,,,,,,
14.22.06.853,-102.0,25.5,0,9.0,,91920.4,10.88,0.08,0.59,0.8,1.2,5.9,-0.8,32.81,,,,,,,,,,
14.22.06.865,-97.3,24.3,0,9.0,,91334.2,10.95,0.08,0.59,0.79,0.2,5.8,-0.9,32.81,,,,,,,,,,
14.22.06.873,-124.4,31.1,0,9.0,,90838.8,11.01,0.08,0.59,0.8,0.2,4.9,-1.1,32.81,,,,,,,,,,
14.22.06.885,-109.2,27.3,0,9.0,,90703.1,11.02,0.08,0.58,0.8,0.9,5.2,-1.1,32.81,,,,,,,,,,
14.22.06.894,-127.2,31.8,0,9.0,,91693.8,10.91,0.08,0.58,0.8,1.5,6.0,-0.9,32.81,,,,,,,,,,
14.22.06.907,-137.9,34.5,0,9.0,,91421.0,10.94,0.08,0.58,0.8,1.5,6.8,-1.1,32.81,,,,,,,,,,
14.22.06.914,21.1,5.3,1,10.0,100.9,90344.6,11.07,0.08,0.58,0.8,1.9,6.7,-0.8,32.81,,,,,,,,,,
14.22.06.926,87.7,21.9,0,10.0,,91637.6,10.91,0.08,0.59,0.79,2.5,5.6,-0.8,32.81,,,,,,,,,,
14.22.06.934,118.9,29.7,0,10.0,,92786.4,10.78,0.08,0.59,0.79,1.3,5.8,-0.9,32.81,,,,,,,,,,
14.22.06.947,182.6,45.6,0,10.0,,91431.1,10.94,0.08,0.6,0.79,0.5,6.2,-1.1,32.81,,,,,,,,,,
14.22.06.955,214.2,53.6,0,10.0,,91621.2,10.91,0.08,0.6,0.79,1.5,5.8,-1.1,32.81,,,,,,,,,,
14.22.06.967,226.9,56.7,0,10.0,,91511.5,10.93,0.07,0.59,0.79,-1.1,6.0,-1.5,32.81,,,,,,,,,,
14.22.06.980,274.5,68.6,0,10.0,,93198.1,10.73,0.07,0.58,0.8,-0.7,6.6,-1.6,32.81,,,,,,,,,,
14.22.06.988,312.2,78.0,0,10.0,,91862.5,10.89,0.07,0.58,0.8,-0.1,6.2,-2.0,32.81,,,,,,,,,,
14.22.07.000,307.6,76.9,0,10.0,,91317.1,10.95,0.06,0.58,0.8,-1.6,5.3,-2.0,32.81,,,,,,,,,,
14.22.07.008,312.8,78.2,0,10.0,,91958.1,10.87,0.07,0.58,0.8,-1.7,4.4,-2.2,32.81,,,,,,,,,,
14.22.07.021,310.5,77.6,0,10.0,,91542.3,10.92,0.07,0.59,0.8,-1.5,5.1,-1.5,32.81,,,,,,,,,,
14.22.07.029,288.7,72.2,0,10.0,,90066.3,11.1,0.08,0.59,0.79,-2.2,4.9,-1.4,32.81,,,,,,,,,,
14.22.07.041,297.9,74.5,0,10.0,,91364.6,10.95,0.08,0.6,0.79,-2.6,5.2,-1.2,32.81,,,,,,,,,,
14.22.07.079,195.6,48.9,0,10.0,,91519.9,10.93,0.08,0.6,0.8,-4.1,5.9,-0.9,32.81,,,,,,,,,,
14.22.07.090,113.4,28.4,0,10.0,,90749.1,11.02,0.08,0.59,0.8,-7.4,5.2,-1.4,32.81,,,,,,,,,,
14.22.07.098,88.3,22.1,0,10.0,,91468.5,10.93,0.08,0.59,0.8,-8.1,6.5,-2.0,32.81,,,,,,,,,,
14.22.07.111,29.3,7.3,0,10.0,,91120.2,10.97,0.07,0.59,0.8,-8.2,7.8,-2.4,32.81,,,,,,,,,,
14.22.07.119,4.3,1.1,0,10.0,,90903.1,11.0,0.07,0.6,0.79,-9.1,7.7,-1.8,32.81,,,,,,,,,,
14.22.07.131,19.1,4.8,0,10.0,,91551.4,10.92,0.06,0.59,0.79,-8.7,8.2,-2.1,32.81,,,,,,,,,,
14.22.07.139,37.3,9.3,0,10.0,,91910.7,10.88,0.07,0.56,0.78,-5.7,9.9,-3.8,32.81,,,,,,,,,,
14.22.07.152,44.9,11.2,0,10.0,,92516.6,10.81,0.07,0.6,0.82,-8.6,7.9,-3.2,32.81,,,,,,,,,,
14.22.07.160,60.3,15.1,0,10.0,,91440.5,10.94,0.04,0.57,0.8,-8.6,10.0,-4.3,32.81,,,,,,,,,,
14.22.07.172,55.9,14.0,0,10.0,,92527.8,10.81,0.13,0.58,0.82,-13.8,15.4,-4.3,32.81,,,,,,,,,,
14.22.07.184,51.9,13.0,0,10.0,,91314.9,10.95,0.07,0.51,0.82,-8.1,13.1,-4.2,32.81,,,,,,,,,,
14.22.07.193,42.9,10.7,0,10.0,,89343.4,11.19,0.06,0.52,0.81,-7.1,5.7,-5.0,32.81,,,,,,,,,,
14.22.07.205,26.6,6.6,0,10.0,,92768.3,10.78,0.1,0.52,0.82,-1.8,5.3,-4.6,32.81,,,,,,,,,,
14.22.07.213,27.7,6.9,0,10.0,,92647.0,10.79,0.09,0.55,0.83,2.3,8.2,-4.4,32.81,,,,,,,,,,
14.22.07.225,17.8,4.4,0,10.0,,90671.5,11.03,0.08,0.56,0.81,1.6,11.2,-6.4,32.81,,,,,,,,,,
14.22.07.234,1.2,0.3,0,10.0,,92305.4,10.83,0.07,0.58,0.81,1.3,10.7,-6.3,32.81,,,,,,,,,,
14.22.07.246,-15.0,3.8,0,10.0,,92072.3,10.86,0.06,0.58,0.8,0.0,11.1,-5.9,32.81,,,,,,,,,,
14.22.07.254,-3.9,1.0,0,10.0,,91447.8,10.94,0.06,0.57,0.81,-0.5,10.1,-5.0,32.81,,,,,,,,,,
14.22.07.266,-17.9,4.5,0,10.0,,92387.5,10.82,0.05,0.56,0.81,-1.9,6.1,-3.9,32.81,,,,,,,,,,
14.22.07.279,-24.0,6.0,0,10.0,,91502.5,10.93,0.06,0.57,0.82,-0.2,3.0,-2.7,32.81,,,,,,,,,,
14.22.07.287,-30.2,7.6,0,10.0,,92117.7,10.86,0.06,0.56,0.82,1.2,4.3,-2.0,32.81,,,,,,,,,,
14.22.07.299,-45.6,11.4,0,10.0,,91783.2,10.9,0.06,0.56,0.81,0.7,5.1,-1.4,32.81,,,,,,,,,,
14.22.07.308,-47.5,11.9,0,10.0,,92282.1,10.84,0.06,0.56,0.82,2.0,5.4,-1.2,32.81,,,,,,,,,,
14.22.07.320,-42.6,10.6,0,10.0,,91066.2,10.98,0.07,0.56,0.81,3.6,5.0,-1.6,32.81,,,,,,,,,,
14.22.07.328,-36.6,9.2,0,10.0,,92492.8,10.81,0.07,0.57,0.81,1.1,2.5,-1.7,32.81,,,,,,,,,,
14.22.07.340,-50.0,12.5,0,10.0,,92195.2,10.85,0.07,0.56,0.81,3.8,3.9,-2.1,32.81,,,,,,,,,,
14.22.07.348,-50.0,12.5,0,10.0,,92680.9,10.79,0.07,0.58,0.83,4.8,5.5,-1.8,32.81,,,,,,,,,,
14.22.07.361,-62.3,15.6,0,10.0,,91559.5,10.92,0.07,0.57,0.81,5.3,8.1,-2.1,32.81,,,,,,,,,,
14.22.07.370,-62.0,15.5,0,10.0,,92621.8,10.8,0.07,0.58,0.81,5.7,5.9,-1.7,32.81,,,,,,,,,,
14.22.07.381,-62.5,15.6,0,10.0,,91514.3,10.93,0.06,0.57,0.81,4.4,6.2,-1.4,32.81,,,,,,,,,,
14.22.07.393,-78.2,19.6,0,10.0,,91265.0,10.96,0.06,0.58,0.8,4.5,4.9,-1.4,32.81,,,,,,,,,,
14.22.07.401,-87.0,21.8,0,10.0,,90981.3,10.99,0.06,0.57,0.81,2.4,5.1,-1.4,32.81,,,,,,,,,,
14.22.07.414,-93.2,23.3,0,10.0,,91985.5,10.87,0.06,0.56,0.81,3.9,6.7,-1.0,32.81,,,,,,,,,,
14.22.07.426,-96.4,24.1,0,10.0,,92197.0,10.85,0.06,0.59,0.81,3.5,5.8,-0.7,32.81,,,,,,,,,,
14.22.07.434,-99.0,24.8,0,10.0,,89517.6,11.17,0.06,0.58,0.8,2.2,6.0,-0.3,32.81,,,,,,,,,,
14.22.07.446,-108.9,27.2,0,10.0,,93034.5,10.75,0.07,0.59,0.81,1.8,5.1,0.0,32.81,,,,,,,,,,
14.22.07.459,-114.3,28.6,0,10.0,,91932.1,10.88,0.07,0.58,0.8,1.6,6.5,-0.5,32.81,,,,,,,,,,
14.22.07.471,-113.4,28.4,0,10.0,,92237.2,10.84,0.07,0.58,0.8,1.3,5.1,-0.9,32.81,,,,,,,,,,
14.22.07.479,-118.2,29.6,0,10.0,,90950.8,10.99,0.07,0.57,0.81,1.0,6.5,-0.8,32.81,,,,,,,,,,
14.22.07.492,-132.0,33.0,0,10.0,,91767.4,10.9,0.06,0.57,0.81,2.4,7.5,-1.2,32.81,,,,,,,,,,
14.22.07.504,9.8,2.4,1,11.0,105.4,91996.5,10.87,0.06,0.56,0.81,1.6,6.2,-1.6,32.81,,,,,,,,,,
14.22.07.512,55.8,14.0,0,11.0,,90922.6,11.0,0.06,0.57,0.8,2.5,5.3,-1.3,32.81,,,,,,,,,,
14.22.07.524,116.1,29.0,0,11.0,,93550.0,10.69,0.06,0.58,0.8,2.5,5.4,-1.2,32.81,,,,,,,,,,
14.22.07.537,181.0,45.2,0,11.0,,91076.9,10.98,0.06,0.58,0.8,1.0,5.5,-1.0,32.81,,,,,,,,,,
14.22.07.549,234.1,58.5,0,11.0,,91734.7,10.9,0.06,0.57,0.81,2.0,6.0,-1.1,32.81,,,,,,,,,,
14.22.07.557,270.8,67.7,0,11.0,,92344.6,10.83,0.07,0.59,0.8,2.4,5.4,-1.2,32.81,,,,,,,,,,
14.22.07.569,283.9,71.0,0,11.0,,91512.6,10.93,0.06,0.59,0.8,-1.5,2.5,-1.1,32.81,,,,,,,,,,
14.22.07.582,271.6,67.9,0,11.0,,90913.3,11.0,0.07,0.58,0.8,-0.8,3.0,-0.9,32.81,,,,,,,,,,
14.22.07.594,270.6,67.6,0,11.0,,91363.6,10.95,0.07,0.58,0.81,-1.2,4.9,-1.9,32.81,,,,,,,,,,
14.22.07.602,337.0,84.2,0,11.0,,91236.3,10.96,0.07,0.57,0.8,-1.1,4.2,-1.9,32.81,,,,,,,,,,
14.22.07.614,308.1,77.0,0,11.0,,91245.0,10.96,0.07,0.57,0.82,1.5,4.9,-1.7,32.81,,,,,,,,,,
14.22.07.627,296.6,74.2,0,11.0,,91717.1,10.9,0.06,0.58,0.81,0.2,5.7,-1.7,32.81,,,,,,,,,,
14.22.07.640,233.7,58.4,0,11.0,,92147.2,10.85,0.07,0.58,0.81,1.4,4.6,-1.2,32.81,,,,,,,,,,
14.22.07.647,265.8,66.4,0,11.0,,92020.2,10.87,0.07,0.58,0.81,1.2,5.1,-1.3,32.81,,,,,,,,,,
14.22.07.660,225.9,56.5,0,11.0,,91060.5,10.98,0.06,0.58,0.81,0.7,5.5,-0.9,32.81,,,,,,,,,,
14.22.07.672,148.6,37.2,0,11.0,,91926.2,10.88,0.07,0.58,0.8,1.6,6.4,-0.5,32.81,,,,,,,,,,
14.22.07.684,106.5,26.6,0,11.0,,91054.9,10.98,0.07,0.58,0.8,0.8,5.4,-0.4,32.81,,,,,,,,,,
14.22.07.692,56.0,14.0,0,11.0,,92618.0,10.8,0.07,0.57,0.81,-0.3,4.0,-0.3,32.81,,,,,,,,,,
14.22.07.705,4.3,1.1,0,11.0,,92168.6,10.85,0.07,0.57,0.81,0.2,5.5,-0.8,32.81,,,,,,,,,,
14.22.07.717,18.4,4.6,0,11.0,,92107.1,10.86,0.07,0.58,0.8,1.5,6.2,-1.6,32.81,,,,,,,,,,
14.22.07.729,29.9,7.5,0,11.0,,90921.3,11.0,0.07,0.58,0.8,1.6,5.3,-1.8,32.81,,,,,,,,,,
14.22.07.738,41.4,10.4,0,11.0,,92400.3,10.82,0.07,0.58,0.81,2.0,6.6,-2.0,32.81,,,,,,,,,,
14.22.07.750,53.9,13.5,0,11.0,,92473.2,10.81,0.06,0.57,0.8,2.3,5.9,-1.3,32.81,,,,,,,,,,
14.22.07.762,58.3,14.6,0,11.0,,91261.4,10.96,0.07,0.57,0.81,1.9,5.0,-1.3,32.81,,,,,,,,,,
14.22.07.770,68.0,17.0,0,11.0,,91130.3,10.97,0.07,0.57,0.8,2.5,4.5,-0.9,32.81,,,,,,,,,,
14.22.07.782,50.5,12.6,0,11.0,,91748.9,10.9,0.06,0.58,0.8,1.4,3.9,-0.7,32.81,,,,,,,,,,
14.22.07.795,36.6,9.2,0,11.0,,91338.1,10.95,0.07,0.58,0.81,2.3,5.5,-0.5,32.81,,,,,,,,,,
14.22.07.807,14.9,3.7,0,11.0,,91833.9,10.89,0.07,0.58,0.8,1.4,6.1,-1.2,32.81,,,,,,,,,,
14.22.07.815,19.1,4.8,0,11.0,,91345.8,10.95,0.07,0.58,0.8,0.4,4.4,-0.9,32.81,,,,,,,,,,
14.22.07.827,-4.8,1.2,0,11.0,,91712.0,10.9,0.07,0.58,0.8,0.3,5.0,-1.0,32.81,,,,,,,,,,
14.22.07.841,-7.9,2.0,0,11.0,,90609.8,11.04,0.07,0.58,0.81,1.3,6.7,-1.2,32.81,,,,,,,,,,
14.22.07.877,-18.3,4.6,0,11.0,,91559.5,10.92,0.06,0.58,0.8,0.0,5.5,-1.4,32.81,,,,,,,,,,
14.22.07.889,-37.0,9.2,0,11.0,,91261.9,10.96,0.06,0.57,0.81,-0.1,5.4,-0.9,32.81,,,,,,,,,,
14.22.07.897,-37.1,9.3,0,11.0,,91453.0,10.93,0.07,0.57,0.81,0.7,5.2,-0.8,32.81,,,,,,,,,,
14.22.07.909,-36.3,9.1,0,11.0,,92034.4,10.87,0.07,0.58,0.8,1.0,5.0,-1.0,32.81,,,,,,,,,,
14.22.07.922,-53.2,13.3,0,11.0,,91129.8,10.97,0.07,0.58,0.81,1.4,5.9,-1.2,32.81,,,,,,,,,,
14.22.07.930,-47.6,11.9,0,11.0,,93480.5,10.7,0.07,0.58,0.8,1.0,5.6,-1.2,32.81,,,,,,,,,,
14.22.07.943,-61.1,15.3,0,11.0,,93048.2,10.75,0.07,0.58,0.8,1.0,4.4,-0.7,32.81,,,,,,,,,,
14.22.07.950,-54.5,13.6,0,11.0,,92946.5,10.76,0.07,0.59,0.8,0.8,4.7,-1.3,32.81,,,,,,,,,,
14.22.07.963,-63.4,15.8,0,11.0,,90530.7,11.05,0.07,0.58,0.8,1.1,6.0,-1.8,32.81,,,,,,,,,,
14.22.07.971,-63.7,15.9,0,11.0,,91887.8,10.88,0.07,0.58,0.8,1.1,4.1,-1.5,32.81,,,,,,,,,,
14.22.07.983,-76.7,19.2,0,11.0,,90321.7,11.07,0.06,0.58,0.8,0.7,4.1,-1.8,32.81,,,,,,,,,,
14.22.07.992,-77.9,19.5,0,11.0,,90574.0,11.04,0.07,0.57,0.8,0.4,5.0,-1.7,32.81,,,,,,,,,,
14.22.08.004,-89.5,22.4,0,11.0,,90486.8,11.05,0.07,0.58,0.8,1.3,4.5,-1.2,32.81,,,,,,,,,,
14.22.08.012,-90.9,22.7,0,11.0,,92169.1,10.85,0.07,0.58,0.8,0.6,4.1,-1.1,32.81,,,,,,,,,,
14.22.08.024,-96.2,24.0,0,11.0,,90979.7,10.99,0.07,0.58,0.8,-1.1,4.3,-1.3,32.81,,,,,,,,,,
14.22.08.032,-98.6,24.6,0,11.0,,90743.0,11.02,0.07,0.59,0.8,-0.8,3.2,-1.0,32.81,,,,,,,,,,
14.22.08.045,-115.1,28.8,0,11.0,,91158.8,10.97,0.07,0.58,0.8,-1.4,3.6,-1.4,32.81,,,,,,,,,,
14.22.08.057,-115.7,28.9,0,11.0,,92064.9,10.86,0.07,0.57,0.81,-1.5,5.1,-2.0,32.81,,,,,,,,,,
14.22.08.065,-114.4,28.6,0,11.0,,91426.1,10.94,0.07,0.57,0.81,0.6,5.6,-1.5,32.81,,,,,,,,,,
14.22.08.077,-132.8,33.2,0,11.0,,92634.5,10.8,0.07,0.58,0.81,0.0,5.2,-1.5,32.81,,,,,,,,,,
14.22.08.086,-127.6,31.9,0,11.0,,92230.0,10.84,0.07,0.57,0.8,-1.1,4.0,-1.8,32.81,,,,,,,,,,
14.22.08.098,35.0,8.8,1,12.0,97.9,92032.3,10.87,0.07,0.57,0.81,0.9,4.4,-1.9,32.81,,,,,,,,,,
14.22.08.106,80.3,20.1,0,12.0,,93045.3,10.75,0.07,0.58,0.81,0.5,5.3,-2.0,32.81,,,,,,,,,,
14.22.08.118,128.0,32.0,0,12.0,,92214.6,10.84,0.07,0.58,0.8,-0.1,5.5,-1.8,32.81,,,,,,,,,,
14.22.08.127,179.4,44.8,0,12.0,,90753.3,11.02,0.07,0.58,0.8,0.4,5.2,-1.4,32.81,,,,,,,,,,
14.22.08.139,238.8,59.7,0,12.0,,91527.3,10.93,0.07,0.58,0.81,-0.8,5.6,-1.3,32.81,,,,,,,,,,
14.22.08.147,257.8,64.4,0,12.0,,92635.2,10.8,0.07,0.58,0.8,-1.2,3.9,-1.5,32.81,,,,,,,,,,
14.22.08.159,290.0,72.5,0,12.0,,93010.1,10.75,0.07,0.58,0.8,-1.4,3.0,-1.7,32.81,,,,,,,,,,
14.22.08.172,278.8,69.7,0,12.0,,90898.3,11.0,0.07,0.58,0.81,-2.3,4.0,-1.9,32.81,,,,,,,,,,
14.22.08.180,327.7,81.9,0,12.0,,91745.1,10.9,0.07,0.57,0.8,0.1,5.4,-2.0,32.81,,,,,,,,,,
14.22.08.192,351.7,87.9,0,12.0,,93605.7,10.68,0.06,0.58,0.8,-0.8,4.5,-1.5,32.81,,,,,,,,,,
14.22.08.200,325.1,81.3,0,12.0,,89950.6,11.12,0.06,0.59,0.81,-2.7,3.8,-0.9,32.81,,,,,,,,,,
14.22.08.213,314.3,78.6,0,12.0,,90786.0,11.01,0.07,0.57,0.8,-2.5,3.1,-1.3,32.81,,,,,,,,,,
14.22.08.221,302.0,75.5,0,12.0,,90103.0,11.1,0.08,0.57,0.8,-2.9,1.3,-1.7,32.81,,,,,,,,,,
14.22.08.233,261.4,65.4,0,12.0,,92371.9,10.83,0.07,0.58,0.81,-1.7,3.8,-1.5,32.81,,,,,,,,,,
14.22.08.241,242.9,60.7,0,12.0,,90578.5,11.04,0.07,0.58,0.81,0.0,4.6,-1.7,32.81,,,,,,,,,,
14.22.08.255,205.6,51.4,0,12.0,,91558.3,10.92,0.08,0.57,0.8,-1.7,4.3,-1.3,32.81,,,,,,,,,,
14.22.08.262,148.2,37.0,0,12.0,,93061.0,10.75,0.07,0.58,0.81,-1.1,4.2,-1.7,32.81,,,,,,,,,,
14.22.08.274,121.3,30.3,0,12.0,,91393.6,10.94,0.08,0.57,0.81,-0.4,4.4,-1.8,32.81,,,,,,,,,,
14.22.08.286,42.9,10.7,0,12.0,,91175.4,10.97,0.07,0.56,0.81,1.0,6.5,-2.2,32.81,,,,,,,,,,
14.22.08.295,5.7,1.4,0,12.0,,92138.3,10.85,0.07,0.57,0.81,1.9,5.5,-1.9,32.81,,,,,,,,,,
14.22.08.308,20.5,5.1,0,12.0,,91739.9,10.9,0.07,0.57,0.81,2.5,5.1,-1.3,32.81,,,,,,,,,,
14.22.08.315,22.9,5.7,0,12.0,,92504.8,10.81,0.07,0.58,0.81,1.7,4.9,-1.4,32.81,,,,,,,,,,
14.22.08.328,42.2,10.6,0,12.0,,93676.8,10.68,0.07,0.58,0.81,1.4,5.1,-1.2,32.81,,,,,,,,,,
14.22.08.336,57.9,14.5,0,12.0,,91565.0,10.92,0.07,0.58,0.8,1.4,6.0,-1.2,32.81,,,,,,,,,,
14.22.08.348,57.9,14.5,0,12.0,,91100.5,10.98,0.07,0.58,0.81,0.9,6.0,-0.8,32.81,,,,,,,,,,
14.22.08.356,60.2,15.0,0,12.0,,93890.6,10.65,0.08,0.57,0.8,0.0,4.7,-1.2,32.81,,,,,,,,,,
14.22.08.368,49.8,12.4,0,12.0,,92626.4,10.8,0.07,0.58,0.81,-1.0,3.0,-1.0,32.81,,,,,,,,,,
14.22.08.378,49.3,12.3,0,12.0,,93016.9,10.75,0.08,0.57,0.8,-0.4,4.6,-1.0,32.81,,,,,,,,,,
14.22.08.393,24.6,6.2,0,12.0,,92008.0,10.87,0.07,0.57,0.8,-1.6,5.6,-1.2,32.81,,,,,,,,,,
14.22.08.401,24.3,6.1,0,12.0,,90265.8,11.08,0.07,0.57,0.81,-0.2,5.6,-1.1,32.81,,,,,,,,,,
14.22.08.413,6.9,1.7,0,12.0,,91163.4,10.97,0.07,0.57,0.81,0.2,3.7,-0.6,32.81,,,,,,,,,,
14.22.08.422,-6.3,1.6,0,12.0,,91272.0,10.96,0.08,0.57,0.81,0.0,4.4,-1.0,32.81,,,,,,,,,,
14.22.08.434,-8.9,2.2,0,12.0,,92931.4,10.76,0.08,0.58,0.82,1.5,6.0,-0.5,32.81,,,,,,,,,,
14.22.08.442,-16.5,4.1,0,12.0,,91534.2,10.92,0.07,0.58,0.8,1.5,6.2,-0.6,32.81,,,,,,,,,,
14.22.08.454,-9.2,2.3,0,12.0,,91863.4,10.89,0.08,0.57,0.81,-0.4,5.6,-0.5,32.81,,,,,,,,,,
14.22.08.463,-24.2,6.0,0,12.0,,90813.0,11.01,0.07,0.57,0.81,1.0,6.1,-0.3,32.81,,,,,,,,,,
14.22.08.475,-34.7,8.7,0,12.0,,92476.8,10.81,0.07,0.57,0.81,1.1,5.4,-0.5,32.81,,,,,,,,,,
14.22.08.483,-34.8,8.7,0,12.0,,92736.5,10.78,0.07,0.57,0.8,-0.2,5.7,-0.8,32.81,,,,,,,,,,
14.22.08.495,-50.5,12.6,0,12.0,,91749.4,10.9,0.08,0.57,0.8,2.2,5.3,-1.0,32.81,,,,,,,,,,
14.22.08.504,-48.6,12.2,0,12.0,,91739.6,10.9,0.08,0.58,0.8,1.8,6.0,-1.0,32.81,,,,,,,,,,
14.22.08.516,-43.3,10.8,0,12.0,,92036.8,10.87,0.08,0.57,0.81,1.3,5.7,-0.9,32.81,,,,,,,,,,
14.22.08.524,-55.7,13.9,0,12.0,,91765.1,10.9,0.08,0.57,0.81,2.1,5.9,-0.8,32.81,,,,,,,,,,
14.22.08.536,-54.1,13.5,0,12.0,,92411.1,10.82,0.07,0.58,0.8,1.6,5.8,-0.9,32.81,,,,,,,,,,
14.22.08.544,-68.0,17.0,0,12.0,,91990.4,10.87,0.08,0.58,0.8,-0.8,5.0,-0.8,32.81,,,,,,,,,,
14.22.08.557,-74.4,18.6,0,12.0,,91891.4,10.88,0.08,0.57,0.81,1.0,5.3,-1.2,32.81,,,,,,,,,,
14.22.08.565,-64.8,16.2,0,12.0,,91546.9,10.92,0.08,0.57,0.8,0.7,5.4,-1.1,32.81,,,,,,,,,,
14.22.08.578,-75.4,18.8,0,12.0,,91862.7,10.89,0.08,0.57,0.81,1.1,4.9,-0.9,32.81,,,,,,,,,,
14.22.08.585,-98.0,24.5,0,12.0,,91481.9,10.93,0.08,0.58,0.81,2.0,5.7,-1.6,32.81,,,,,,,,,,
14.22.08.598,-81.1,20.3,0,12.0,,91944.8,10.88,0.07,0.58,0.8,0.8,5.6,-1.0,32.81,,,,,,,,,,
14.22.08.606,-107.4,26.8,0,12.0,,91321.9,10.95,0.07,0.57,0.8,-0.1,4.9,-0.7,32.81,,,,,,,,,,
14.22.08.618,-99.8,25.0,0,12.0,,91318.2,10.95,0.07,0.58,0.81,-0.5,4.5,-1.1,32.81,,,,,,,,,,
14.22.08.631,-102.8,25.7,0,12.0,,91923.8,10.88,0.07,0.57,0.81,-0.2,4.3,-1.1,32.81,,,,,,,,,,
14.22.08.639,-115.8,29.0,0,12.0,,92305.9,10.83,0.07,0.57,0.8,-1.3,3.9,-1.2,32.81,,,,,,,,,,
14.22.08.651,-123.0,30.8,0,12.0,,89813.8,11.13,0.07,0.58,0.81,-0.6,4.6,-1.2,32.81,,,,,,,,,,
14.22.08.688,46.2,11.6,1,13.0,104.9,91341.1,10.95,0.08,0.57,0.82,-0.9,3.5,-1.7,32.88,,,,,,,,,,
14.22.08.696,70.0,17.5,0,13.0,,91343.2,10.95,0.08,0.55,0.79,-0.1,5.5,-3.3,32.88,,,,,,,,,,
14.22.08.708,138.1,34.5,0,13.0,,91918.2,10.88,0.07,0.57,0.8,0.1,4.7,-3.3,32.88,,,,,,,,,,
14.22.08.717,172.7,43.2,0,13.0,,92060.5,10.86,0.08,0.59,0.8,-1.5,4.8,-3.2,32.88,,,,,,,,,,
14.22.08.729,225.1,56.3,0,13.0,,93262.4,10.72,0.08,0.59,0.79,-0.6,3.5,-2.9,32.88,,,,,,,,,,
14.22.08.741,281.5,70.4,0,13.0,,91121.6,10.97,0.08,0.57,0.81,-1.3,2.8,-3.2,32.88,,,,,,,,,,
14.22.08.749,276.0,69.0,0,13.0,,93095.4,10.74,0.08,0.58,0.8,-0.8,4.0,-2.8,32.88,,,,,,,,,,
14.22.08.762,279.1,69.8,0,13.0,,90012.4,11.11,0.07,0.56,0.8,0.4,5.2,-2.4,32.88,,,,,,,,,,
14.22.08.770,311.9,78.0,0,13.0,,90398.3,11.06,0.07,0.58,0.82,-0.1,3.3,-2.0,32.88,,,,,,,,,,
14.22.08.782,328.2,82.0,0,13.0,,90663.8,11.03,0.07,0.57,0.8,-1.6,4.7,-2.1,32.88,,,,,,,,,,
14.22.08.790,304.1,76.0,0,13.0,,92728.4,10.78,0.08,0.59,0.81,-5.3,-1.0,-1.2,32.88,,,,,,,,,,
14.22.08.803,297.3,74.3,0,13.0,,92014.7,10.87,0.08,0.58,0.8,-5.9,1.4,-1.5,32.88,,,,,,,,,,
14.22.08.811,295.1,73.8,0,13.0,,92674.4,10.79,0.08,0.58,0.81,-6.1,2.4,-2.5,32.88,,,,,,,,,,
14.22.08.823,287.2,71.8,0,13.0,,92987.5,10.75,0.08,0.57,0.81,-5.2,1.5,-4.2,32.88,,,,,,,,,,
14.22.08.831,226.1,56.5,0,13.0,,91573.5,10.92,0.08,0.56,0.81,-5.5,-0.1,-4.7,32.88,,,,,,,,,,
14.22.08.844,205.0,51.2,0,13.0,,91740.2,10.9,0.08,0.57,0.81,-4.4,2.2,-5.4,32.88,,,,,,,,,,
14.22.08.856,135.6,33.9,0,13.0,,91657.6,10.91,0.08,0.58,0.81,-3.2,3.6,-5.6,32.88,,,,,,,,,,
14.22.08.864,98.0,24.5,0,13.0,,91969.0,10.87,0.08,0.57,0.8,-1.7,3.9,-4.7,32.88,,,,,,,,,,
14.22.08.876,49.6,12.4,0,13.0,,92546.1,10.81,0.08,0.59,0.8,-4.2,0.3,-4.2,32.88,,,,,,,,,,
14.22.08.885,1.5,0.4,0,13.0,,91566.8,10.92,0.1,0.56,0.81,-2.8,-0.7,-2.9,32.88,,,,,,,,,,
14.22.08.897,14.9,3.7,0,13.0,,92383.1,10.82,0.09,0.56,0.82,-2.3,2.2,-2.9,32.88,,,,,,,,,,
14.22.08.906,32.3,8.1,0,13.0,,91948.4,10.88,0.09,0.57,0.8,4.0,0.2,-1.7,32.88,,,,,,,,,,
14.22.08.917,40.6,10.2,0,13.0,,92852.1,10.77,0.09,0.55,0.81,4.1,-1.5,-1.0,32.88,,,,,,,,,,
14.22.08.925,49.1,12.3,0,13.0,,90826.6,11.01,0.08,0.56,0.82,9.2,2.0,-0.8,32.88,,,,,,,,,,
14.22.08.939,51.3,12.8,0,13.0,,92173.9,10.85,0.11,0.6,0.83,-7.1,12.5,-2.8,32.88,,,,,,,,,,
14.22.08.950,60.5,15.1,0,13.0,,90134.1,11.09,0.07,0.47,0.89,-1.3,12.5,1.3,32.88,,,,,,,,,,
14.22.08.962,52.3,13.1,0,13.0,,90961.6,10.99,0.04,0.54,0.72,4.0,2.3,2.7,32.88,,,,,,,,,,
14.22.08.971,53.5,13.4,0,13.0,,91173.3,10.97,0.06,0.6,0.83,-7.4,-0.9,-0.8,32.88,,,,,,,,,,
14.22.08.983,35.1,8.8,0,13.0,,91628.9,10.91,0.07,0.56,0.83,3.1,7.2,-1.7,32.88,,,,,,,,,,
14.22.08.991,24.8,6.2,0,13.0,,92778.7,10.78,0.08,0.57,0.79,0.3,3.3,-1.0,32.88,,,,,,,,,,
14.22.09.003,-2.8,0.7,0,13.0,,91478.9,10.93,0.09,0.56,0.81,-4.5,2.7,-0.8,32.88,,,,,,,,,,
14.22.09.011,-0.9,0.2,0,13.0,,90676.7,11.03,0.09,0.57,0.83,3.1,3.5,-1.1,32.88,,,,,,,,,,
14.22.09.024,-10.7,2.7,0,13.0,,92851.9,10.77,0.09,0.58,0.81,-0.7,3.3,-1.2,32.88,,,,,,,,,,
14.22.09.032,-13.2,3.3,0,13.0,,90754.2,11.02,0.09,0.57,0.8,-1.9,2.3,-0.6,32.88,,,,,,,,,,
14.22.09.044,-23.2,5.8,0,13.0,,92451.5,10.82,0.09,0.58,0.81,-0.5,5.6,-1.5,32.88,,,,,,,,,,
14.22.09.057,-30.0,7.5,0,13.0,,90212.5,11.08,0.09,0.56,0.82,-1.3,5.1,-1.2,32.88,,,,,,,,,,
14.22.09.065,-26.3,6.6,0,13.0,,91017.5,10.99,0.09,0.56,0.82,-0.8,4.6,-0.9,32.88,,,,,,,,,,
14.22.09.077,-42.1,10.5,0,13.0,,91327.8,10.95,0.1,0.56,0.8,1.2,3.5,-1.1,32.88,,,,,,,,,,
14.22.09.085,-40.6,10.2,0,13.0,,90986.2,10.99,0.09,0.57,0.81,1.2,4.0,-0.9,32.88,,,,,,,,,,
14.22.09.098,-52.8,13.2,0,13.0,,92346.4,10.83,0.09,0.56,0.82,2.8,7.2,-1.2,32.88,,,,,,,,,,
14.22.09.106,-55.6,13.9,0,13.0,,90195.2,11.09,0.09,0.56,0.81,3.1,7.3,-0.9,32.88,,,,,,,,,,
14.22.09.118,-58.1,14.5,0,13.0,,91653.2,10.91,0.09,0.57,0.8,4.0,5.2,-0.7,32.88,,,,,,,,,,
14.22.09.127,-63.1,15.8,0,13.0,,91449.8,10.93,0.09,0.57,0.81,2.6,4.8,-0.7,32.88,,,,,,,,,,
14.22.09.138,-53.0,13.2,0,13.0,,91748.0,10.9,0.09,0.57,0.81,2.8,6.3,-0.5,32.88,,,,,,,,,,
14.22.09.147,-69.0,17.2,0,13.0,,91430.7,10.94,0.09,0.57,0.81,3.6,5.5,-0.9,32.88,,,,,,,,,,
14.22.09.159,-79.4,19.8,0,13.0,,91721.7,10.9,0.09,0.57,0.8,2.8,6.2,-0.5,32.88,,,,,,,,,,
14.22.09.167,-81.2,20.3,0,13.0,,90941.7,11.0,0.09,0.58,0.81,3.4,6.3,-0.4,32.88,,,,,,,,,,
14.22.09.179,-81.3,20.3,0,13.0,,91448.3,10.94,0.09,0.59,0.8,2.9,5.4,-0.6,32.88,,,,,,,,,,
14.22.09.192,-87.7,21.9,0,13.0,,91715.6,10.9,0.09,0.58,0.8,0.7,4.7,-0.1,32.88,,,,,,,,,,
14.22.09.200,-98.7,24.7,0,13.0,,92037.6,10.87,0.09,0.57,0.81,0.4,6.0,-0.8,32.88,,,,,,,,,,
14.22.09.212,-101.1,25.3,0,13.0,,93162.5,10.73,0.08,0.56,0.81,2.3,8.2,0.1,32.88,,,,,,,,,,
14.22.09.220,-112.4,28.1,0,13.0,,91840.7,10.89,0.09,0.57,0.8,1.9,7.4,0.3,32.88,,,,,,,,,,
14.22.09.233,-104.7,26.2,0,13.0,,93080.3,10.74,0.08,0.57,0.81,1.9,5.1,0.5,32.88,,,,,,,,,,
14.22.09.241,-130.2,32.6,0,13.0,,91382.3,10.94,0.08,0.58,0.81,3.4,5.5,1.0,32.88,,,,,,,,,,
14.22.09.253,-119.3,29.8,0,13.0,,91191.9,10.97,0.09,0.59,0.8,1.2,7.1,0.1,32.88,,,,,,,,,,
14.22.09.261,-129.3,32.3,0,13.0,,90952.5,10.99,0.09,0.58,0.8,0.6,5.4,0.0,32.88,,,,,,,,,,
14.22.09.274,31.8,8.0,1,14.0,97.3,91168.2,10.97,0.09,0.58,0.81,0.2,5.2,-0.2,32.88,,,,,,,,,,
14.22.09.282,54.7,13.7,0,14.0,,90716.4,11.02,0.09,0.57,0.81,-2.5,6.3,-0.4,32.88,,,,,,,,,,
14.22.09.294,121.3,30.3,0,14.0,,89593.9,11.16,0.09,0.56,0.81,0.2,7.1,-0.1,32.88,,,,,,,,,,
14.22.09.302,170.5,42.6,0,14.0,,91319.2,10.95,0.09,0.57,0.81,0.8,7.2,-0.4,32.88,,,,,,,,,,
14.22.09.315,200.6,50.2,0,14.0,,92484.1,10.81,0.09,0.57,0.8,-1.5,4.8,-0.2,32.88,,,,,,,,,,
14.22.09.323,236.9,59.2,0,14.0,,92898.5,10.76,0.09,0.57,0.8,-0.9,4.1,-0.7,32.88,,,,,,,,,,
14.22.09.335,264.0,66.0,0,14.0,,92082.0,10.86,0.09,0.57,0.81,-1.2,5.2,-1.1,32.88,,,,,,,,,,
14.22.09.343,273.5,68.4,0,14.0,,90750.6,11.02,0.09,0.57,0.81,-0.2,5.4,-1.6,32.88,,,,,,,,,,
14.22.09.356,317.4,79.4,0,14.0,,90812.1,11.01,0.09,0.57,0.81,0.0,6.1,-1.5,32.88,,,,,,,,,,
14.22.09.368,305.9,76.5,0,14.0,,91572.2,10.92,0.09,0.57,0.81,-0.2,6.3,-1.6,32.88,,,,,,,,,,
14.22.09.376,310.5,77.6,0,14.0,,91713.2,10.9,0.09,0.56,0.81,0.8,5.4,-1.7,32.88,,,,,,,,,,
14.22.09.388,328.7,82.2,0,14.0,,91970.0,10.87,0.09,0.56,0.81,2.8,6.1,-1.0,32.88,,,,,,,,,,
14.22.09.397,308.7,77.2,0,14.0,,90596.3,11.04,0.09,0.58,0.81,2.1,6.1,-1.2,32.88,,,,,,,,,,
14.22.09.409,295.5,73.9,0,14.0,,91212.3,10.96,0.08,0.58,0.81,2.4,5.3,-0.4,32.88,,,,,,,,,,
14.22.09.417,269.0,67.2,0,14.0,,91308.1,10.95,0.09,0.59,0.8,2.3,4.8,-0.5,32.88,,,,,,,,,,
14.22.09.429,203.8,51.0,0,14.0,,91838.7,10.89,0.09,0.57,0.81,-0.5,4.8,-0.8,32.88,,,,,,,,,,
14.22.09.438,174.3,43.6,0,14.0,,92083.6,10.86,0.1,0.56,0.81,0.9,5.3,-1.2,32.88,,,,,,,,,,
14.22.09.450,117.3,29.3,0,14.0,,92285.1,10.84,0.09,0.57,0.81,1.6,5.6,-1.4,32.88,,,,,,,,,,
14.22.09.458,81.2,20.3,0,14.0,,92363.1,10.83,0.09,0.57,0.81,-0.6,5.1,-1.4,32.88,,,,,,,,,,
14.22.09.495,33.6,8.4,0,14.0,,91605.1,10.92,0.09,0.57,0.81,1.1,4.8,-1.3,32.88,,,,,,,,,,
14.22.09.507,51.7,12.9,0,14.0,,91220.1,10.96,0.1,0.57,0.81,-0.8,4.6,-1.7,32.88,,,,,,,,,,
14.22.09.519,52.5,13.1,0,14.0,,92447.7,10.82,0.08,0.57,0.8,-0.2,5.5,-1.9,32.88,,,,,,,,,,
14.22.09.532,57.5,14.4,0,14.0,,91790.2,10.89,0.09,0.56,0.81,1.6,7.1,-1.4,32.88,,,,,,,,,,
14.22.09.540,62.3,15.6,0,14.0,,91040.1,10.98,0.09,0.58,0.81,2.2,7.5,-0.9,32.88,,,,,,,,,,
14.22.09.552,53.7,13.4,0,14.0,,92967.0,10.76,0.08,0.56,0.8,0.4,4.8,-0.5,32.88,,,,,,,,,,
14.22.09.560,38.0,9.5,0,14.0,,92022.0,10.87,0.09,0.57,0.81,2.8,4.8,-0.5,32.88,,,,,,,,,,
14.22.09.573,20.6,5.2,0,14.0,,90792.3,11.01,0.09,0.58,0.8,2.3,6.1,-1.1,32.88,,,,,,,,,,
14.22.09.581,12.5,3.1,0,14.0,,92516.1,10.81,0.09,0.57,0.8,-0.7,6.0,-1.6,32.88,,,,,,,,,,
14.22.09.593,-6.4,1.6,0,14.0,,91458.1,10.93,0.09,0.57,0.81,2.5,6.2,-0.9,32.88,,,,,,,,,,
14.22.09.601,-4.2,1.0,0,14.0,,91619.9,10.91,0.09,0.57,0.8,0.8,7.1,-1.6,32.88,,,,,,,,,,
14.22.09.614,-8.8,2.2,0,14.0,,91121.6,10.97,0.08,0.57,0.8,1.1,4.4,-1.1,32.88,,,,,,,,,,
14.22.09.622,-14.1,3.5,0,14.0,,92655.4,10.79,0.09,0.58,0.81,3.3,4.9,-1.2,32.88,,,,,,,,,,
14.22.09.634,-13.2,3.3,0,14.0,,91514.2,10.93,0.09,0.58,0.8,-0.3,5.9,-1.2,32.88,,,,,,,,,,
14.22.09.646,-22.7,5.7,0,14.0,,91731.2,10.9,0.09,0.58,0.81,1.1,5.0,-0.7,32.88,,,,,,,,,,
14.22.09.655,-27.4,6.8,0,14.0,,92213.6,10.84,0.09,0.57,0.81,0.2,5.9,-0.8,32.88,,,,,,,,,,
14.22.09.667,-43.0,10.8,0,14.0,,90955.9,10.99,0.09,0.57,0.81,0.2,5.4,-1.1,32.88,,,,,,,,,,
14.22.09.675,-40.2,10.0,0,14.0,,91204.3,10.96,0.1,0.58,0.8,2.3,5.2,-0.8,32.88,,,,,,,,,,
14.22.09.687,-43.4,10.8,0,14.0,,91515.6,10.93,0.09,0.57,0.8,0.7,6.1,-1.3,32.88,,,,,,,,,,
14.22.09.696,-51.3,12.8,0,14.0,,90178.9,11.09,0.09,0.57,0.81,1.4,6.3,-0.8,32.88,,,,,,,,,,
14.22.09.708,-53.4,13.4,0,14.0,,93698.0,10.67,0.09,0.57,0.81,2.2,6.4,-0.9,32.88,,,,,,,,,,
14.22.09.716,-47.4,11.8,0,14.0,,91255.2,10.96,0.09,0.58,0.81,1.6,6.5,-0.7,32.88,,,,,,,,,,
14.22.09.728,-64.5,16.1,0,14.0,,91123.8,10.97,0.09,0.58,0.8,1.2,5.8,-0.4,32.88,,,,,,,,,,
14.22.09.737,-67.9,17.0,0,14.0,,91733.7,10.9,0.1,0.57,0.81,1.2,6.2,-0.9,32.88,,,,,,,,,,
14.22.09.749,-79.6,19.9,0,14.0,,92082.0,10.86,0.09,0.58,0.8,1.4,6.5,-1.3,32.88,,,,,,,,,,
14.22.09.757,-73.7,18.4,0,14.0,,91484.8,10.93,0.09,0.57,0.8,1.2,4.6,-1.2,32.88,,,,,,,,,,
14.22.09.769,-91.1,22.8,0,14.0,,91782.4,10.9,0.09,0.58,0.8,1.3,5.3,-1.0,32.88,,,,,,,,,,
14.22.09.783,-90.3,22.6,0,14.0,,91719.9,10.9,0.09,0.58,0.8,1.7,6.5,-1.2,32.88,,,,,,,,,,
14.22.09.790,-93.8,23.4,0,14.0,,91777.0,10.9,0.09,0.58,0.8,0.9,5.0,-1.1,32.88,,,,,,,,,,
14.22.09.802,-105.2,26.3,0,14.0,,92028.3,10.87,0.09,0.58,0.8,0.1,5.3,-1.1,32.88,,,,,,,,,,
14.22.09.810,-105.6,26.4,0,14.0,,93663.1,10.68,0.09,0.58,0.81,-0.1,5.8,-1.1,32.88,,,,,,,,,,
14.22.09.823,-122.3,30.6,0,14.0,,93048.1,10.75,0.09,0.57,0.8,0.5,5.2,-1.3,32.88,,,,,,,,,,
14.22.09.831,-116.2,29.0,0,14.0,,92118.1,10.86,0.09,0.57,0.8,0.4,4.8,-0.9,32.88,,,,,,,,,,
14.22.09.843,-113.6,28.4,0,14.0,,91960.8,10.87,0.09,0.58,0.81,1.9,5.8,-0.6,32.88,,,,,,,,,,
14.22.09.851,-113.0,28.2,0,14.0,,91053.3,10.98,0.09,0.57,0.79,1.0,4.7,-1.1,32.88,,,,,,,,,,
14.22.09.864,37.1,9.3,1,15.0,106.6,90306.8,11.07,0.1,0.58,0.8,0.3,4.6,-0.8,32.88,,,,,,,,,,
14.22.09.872,67.2,16.8,0,15.0,,92109.8,10.86,0.09,0.57,0.8,0.0,5.7,-1.6,32.88,,,,,,,,,,
14.22.09.884,135.0,33.8,0,15.0,,92222.3,10.84,0.09,0.57,0.8,0.1,5.4,-1.5,32.88,,,,,,,,,,
14.22.09.892,165.0,41.2,0,15.0,,91738.2,10.9,0.09,0.57,0.8,0.7,4.9,-0.9,32.88,,,,,,,,,,
14.22.09.905,236.8,59.2,0,15.0,,89415.0,11.18,0.09,0.58,0.8,0.3,5.8,-1.5,32.88,,,,,,,,,,
14.22.09.917,260.6,65.2,0,15.0,,91154.3,10.97,0.09,0.58,0.81,0.4,5.8,-1.8,32.88,,,,,,,,,,
14.22.09.925,288.5,72.1,0,15.0,,91772.2,10.9,0.09,0.58,0.8,0.5,5.1,-1.3,32.88,,,,,,,,,,
14.22.09.937,272.5,68.1,0,15.0,,90437.6,11.06,0.09,0.58,0.8,-0.1,4.9,-1.7,32.88,,,,,,,,,,
14.22.09.946,292.7,73.2,0,15.0,,92386.9,10.82,0.1,0.57,0.81,0.7,6.0,-1.5,32.88,,,,,,,,,,
14.22.09.958,344.6,86.2,0,15.0,,91664.0,10.91,0.09,0.57,0.81,2.1,6.7,-1.3,32.88,,,,,,,,,,
14.22.09.966,297.8,74.4,0,15.0,,90769.1,11.02,0.09,0.58,0.8,2.7,5.7,-1.1,32.88,,,,,,,,,,
14.22.09.978,300.4,75.1,0,15.0,,90435.0,11.06,0.09,0.58,0.8,0.9,5.6,-1.4,32.88,,,,,,,,,,
14.22.09.987,282.0,70.5,0,15.0,,91642.6,10.91,0.09,0.57,0.81,0.8,5.8,-1.3,32.88,,,,,,,,,,
14.22.09.999,260.8,65.2,0,15.0,,92050.1,10.86,0.09,0.58,0.81,2.1,6.8,-1.3,32.88,,,,,,,,,,
14.22.10.007,237.1,59.3,0,15.0,,90450.8,11.06,0.09,0.59,0.8,0.6,5.8,-1.5,32.88,,,,,,,,,,
14.22.10.019,215.7,53.9,0,15.0,,91322.3,10.95,0.09,0.59,0.8,-0.1,5.2,-1.4,32.88,,,,,,,,,,
14.22.10.027,172.0,43.0,0,15.0,,91989.6,10.87,0.09,0.58,0.81,0.2,5.9,-1.2,32.88,,,,,,,,,,
14.22.10.044,101.8,25.4,0,15.0,,90659.0,11.03,0.09,0.57,0.81,-0.7,6.0,-1.0,32.88,,,,,,,,,,
14.22.10.052,54.6,13.6,0,15.0,,92375.6,10.83,0.09,0.58,0.81,1.3,5.3,-1.4,32.88,,,,,,,,,,
14.22.10.066,-4.9,1.2,0,15.0,,91617.3,10.91,0.09,0.58,0.81,0.1,5.2,-0.9,32.88,,,,,,,,,,
14.22.10.073,19.4,4.8,0,15.0,,91488.7,10.93,0.09,0.58,0.8,-0.1,6.1,-1.1,32.88,,,,,,,,,,
14.22.10.085,35.3,8.8,0,15.0,,92369.9,10.83,0.09,0.57,0.81,0.2,6.2,-1.0,32.88,,,,,,,,,,
14.22.10.093,35.2,8.8,0,15.0,,92553.8,10.8,0.09,0.57,0.81,1.1,5.5,-1.9,32.88,,,,,,,,,,
14.22.10.105,47.8,12.0,0,15.0,,90676.2,11.03,0.09,0.58,0.8,1.6,5.5,-1.9,32.88,,,,,,,,,,
14.22.10.114,61.4,15.4,0,15.0,,92526.1,10.81,0.09,0.59,0.8,0.1,7.0,-1.9,32.88,,,,,,,,,,
14.22.10.126,60.9,15.2,0,15.0,,92804.3,10.78,0.09,0.58,0.8,-1.1,5.5,-1.3,32.88,,,,,,,,,,
14.22.10.134,53.6,13.4,0,15.0,,91026.9,10.99,0.08,0.57,0.81,-0.9,4.3,-1.1,32.88,,,,,,,,,,
14.22.10.146,51.7,12.9,0,15.0,,92116.6,10.86,0.09,0.56,0.81,0.1,5.1,-0.9,32.88,,,,,,,,,,
14.22.10.154,31.0,7.8,0,15.0,,91427.7,10.94,0.1,0.58,0.8,0.9,5.7,-1.2,32.88,,,,,,,,,,
14.22.10.167,22.1,5.5,0,15.0,,91566.8,10.92,0.1,0.58,0.8,-0.6,5.7,-1.1,32.88,,,,,,,,,,
14.22.10.175,10.5,2.6,0,15.0,,91804.7,10.89,0.1,0.58,0.8,-0.7,5.2,-1.7,32.88,,,,,,,,,,
14.22.10.187,-11.5,2.9,0,15.0,,90178.8,11.09,0.09,0.57,0.81,0.5,6.5,-1.6,32.88,,,,,,,,,,
14.22.10.200,-7.3,1.8,0,15.0,,90116.7,11.1,0.09,0.57,0.8,0.1,6.5,-1.1,32.88,,,,,,,,,,
14.22.10.208,-16.1,4.0,0,15.0,,90216.4,11.08,0.09,0.57,0.81,1.8,6.3,-1.2,32.88,,,,,,,,,,
14.22.10.220,-16.3,4.1,0,15.0,,92616.0,10.8,0.09,0.58,0.8,0.4,5.1,-1.4,32.88,,,,,,,,,,
14.22.10.229,-22.0,5.5,0,15.0,,91889.2,10.88,0.09,0.57,0.8,-0.4,4.8,-1.4,32.88,,,,,,,,,,
14.22.10.241,-37.2,9.3,0,15.0,,91301.5,10.95,0.09,0.58,0.8,1.3,6.4,-1.8,32.88,,,,,,,,,,
14.22.10.249,-31.9,8.0,0,15.0,,92753.6,10.78,0.09,0.58,0.8,1.4,6.7,-1.9,32.88,,,,,,,,,,
14.22.10.261,-37.8,9.4,0,15.0,,92076.8,10.86,0.09,0.58,0.81,1.1,5.5,-1.7,32.88,,,,,,,,,,
14.22.10.298,-61.4,15.4,0,15.0,,92322.5,10.83,0.09,0.59,0.8,0.7,5.8,-2.0,32.81,,,,,,,,,,
14.22.10.306,-58.8,14.7,0,15.0,,92830.9,10.77,0.09,0.58,0.8,2.7,5.8,-0.8,32.81,,,,,,,,,,
14.22.10.318,-62.9,15.7,0,15.0,,89371.8,11.19,0.09,0.58,0.8,1.0,5.7,-1.3,32.81,,,,,,,,,,
14.22.10.327,-63.0,15.8,0,15.0,,91423.5,10.94,0.09,0.58,0.8,2.1,6.5,-1.8,32.81,,,,,,,,,,
14.22.10.339,-79.4,19.8,0,15.0,,92481.9,10.81,0.09,0.58,0.8,1.6,6.2,-1.2,32.81,,,,,,,,,,
14.22.10.351,-74.1,18.5,0,15.0,,92342.8,10.83,0.09,0.58,0.8,1.1,5.8,-1.4,32.81,,,,,,,,,,
14.22.10.360,-75.2,18.8,0,15.0,,90849.8,11.01,0.09,0.59,0.8,0.8,5.6,-1.1,32.81,,,,,,,,,,
14.22.10.372,-90.9,22.7,0,15.0,,91252.3,10.96,0.09,0.58,0.8,-0.2,4.6,-1.0,32.81,,,,,,,,,,
14.22.10.380,-112.7,28.2,0,15.0,,91725.9,10.9,0.09,0.58,0.8,-0.4,4.8,-0.9,32.81,,,,,,,,,,
14.22.10.392,-115.0,28.8,0,15.0,,91918.0,10.88,0.09,0.57,0.81,0.5,6.3,-1.4,32.81,,,,,,,,,,
14.22.10.400,-106.5,26.6,0,15.0,,91971.2,10.87,0.09,0.58,0.8,1.2,5.2,-1.7,32.81,,,,,,,,,,
14.22.10.413,-111.6,27.9,0,15.0,,91534.4,10.92,0.1,0.58,0.8,-0.5,4.7,-1.8,32.81,,,,,,,,,,
14.22.10.421,-122.0,30.5,0,15.0,,91233.6,10.96,0.1,0.57,0.81,0.3,6.9,-1.5,32.81,,,,,,,,,,
14.22.10.433,-123.9,31.0,0,15.0,,91365.1,10.95,0.09,0.57,0.8,1.1,5.9,-1.4,32.81,,,,,,,,,,
14.22.10.441,-124.2,31.0,0,15.0,,93433.9,10.7,0.09,0.58,0.81,0.8,5.5,-1.1,32.81,,,,,,,,,,
14.22.10.454,32.5,8.1,1,16.0,102.4,90874.9,11.0,0.09,0.57,0.8,0.2,6.0,-1.1,32.81,,,,,,,,,,
14.22.10.462,75.2,18.8,0,16.0,,91257.2,10.96,0.09,0.57,0.8,0.9,5.2,-0.8,32.81,,,,,,,,,,
14.22.10.474,136.0,34.0,0,16.0,,92442.1,10.82,0.09,0.58,0.8,1.1,5.3,-1.0,32.81,,,,,,,,,,
14.22.10.486,179.6,44.9,0,16.0,,91493.1,10.93,0.09,0.58,0.8,0.7,5.5,-1.6,32.81,,,,,,,,,,
14.22.10.494,207.9,52.0,0,16.0,,91313.7,10.95,0.1,0.58,0.8,0.8,5.8,-1.6,32.81,,,,,,,,,,
14.22.10.507,252.7,63.2,0,16.0,,91133.2,10.97,0.09,0.57,0.81,1.6,5.9,-1.5,32.81,,,,,,,,,,
14.22.10.515,282.1,70.5,0,16.0,,92392.0,10.82,0.09,0.58,0.8,1.9,6.2,-1.8,32.81,,,,,,,,,,
14.22.10.527,320.5,80.1,0,16.0,,91976.1,10.87,0.09,0.58,0.79,0.4,5.5,-1.4,32.81,,,,,,,,,,
14.22.10.535,300.4,75.1,0,16.0,,92545.1,10.81,0.09,0.57,0.8,0.1,5.5,-1.5,32.81,,,,,,,,,,
14.22.10.548,301.3,75.3,0,16.0,,91335.4,10.95,0.09,0.58,0.8,1.2,5.9,-1.6,32.81,,,,,,,,,,
14.22.10.556,301.3,75.3,0,16.0,,93167.8,10.73,0.09,0.59,0.79,-0.9,5.0,-1.4,32.81,,,,,,,,,,
14.22.10.568,291.7,72.9,0,16.0,,91267.7,10.96,0.09,0.58,0.8,-2.0,5.4,-1.6,32.81,,,,,,,,,,
14.22.10.576,271.7,67.9,0,16.0,,91462.0,10.93,0.09,0.57,0.81,-0.3,6.2,-1.7,32.81,,,,,,,,,,
14.22.10.590,269.8,67.4,0,16.0,,93045.6,10.75,0.09,0.57,0.8,-0.4,5.5,-1.5,32.81,,,,,,,,,,
14.22.10.601,212.1,53.0,0,16.0,,91709.9,10.9,0.09,0.57,0.81,-0.1,5.0,-1.7,32.81,,,,,,,,,,
14.22.10.613,180.4,45.1,0,16.0,,91596.0,10.92,0.09,0.58,0.81,0.7,6.3,-1.3,32.81,,,,,,,,,,
14.22.10.622,163.1,40.8,0,16.0,,90367.5,11.07,0.09,0.57,0.8,0.9,6.0,-1.3,32.81,,,,,,,,,,
14.22.10.634,90.3,22.6,0,16.0,,91511.1,10.93,0.09,0.58,0.8,1.0,4.4,-1.4,32.81,,,,,,,,,,
14.22.10.642,51.8,13.0,0,16.0,,92707.1,10.79,0.1,0.58,0.8,0.3,5.0,-1.0,32.81,,,,,,,,,,
14.22.10.654,9.2,2.3,0,16.0,,90889.5,11.0,0.09,0.58,0.8,0.2,6.9,-1.4,32.81,,,,,,,,,,
14.22.10.663,9.9,2.5,0,16.0,,89851.5,11.13,0.09,0.57,0.8,1.0,6.7,-1.7,32.81,,,,,,,,,,
14.22.10.675,31.0,7.8,0,16.0,,91642.0,10.91,0.09,0.57,0.8,1.2,5.4,-1.9,32.81,,,,,,,,,,
14.22.10.683,44.6,11.2,0,16.0,,90067.5,11.1,0.09,0.58,0.8,0.3,6.2,-1.3,32.81,,,,,,,,,,
14.22.10.695,50.5,12.6,0,16.0,,92202.2,10.85,0.09,0.58,0.8,1.3,6.3,-0.8,32.81,,,,,,,,,,
14.22.10.703,57.6,14.4,0,16.0,,92236.2,10.84,0.09,0.58,0.8,-0.1,5.0,-1.3,32.81,,,,,,,,,,
14.22.10.716,51.0,12.8,0,16.0,,93336.9,10.71,0.09,0.58,0.8,-1.1,4.4,-1.2,32.81,,,,,,,,,,
14.22.10.724,55.6,13.9,0,16.0,,92190.8,10.85,0.09,0.58,0.8,-0.5,5.5,-1.6,32.81,,,,,,,,,,
14.22.10.736,43.7,10.9,0,16.0,,92106.9,10.86,0.09,0.57,0.79,-0.5,5.5,-1.4,32.81,,,,,,,,,,
14.22.10.744,36.6,9.2,0,16.0,,91024.6,10.99,0.09,0.57,0.81,0.2,5.6,-1.2,32.81,,,,,,,,,,
14.22.10.757,21.0,5.2,0,16.0,,90217.3,11.08,0.09,0.58,0.8,0.7,6.4,-1.4,32.81,,,,,,,,,,
14.22.10.765,7.9,2.0,0,16.0,,91224.1,10.96,0.09,0.58,0.81,0.0,5.6,-1.2,32.81,,,,,,,,,,
14.22.10.777,2.5,0.6,0,16.0,,92051.8,10.86,0.09,0.59,0.8,-0.6,5.0,-1.1,32.81,,,,,,,,,,
14.22.10.785,-6.4,1.6,0,16.0,,92503.7,10.81,0.09,0.58,0.81,0.2,6.2,-1.2,32.81,,,,,,,,,,
14.22.10.798,-12.8,3.2,0,16.0,,92039.0,10.86,0.09,0.57,0.8,-0.4,6.8,-1.6,32.81,,,,,,,,,,
14.22.10.806,-14.8,3.7,0,16.0,,91827.3,10.89,0.09,0.58,0.8,0.8,5.1,-1.8,32.81,,,,,,,,,,
14.22.10.818,-18.9,4.7,0,16.0,,92747.1,10.78,0.09,0.58,0.81,1.0,5.7,-1.6,32.81,,,,,,,,,,
14.22.10.827,-31.8,8.0,0,16.0,,91514.1,10.93,0.09,0.57,0.8,-0.4,7.5,-1.4,32.81,,,,,,,,,,
14.22.10.839,-31.1,7.8,0,16.0,,92428.9,10.82,0.09,0.58,0.8,0.3,6.3,-1.5,32.81,,,,,,,,,,
14.22.10.851,-26.6,6.6,0,16.0,,91032.0,10.99,0.09,0.59,0.8,-0.4,5.3,-1.2,32.81,,,,,,,,,,
14.22.10.859,-47.0,11.8,0,16.0,,92354.2,10.83,0.09,0.57,0.8,-1.4,5.6,-1.2,32.81,,,,,,,,,,
14.22.10.871,-49.8,12.4,0,16.0,,91306.0,10.95,0.09,0.57,0.81,1.5,6.2,-1.4,32.81,,,,,,,,,,
14.22.10.880,-47.7,11.9,0,16.0,,91474.7,10.93,0.09,0.58,0.81,0.4,5.8,-1.9,32.81,,,,,,,,,,
14.22.10.893,-51.4,12.8,0,16.0,,92001.2,10.87,0.09,0.58,0.81,0.9,5.6,-1.5,32.81,,,,,,,,,,
14.22.10.900,-54.4,13.6,0,16.0,,92489.2,10.81,0.09,0.58,0.81,1.1,6.5,-2.4,32.81,,,,,,,,,,
14.22.10.912,-65.0,16.2,0,16.0,,92135.5,10.85,0.09,0.57,0.8,0.5,5.4,-2.4,32.81,,,,,,,,,,
14.22.10.921,-78.4,19.6,0,16.0,,92085.9,10.86,0.09,0.57,0.81,-0.1,5.4,-2.2,32.81,,,,,,,,,,
14.22.10.933,-65.9,16.5,0,16.0,,91626.3,10.91,0.09,0.57,0.81,0.9,7.3,-2.5,32.81,,,,,,,,,,
14.22.10.941,-79.9,20.0,0,16.0,,91936.4,10.88,0.09,0.57,0.8,1.1,6.2,-2.1,32.81,,,,,,,,,,
14.22.10.953,-91.1,22.8,0,16.0,,90637.7,11.03,0.09,0.58,0.8,0.3,5.5,-1.7,32.81,,,,,,,,,,
14.22.10.962,-87.0,21.8,0,16.0,,92124.8,10.85,0.09,0.58,0.81,0.2,6.0,-2.0,32.81,,,,,,,,,,
14.22.10.974,-93.7,23.4,0,16.0,,91720.5,10.9,0.08,0.58,0.8,-0.9,5.6,-1.9,32.81,,,,,,,,,,
14.22.10.986,-101.9,25.5,0,16.0,,90539.6,11.04,0.09,0.56,0.8,-0.4,5.8,-1.7,32.81,,,,,,,,,,
14.22.10.994,-113.6,28.4,0,16.0,,90589.1,11.04,0.09,0.57,0.81,1.1,5.9,-1.7,32.81,102.0,,,,,,,,,
14.22.11.007,-111.0,27.8,0,16.0,,93193.3,10.73,0.09,0.57,0.81,0.4,5.1,-1.8,32.81,,,,,,,,,,
14.22.11.015,-119.9,30.0,0,16.0,,92225.2,10.84,0.09,0.58,0.81,0.1,5.3,-1.5,32.81,,,,,,,,,,
14.22.11.027,-122.7,30.7,0,16.0,,92015.3,10.87,0.09,0.58,0.81,0.6,5.5,-1.8,32.81,,,,,,,,,,
14.22.11.035,-139.5,34.9,0,16.0,,90869.5,11.0,0.09,0.57,0.8,-0.5,5.7,-1.8,32.81,,,,,,,,,,
14.22.11.048,53.7,13.4,1,17.0,100.2,92972.0,10.76,0.09,0.57,0.8,1.2,5.4,-1.7,32.81,,,,,,,,,,
14.22.11.056,94.2,23.6,0,17.0,,90850.7,11.01,0.09,0.58,0.81,0.6,6.0,-1.8,32.81,,,,,,,,,,
14.22.11.068,160.4,40.1,0,17.0,,91665.2,10.91,0.09,0.58,0.8,0.4,5.7,-1.8,32.81,,,,,,,,,,
14.22.11.105,255.2,63.8,0,17.0,,91727.1,10.9,0.09,0.58,0.81,1.1,5.6,-1.6,32.81,,,,,,,,,,
14.22.11.113,313.5,78.4,0,17.0,,89417.5,11.18,0.09,0.58,0.8,0.7,5.6,-1.5,32.81,,,,,,,,,,
14.22.11.125,323.3,80.8,0,17.0,,91360.1,10.95,0.09,0.57,0.8,-0.6,4.6,-1.4,32.81,,,,,,,,,,
14.22.11.138,290.5,72.6,0,17.0,,92236.8,10.84,0.09,0.56,0.81,0.4,5.1,-1.2,32.81,,,,,,,,,,
14.22.11.150,294.1,73.5,0,17.0,,92121.2,10.86,0.09,0.57,0.8,1.3,6.0,-1.8,32.81,,,,,,,,,,
14.22.11.158,311.4,77.8,0,17.0,,91311.8,10.95,0.09,0.58,0.8,-0.3,5.4,-1.1,32.81,,,,,,,,,,
14.22.11.170,287.3,71.8,0,17.0,,91326.0,10.95,0.09,0.57,0.81,1.2,6.3,-1.1,32.81,,,,,,,,,,
14.22.11.179,261.2,65.3,0,17.0,,91459.6,10.93,0.08,0.58,0.8,1.7,5.7,-1.3,32.81,,,,,,,,,,
14.22.11.191,217.2,54.3,0,17.0,,91638.2,10.91,0.08,0.58,0.81,-1.3,4.6,-1.4,32.81,,,,,,,,,,
14.22.11.199,191.0,47.8,0,17.0,,91238.1,10.96,0.09,0.58,0.8,0.1,5.7,-0.9,32.81,,,,,,,,,,
14.22.11.212,126.4,31.6,0,17.0,,91918.0,10.88,0.09,0.58,0.81,0.2,5.4,-0.8,32.81,,,,,,,,,,
14.22.11.220,107.9,27.0,0,17.0,,92042.2,10.86,0.1,0.57,0.8,0.1,5.0,-1.2,32.81,,,,,,,,,,
14.22.11.232,47.5,11.9,0,17.0,,92311.4,10.83,0.09,0.57,0.8,0.3,5.8,-0.9,32.81,,,,,,,,,,
14.22.11.240,10.7,2.7,0,17.0,,92205.4,10.85,0.09,0.57,0.81,0.9,6.2,-1.3,32.81,,,,,,,,,,
14.22.11.252,19.5,4.9,0,17.0,,92842.5,10.77,0.09,0.58,0.81,2.7,5.7,-0.8,32.81,,,,,,,,,,
14.22.11.261,42.8,10.7,0,17.0,,91163.0,10.97,0.09,0.59,0.79,0.3,5.5,-1.0,32.81,,,,,,,,,,
14.22.11.273,38.8,9.7,0,17.0,,91784.1,10.9,0.09,0.58,0.8,0.2,5.5,-0.7,32.81,,,,,,,,,,
14.22.11.281,56.0,14.0,0,17.0,,91031.0,10.99,0.09,0.57,0.8,1.3,5.4,-0.8,32.81,,,,,,,,,,
14.22.11.293,56.8,14.2,0,17.0,,91334.3,10.95,0.09,0.57,0.81,0.9,5.0,-1.1,32.81,,,,,,,,,,
14.22.11.302,57.9,14.5,0,17.0,,91482.0,10.93,0.09,0.58,0.8,2.2,5.8,-1.0,32.81,,,,,,,,,,
14.22.11.314,59.0,14.8,0,17.0,,91160.1,10.97,0.09,0.58,0.8,1.2,7.1,-1.4,32.81,,,,,,,,,,
14.22.11.322,36.5,9.1,0,17.0,,92460.0,10.82,0.09,0.58,0.8,1.4,6.1,-0.9,32.81,,,,,,,,,,
14.22.11.334,45.4,11.4,0,17.0,,91688.1,10.91,0.09,0.58,0.8,0.5,4.9,-0.9,32.81,,,,,,,,,,
14.22.11.343,17.6,4.4,0,17.0,,91631.0,10.91,0.09,0.58,0.81,-0.7,5.7,-1.1,32.81,,,,,,,,,,
14.22.11.355,12.3,3.1,0,17.0,,92107.4,10.86,0.09,0.58,0.8,1.1,6.0,-1.0,32.81,,,,,,,,,,
14.22.11.363,-8.8,2.2,0,17.0,,92061.3,10.86,0.09,0.57,0.8,0.0,5.2,-1.3,32.81,,,,,,,,,,
14.22.11.376,-7.0,1.8,0,17.0,,91526.4,10.93,0.09,0.57,0.8,0.1,5.7,-1.2,32.81,,,,,,,,,,
14.22.11.383,-16.7,4.2,0,17.0,,91593.8,10.92,0.09,0.57,0.8,1.8,6.4,-0.7,32.81,,,,,,,,,,
14.22.11.396,-18.3,4.6,0,17.0,,93531.1,10.69,0.09,0.58,0.8,0.5,6.0,-0.9,32.81,,,,,,,,,,
14.22.11.404,-26.4,6.6,0,17.0,,91209.2,10.96,0.09,0.57,0.81,1.1,5.6,-1.2,32.81,,,,,,,,,,
14.22.11.416,-22.0,5.5,0,17.0,,91382.3,10.94,0.1,0.57,0.8,2.1,6.4,-1.4,32.81,,,,,,,,,,
14.22.11.429,-42.8,10.7,0,17.0,,90833.5,11.01,0.09,0.58,0.8,2.2,6.8,-1.4,32.81,,,,,,,,,,
14.22.11.437,-32.5,8.1,0,17.0,,92466.9,10.81,0.09,0.59,0.79,1.0,6.4,-1.2,32.81,,,,,,,,,,
14.22.11.449,-50.8,12.7,0,17.0,,90551.9,11.04,0.08,0.58,0.8,1.0,4.9,-1.0,32.81,,,,,,,,,,
14.22.11.457,-47.9,12.0,0,17.0,,91872.5,10.88,0.09,0.58,0.8,0.5,5.3,-1.0,32.81,,,,,,,,,,
14.22.11.470,-55.1,13.8,0,17.0,,90661.8,11.03,0.09,0.58,0.8,-0.2,6.1,-1.0,32.81,,,,,,,,,,
14.22.11.478,-63.0,15.8,0,17.0,,93111.7,10.74,0.09,0.57,0.81,0.2,5.9,-1.1,32.81,,,,,,,,,,
14.22.11.490,-58.6,14.6,0,17.0,,90029.8,11.11,0.09,0.58,0.8,0.9,5.6,-1.3,32.81,,,,,,,,,,
14.22.11.498,-69.9,17.5,0,17.0,,90927.5,11.0,0.09,0.58,0.79,1.5,4.2,-1.1,32.81,,,,,,,,,,
14.22.11.510,-69.3,17.3,0,17.0,,91417.3,10.94,0.09,0.58,0.8,-1.2,5.7,-1.9,32.81,,,,,,,,,,
14.22.11.519,-89.6,22.4,0,17.0,,92621.7,10.8,0.09,0.58,0.8,1.0,6.7,-1.5,32.81,,,,,,,,,,
14.22.11.531,-78.6,19.6,0,17.0,,90137.9,11.09,0.08,0.58,0.81,-0.3,5.8,-1.2,32.81,,,,,,,,,,
14.22.11.539,-91.3,22.8,0,17.0,,91537.5,10.92,0.08,0.57,0.81,-1.1,5.5,-1.0,32.81,,,,,,,,,,
14.22.11.551,-103.7,25.9,0,17.0,,90905.6,11.0,0.09,0.57,0.81,1.2,4.9,-0.9,32.81,,,,,,,,,,
14.22.11.560,-85.2,21.3,0,17.0,,91875.6,10.88,0.09,0.58,0.8,0.3,4.8,-1.1,32.81,,,,,,,,,,
14.22.11.572,-108.8,27.2,0,17.0,,91630.3,10.91,0.09,0.58,0.8,0.5,5.9,-1.1,32.81,,,,,,,,,,
14.22.11.584,-100.7,25.2,0,17.0,,91510.5,10.93,0.09,0.58,0.8,0.9,5.5,-1.6,32.81,,,,,,,,,,
14.22.11.592,-120.4,30.1,0,17.0,,91425.0,10.94,0.09,0.57,0.8,0.3,5.8,-1.9,32.81,,,,,,,,,,
14.22.11.605,-113.0,28.2,0,17.0,,91381.5,10.94,0.09,0.58,0.8,-0.1,5.5,-1.3,32.81,,,,,,,,,,
14.22.11.613,-123.3,30.8,0,17.0,,90657.3,11.03,0.09,0.57,0.81,0.7,5.9,-1.9,32.81,,,,,,,,,,
14.22.11.625,8.3,2.1,1,18.0,102.8,89697.3,11.15,0.09,0.58,0.8,1.3,5.6,-1.4,32.81,,,,,,,,,,
14.22.11.633,50.4,12.6,0,18.0,,91253.3,10.96,0.09,0.58,0.8,0.1,5.2,-1.5,32.81,,,,,,,,,,
14.22.11.646,109.7,27.4,0,18.0,,91809.7,10.89,0.09,0.58,0.8,-0.1,5.9,-1.3,32.81,,,,,,,,,,
14.22.11.654,148.8,37.2,0,18.0,,92103.4,10.86,0.09,0.57,0.81,-1.1,6.6,-1.1,32.81,,,,,,,,,,
14.22.11.666,194.3,48.6,0,18.0,,91066.3,10.98,0.09,0.56,0.81,0.3,5.5,-1.0,32.81,,,,,,,,,,
14.22.11.674,248.5,62.1,0,18.0,,92353.6,10.83,0.09,0.57,0.79,2.0,5.3,-1.4,32.81,,,,,,,,,,
14.22.11.687,251.1,62.8,0,18.0,,90276.7,11.08,0.09,0.59,0.8,0.6,6.0,-1.1,32.81,,,,,,,,,,
14.22.11.699,277.8,69.4,0,18.0,,91918.6,10.88,0.08,0.59,0.81,1.2,6.7,-1.3,32.81,,,,,,,,,,
14.22.11.707,329.7,82.4,0,18.0,,92447.1,10.82,0.08,0.59,0.8,-0.7,5.6,-1.0,32.81,,,,,,,,,,
14.22.11.719,285.6,71.4,0,18.0,,91490.4,10.93,0.08,0.58,0.8,-2.0,5.4,-0.8,32.81,,,,,,,,,,
14.22.11.728,317.0,79.2,0,18.0,,91445.8,10.94,0.09,0.57,0.8,-0.4,5.6,-0.6,32.81,,,,,,,,,,
14.22.11.740,323.0,80.8,0,18.0,,91728.9,10.9,0.09,0.56,0.8,-1.2,5.3,-0.8,32.81,,,,,,,,,,
14.22.11.748,279.9,70.0,0,18.0,,91082.4,10.98,0.09,0.57,0.8,0.6,4.9,-1.2,32.81,,,,,,,,,,
14.22.11.761,289.8,72.4,0,18.0,,92869.3,10.77,0.09,0.58,0.8,1.2,5.6,-1.3,32.81,,,,,,,,,,
14.22.11.773,255.8,64.0,0,18.0,,91082.7,10.98,0.09,0.57,0.81,0.5,6.2,-1.4,32.81,,,,,,,,,,
14.22.11.781,207.2,51.8,0,18.0,,91133.0,10.97,0.09,0.58,0.81,0.5,5.9,-1.4,32.81,,,,,,,,,,
14.22.11.793,149.4,37.4,0,18.0,,92320.8,10.83,0.08,0.57,0.81,-0.5,4.9,-1.1,32.81,,,,,,,,,,
14.22.11.801,137.0,34.2,0,18.0,,91717.1,10.9,0.09,0.58,0.8,-0.2,4.6,-1.1,32.81,,,,,,,,,,
14.22.11.814,71.6,17.9,0,18.0,,91724.0,10.9,0.09,0.58,0.8,-0.2,5.5,-1.6,32.81,,,,,,,,,,
14.22.11.822,31.8,8.0,0,18.0,,90978.5,10.99,0.09,0.58,0.8,0.8,5.8,-1.8,32.81,,,,,,,,,,
14.22.11.834,20.3,5.1,0,18.0,,90752.6,11.02,0.09,0.59,0.81,-0.4,4.9,-2.3,32.81,,,,,,,,,,
14.22.11.842,18.3,4.6,0,18.0,,91531.4,10.93,0.09,0.58,0.8,-1.4,5.8,-2.3,32.81,,,,,,,,,,
14.22.11.855,31.9,8.0,0,18.0,,90564.4,11.04,0.09,0.57,0.81,0.2,4.9,-1.9,32.81,,,,,,,,,,
14.22.11.863,41.4,10.4,0,18.0,,92096.6,10.86,0.09,0.57,0.8,0.1,5.7,-1.9,32.81,,,,,,,,,,
14.22.11.875,51.1,12.8,0,18.0,,91175.2,10.97,0.09,0.58,0.8,1.0,5.8,-1.4,32.81,,,,,,,,,,
14.22.11.912,39.2,9.8,0,18.0,,90951.8,10.99,0.09,0.57,0.81,0.3,6.0,-1.4,32.81,,,,,,,,,,
14.22.11.920,36.2,9.0,0,18.0,,92744.3,10.78,0.09,0.58,0.81,0.7,5.4,-0.8,32.81,,,,,,,,,,
14.22.11.932,27.3,6.8,0,18.0,,92149.3,10.85,0.09,0.57,0.81,1.0,6.0,-1.2,32.81,,,,,,,,,,
14.22.11.945,3.5,0.9,0,18.0,,90731.5,11.02,0.09,0.58,0.81,0.0,5.6,-1.4,32.81,,,,,,,,,,
14.22.11.953,1.2,0.3,0,18.0,,90678.4,11.03,0.09,0.57,0.8,-0.3,5.6,-1.9,32.81,,,,,,,,,,
14.22.11.965,-7.5,1.9,0,18.0,,90695.1,11.03,0.09,0.57,0.8,-0.6,5.8,-2.1,32.81,,,,,,,,,,
14.22.11.973,-6.8,1.7,0,18.0,,92240.8,10.84,0.09,0.58,0.8,1.4,6.3,-1.7,32.81,,,,,,,,,,
14.22.11.986,-23.6,5.9,0,18.0,,91094.6,10.98,0.09,0.58,0.8,-1.4,5.9,-1.7,32.81,,,,,,,,,,
14.22.11.994,-27.6,6.9,0,18.0,,92225.3,10.84,0.09,0.58,0.8,-0.9,4.2,-1.4,32.81,,,,,,,,,,
14.22.12.006,-33.5,8.4,0,18.0,,90836.7,11.01,0.09,0.57,0.81,-0.5,5.5,-1.6,32.81,,,,,,,,,,
14.22.12.014,-39.5,9.9,0,18.0,,92018.3,10.87,0.09,0.57,0.8,-1.0,5.7,-1.5,32.81,,,,,,,,,,
14.22.12.027,-32.7,8.2,0,18.0,,93294.6,10.72,0.08,0.57,0.8,-0.2,6.0,-1.3,32.81,,,,,,,,,,
14.22.12.039,-43.8,11.0,0,18.0,,91509.0,10.93,0.09,0.57,0.8,0.9,6.5,-1.3,32.81,,,,,,,,,,
14.22.12.047,-43.6,10.9,0,18.0,,91013.4,10.99,0.09,0.57,0.8,0.5,5.0,-1.3,32.81,,,,,,,,,,
14.22.12.059,-54.1,13.5,0,18.0,,91096.0,10.98,0.09,0.58,0.81,0.4,5.8,-1.3,32.81,,,,,,,,,,
14.22.12.068,-52.3,13.1,0,18.0,,92194.3,10.85,0.09,0.57,0.8,1.2,6.7,-1.6,32.81,,,,,,,,,,
14.22.12.080,-69.3,17.3,0,18.0,,90803.6,11.01,0.08,0.57,0.8,1.5,6.5,-1.4,32.81,,,,,,,,,,
14.22.12.088,-73.9,18.5,0,18.0,,91795.8,10.89,0.09,0.58,0.81,1.5,6.5,-1.4,32.81,,,,,,,,,,
14.22.12.100,-75.2,18.8,0,18.0,,93314.6,10.72,0.09,0.58,0.81,0.7,5.6,-0.9,32.81,,,,,,,,,,
14.22.12.109,-65.9,16.5,0,18.0,,92913.9,10.76,0.09,0.58,0.8,0.4,5.4,-1.5,32.81,,,,,,,,,,
14.22.12.121,-86.5,21.6,0,18.0,,92413.6,10.82,0.09,0.58,0.81,0.8,5.9,-1.7,32.81,,,,,,,,,,
14.22.12.129,-85.1,21.3,0,18.0,,91802.2,10.89,0.09,0.58,0.81,0.4,6.2,-2.1,32.81,,,,,,,,,,
14.22.12.141,-87.0,21.8,0,18.0,,91118.4,10.97,0.09,0.57,0.81,1.5,6.6,-1.4,32.81,,,,,,,,,,
14.22.12.150,-112.0,28.0,0,18.0,,91534.1,10.92,0.08,0.58,0.8,1.3,6.5,-1.6,32.81,,,,,,,,,,
14.22.12.162,-116.1,29.0,0,18.0,,89826.4,11.13,0.09,0.58,0.79,0.1,5.1,-1.6,32.81,,,,,,,,,,
14.22.12.170,-111.1,27.8,0,18.0,,90953.6,10.99,0.09,0.58,0.81,-0.1,4.8,-1.3,32.81,,,,,,,,,,
14.22.12.182,-100.9,25.2,0,18.0,,92921.6,10.76,0.09,0.57,0.8,0.3,6.1,-1.5,32.81,,,,,,,,,,
14.22.12.195,-125.5,31.4,0,18.0,,93696.1,10.67,0.09,0.57,0.81,-0.8,6.1,-1.3,32.81,,,,,,,,,,
14.22.12.203,-127.5,31.9,0,18.0,,91451.0,10.93,0.09,0.57,0.8,0.5,6.0,-1.2,32.81,,,,,,,,,,
14.22.12.215,19.1,4.8,1,19.0,103.6,89009.6,11.23,0.09,0.58,0.79,-0.4,5.0,-1.2,32.81,,,,,,,,,,
14.22.12.223,54.7,13.7,0,19.0,,91448.0,10.94,0.09,0.57,0.81,-0.7,5.6,-1.3,32.81,,,,,,,,,,
14.22.12.236,129.0,32.2,0,19.0,,92801.7,10.78,0.09,0.57,0.81,1.4,6.8,-1.2,32.81,,,,,,,,,,
14.22.12.248,173.7,43.4,0,19.0,,92353.2,10.83,0.09,0.58,0.8,0.9,6.8,-1.4,32.81,,,,,,,,,,
14.22.12.256,206.7,51.7,0,19.0,,92784.6,10.78,0.09,0.58,0.8,0.4,5.3,-1.2,32.81,,,,,,,,,,
14.22.12.268,247.1,61.8,0,19.0,,91536.8,10.92,0.09,0.58,0.8,-0.4,5.4,-1.1,32.81,,,,,,,,,,
14.22.12.278,276.3,69.1,0,19.0,,91650.5,10.91,0.09,0.58,0.8,0.9,6.4,-1.2,32.81,,,,,,,,,,
14.22.12.289,288.4,72.1,0,19.0,,90928.2,11.0,0.09,0.57,0.8,0.7,5.9,-1.3,32.81,,,,,,,,,,
14.22.12.297,290.3,72.6,0,19.0,,92066.7,10.86,0.09,0.58,0.8,-0.4,6.0,-1.0,32.81,,,,,,,,,,
14.22.12.309,317.0,79.2,0,19.0,,91389.5,10.94,0.09,0.57,0.8,0.1,6.7,-1.9,32.81,,,,,,,,,,
14.22.12.318,299.9,75.0,0,19.0,,91787.9,10.89,0.09,0.58,0.8,0.0,5.4,-1.7,32.81,,,,,,,,,,
14.22.12.330,303.3,75.8,0,19.0,,91905.3,10.88,0.09,0.58,0.8,1.0,6.2,-1.8,32.81,,,,,,,,,,
14.22.12.338,319.7,79.9,0,19.0,,91345.1,10.95,0.09,0.58,0.8,0.8,6.0,-1.7,32.81,,,,,,,,,,
14.22.12.350,253.3,63.3,0,19.0,,92853.8,10.77,0.08,0.58,0.8,-0.5,4.3,-1.4,32.81,,,,,,,,,,
14.22.12.363,239.3,59.8,0,19.0,,92125.9,10.85,0.08,0.57,0.81,-0.1,6.2,-1.4,32.81,,,,,,,,,,
14.22.12.371,212.5,53.1,0,19.0,,91428.8,10.94,0.09,0.58,0.81,0.2,5.4,-1.3,32.81,,,,,,,,,,
14.22.12.383,159.2,39.8,0,19.0,,90946.1,11.0,0.09,0.58,0.8,-0.5,4.9,-1.7,32.81,,,,,,,,,,
14.22.12.391,123.0,30.8,0,19.0,,90722.8,11.02,0.09,0.57,0.81,-1.0,5.6,-1.3,32.81,,,,,,,,,,
14.22.12.404,62.1,15.5,0,19.0,,90948.0,11.0,0.09,0.57,0.8,1.2,7.2,-1.4,32.81,,,,,,,,,,
14.22.12.412,23.2,5.8,0,19.0,,91250.0,10.96,0.09,0.57,0.81,1.5,6.2,-1.3,32.81,,,,,,,,,,
14.22.12.424,8.6,2.2,0,19.0,,90985.4,10.99,0.09,0.58,0.81,0.3,5.5,-1.3,32.81,,,,,,,,,,
14.22.12.432,14.7,3.7,0,19.0,,90537.6,11.05,0.09,0.57,0.8,0.8,4.8,-1.3,32.81,,,,,,,,,,
14.22.12.445,45.5,11.4,0,19.0,,92582.9,10.8,0.09,0.57,0.81,0.7,6.3,-2.1,32.81,,,,,,,,,,
14.22.12.453,53.1,13.3,0,19.0,,91326.4,10.95,0.09,0.57,0.81,1.7,7.4,-1.7,32.81,,,,,,,,,,
14.22.12.465,56.3,14.1,0,19.0,,92212.2,10.84,0.09,0.57,0.8,1.0,6.3,-1.5,32.81,,,,,,,,,,
14.22.12.474,59.2,14.8,0,19.0,,91305.0,10.95,0.09,0.57,0.8,0.6,5.8,-1.7,32.81,,,,,,,,,,
14.22.12.485,55.0,13.8,0,19.0,,90310.1,11.07,0.09,0.58,0.8,0.9,5.5,-1.7,32.81,,,,,,,,,,
14.22.12.498,47.2,11.8,0,19.0,,90225.8,11.08,0.09,0.58,0.8,0.2,5.9,-2.1,32.81,,,,,,,,,,
14.22.12.506,44.6,11.2,0,19.0,,90732.1,11.02,0.09,0.58,0.8,0.6,7.3,-2.2,32.81,,,,,,,,,,
14.22.12.518,12.7,3.2,0,19.0,,92110.1,10.86,0.09,0.58,0.8,0.6,6.3,-1.8,32.81,,,,,,,,,,
14.22.12.526,17.5,4.4,0,19.0,,91606.1,10.92,0.08,0.57,0.81,-1.6,4.7,-1.3,32.81,,,,,,,,,,
14.22.12.539,-4.8,1.2,0,19.0,,92330.1,10.83,0.08,0.58,0.81,-0.4,5.7,-1.1,32.81,,,,,,,,,,
14.22.12.547,-5.2,1.3,0,19.0,,91513.8,10.93,0.09,0.58,0.8,0.4,6.5,-1.4,32.81,,,,,,,,,,
14.22.12.559,-9.3,2.3,0,19.0,,91182.0,10.97,0.08,0.58,0.81,0.3,6.9,-1.1,32.81,,,,,,,,,,
14.22.12.567,-20.1,5.0,0,19.0,,92248.1,10.84,0.09,0.58,0.81,0.1,6.0,-1.3,32.81,,,,,,,,,,
14.22.12.580,-20.6,5.2,0,19.0,,92125.4,10.85,0.09,0.58,0.8,0.1,3.9,-1.1,32.81,,,,,,,,,,
14.22.12.588,-28.7,7.2,0,19.0,,91817.9,10.89,0.09,0.58,0.81,-1.2,6.5,-1.9,32.81,,,,,,,,,,
14.22.12.600,-29.9,7.5,0,19.0,,92215.2,10.84,0.09,0.57,0.8,0.6,6.8,-2.1,32.81,,,,,,,,,,
14.22.12.608,-38.0,9.5,0,19.0,,90700.0,11.03,0.09,0.57,0.82,0.8,6.1,-2.3,32.81,,,,,,,,,,
14.22.12.621,-28.7,7.2,0,19.0,,91403.0,10.94,0.08,0.58,0.8,0.2,5.7,-1.6,32.81,,,,,,,,,,
14.22.12.633,-44.6,11.2,0,19.0,,92390.6,10.82,0.09,0.58,0.8,0.0,5.9,-1.7,32.81,,,,,,,,,,
14.22.12.641,-56.3,14.1,0,19.0,,91591.4,10.92,0.09,0.59,0.8,-0.3,5.9,-2.2,32.81,,,,,,,,,,
14.22.12.653,-61.1,15.3,0,19.0,,92488.9,10.81,0.09,0.58,0.82,-0.8,5.6,-2.1,32.81,,,,,,,,,,
14.22.12.662,-53.3,13.3,0,19.0,,92259.2,10.84,0.09,0.58,0.81,-1.0,7.2,-1.6,32.81,,,,,,,,,,
14.22.12.674,-68.3,17.1,0,19.0,,92573.5,10.8,0.08,0.57,0.8,0.1,6.5,-1.1,32.81,,,,,,,,,,
14.22.12.682,-84.3,21.1,0,19.0,,92913.4,10.76,0.08,0.57,0.81,-0.6,5.3,-1.5,32.81,,,,,,,,,,
14.22.12.719,-94.7,23.7,0,19.0,,91029.7,10.99,0.08,0.57,0.8,-1.4,5.5,-1.9,32.81,,,,,,,,,,
14.22.12.731,-95.6,23.9,0,19.0,,93714.3,10.67,0.08,0.58,0.8,0.7,6.2,-1.8,32.81,,,,,,,,,,
14.22.12.740,-82.6,20.6,0,19.0,,91658.4,10.91,0.08,0.58,0.8,-2.1,5.6,-2.5,32.81,,,,,,,,,,
14.22.12.752,-96.0,24.0,0,19.0,,91869.3,10.89,0.08,0.57,0.81,-1.1,5.8,-2.0,32.81,,,,,,,,,,
14.22.12.760,-98.9,24.7,0,19.0,,92665.6,10.79,0.08,0.57,0.8,-0.1,7.2,-2.3,32.81,,,,,,,,,,
14.22.12.772,-114.1,28.5,0,19.0,,91810.4,10.89,0.08,0.58,0.8,-1.8,4.4,-1.3,32.81,,,,,,,,,,
14.22.12.785,-116.9,29.2,0,19.0,,91977.7,10.87,0.08,0.58,0.8,-1.6,6.3,-1.1,32.81,,,,,,,,,,
14.22.12.793,-134.1,33.5,0,19.0,,92666.3,10.79,0.08,0.56,0.8,-1.1,6.9,-0.5,32.81,,,,,,,,,,
14.22.12.805,14.1,3.5,1,20.0,103.5,90219.0,11.08,0.09,0.56,0.8,-0.7,6.0,-0.6,32.81,,,,,,,,,,
14.22.12.817,76.6,19.2,0,20.0,,92383.6,10.82,0.09,0.57,0.81,-0.1,5.4,-0.7,32.81,,,,,,,,,,
14.22.12.826,130.4,32.6,0,20.0,,91523.9,10.93,0.09,0.58,0.8,0.1,6.5,-1.0,32.81,,,,,,,,,,
14.22.12.838,173.4,43.4,0,20.0,,91890.1,10.88,0.09,0.56,0.81,-2.8,6.4,-0.8,32.81,,,,,,,,,,
14.22.12.846,182.2,45.6,0,20.0,,92390.7,10.82,0.09,0.56,0.81,1.3,7.3,-1.7,32.81,,,,,,,,,,
14.22.12.858,267.4,66.8,0,20.0,,90429.0,11.06,0.08,0.58,0.8,0.3,7.8,-2.1,32.81,,,,,,,,,,
14.22.12.866,266.4,66.6,0,20.0,,89949.9,11.12,0.09,0.58,0.8,-1.6,7.2,-1.9,32.81,,,,,,,,,,
14.22.12.879,313.4,78.4,0,20.0,,93130.1,10.74,0.08,0.58,0.81,0.4,5.9,-1.6,32.81,,,,,,,,,,
14.22.12.887,305.9,76.5,0,20.0,,92158.5,10.85,0.08,0.59,0.81,-3.0,7.2,-1.8,32.81,,,,,,,,,,
14.22.12.899,289.7,72.4,0,20.0,,90197.6,11.09,0.08,0.57,0.8,-3.9,7.4,-1.2,32.81,,,,,,,,,,
14.22.12.907,324.5,81.1,0,20.0,,93523.0,10.69,0.08,0.57,0.8,-3.2,6.1,-1.3,32.81,,,,,,,,,,
14.22.12.920,320.5,80.1,0,20.0,,91565.7,10.92,0.08,0.57,0.81,-3.4,6.5,-1.1,32.81,,,,,,,,,,
14.22.12.928,305.0,76.2,0,20.0,,91775.6,10.9,0.08,0.56,0.8,-3.3,5.4,-0.9,32.81,,,,,,,,,,
14.22.12.940,248.3,62.1,0,20.0,,92352.2,10.83,0.08,0.55,0.82,-2.9,3.8,-1.1,32.81,,,,,,,,,,
14.22.12.948,255.5,63.9,0,20.0,,91865.8,10.89,0.08,0.56,0.82,1.3,6.4,-2.1,32.81,,,,,,,,,,
14.22.12.961,200.4,50.1,0,20.0,,89999.7,11.11,0.08,0.57,0.81,0.0,7.7,-2.5,32.81,,,,,,,,,,
14.22.12.973,142.1,35.5,0,20.0,,89763.3,11.14,0.08,0.57,0.79,0.2,6.7,-2.8,32.81,,,,,,,,,,
14.22.12.981,120.5,30.1,0,20.0,,93904.6,10.65,0.08,0.58,0.82,-0.4,5.1,-2.1,32.81,,,,,,,,,,
14.22.12.993,59.6,14.9,0,20.0,,92464.7,10.81,0.09,0.56,0.8,1.6,7.3,-2.8,32.81,,,,,,,,,,
14.22.13.002,6.4,1.6,0,20.0,,91893.7,10.88,0.08,0.57,0.81,2.1,6.8,-2.4,32.81,,,,,,,,,,
14.22.13.014,16.5,4.1,0,20.0,,90925.4,11.0,0.08,0.55,0.81,1.7,5.1,-2.2,32.81,,,,,,,,,,
14.22.13.022,21.2,5.3,0,20.0,,91669.5,10.91,0.08,0.57,0.82,3.3,6.3,-2.2,32.81,,,,,,,,,,
14.22.13.034,50.1,12.5,0,20.0,,90551.5,11.04,0.08,0.57,0.81,2.3,7.1,-2.1,32.81,,,,,,,,,,
14.22.13.043,43.9,11.0,0,20.0,,92278.9,10.84,0.08,0.58,0.8,-1.3,4.0,-2.3,32.81,,,,,,,,,,
14.22.13.055,49.1,12.3,0,20.0,,90809.4,11.01,0.08,0.56,0.82,0.9,5.6,-2.7,32.81,,,,,,,,,,
14.22.13.063,49.0,12.2,0,20.0,,91097.3,10.98,0.08,0.57,0.81,3.3,6.3,-2.8,32.81,,,,,,,,,,
14.22.13.075,63.0,15.8,0,20.0,,92937.1,10.76,0.08,0.57,0.81,-1.5,5.0,-2.9,32.81,,,,,,,,,,
14.22.13.084,44.3,11.1,0,20.0,,91262.3,10.96,0.08,0.56,0.81,0.9,5.2,-3.2,32.81,,,,,,,,,,
14.22.13.096,25.7,6.4,0,20.0,,91814.8,10.89,0.08,0.56,0.81,0.9,6.5,-3.9,32.81,,,,,,,,,,
14.22.13.104,,,0,20.0,,91052.6,10.98,,,,,,,,,,,,,,,,,
14.22.13.120,,,0,20.0,,91394.5,10.94,,,,,,,,,32.82,,,,,,,,
14.22.13.133,-15.8,4.0,0,20.0,,90822.8,11.01,0.07,0.57,0.8,0.9,6.7,-3.2,32.81,,,,,,,,,,
14.22.13.145,-8.1,2.0,0,20.0,,93622.4,10.68,0.07,0.56,0.81,-0.7,5.7,-3.6,32.81,,,,,,,,,,
14.22.13.153,-12.6,3.2,0,20.0,,90727.9,11.02,0.09,0.58,0.82,1.0,6.5,-3.1,32.81,,,,,,,,,,
14.22.13.166,-11.3,2.8,0,20.0,,91992.7,10.87,0.08,0.57,0.8,0.0,7.7,-2.5,32.81,,,,,,,,,,
14.22.13.174,-21.2,5.3,0,20.0,,92171.0,10.85,0.08,0.57,0.81,-1.5,6.3,-1.9,32.81,,,,,,,,,,
14.22.13.186,-31.3,7.8,0,20.0,,91919.6,10.88,0.07,0.56,0.8,0.0,7.5,-2.7,32.81,,,,,,,,,,
14.22.13.195,-31.0,7.8,0,20.0,,91502.0,10.93,0.07,0.57,0.8,0.5,6.0,-2.5,32.81,,,,,,,,,,
14.22.13.207,-50.3,12.6,0,20.0,,91671.0,10.91,0.09,0.57,0.81,-1.6,6.8,-3.3,32.81,,,,,,,,,,
14.22.13.215,-49.0,12.2,0,20.0,,92175.1,10.85,0.08,0.57,0.81,-0.9,7.3,-3.1,32.81,,,,,,,,,,
14.22.13.227,-53.3,13.3,0,20.0,,90387.1,11.06,0.08,0.57,0.8,0.3,6.9,-2.7,32.81,,,,,,,,,,
14.22.13.239,-66.7,16.7,0,20.0,,90399.2,11.06,0.07,0.57,0.81,-1.2,6.6,-2.7,32.81,,,,,,,,,,
14.22.13.248,-61.8,15.4,0,20.0,,91097.8,10.98,0.07,0.57,0.81,-0.3,6.4,-2.3,32.81,,,,,,,,,,
14.22.13.260,-69.2,17.3,0,20.0,,91291.8,10.95,0.07,0.57,0.82,-1.3,5.8,-1.8,32.81,,,,,,,,,,
14.22.13.269,-66.4,16.6,0,20.0,,91130.6,10.97,0.08,0.57,0.79,-1.7,3.8,-1.7,32.81,,,,,,,,,,
14.22.13.280,-66.2,16.6,0,20.0,,91581.1,10.92,0.08,0.57,0.81,-2.0,4.6,-1.9,32.81,,,,,,,,,,
14.22.13.288,-79.1,19.8,0,20.0,,91353.9,10.95,0.07,0.56,0.81,0.0,6.1,-1.8,32.81,,,,,,,,,,
14.22.13.301,-89.0,22.2,0,20.0,,91331.7,10.95,0.09,0.56,0.82,-0.1,5.0,-2.7,32.81,,,,,,,,,,
14.22.13.309,-96.9,24.2,0,20.0,,91038.1,10.98,0.08,0.56,0.81,-0.5,5.3,-2.3,32.81,,,,,,,,,,
14.22.13.322,-101.9,25.5,0,20.0,,91747.6,10.9,0.07,0.56,0.81,0.9,5.7,-1.8,32.81,,,,,,,,,,
14.22.13.329,-91.4,22.8,0,20.0,,91664.6,10.91,0.07,0.57,0.82,1.4,7.1,-2.0,32.81,,,,,,,,,,
14.22.13.342,-96.6,24.2,0,20.0,,92311.3,10.83,0.07,0.57,0.8,0.2,5.2,-1.4,32.81,,,,,,,,,,
14.22.13.354,-106.0,26.5,0,20.0,,90991.2,10.99,0.08,0.57,0.81,0.2,6.2,-1.5,32.81,,,,,,,,,,
14.22.13.362,-103.5,25.9,0,20.0,,91427.2,10.94,0.08,0.57,0.81,0.2,6.4,-0.9,32.81,,,,,,,,,,
14.22.13.374,-129.8,32.4,0,20.0,,90203.4,11.09,0.08,0.56,0.81,-1.5,5.4,-0.9,32.81,,,,,,,,,,
14.22.13.387,1.5,0.4,1,21.0,96.3,92609.2,10.8,0.08,0.55,0.82,0.5,6.2,-0.9,32.81,,,,,,,,,,
14.22.13.395,40.4,10.1,0,21.0,,92224.6,10.84,0.08,0.56,0.81,2.2,6.1,-0.8,32.81,,,,,,,,,,
14.22.13.407,113.6,28.4,0,21.0,,92904.3,10.76,0.08,0.58,0.81,2.1,6.0,-1.8,32.81,,,,,,,,,,
14.22.13.415,130.7,32.7,0,21.0,,92227.5,10.84,0.08,0.58,0.8,0.7,5.8,-1.4,32.81,,,,,,,,,,
14.22.13.428,205.3,51.3,0,21.0,,91857.6,10.89,0.07,0.57,0.81,1.5,7.5,-1.4,32.81,,,,,,,,,,
14.22.13.436,211.9,53.0,0,21.0,,91864.2,10.89,0.07,0.56,0.8,0.1,6.6,-0.8,32.81,,,,,,,,,,
14.22.13.448,252.0,63.0,0,21.0,,92339.0,10.83,0.07,0.56,0.82,-0.2,5.2,-0.4,32.81,,,,,,,,,,
14.22.13.456,285.9,71.5,0,21.0,,91159.7,10.97,0.07,0.57,0.8,0.4,4.8,-0.5,32.81,,,,,,,,,,
14.22.13.469,304.3,76.1,0,21.0,,92027.0,10.87,0.08,0.57,0.81,0.5,5.0,-0.4,32.81,,,,,,,,,,
14.22.13.477,319.4,79.8,0,21.0,,92473.3,10.81,0.07,0.57,0.81,0.9,6.4,-0.2,32.81,,,,,,,,,,
14.22.13.489,306.6,76.6,0,21.0,,91310.2,10.95,0.08,0.57,0.81,2.1,6.1,0.4,32.81,,,,,,,,,,
14.22.13.527,245.0,61.2,0,21.0,,91327.9,10.95,0.07,0.57,0.8,2.1,5.7,0.1,32.81,,,,,,,,,,
14.22.13.534,208.1,52.0,0,21.0,,89753.5,11.14,0.08,0.57,0.81,2.8,4.4,0.5,32.81,,,,,,,,,,
14.22.13.547,198.4,49.6,0,21.0,,92019.8,10.87,0.08,0.58,0.8,2.4,5.5,0.4,32.81,,,,,,,,,,
14.22.13.559,149.6,37.4,0,21.0,,92917.9,10.76,0.08,0.58,0.8,1.2,6.5,-0.6,32.81,,,,,,,,,,
14.22.13.567,115.7,28.9,0,21.0,,91759.9,10.9,0.08,0.57,0.81,2.1,5.6,0.0,32.81,,,,,,,,,,
14.22.13.579,58.5,14.6,0,21.0,,91552.4,10.92,0.07,0.57,0.81,2.1,5.9,-0.4,32.81,,,,,,,,,,
14.22.13.588,17.2,4.3,0,21.0,,90728.6,11.02,0.08,0.58,0.81,0.8,6.5,-0.4,32.81,,,,,,,,,,
14.22.13.600,16.7,4.2,0,21.0,,92603.6,10.8,0.08,0.56,0.81,0.9,5.6,0.0,32.81,,,,,,,,,,
14.22.13.608,29.4,7.4,0,21.0,,92510.2,10.81,0.08,0.56,0.82,1.8,5.9,0.0,32.81,,,,,,,,,,
14.22.13.620,30.0,7.5,0,21.0,,92722.3,10.78,0.08,0.57,0.81,3.3,5.6,-0.2,32.81,,,,,,,,,,
14.22.13.629,51.8,13.0,0,21.0,,92547.1,10.81,0.08,0.58,0.81,1.4,5.8,-0.2,32.81,,,,,,,,,,
14.22.13.641,63.3,15.8,0,21.0,,92314.5,10.83,0.08,0.57,0.81,1.3,4.4,-0.6,32.81,,,,,,,,,,
14.22.13.649,65.8,16.4,0,21.0,,90719.2,11.02,0.08,0.58,0.81,2.8,5.7,-1.3,32.81,,,,,,,,,,
14.22.13.661,55.3,13.8,0,21.0,,90464.1,11.05,0.08,0.58,0.8,0.7,6.2,-0.9,32.81,,,,,,,,,,
14.22.13.669,49.9,12.5,0,21.0,,91757.1,10.9,0.08,0.56,0.82,0.5,6.1,-1.2,32.81,,,,,,,,,,
14.22.13.682,39.7,9.9,0,21.0,,91786.8,10.89,0.08,0.57,0.81,2.0,5.4,-1.1,32.81,,,,,,,,,,
14.22.13.690,30.8,7.7,0,21.0,,89828.2,11.13,0.07,0.58,0.8,1.0,5.3,-0.9,32.81,,,,,,,,,,
14.22.13.702,9.7,2.4,0,21.0,,92240.2,10.84,0.08,0.57,0.81,0.1,5.3,-1.1,32.81,,,,,,,,,,
14.22.13.710,1.3,0.3,0,21.0,,93028.6,10.75,0.08,0.57,0.81,2.0,5.5,-0.7,32.81,,,,,,,,,,
14.22.13.723,-2.0,0.5,0,21.0,,92606.2,10.8,0.08,0.57,0.8,0.6,4.9,-0.9,32.81,,,,,,,,,,
14.22.13.735,-13.5,3.4,0,21.0,,92123.4,10.86,0.08,0.57,0.81,0.9,4.7,-1.0,32.81,,,,,,,,,,
14.22.13.744,-30.4,7.6,0,21.0,,91050.9,10.98,0.08,0.57,0.81,1.8,5.4,-0.8,32.81,,,,,,,,,,
14.22.13.755,-26.5,6.6,0,21.0,,90782.9,11.02,0.08,0.57,0.81,2.4,5.3,-0.3,32.81,,,,,,,,,,
14.22.13.765,-25.3,6.3,0,21.0,,91579.6,10.92,0.08,0.58,0.8,0.9,4.0,-0.9,32.81,,,,,,,,,,
14.22.13.776,-35.2,8.8,0,21.0,,92797.7,10.78,0.08,0.56,0.81,-0.2,4.5,-1.1,32.81,,,,,,,,,,
14.22.13.784,-42.4,10.6,0,21.0,,92515.2,10.81,0.08,0.56,0.81,3.1,6.2,-1.1,32.81,,,,,,,,,,
14.22.13.796,-46.7,11.7,0,21.0,,90134.5,11.09,0.08,0.57,0.8,4.6,7.0,-1.0,32.81,,,,,,,,,,
14.22.13.805,-55.9,14.0,0,21.0,,90989.0,10.99,0.08,0.58,0.8,2.5,7.0,-1.1,32.81,,,,,,,,,,
14.22.13.817,-47.5,11.9,0,21.0,,89562.8,11.17,0.08,0.58,0.81,3.0,7.1,-0.5,32.81,,,,,,,,,,
14.22.13.825,-48.7,12.2,0,21.0,,90639.4,11.03,0.08,0.58,0.81,3.4,7.7,-0.7,32.81,,,,,,,,,,
14.22.13.837,-64.8,16.2,0,21.0,,91348.6,10.95,0.08,0.57,0.8,3.5,7.2,-0.5,32.81,,,,,,,,,,
14.22.13.846,-65.8,16.4,0,21.0,,90810.9,11.01,0.08,0.57,0.81,3.9,7.0,-0.2,32.81,,,,,,,,,,
14.22.13.858,-67.3,16.8,0,21.0,,91998.3,10.87,0.08,0.56,0.81,5.0,8.0,-0.1,32.81,,,,,,,,,,
14.22.13.866,-75.1,18.8,0,21.0,,91988.3,10.87,0.08,0.57,0.81,8.1,8.0,0.0,32.81,,,,,,,,,,
14.22.13.879,-77.7,19.4,0,21.0,,91909.2,10.88,0.08,0.58,0.8,7.8,8.2,0.8,32.81,,,,,,,,,,
14.22.13.891,-91.6,22.9,0,21.0,,92909.1,10.76,0.08,0.59,0.8,6.5,8.2,0.7,32.81,,,,,,,,,,
14.22.13.899,-104.9,26.2,0,21.0,,91970.6,10.87,0.07,0.59,0.8,5.8,8.3,1.3,32.81,,,,,,,,,,
14.22.13.911,-100.2,25.0,0,21.0,,91550.8,10.92,0.07,0.57,0.8,3.9,8.0,1.0,32.81,,,,,,,,,,
14.22.13.919,-102.2,25.6,0,21.0,,91527.0,10.93,0.08,0.58,0.8,5.7,7.6,1.1,32.81,,,,,,,,,,
14.22.13.933,-107.9,27.0,0,21.0,,92153.1,10.85,0.08,0.6,0.79,3.4,6.5,0.2,32.81,,,,,,,,,,
14.22.13.944,-110.5,27.6,0,21.0,,92006.2,10.87,0.08,0.59,0.79,2.0,4.7,-0.1,32.81,,,,,,,,,,
14.22.13.952,-115.1,28.8,0,21.0,,92553.3,10.8,0.09,0.59,0.8,3.5,7.5,0.4,32.81,,,,,,,,,,
14.22.13.964,-118.8,29.7,0,21.0,,90027.0,11.11,0.08,0.57,0.81,4.4,10.3,0.2,32.81,,,,,,,,,,
14.22.13.973,-1.0,0.2,1,22.0,102.2,92809.9,10.77,0.07,0.56,0.81,5.0,9.6,0.8,32.81,,,,,,,,,,
14.22.13.985,52.3,13.1,0,22.0,,90495.6,11.05,0.07,0.58,0.81,5.0,8.2,1.1,32.81,,,,,,,,,,
14.22.13.993,80.8,20.2,0,22.0,,91985.0,10.87,0.07,0.59,0.8,4.7,9.2,1.0,32.81,,,,,,,,,,
14.22.14.005,152.5,38.1,0,22.0,,92292.4,10.84,0.07,0.6,0.78,3.7,8.2,1.0,32.81,,,,,,,,,,
14.22.14.014,176.7,44.2,0,22.0,,92062.1,10.86,0.07,0.59,0.78,0.2,8.0,1.0,32.81,,,,,,,,,,
14.22.14.026,267.1,66.8,0,22.0,,91809.2,10.89,0.08,0.58,0.8,2.1,7.8,1.1,32.81,,,,,,,,,,
14.22.14.038,254.8,63.7,0,22.0,,91924.8,10.88,0.07,0.58,0.81,4.1,8.3,0.7,32.81,,,,,,,,,,
14.22.14.047,311.3,77.8,0,22.0,,90988.2,10.99,0.08,0.58,0.8,-0.2,6.7,0.3,32.81,,,,,,,,,,
14.22.14.059,289.6,72.4,0,22.0,,91794.9,10.89,0.08,0.58,0.8,1.3,5.1,0.1,32.81,,,,,,,,,,
14.22.14.071,311.8,78.0,0,22.0,,92112.6,10.86,0.07,0.59,0.8,2.8,6.9,-0.6,32.81,,,,,,,,,,
14.22.14.079,326.8,81.7,0,22.0,,92226.0,10.84,0.07,0.6,0.79,1.5,7.2,-0.6,32.81,,,,,,,,,,
14.22.14.091,267.5,66.9,0,22.0,,91825.5,10.89,0.07,0.59,0.79,-0.1,5.0,-0.8,32.81,,,,,,,,,,
14.22.14.104,288.2,72.0,0,22.0,,92447.6,10.82,0.08,0.58,0.8,0.2,5.5,-0.6,32.81,,,,,,,,,,
14.22.14.116,261.0,65.2,0,22.0,,92532.5,10.81,0.07,0.58,0.8,-0.3,5.3,-0.7,32.81,,,,,,,,,,
14.22.14.124,207.4,51.8,0,22.0,,92154.0,10.85,0.08,0.57,0.8,0.9,5.3,-0.2,32.81,,,,,,,,,,
14.22.14.136,197.9,49.5,0,22.0,,91973.1,10.87,0.08,0.57,0.8,2.3,6.2,-0.2,32.81,,,,,,,,,,
14.22.14.149,136.6,34.2,0,22.0,,90575.3,11.04,0.07,0.58,0.8,5.9,6.4,0.2,32.81,,,,,,,,,,
14.22.14.157,107.8,27.0,0,22.0,,90672.0,11.03,0.08,0.61,0.8,2.0,6.5,0.6,32.81,,,,,,,,,,
14.22.14.169,44.7,11.2,0,22.0,,92804.3,10.78,0.08,0.58,0.79,1.2,8.0,0.4,32.81,,,,,,,,,,
14.22.14.181,13.8,3.4,0,22.0,,91717.3,10.9,0.07,0.59,0.79,3.0,6.3,0.5,32.81,,,,,,,,,,
14.22.14.194,15.5,3.9,0,22.0,,92396.4,10.82,0.08,0.6,0.79,2.4,7.6,0.4,32.81,,,,,,,,,,
14.22.14.202,31.1,7.8,0,22.0,,92998.9,10.75,0.08,0.59,0.79,1.2,5.0,0.6,32.81,,,,,,,,,,
14.22.14.214,53.2,13.3,0,22.0,,91536.7,10.92,0.08,0.58,0.79,1.7,5.9,0.0,32.81,,,,,,,,,,
14.22.14.227,59.7,14.9,0,22.0,,92689.6,10.79,0.08,0.59,0.81,2.4,6.9,-0.1,32.81,,,,,,,,,,
14.22.14.235,57.9,14.5,0,22.0,,91403.0,10.94,0.08,0.59,0.8,3.9,7.3,0.1,32.81,,,,,,,,,,
14.22.14.247,59.1,14.8,0,22.0,,90563.1,11.04,0.08,0.59,0.79,2.9,7.7,0.3,32.81,,,,,,,,,,
14.22.14.260,49.3,12.3,0,22.0,,92120.6,10.86,0.07,0.58,0.8,3.9,8.2,0.5,32.81,,,,,,,,,,
14.22.14.268,37.4,9.4,0,22.0,,92683.7,10.79,0.07,0.59,0.79,3.7,7.1,0.6,32.81,,,,,,,,,,
14.22.14.280,16.4,4.1,0,22.0,,92809.6,10.77,0.07,0.6,0.79,1.8,7.5,0.9,32.81,,,,,,,,,,
14.22.14.292,9.0,2.2,0,22.0,,91779.7,10.9,0.08,0.6,0.79,1.7,7.2,0.5,32.81,,,,,,,,,,
14.22.14.333,-19.6,4.9,0,22.0,,91301.2,10.95,0.08,0.58,0.8,3.3,8.5,0.4,32.81,,,,,,,,,,
14.22.14.341,-24.1,6.0,0,22.0,,90867.8,11.01,0.08,0.58,0.79,3.7,6.5,0.3,32.81,,,,,,,,,,
14.22.14.354,-33.0,8.2,0,22.0,,90899.0,11.0,0.08,0.6,0.8,1.5,6.5,0.0,32.81,,,,,,,,,,
14.22.14.366,-31.5,7.9,0,22.0,,91895.0,10.88,0.07,0.59,0.79,-1.8,7.5,-0.6,32.81,,,,,,,,,,
14.22.14.378,-41.7,10.4,0,22.0,,94051.1,10.63,0.08,0.6,0.79,-1.6,7.4,-0.2,32.81,,,,,,,,,,
14.22.14.386,-47.9,12.0,0,22.0,,92057.9,10.86,0.07,0.59,0.79,-5.4,8.9,0.3,32.81,,,,,,,,,,
14.22.14.399,-53.1,13.3,0,22.0,,91934.3,10.88,0.07,0.61,0.79,-6.2,7.3,1.0,32.81,,,,,,,,,,
14.22.14.411,-68.1,17.0,0,22.0,,92108.3,10.86,0.07,0.58,0.79,-7.1,6.4,-0.5,32.81,,,,,,,,,,
14.22.14.423,-68.1,17.0,0,22.0,,91481.5,10.93,0.07,0.58,0.81,-5.2,4.5,-1.2,32.81,,,,,,,,,,
14.22.14.431,-82.9,20.7,0,22.0,,92309.3,10.83,0.08,0.6,0.81,-5.0,4.6,-0.5,32.81,,,,,,,,,,
14.22.14.444,-66.5,16.6,0,22.0,,91416.5,10.94,0.08,0.58,0.78,-5.8,8.3,0.1,32.81,,,,,,,,,,
14.22.14.456,-83.6,20.9,0,22.0,,92893.4,10.77,0.08,0.59,0.8,-1.5,4.0,-0.2,32.81,,,,,,,,,,
14.22.14.468,-91.2,22.8,0,22.0,,91178.7,10.97,0.08,0.58,0.8,2.9,6.5,-1.4,32.81,,,,,,,,,,
14.22.14.476,-94.8,23.7,0,22.0,,91271.1,10.96,0.08,0.59,0.79,3.9,3.8,-2.0,32.81,,,,,,,,,,
14.22.14.493,-96.3,24.1,0,22.0,,91875.6,10.88,0.08,0.6,0.8,2.3,1.4,-1.5,32.81,,,,,,,,,,
14.22.14.501,-99.2,24.8,0,22.0,,91534.4,10.92,0.08,0.6,0.81,-0.5,5.3,-0.1,32.81,,,,,,,,,,
14.22.14.513,-100.0,25.0,0,22.0,,92375.3,10.83,0.07,0.57,0.79,3.6,12.0,-0.4,32.81,,,,,,,,,,
14.22.14.522,-129.0,32.2,0,22.0,,92219.1,10.84,0.07,0.57,0.79,5.0,8.0,0.8,32.81,,,,,,,,,,
14.22.14.534,-107.6,26.9,0,22.0,,91734.1,10.9,0.08,0.57,0.81,5.0,6.6,2.9,32.81,,,,,,,,,,
14.22.14.542,-122.7,30.7,0,22.0,,91756.9,10.9,0.07,0.58,0.81,8.2,8.8,4.2,32.81,,,,,,,,,,
14.22.14.554,-143.6,35.9,0,22.0,,91561.0,10.92,0.08,0.57,0.79,8.4,8.9,4.2,32.81,,,,,,,,,,
14.22.14.564,24.6,6.2,1,23.0,98.2,91701.4,10.9,0.07,0.58,0.8,8.8,5.5,4.7,32.81,,,,,,,,,,
14.22.14.575,80.1,20.0,0,23.0,,90125.3,11.1,0.08,0.6,0.79,11.5,7.8,3.4,32.81,,,,,,,,,,
14.22.14.583,123.6,30.9,0,23.0,,90179.0,11.09,0.08,0.61,0.78,8.7,7.0,1.5,32.81,,,,,,,,,,
14.22.14.595,172.4,43.1,0,23.0,,89973.9,11.11,0.07,0.61,0.77,3.7,5.1,0.7,32.81,,,,,,,,,,
14.22.14.604,212.5,53.1,0,23.0,,91941.0,10.88,0.08,0.61,0.79,3.6,7.5,0.4,32.81,,,,,,,,,,
14.22.14.616,247.2,61.8,0,23.0,,92321.8,10.83,0.08,0.6,0.78,3.2,8.4,-0.1,32.81,,,,,,,,,,
14.22.14.624,238.2,59.6,0,23.0,,90896.5,11.0,0.08,0.59,0.8,0.2,5.4,-0.7,32.81,,,,,,,,,,
14.22.14.636,327.4,81.8,0,23.0,,91913.4,10.88,0.08,0.58,0.8,1.5,4.4,-0.9,32.81,,,,,,,,,,
14.22.14.645,309.0,77.2,0,23.0,,92875.1,10.77,0.08,0.59,0.8,5.6,6.6,-1.3,32.81,,,,,,,,,,
14.22.14.657,322.6,80.6,0,23.0,,92193.3,10.85,0.08,0.6,0.78,4.9,6.5,-1.0,32.81,,,,,,,,,,
14.22.14.665,303.7,75.9,0,23.0,,91105.8,10.98,0.07,0.61,0.79,2.9,6.1,-0.8,32.81,,,,,,,,,,
14.22.14.677,295.5,73.9,0,23.0,,90269.7,11.08,0.08,0.6,0.79,2.7,5.1,-0.2,32.81,,,,,,,,,,
14.22.14.686,277.5,69.4,0,23.0,,91722.7,10.9,0.07,0.6,0.79,1.5,4.3,0.2,32.81,,,,,,,,,,
14.22.14.698,269.7,67.4,0,23.0,,91916.1,10.88,0.08,0.6,0.79,1.0,6.3,-0.4,32.81,,,,,,,,,,
14.22.14.706,252.5,63.1,0,23.0,,91518.7,10.93,0.08,0.6,0.79,-0.1,3.9,-0.1,32.81,,,,,,,,,,
14.22.14.718,197.0,49.2,0,23.0,,90849.2,11.01,0.09,0.59,0.8,-2.1,5.0,-0.9,32.81,,,,,,,,,,
14.22.14.731,140.9,35.2,0,23.0,,92544.2,10.81,0.08,0.61,0.78,1.2,7.1,-2.1,32.81,,,,,,,,,,
14.22.14.739,131.6,32.9,0,23.0,,92594.0,10.8,0.08,0.61,0.79,-2.6,6.0,-2.5,32.81,,,,,,,,,,
14.22.14.751,66.9,16.7,0,23.0,,92077.5,10.86,0.08,0.59,0.79,-1.9,7.8,-2.8,32.81,,,,,,,,,,
14.22.14.759,20.3,5.1,0,23.0,,90310.0,11.07,0.07,0.59,0.8,0.3,7.7,-2.1,32.81,,,,,,,,,,
14.22.14.771,14.1,3.5,0,23.0,,91005.8,10.99,0.08,0.58,0.79,-1.8,5.3,-1.3,32.81,,,,,,,,,,
14.22.14.780,24.9,6.2,0,23.0,,92331.5,10.83,0.08,0.59,0.8,0.0,6.6,-0.4,32.81,,,,,,,,,,
14.22.14.792,34.0,8.5,0,23.0,,91667.4,10.91,0.08,0.59,0.78,1.3,8.1,0.4,32.81,,,,,,,,,,
14.22.14.800,51.9,13.0,0,23.0,,90705.9,11.02,0.07,0.61,0.78,0.3,6.7,1.0,32.81,,,,,,,,,,
14.22.14.813,55.9,14.0,0,23.0,,91524.2,10.93,0.07,0.61,0.79,0.1,6.4,-0.1,32.81,,,,,,,,,,
14.22.14.821,54.3,13.6,0,23.0,,92348.3,10.83,0.08,0.59,0.79,-1.9,5.0,-0.7,32.81,,,,,,,,,,
14.22.14.833,52.9,13.2,0,23.0,,91009.1,10.99,0.08,0.59,0.79,1.0,5.2,-0.7,32.81,,,,,,,,,,
14.22.14.841,52.2,13.0,0,23.0,,93078.1,10.74,0.08,0.6,0.78,0.6,6.3,-1.1,32.81,,,,,,,,,,
14.22.14.853,36.5,9.1,0,23.0,,91423.9,10.94,0.08,0.59,0.79,1.4,6.5,-0.8,32.81,,,,,,,,,,
14.22.14.866,18.1,4.5,0,23.0,,91422.8,10.94,0.08,0.59,0.78,2.5,6.5,-1.3,32.81,,,,,,,,,,
14.22.14.874,7.4,1.8,0,23.0,,91926.9,10.88,0.08,0.6,0.79,2.4,6.3,-1.6,32.81,,,,,,,,,,
14.22.14.886,-3.6,0.9,0,23.0,,91942.7,10.88,0.07,0.59,0.79,2.6,6.9,-1.0,32.81,,,,,,,,,,
14.22.14.894,-6.2,1.6,0,23.0,,91234.1,10.96,0.08,0.6,0.79,3.7,7.2,-0.6,32.81,,,,,,,,,,
14.22.14.907,-7.8,2.0,0,23.0,,90478.5,11.05,0.08,0.6,0.78,3.8,6.9,-0.3,32.81,,,,,,,,,,
14.22.14.915,-17.6,4.4,0,23.0,,91662.4,10.91,0.07,0.61,0.79,0.8,6.1,-0.4,32.81,,,,,,,,,,
14.22.14.927,-24.7,6.2,0,23.0,,92126.1,10.85,0.08,0.6,0.79,2.2,6.4,0.2,32.81,,,,,,,,,,
14.22.14.935,-18.1,4.5,0,23.0,,91646.4,10.91,0.08,0.59,0.79,2.2,6.7,-0.1,32.81,,,,,,,,,,
14.22.14.948,-38.3,9.6,0,23.0,,90529.2,11.05,0.08,0.59,0.79,3.0,5.8,0.0,32.81,,,,,,,,,,
14.22.14.956,-31.4,7.8,0,23.0,,91045.4,10.98,0.08,0.6,0.79,3.4,5.0,0.1,32.81,,,,,,,,,,
14.22.14.968,-33.4,8.4,0,23.0,,92572.1,10.8,0.08,0.6,0.79,2.4,5.9,-0.9,32.81,,,,,,,,,,
14.22.14.976,-38.3,9.6,0,23.0,,91363.4,10.95,0.08,0.59,0.79,2.4,5.7,-0.9,32.81,,,,,,,,,,
14.22.14.989,-55.3,13.8,0,23.0,,90857.0,11.01,0.08,0.6,0.79,4.2,6.1,-0.9,32.81,,,,,,,,,,
14.22.14.997,-65.9,16.5,0,23.0,,91417.9,10.94,0.07,0.6,0.78,4.9,5.7,-0.6,32.81,,,,,,,,,,
14.22.15.009,-54.4,13.6,0,23.0,,90765.1,11.02,0.07,0.61,0.78,2.7,5.5,-0.7,32.81,,,,,,,,,,
14.22.15.017,-66.9,16.7,0,23.0,,91555.3,10.92,0.07,0.61,0.78,2.7,4.5,0.1,32.81,,,,,,,,,,
14.22.15.030,-70.4,17.6,0,23.0,,91618.1,10.91,0.08,0.6,0.79,0.7,4.0,0.2,32.81,,,,,,,,,,
14.22.15.042,-87.1,21.8,0,23.0,,92424.1,10.82,0.08,0.61,0.79,0.9,4.5,0.2,32.81,,,,,,,,,,
14.22.15.050,-79.6,19.9,0,23.0,,91411.9,10.94,0.08,0.63,0.78,-0.8,5.9,0.5,32.81,,,,,,,,,,
14.22.15.062,-87.6,21.9,0,23.0,,91210.3,10.96,0.08,0.6,0.78,-0.1,7.1,-0.3,32.81,,,,,,,,,,
14.22.15.071,-83.2,20.8,0,23.0,,89829.6,11.13,0.08,0.59,0.78,0.7,3.9,-1.0,32.81,,,,,,,,,,
14.22.15.083,-97.6,24.4,0,23.0,,93161.6,10.73,0.08,0.6,0.79,2.6,5.7,-0.9,32.81,,,,,,,,,,
14.22.15.091,-89.5,22.4,0,23.0,,92246.5,10.84,0.08,0.61,0.79,0.4,6.0,-1.7,32.81,,,,,,,,,,
14.22.15.103,-99.0,24.8,0,23.0,,92445.4,10.82,0.08,0.59,0.77,1.1,6.6,-2.2,32.81,,,,,,,,,,
14.22.15.140,-134.6,33.6,0,23.0,,91866.7,10.89,0.08,0.61,0.79,1.9,4.2,-1.1,32.81,,,,,,,,,,
14.22.15.148,2.6,0.6,1,24.0,100.1,91510.9,10.93,0.08,0.6,0.79,0.2,6.0,-0.7,32.81,,,,,,,,,,
14.22.15.161,77.9,19.5,0,24.0,,91355.0,10.95,0.09,0.6,0.78,1.5,5.6,-1.0,32.81,,,,,,,,,,
14.22.15.173,128.8,32.2,0,24.0,,90403.9,11.06,0.08,0.61,0.78,1.0,6.0,-1.3,32.81,,,,,,,,,,
14.22.15.181,169.9,42.5,0,24.0,,89384.7,11.19,0.08,0.6,0.79,0.8,6.3,-1.1,32.81,,,,,,,,,,
14.22.15.193,202.6,50.6,0,24.0,,91597.1,10.92,0.09,0.59,0.78,2.5,6.9,-1.2,32.81,,,,,,,,,,
14.22.15.202,229.3,57.3,0,24.0,,91943.3,10.88,0.08,0.61,0.79,1.0,5.7,-0.7,32.81,,,,,,,,,,
14.22.15.214,274.3,68.6,0,24.0,,91237.0,10.96,0.08,0.59,0.79,0.2,5.9,-1.2,32.81,,,,,,,,,,
14.22.15.222,316.6,79.2,0,24.0,,91946.1,10.88,0.09,0.6,0.79,2.3,6.1,-1.3,32.81,,,,,,,,,,
14.22.15.235,321.9,80.5,0,24.0,,91070.1,10.98,0.08,0.6,0.78,3.4,6.0,-2.0,32.81,,,,,,,,,,
14.22.15.247,329.8,82.4,0,24.0,,92215.7,10.84,0.08,0.61,0.78,2.0,6.3,-1.7,32.81,,,,,,,,,,
14.22.15.255,294.4,73.6,0,24.0,,91525.5,10.93,0.08,0.61,0.79,3.3,7.0,-1.1,32.81,,,,,,,,,,
14.22.15.267,308.1,77.0,0,24.0,,92193.3,10.85,0.07,0.61,0.78,3.6,6.1,-1.8,32.81,,,,,,,,,,
14.22.15.276,284.9,71.2,0,24.0,,91853.9,10.89,0.08,0.61,0.78,0.7,3.8,-1.0,32.81,,,,,,,,,,
14.22.15.288,277.2,69.3,0,24.0,,89865.3,11.13,0.08,0.6,0.78,0.4,2.9,-0.7,32.81,,,,,,,,,,
14.22.15.296,246.0,61.5,0,24.0,,91008.6,10.99,0.08,0.59,0.8,2.7,6.7,-1.5,32.81,,,,,,,,,,
14.22.15.308,189.4,47.4,0,24.0,,91652.8,10.91,0.08,0.6,0.78,2.5,5.9,-1.4,32.81,,,,,,,,,,
14.22.15.316,173.2,43.3,0,24.0,,91030.6,10.99,0.08,0.6,0.78,-0.3,5.4,-1.7,32.81,,,,,,,,,,
14.22.15.329,95.3,23.8,0,24.0,,91880.3,10.88,0.08,0.61,0.78,3.0,7.5,-1.5,32.81,,,,,,,,,,
14.22.15.337,59.1,14.8,0,24.0,,91249.9,10.96,0.07,0.61,0.77,-0.3,3.8,-1.2,32.81,,,,,,,,,,
14.22.15.349,6.9,1.7,0,24.0,,91964.1,10.87,0.07,0.6,0.79,-1.1,4.5,-1.0,32.81,,,,,,,,,,
14.22.15.357,14.3,3.6,0,24.0,,91023.1,10.99,0.08,0.6,0.78,1.1,6.5,-1.0,32.81,,,,,,,,,,
14.22.15.370,33.1,8.3,0,24.0,,89992.8,11.11,0.08,0.6,0.78,-1.9,4.7,-1.2,32.81,,,,,,,,,,
14.22.15.378,32.9,8.2,0,24.0,,91286.9,10.95,0.08,0.6,0.78,-0.4,3.3,-1.6,32.81,,,,,,,,,,
14.22.15.390,57.3,14.3,0,24.0,,91170.8,10.97,0.08,0.61,0.79,-0.6,5.5,-2.5,32.81,,,,,,,,,,
14.22.15.402,52.5,13.1,0,24.0,,93079.7,10.74,0.08,0.6,0.78,-1.9,4.8,-2.5,32.81,,,,,,,,,,
14.22.15.411,48.6,12.2,0,24.0,,91668.8,10.91,0.08,0.6,0.79,-1.6,5.2,-2.6,32.81,,,,,,,,,,
14.22.15.423,58.4,14.6,0,24.0,,91456.6,10.93,0.07,0.6,0.78,-0.3,5.0,-2.5,32.81,,,,,,,,,,
14.22.15.431,46.7,11.7,0,24.0,,90960.2,10.99,0.08,0.6,0.79,-0.7,5.2,-2.3,32.81,,,,,,,,,,
14.22.15.444,36.9,9.2,0,24.0,,91496.6,10.93,0.08,0.59,0.79,-0.9,4.1,-2.1,32.81,,,,,,,,,,
14.22.15.452,19.8,5.0,0,24.0,,92785.1,10.78,0.09,0.61,0.78,2.3,5.6,-2.0,32.81,,,,,,,,,,
14.22.15.465,-1.4,0.4,0,24.0,,92518.5,10.81,0.08,0.61,0.78,0.2,6.5,-2.1,32.81,,,,,,,,,,
14.22.15.472,4.3,1.1,0,24.0,,92217.7,10.84,0.08,0.6,0.78,-1.3,4.9,-1.9,32.81,,,,,,,,,,
14.22.15.484,-2.8,0.7,0,24.0,,90687.5,11.03,0.08,0.6,0.78,0.2,4.7,-2.0,32.81,,,,,,,,,,
14.22.15.492,-5.1,1.3,0,24.0,,92368.4,10.83,0.08,0.6,0.79,-0.2,5.6,-1.7,32.81,,,,,,,,,,
14.22.15.505,-27.6,6.9,0,24.0,,90966.7,10.99,0.08,0.6,0.79,-0.7,6.3,-1.9,32.81,,,,,,,,,,
14.22.15.517,-20.6,5.2,0,24.0,,91771.7,10.9,0.08,0.6,0.79,0.7,5.9,-1.5,32.81,,,,,,,,,,
14.22.15.525,-22.4,5.6,0,24.0,,90754.1,11.02,0.08,0.6,0.79,-0.2,5.1,-1.4,32.81,,,,,,,,,,
14.22.15.539,-28.1,7.0,0,24.0,,91737.6,10.9,0.08,0.61,0.78,-0.5,4.4,-1.7,32.81,,,,,,,,,,
14.22.15.547,-41.8,10.4,0,24.0,,92349.9,10.83,0.08,0.61,0.78,0.9,5.9,-2.0,32.81,,,,,,,,,,
14.22.15.558,-36.7,9.2,0,24.0,,91386.9,10.94,0.08,0.61,0.78,0.4,6.0,-2.4,32.81,,,,,,,,,,
14.22.15.566,-45.8,11.4,0,24.0,,91874.8,10.88,0.08,0.6,0.79,-0.1,4.6,-1.9,32.81,,,,,,,,,,
14.22.15.579,-53.4,13.4,0,24.0,,90217.0,11.08,0.08,0.6,0.78,-0.4,5.4,-1.8,32.81,,,,,,,,,,
14.22.15.587,-55.6,13.9,0,24.0,,91587.2,10.92,0.08,0.6,0.79,0.8,5.4,-1.6,32.81,,,,,,,,,,
14.22.15.599,-58.2,14.6,0,24.0,,91357.1,10.95,0.08,0.6,0.79,0.4,5.3,-1.8,32.81,,,,,,,,,,
14.22.15.607,-80.8,20.2,0,24.0,,92193.0,10.85,0.08,0.6,0.79,0.5,6.0,-2.3,32.81,,,,,,,,,,
14.22.15.619,-68.6,17.2,0,24.0,,90692.3,11.03,0.08,0.6,0.78,0.5,5.2,-2.3,32.81,,,,,,,,,,
14.22.15.629,-76.0,19.0,0,24.0,,91381.8,10.94,0.08,0.6,0.79,0.5,5.8,-2.4,32.81,,,,,,,,,,
14.22.15.640,-83.5,20.9,0,24.0,,91450.4,10.93,0.08,0.6,0.79,-0.1,5.9,-2.5,32.81,,,,,,,,,,
