timestamp,ppg,threshold,beat,beat_count,inst_bpm,gsr_resistance_ohm,gsr_conductance_us,accel_x,accel_y,accel_z,gyro_x,gyro_y,gyro_z,temp_c,window_bpm,window_temp_c,status_message,SpO2,bmi,age,height,weight,env_temp_c,env_humidity_pct
15.10.00.000,0.0,0.0,0,,,58616.6,17.06,-1.07,0.26,-0.04,11.8,9.0,-5.3,36.31,120.4,,,,19.6,19.0,167.64,55.0,31.44,45.0
15.10.00.012,80.7,20.2,0,,,58616.6,17.06,-0.98,0.4,-0.25,-0.4,-6.4,-24.3,36.44,,,,,,,,,,
15.10.00.022,166.5,41.6,0,,,58616.6,17.06,-0.88,0.09,0.15,-14.0,26.6,-26.9,36.15,,,,,,,,,,
15.10.00.031,204.7,51.2,0,,,58616.6,17.06,-0.63,0.65,-0.12,5.3,1.9,5.8,36.37,,,,,,,,,,
15.10.00.041,306.1,76.5,0,,,58616.6,17.06,-0.67,-0.05,0.2,-19.5,-0.2,0.9,36.51,,,,,,,,,,
15.10.00.051,342.9,85.7,0,,,58616.6,17.06,-0.96,0.29,0.23,-2.5,-20.5,-7.3,36.06,,,,,,,,,,
15.10.00.060,394.3,98.6,0,,,58616.6,17.06,-0.7,-0.04,-0.59,5.6,-11.5,0.1,36.37,,,,,,,,,,
15.10.00.070,390.0,97.5,0,,,58651.0,17.05,-0.9,-0.26,-0.4,23.4,20.7,16.4,36.18,,,,,,,,,,
15.10.00.080,403.7,100.9,0,,,58651.0,17.05,-1.3,0.22,0.25,3.8,-15.3,-5.4,36.35,,,,,,,,,,
15.10.00.089,428.7,107.2,0,,,58651.0,17.05,-0.8,0.34,0.78,-21.1,-9.1,10.2,36.5,,,,,,,,,,
15.10.00.099,407.8,102.0,0,,,58651.0,17.05,-1.13,-0.01,-0.18,-16.3,6.6,-11.6,36.37,,,,,,,,,,
15.10.00.109,391.2,97.8,0,,,58651.0,17.05,-1.16,0.16,-0.19,2.8,-7.7,-19.5,36.42,,,,,,,,,,
15.10.00.120,390.4,97.6,0,,,58651.0,17.05,-0.87,-0.31,-0.64,7.8,-12.8,-6.5,36.19,,,,,,,,,,
15.10.00.129,260.0,65.0,0,,,58651.0,17.05,-0.88,-0.41,-0.03,18.6,-3.0,-18.7,36.52,,,,,,,,,,
15.10.00.138,304.0,76.0,0,,,58651.0,17.05,-0.51,-0.03,0.17,37.2,-10.4,-7.5,36.39,,,,,,,,,,
15.10.00.148,206.5,51.6,0,,,58651.0,17.05,-0.82,0.05,0.07,-1.9,-1.4,8.8,36.26,,,,,,,,,,
15.10.00.157,152.4,38.1,0,,,58651.0,17.05,-1.11,-0.26,0.08,-8.0,-3.9,-9.9,36.06,,,,,,,,,,
15.10.00.168,76.3,19.1,0,,,58651.0,17.05,-0.58,-0.32,0.15,6.5,18.6,-0.9,36.19,,,,,,,,,,
15.10.00.179,-19.2,4.8,0,,,58651.0,17.05,-0.63,0.37,-0.11,9.8,-7.5,-11.1,36.49,,,,,,,,,,
15.10.00.186,3.9,1.0,0,,,58651.0,17.05,-0.81,-0.12,-0.11,6.9,35.6,-15.8,36.22,,,,,,,,,,
15.10.00.196,32.6,8.2,0,,,58651.0,17.05,-0.93,-0.48,-0.4,-0.9,11.8,-7.3,36.35,,,,,,,,,,
15.10.00.204,32.9,8.2,0,,,58651.0,17.05,-0.78,-0.45,-0.43,5.1,10.5,10.2,36.27,,,,,,,,,,
15.10.00.214,42.0,10.5,0,,,58651.0,17.05,-0.99,0.16,-0.56,-6.2,8.8,8.1,36.32,,,,,,,,,,
15.10.00.225,47.3,11.8,0,,,58651.0,17.05,-0.79,-0.5,-0.5,-1.6,12.8,-3.5,36.34,,,,,,,,,,
15.10.00.233,76.1,19.0,0,,,58651.0,17.05,-0.83,-0.34,-0.3,37.6,-6.5,3.3,36.29,,,,,,,,,,
15.10.00.244,65.3,16.3,0,,,58651.0,17.05,-0.53,-0.19,0.29,19.6,10.4,-9.1,36.37,,,,,,,,,,
15.10.00.253,50.5,12.6,0,,,58651.0,17.05,-0.53,-0.47,-0.06,8.2,0.3,-2.9,36.31,,,,,,,,,,
15.10.00.263,24.5,6.1,0,,,58651.0,17.05,-0.82,-0.5,-0.59,6.1,9.2,-13.4,36.46,,,,,,,,,,
15.10.00.272,10.7,2.7,0,,,58651.0,17.05,-1.02,-0.55,-0.35,3.1,-2.1,-4.0,36.25,,,,,,,,,,
15.10.00.283,18.0,4.5,0,,,58651.0,17.05,-0.84,-0.47,-0.61,13.4,-13.5,-13.2,36.48,,,,,,,,,,
15.10.00.293,1.2,0.3,0,,,58651.0,17.05,-0.52,0.19,-0.23,-11.2,10.6,13.8,36.38,,,,,,,,,,
15.10.00.302,-48.3,12.1,0,,,58651.0,17.05,-0.68,-0.01,-0.29,-7.9,16.4,19.2,36.22,,,,,,,,,,
15.10.00.311,-34.0,8.5,0,,,58651.0,17.05,-0.98,0.08,-0.08,35.6,0.4,-0.7,36.26,,,,,,,,,,
15.10.00.322,-32.5,8.1,0,,,58651.0,17.05,-0.91,-0.29,-0.45,-29.9,12.8,3.6,36.44,,,,,,,,,,
15.10.00.330,-26.9,6.7,0,,,58651.0,17.05,-1.1,-0.09,-0.67,17.3,-9.4,8.2,36.43,,,,,,,,,,
15.10.00.342,-17.2,4.3,0,,,58651.0,17.05,-0.73,-0.57,-0.49,-6.6,9.5,-25.5,36.61,,,,,,,,,,
15.10.00.353,-22.4,5.6,0,,,58651.0,17.05,-0.84,-0.35,-0.56,-4.5,2.2,-0.5,36.37,,,,,,,,,,
15.10.00.365,-40.0,10.0,0,,,58651.0,17.05,-0.68,-0.21,-0.53,-27.8,24.8,-8.5,36.35,,,,,,,,,,
15.10.00.376,-65.9,16.5,0,,,58651.0,17.05,-1.22,-0.58,0.11,19.0,-15.4,-10.8,36.27,,,,,,,,,,
15.10.00.384,-66.3,16.6,0,,,58651.0,17.05,-1.21,0.07,-0.16,-14.0,-16.2,-8.0,36.09,,,,,,,,,,
15.10.00.395,-88.5,22.1,0,,,58651.0,17.05,-0.67,-0.34,-0.27,26.8,14.6,-15.2,36.4,,,,,,,,,,
15.10.00.405,-95.0,23.8,0,,,58651.0,17.05,-1.11,-0.33,-0.28,-13.4,9.4,8.8,36.33,,,,,,,,,,
15.10.00.415,-75.2,18.8,0,,,58651.0,17.05,-0.7,-0.74,-0.69,1.9,22.5,-15.3,36.18,,,,,,,,,,
15.10.00.424,-77.0,19.2,0,,,58651.0,17.05,-0.7,-0.55,0.32,8.3,-0.1,15.1,36.18,,,,,,,,,,
15.10.00.434,-110.4,27.6,0,,,58651.0,17.05,-0.73,-0.2,0.23,13.2,-20.8,15.8,36.29,,,,,,,,,,
15.10.00.443,-111.7,27.9,0,,,58651.0,17.05,-0.51,-0.22,-0.11,30.1,-11.2,8.9,36.32,,,,,,,,,,
15.10.00.453,-133.7,33.4,0,,,58651.0,17.05,-0.73,-0.46,-0.38,21.3,2.4,13.6,36.41,,,,,,,,,,
15.10.00.464,-108.6,27.2,0,,,58651.0,17.05,-1.21,-0.37,0.2,-43.8,18.8,9.0,36.42,,,,,,,,,,
15.10.00.475,-114.5,28.6,0,,,58651.0,17.05,-0.91,-0.62,0.56,31.0,7.8,2.3,36.36,,,,,,,,,,
15.10.00.486,-107.0,26.8,0,,,58651.0,17.05,-0.45,-0.46,-0.3,-24.1,9.0,4.5,36.36,,,,,,,,,,
15.10.00.496,-149.9,37.5,0,,,58651.0,17.05,-0.83,-0.69,0.56,16.2,-4.6,7.3,36.32,,,,,,,,,,
15.10.00.504,-149.1,37.3,0,,,58651.0,17.05,-1.01,0.25,-0.33,-9.6,-2.0,9.6,36.37,,,,,,,,,,
15.10.00.513,25.7,6.4,1,1.0,,58651.0,17.05,-0.91,-0.05,-0.21,5.7,-3.6,20.5,36.16,,,,,,,,,,
15.10.00.522,87.3,21.8,0,,,58651.0,17.05,-0.87,-0.57,0.16,1.1,5.7,-21.2,36.41,,,,,,,,,,
15.10.00.534,162.9,40.7,0,,,58651.0,17.05,-0.76,-0.27,-0.03,-18.4,-0.3,-7.1,36.19,,,,,,,,,,
15.10.00.544,287.3,71.8,0,,,58651.0,17.05,-0.67,-0.18,0.08,15.8,-12.6,-21.5,36.41,,,,,,,,,,
15.10.00.553,301.3,75.3,0,,,58651.0,17.05,-0.78,-0.35,-0.38,12.0,-2.0,-11.9,36.3,,,,,,,,,,
15.10.00.564,313.8,78.4,0,,,58651.0,17.05,-1.31,-0.25,0.02,5.4,-3.5,7.3,36.38,,,,,,,,,,
15.10.00.573,335.9,84.0,0,,,58651.0,17.05,-0.74,-0.28,0.58,-2.6,-0.3,6.9,36.28,,,,,,,,,,
15.10.00.583,391.6,97.9,0,,,58651.0,17.05,-1.02,-0.2,0.33,2.7,14.1,-13.1,36.33,,,,,,,,,,
15.10.00.593,404.1,101.0,0,,,58651.0,17.05,-0.84,0.0,-0.54,-3.9,19.1,-1.9,36.2,,,,,,,,,,
15.10.00.603,402.9,100.7,0,,,58651.0,17.05,-1.02,0.13,-0.32,-8.7,15.2,4.9,36.12,,,,,,,,,,
15.10.00.613,407.5,101.9,0,,,58651.0,17.05,-0.86,-0.18,-0.25,-20.6,13.2,-4.6,36.42,,,,,,,,,,
15.10.00.624,357.8,89.4,0,,,58651.0,17.05,-1.0,0.14,0.17,4.7,39.0,-2.8,36.25,,,,,,,,,,
15.10.00.635,347.3,86.8,0,,,58651.0,17.05,-1.17,-0.37,-0.13,32.7,42.8,-14.8,36.17,,,,,,,,,,
15.10.00.646,274.2,68.6,0,,,58651.0,17.05,-0.59,0.3,-0.29,18.5,-9.1,-16.7,36.08,,,,,,,,,,
15.10.00.654,226.0,56.5,0,,,58651.0,17.05,-1.19,0.09,-0.44,12.0,23.8,-6.0,36.1,,,,,,,,,,
15.10.00.665,137.0,34.2,0,,,58651.0,17.05,-1.31,0.17,-0.25,-6.9,10.9,-12.7,36.18,,,,,,,,,,
15.10.00.673,83.6,20.9,0,,,58651.0,17.05,-1.07,-0.46,-0.25,10.5,1.0,17.6,36.15,,,,,,,,,,
15.10.00.680,38.3,9.6,0,,,58651.0,17.05,-1.07,-0.16,-0.13,36.8,-27.9,-5.6,36.26,,,,,,,,,,
15.10.00.688,-26.0,6.5,0,,,58651.0,17.05,-1.27,0.12,-0.61,-20.4,17.2,-2.4,36.37,,,,,,,,,,
15.10.00.695,37.7,9.4,0,,,58651.0,17.05,-0.9,-0.17,-0.64,-24.9,-0.7,-12.7,36.23,,,,,,,,,,
15.10.00.706,52.0,13.0,0,,,58651.0,17.05,-0.76,-0.04,-0.65,-20.5,-5.4,0.8,36.42,,,,,,,,,,
15.10.00.718,49.2,12.3,0,,,58651.0,17.05,-1.28,-0.03,-0.16,30.8,-23.6,-0.5,36.31,,,,,,,,,,
15.10.00.728,67.5,16.9,0,,,58651.0,17.05,-1.14,0.67,-0.2,14.1,-14.4,11.7,36.45,,,,,,,,,,
15.10.00.739,80.7,20.2,0,,,58651.0,17.05,-1.05,-0.19,-0.51,-2.0,19.1,10.4,36.43,,,,,,,,,,
15.10.00.748,58.4,14.6,0,,,58651.0,17.05,-1.11,-0.28,-0.02,-26.6,-3.3,-4.9,36.27,,,,,,,,,,
15.10.00.760,58.4,14.6,0,,,58651.0,17.05,-1.18,-0.28,-0.55,14.5,7.6,-4.4,36.32,,,,,,,,,,
15.10.00.769,50.4,12.6,0,,,58651.0,17.05,-0.54,0.24,-0.32,-6.9,16.2,10.6,36.39,,,,,,,,,,
15.10.00.775,47.1,11.8,0,,,58651.0,17.05,-1.0,-0.45,-0.19,-4.6,15.7,-9.5,36.37,,,,,,,,,,
15.10.00.784,33.2,8.3,0,,,58651.0,17.05,-0.84,-0.04,-0.58,2.9,11.3,16.8,36.35,,,,,,,,,,
15.10.00.792,1.3,0.3,0,,,58651.0,17.05,-0.86,-0.72,-0.43,2.5,-4.2,8.5,36.4,,,,,,,,,,
15.10.00.802,-28.2,7.0,0,,,58651.0,17.05,-0.98,-0.13,-0.38,3.4,12.7,12.0,36.1,,,,,,,,,,
15.10.00.809,-7.4,1.8,0,,,58651.0,17.05,-0.81,0.26,-0.46,3.0,7.2,6.6,36.34,,,,,,,,,,
15.10.00.817,-19.2,4.8,0,,,58651.0,17.05,-0.81,0.44,-0.33,-36.1,-13.9,-0.9,36.24,,,,,,,,,,
15.10.00.828,-41.0,10.2,0,,,58651.0,17.05,-0.91,-0.12,-0.38,29.0,33.9,-2.7,36.48,,,,,,,,,,
15.10.00.837,-32.4,8.1,0,,,58651.0,17.05,-1.03,0.03,-0.08,1.3,-8.9,8.5,36.16,,,,,,,,,,
15.10.00.847,-28.1,7.0,0,,,58651.0,17.05,-0.75,0.06,-0.61,-12.1,-10.9,-11.4,36.08,,,,,,,,,,
15.10.00.858,-17.6,4.4,0,,,58651.0,17.05,-0.64,-0.24,0.29,21.5,8.3,2.8,36.09,,,,,,,,,,
15.10.00.867,-15.9,4.0,0,,,58651.0,17.05,-1.18,0.18,0.01,-7.5,-1.8,-13.6,36.27,,,,,,,,,,
15.10.00.877,-72.3,18.1,0,,,58651.0,17.05,-0.97,-0.12,-0.05,-7.9,22.9,15.1,36.26,,,,,,,,,,
15.10.00.888,-82.1,20.5,0,,,58651.0,17.05,-1.2,0.08,-0.46,24.2,8.2,6.4,36.5,,,,,,,,,,
15.10.00.898,-82.5,20.6,0,,,58651.0,17.05,-0.67,-0.04,0.18,-5.1,1.4,2.2,36.34,,,,,,,,,,
15.10.00.907,-99.1,24.8,0,,,58651.0,17.05,-0.62,0.17,-0.2,13.8,4.4,5.5,36.08,,,,,,,,,,
15.10.00.918,-95.3,23.8,0,,,58651.0,17.05,-0.63,0.02,-0.18,-4.6,0.8,2.1,36.24,,,,,,,,,,
15.10.00.931,-85.7,21.4,0,,,58651.0,17.05,-0.55,-0.13,0.46,-6.7,-1.1,-11.4,35.96,,,,,,,,,,
15.10.00.943,-126.9,31.7,0,,,58651.0,17.05,-1.26,0.69,-0.24,3.6,4.0,2.8,36.13,,,,,,,,,,
15.10.00.951,-115.6,28.9,0,,,58651.0,17.05,-0.96,0.05,0.08,-4.3,11.7,-6.6,36.3,,,,,,,,,,
15.10.00.959,-139.4,34.8,0,,,58651.0,17.05,-1.03,0.6,0.29,-2.8,-6.5,-13.2,36.55,,,,,,,,,,
15.10.00.969,-136.6,34.2,1,2.0,131.6,58651.0,17.05,-0.56,0.25,-0.14,10.5,18.1,11.4,36.19,,,,,,,,,,
15.10.00.979,-163.4,40.8,0,,,58651.0,17.05,-0.69,-0.09,0.46,-9.3,30.2,-0.2,36.29,,,,,,,,,,
15.10.00.990,-174.2,43.6,0,,,58651.0,17.05,-0.5,-0.22,0.09,-28.5,9.9,4.2,36.35,,,,,,,,,,
15.10.00.999,-126.4,31.6,0,,,58685.4,17.04,-0.93,0.12,-0.39,-4.4,8.8,-12.5,36.51,,,,,,,,,,
15.10.01.008,-143.4,35.8,0,,,58685.4,17.04,-0.91,0.39,-0.03,39.0,16.0,2.1,36.37,,,,,,,,,,
15.10.01.019,15.7,3.9,0,,,58685.4,17.04,-0.78,-0.62,-0.17,-3.4,12.0,-19.2,36.17,,,,,,,,,,
15.10.01.029,107.0,26.8,0,,,58685.4,17.04,-0.75,-0.3,-0.25,2.7,12.6,-4.6,36.4,,,,,,,,,,
15.10.01.038,159.4,39.8,0,,,58685.4,17.04,-0.48,0.09,-0.33,-16.1,13.7,-1.2,36.16,,,,,,,,,,
15.10.01.047,196.7,49.2,0,,,58685.4,17.04,-0.88,0.04,0.21,-7.1,20.6,-16.0,36.5,,,,,,,,,,
15.10.01.054,279.8,70.0,0,,,58685.4,17.04,-0.86,0.12,0.29,-0.0,22.0,21.3,36.4,,,,,,,,,,
15.10.01.064,361.3,90.3,0,,,58685.4,17.04,-0.81,-0.02,-0.05,3.5,-1.0,1.7,36.39,,,,,,,,,,
15.10.01.072,354.2,88.6,0,,,58685.4,17.04,-0.55,-0.18,-0.05,37.1,13.1,-1.6,36.34,,,,,,,,,,
15.10.01.083,406.8,101.7,0,,,58685.4,17.04,-0.79,-0.21,-0.15,-10.6,-1.7,8.3,36.25,,,,,,,,,,
15.10.01.091,384.9,96.2,0,,,58685.4,17.04,-0.76,0.44,-0.07,-4.5,6.8,12.6,36.43,,,,,,,,,,
15.10.01.099,439.3,109.8,0,,,58685.4,17.04,-0.72,-0.01,-0.08,9.9,2.9,11.3,36.25,,,,,,,,,,
15.10.01.107,397.7,99.4,0,,,58685.4,17.04,-0.61,-0.18,-0.38,25.4,4.6,-1.7,36.48,,,,,,,,,,
15.10.01.115,348.4,87.1,0,,,58685.4,17.04,-0.6,-0.38,-0.33,29.3,8.0,-10.8,36.3,,,,,,,,,,
15.10.01.122,344.9,86.2,0,,,58685.4,17.04,-0.97,-0.03,-0.03,22.6,-6.2,19.3,36.38,,,,,,,,,,
15.10.01.130,354.1,88.5,0,,,58685.4,17.04,-1.1,0.11,-0.46,-17.1,16.2,5.1,36.41,,,,,,,,,,
15.10.01.140,311.5,77.9,0,,,58685.4,17.04,-0.71,-0.41,0.16,54.6,-11.2,-3.5,36.33,,,,,,,,,,
15.10.01.150,285.0,71.2,0,,,58685.4,17.04,-0.83,-0.13,-0.71,30.8,-1.0,-14.3,36.46,,,,,,,,,,
15.10.01.158,233.7,58.4,0,,,58685.4,17.04,-0.78,0.03,-0.41,14.1,3.0,-30.8,36.01,,,,,,,,,,
15.10.01.167,,,0,,,,,,,,,,,,,,,,,,,,,
15.10.01.178,122.0,30.5,0,,,58685.4,17.04,-0.61,-0.16,-0.01,2.0,24.2,12.3,36.14,,,,,,,,,,
15.10.01.189,26.6,6.6,0,,,58685.4,17.04,-0.94,-0.2,-0.28,0.8,11.3,12.3,36.48,,,,,,,,,,
15.10.01.197,15.6,3.9,0,,,58685.4,17.04,-0.58,-0.89,-0.5,17.5,-14.5,5.9,36.29,,,,,,,,,,
15.10.01.206,22.4,5.6,0,,,58685.4,17.04,-0.56,-0.74,-0.34,-0.8,2.0,28.1,36.41,,,,,,,,,,
15.10.01.215,45.8,11.4,0,,,58685.4,17.04,-0.54,-0.14,-0.01,-9.6,-6.3,18.8,36.2,,,,,,,,,,
15.10.01.222,77.7,19.4,0,,,58685.4,17.04,-0.88,-0.39,-0.23,-14.3,13.1,17.8,36.23,,,,,,,,,,
15.10.01.233,95.6,23.9,0,,,58685.4,17.04,-0.76,-0.52,-0.45,9.5,0.6,24.8,36.47,,,,,,,,,,
15.10.01.242,59.4,14.8,0,,,58685.4,17.04,-0.39,-0.43,-0.33,12.1,-16.7,11.3,36.37,,,,,,,,,,
15.10.01.252,74.4,18.6,0,,,58685.4,17.04,-0.82,-0.35,-0.06,-6.8,12.6,1.3,36.24,,,,,,,,,,
15.10.01.262,80.6,20.2,0,,,58685.4,17.04,-0.89,-0.3,-0.88,-4.2,10.6,-13.0,36.05,,,,,,,,,,
15.10.01.272,62.2,15.6,0,,,58685.4,17.04,-0.74,-0.26,-0.24,18.4,14.2,11.0,36.02,,,,,,,,,,
15.10.01.283,37.0,9.2,0,,,58685.4,17.04,-0.88,-0.38,0.33,-26.0,8.0,-2.1,36.24,,,,,,,,,,
15.10.01.292,-12.9,3.2,0,,,58685.4,17.04,-1.1,-0.11,0.17,19.9,-15.5,-2.9,36.36,,,,,,,,,,
15.10.01.303,-23.2,5.8,0,,,58685.4,17.04,-0.71,-0.45,0.11,-14.9,5.2,1.2,36.27,,,,,,,,,,
15.10.01.313,-32.7,8.2,0,,,58685.4,17.04,-0.87,-0.05,-0.57,-19.8,-15.7,11.5,36.38,,,,,,,,,,
15.10.01.319,-22.5,5.6,0,,,58685.4,17.04,-0.64,-0.77,-0.6,-29.6,-2.7,9.7,36.39,,,,,,,,,,
15.10.01.326,-41.1,10.3,0,,,58685.4,17.04,-1.23,-0.16,0.0,-10.6,36.3,-8.3,36.39,,,,,,,,,,
15.10.01.335,-27.0,6.8,0,,,58685.4,17.04,-0.94,-0.15,0.15,-0.7,10.7,2.1,36.29,,,,,,,,,,
15.10.01.342,-17.5,4.4,0,,,58685.4,17.04,-0.94,-0.46,-0.49,26.9,4.9,10.6,36.17,,,,,,,,,,
15.10.01.349,-38.2,9.6,0,,,58685.4,17.04,-1.36,-0.39,-0.3,-17.1,14.8,9.7,36.47,,,,,,,,,,
15.10.01.359,-42.7,10.7,0,,,58685.4,17.04,-0.86,-0.44,-0.2,-8.7,-2.5,10.4,36.35,,,,,,,,,,
15.10.01.369,-44.8,11.2,0,,,58685.4,17.04,-0.8,-0.31,-0.03,-1.0,3.5,-12.1,36.2,,,,,,,,,,
15.10.01.379,-59.6,14.9,0,,,58685.4,17.04,-0.89,-0.04,0.43,-7.0,5.6,-10.5,36.34,,,,,,,,,,
15.10.01.388,-57.5,14.4,0,,,58685.4,17.04,-0.48,-0.06,-0.15,-6.5,-4.6,2.5,36.22,,,,,,,,,,
15.10.01.399,-42.7,10.7,0,,,58685.4,17.04,-0.95,-0.12,-0.15,-12.8,22.4,-12.5,36.19,,,,,,,,,,
15.10.01.409,-62.8,15.7,0,,,58685.4,17.04,-0.78,-0.42,0.27,19.3,0.4,-12.8,36.13,,,,,,,,,,
15.10.01.420,-88.1,22.0,1,3.0,133.0,58685.4,17.04,-1.08,-0.56,-0.2,-11.7,7.2,9.0,36.09,,,,,,,,,,
15.10.01.429,-51.4,12.8,0,,,58685.4,17.04,-1.28,0.08,-0.09,21.7,15.1,-3.6,36.23,,,,,,,,,,
15.10.01.438,-107.8,27.0,0,,,58685.4,17.04,-0.68,0.07,0.08,-1.0,3.3,-1.7,36.13,,,,,,,,,,
15.10.01.447,-111.1,27.8,0,,,58685.4,17.04,-1.06,0.01,-0.35,-0.2,-15.2,5.4,36.11,,,,,,,,,,
15.10.01.455,-119.3,29.8,0,,,58685.4,17.04,-0.84,-0.07,0.38,8.4,10.5,-5.7,36.25,,,,,,,,,,
15.10.01.464,-125.6,31.4,0,,,58685.4,17.04,-1.07,0.03,-0.07,1.4,34.5,-10.1,36.26,,,,,,,,,,
15.10.01.472,-112.0,28.0,0,,,58685.4,17.04,-1.41,0.05,-0.73,-41.1,12.1,-10.3,36.16,,,,,,,,,,
15.10.01.480,-123.4,30.8,0,,,58685.4,17.04,-0.89,-0.39,-0.29,22.2,19.9,-1.2,36.54,,,,,,,,,,
15.10.01.489,-155.5,38.9,0,,,58685.4,17.04,-1.03,-0.28,-0.01,-43.1,8.6,-15.5,36.22,,,,,,,,,,
15.10.01.498,-128.1,32.0,0,,,58685.4,17.04,-0.81,-0.63,-0.27,5.5,-2.2,19.0,36.06,,,,,,,,,,
15.10.01.505,-137.6,34.4,0,,,58685.4,17.04,-0.91,-0.37,-0.46,-14.5,-11.7,2.8,36.59,,,,,,,,,,
15.10.01.513,-122.9,30.7,0,,,58685.4,17.04,-1.04,0.06,0.0,-3.8,15.4,-0.3,36.33,,,,,,,,,,
15.10.01.524,-11.2,2.8,0,,,58685.4,17.04,-1.39,-0.28,0.17,-19.1,-4.9,1.0,36.13,,,,,,,,,,
15.10.01.534,80.8,20.2,0,,,58685.4,17.04,-0.99,0.01,0.23,-10.6,22.7,-15.5,36.38,,,,,,,,,,
15.10.01.542,130.9,32.7,0,,,58685.4,17.04,-0.87,0.03,-0.26,12.3,3.2,-1.6,36.41,,,,,,,,,,
15.10.01.550,205.5,51.4,0,,,58685.4,17.04,-1.12,-0.04,0.11,34.1,16.9,10.8,36.34,,,,,,,,,,
15.10.01.559,240.8,60.2,0,,,58685.4,17.04,-0.46,0.12,-0.39,22.9,14.0,7.9,36.35,,,,,,,,,,
15.10.01.570,295.3,73.8,0,,,58685.4,17.04,-0.81,0.46,-0.38,22.6,5.3,15.7,36.15,,,,,,,,,,
15.10.01.582,338.1,84.5,0,,,58685.4,17.04,-1.13,-0.22,-0.83,1.2,10.5,8.2,36.45,,,,,,,,,,
15.10.01.595,419.5,104.9,0,,,58685.4,17.04,-1.02,-0.12,-0.28,-28.1,13.3,5.7,36.39,,,,,,,,,,
15.10.01.604,417.4,104.4,0,,,58685.4,17.04,-1.02,-0.12,-0.78,-3.4,-11.3,4.6,36.36,,,,,,,,,,
15.10.01.615,372.4,93.1,0,,,58685.4,17.04,-0.93,-0.05,-0.5,22.5,-10.4,8.9,36.29,,,,,,,,,,
15.10.01.625,396.2,99.0,0,,,58685.4,17.04,-0.72,0.41,-0.49,-0.1,24.9,-10.1,36.21,,,,,,,,,,
15.10.01.634,429.3,107.3,0,,,58685.4,17.04,-0.67,-0.25,-0.31,2.5,16.1,0.4,36.19,,,,,,,,,,
15.10.01.644,325.4,81.4,0,,,58685.4,17.04,-1.02,-0.12,-0.17,4.9,19.4,-6.1,36.25,,,,,,,,,,
15.10.01.655,255.8,64.0,0,,,58685.4,17.04,-1.03,-0.59,-0.24,10.4,23.2,-16.4,36.42,,,,,,,,,,
15.10.01.664,237.1,59.3,0,,,58685.4,17.04,-0.91,0.65,-0.04,-6.0,22.1,17.3,36.15,,,,,,,,,,
15.10.01.674,173.3,43.3,0,,,58685.4,17.04,-0.92,-0.37,-0.4,-33.0,4.5,-2.3,36.26,,,,,,,,,,
15.10.01.684,146.8,36.7,0,,,58685.4,17.04,-1.07,0.52,-0.02,-44.4,14.8,-5.7,36.3,,,,,,,,,,
15.10.01.693,50.4,12.6,0,,,58685.4,17.04,-1.02,0.23,0.07,-5.2,13.1,18.0,36.23,,,,,,,,,,
15.10.01.702,1.4,0.4,0,,,58685.4,17.04,-0.88,0.31,-0.45,-34.9,0.4,7.6,36.26,,,,,,,,,,
15.10.01.711,15.6,3.9,0,,,58685.4,17.04,-0.74,0.1,-0.7,-26.4,1.9,8.7,36.4,,,,,,,,,,
15.10.01.720,64.7,16.2,0,,,58685.4,17.04,-0.67,0.09,-0.34,1.9,3.1,-10.0,36.14,,,,,,,,,,
15.10.01.728,66.6,16.6,0,,,58685.4,17.04,-0.52,0.55,-0.59,-38.1,1.2,-13.2,36.09,,,,,,,,,,
15.10.01.739,89.0,22.2,0,,,58685.4,17.04,-0.48,0.53,-0.33,9.1,-0.6,-9.8,36.38,,,,,,,,,,
15.10.01.750,75.5,18.9,0,,,58685.4,17.04,-0.82,-0.41,-0.15,14.5,9.8,-3.4,36.28,,,,,,,,,,
15.10.01.761,78.7,19.7,0,,,58685.4,17.04,-1.0,-0.03,0.65,-17.1,39.4,10.4,36.26,,,,,,,,,,
15.10.01.769,62.6,15.6,0,,,58685.4,17.04,-0.87,-0.1,-0.03,-21.8,-0.2,-5.3,36.32,,,,,,,,,,
15.10.01.778,38.2,9.6,0,,,58685.4,17.04,-0.87,-0.01,0.09,-11.2,23.3,12.1,36.25,,,,,,,,,,
15.10.01.788,53.3,13.3,0,,,58685.4,17.04,-1.25,0.09,-0.03,-31.3,17.3,15.1,36.37,,,,,,,,,,
15.10.01.799,43.1,10.8,0,,,58685.4,17.04,-1.19,-0.65,-0.34,2.0,11.3,-3.6,36.63,,,,,,,,,,
15.10.01.807,-37.0,9.2,0,,,58685.4,17.04,-1.36,0.26,-0.29,-19.7,22.0,3.2,36.24,,,,,,,,,,
15.10.01.819,-19.8,5.0,0,,,58685.4,17.04,-1.26,0.02,0.17,-27.0,5.5,-6.5,36.38,,,,,,,,,,
15.10.01.828,-18.6,4.6,0,,,58685.4,17.04,-0.95,-0.17,-0.26,-14.8,17.3,-14.7,36.11,,,,,,,,,,
15.10.01.840,-16.3,4.1,0,,,58719.9,17.03,-1.03,-0.11,0.02,-10.0,4.9,-5.8,36.31,,,,,,,,,,
15.10.01.849,-15.0,3.8,0,,,58719.9,17.03,-0.64,0.15,-0.19,-16.7,14.5,19.2,36.34,,,,,,,,,,
15.10.01.858,-28.9,7.2,0,,,58719.9,17.03,-0.55,-0.41,-0.01,-19.4,7.5,-7.6,36.37,,,,,,,,,,
15.10.01.867,-75.1,18.8,0,,,58719.9,17.03,-0.74,-0.52,0.39,6.6,-8.2,12.1,36.65,,,,,,,,,,
15.10.01.877,-51.3,12.8,0,,,58719.9,17.03,-0.96,-0.29,-0.46,-10.0,12.5,12.2,36.23,,,,,,,,,,
15.10.01.885,-54.1,13.5,0,,,58719.9,17.03,-0.93,-0.43,0.4,2.9,-24.8,4.9,36.31,,,,,,,,,,
15.10.01.895,-87.1,21.8,1,4.0,126.3,58719.9,17.03,-0.88,-0.16,0.06,-4.4,9.0,8.2,36.22,,,,,,,,,,
15.10.01.905,-81.8,20.4,0,,,58719.9,17.03,-0.79,-0.49,-0.15,16.8,15.6,0.4,36.39,,,,,,,,,,
15.10.01.915,-81.3,20.3,0,,,58719.9,17.03,-0.71,-0.3,-0.62,0.0,16.5,3.2,36.21,,,,,,,,,,
15.10.01.925,-89.0,22.2,0,,,58719.9,17.03,-0.36,-0.21,-0.23,23.0,-4.1,-0.0,36.44,,,,,,,,,,
15.10.01.936,-84.8,21.2,0,,,58719.9,17.03,-1.17,-0.51,-0.24,-12.4,5.1,-2.5,36.23,,,,,,,,,,
15.10.01.945,-78.0,19.5,0,,,58719.9,17.03,-0.9,0.04,-0.42,19.2,-1.8,-12.4,36.22,,,,,,,,,,
15.10.01.954,-137.3,34.3,0,,,58719.9,17.03,-0.96,0.17,-0.22,-4.5,1.4,-7.1,36.24,,,,,,,,,,
15.10.01.964,-111.7,27.9,0,,,58719.9,17.03,-0.48,0.15,-0.33,19.2,13.2,11.3,36.21,,,,,,,,,,
15.10.01.974,-139.8,35.0,0,,,58719.9,17.03,-0.58,-0.36,-0.23,4.2,15.2,4.9,36.18,,,,,,,,,,
15.10.01.982,-139.1,34.8,0,,,58719.9,17.03,-0.74,0.26,-0.45,-10.2,-6.0,12.6,36.29,,,,,,,,,,
15.10.01.993,-139.4,34.8,0,,,58719.9,17.03,-0.95,-0.23,0.12,-6.8,12.7,-15.5,36.37,,,,,,,,,,
15.10.02.000,-112.7,28.2,0,,,58719.9,17.03,-0.98,-0.46,-0.46,-7.2,2.8,1.4,36.47,,,,,,,,,,
15.10.02.012,-137.8,34.4,0,,,58719.9,17.03,-0.81,-0.19,-0.2,7.6,17.0,-8.2,36.11,,,,,,,,,,
15.10.02.024,-161.7,40.4,0,,,58719.9,17.03,-0.85,-0.38,-0.49,6.4,8.4,-4.3,36.14,,,,,,,,,,
15.10.02.033,57.8,14.4,0,,,58719.9,17.03,-0.82,-0.11,-0.23,-10.9,10.0,-7.0,36.46,,,,,,,,,,
15.10.02.045,109.5,27.4,0,,,58719.9,17.03,-0.95,-0.48,-0.43,-18.6,-13.3,-14.9,36.36,,,,,,,,,,
15.10.02.055,164.4,41.1,0,,,58719.9,17.03,-0.95,0.08,-0.59,-1.9,-13.2,-11.6,36.25,,,,,,,,,,
15.10.02.065,226.6,56.6,0,,,58719.9,17.03,-0.87,-0.17,-0.34,23.0,-1.4,-13.7,36.29,,,,,,,,,,
15.10.02.076,275.3,68.8,0,,,58719.9,17.03,-0.93,-0.26,-0.43,20.8,2.6,1.7,36.42,,,,,,,,,,
15.10.02.087,373.2,93.3,0,,,58719.9,17.03,-0.77,-0.8,-0.17,-7.3,22.7,10.4,36.29,,,,,,,,,,
15.10.02.097,396.4,99.1,0,,,58719.9,17.03,-1.07,-0.04,-0.5,-0.1,11.6,-12.7,36.14,,,,,,,,,,
15.10.02.108,401.4,100.4,0,,,58719.9,17.03,-0.67,-0.17,-0.39,-8.1,14.2,0.5,36.39,,,,,,,,,,
15.10.02.117,426.6,106.6,0,,,58719.9,17.03,-0.67,-0.42,-0.38,-36.2,-15.4,-9.4,36.32,,,,,,,,,,
15.10.02.128,390.5,97.6,0,,,58719.9,17.03,-1.0,0.1,-0.28,-9.2,16.9,-10.3,36.4,,,,,,,,,,
15.10.02.137,374.4,93.6,0,,,58719.9,17.03,-0.73,-0.48,-0.32,-15.4,10.3,-3.0,36.3,,,,,,,,,,
15.10.02.146,320.5,80.1,0,,,58719.9,17.03,-0.45,-0.35,-0.0,-6.4,5.1,8.2,36.24,,,,,,,,,,
15.10.02.156,322.7,80.7,0,,,58719.9,17.03,-1.16,-0.97,-0.66,-4.8,10.8,-18.8,36.56,,,,,,,,,,
15.10.02.165,278.8,69.7,0,,,58719.9,17.03,-0.94,-0.87,-0.2,34.8,6.7,-9.0,36.4,,,,,,,,,,
15.10.02.173,243.1,60.8,0,,,58719.9,17.03,-0.74,-0.45,-0.01,-0.1,-10.4,15.8,36.38,,,,,,,,,,
15.10.02.181,182.7,45.7,0,,,58719.9,17.03,-1.04,-0.6,-0.2,-14.7,17.5,-11.2,36.24,,,,,,,,,,
15.10.02.189,119.6,29.9,0,,,58719.9,17.03,-1.29,-0.45,0.37,12.1,-12.1,-8.5,36.28,,,,,,,,,,
15.10.02.198,71.0,17.8,0,,,58719.9,17.03,-0.9,-0.27,-0.4,6.1,-15.1,6.3,36.24,,,,,,,,,,
15.10.02.208,-0.9,0.2,0,,,58719.9,17.03,-0.73,-0.26,-0.41,20.4,9.0,-13.7,36.29,,,,,,,,,,
15.10.02.218,13.3,3.3,0,,,58719.9,17.03,-0.63,-0.21,-0.15,2.6,-15.1,8.2,36.52,,,,,,,,,,
15.10.02.225,62.7,15.7,0,,,58719.9,17.03,-1.02,-0.62,0.23,9.3,-6.1,-1.1,36.07,,,,,,,,,,
15.10.02.235,56.4,14.1,0,,,58719.9,17.03,-0.84,-0.25,-0.38,-36.8,2.3,10.5,36.37,,,,,,,,,,
15.10.02.246,92.4,23.1,0,,,58719.9,17.03,-0.67,-0.24,0.0,4.0,4.2,-2.1,36.36,,,,,,,,,,
15.10.02.255,101.2,25.3,0,,,58719.9,17.03,-1.01,-0.65,0.07,7.1,12.3,6.3,36.11,,,,,,,,,,
15.10.02.264,61.6,15.4,0,,,58719.9,17.03,-1.08,-0.05,0.1,5.0,11.0,-4.1,36.51,,,,,,,,,,
15.10.02.273,66.3,16.6,0,,,58719.9,17.03,-1.25,-0.28,0.68,-21.8,6.3,9.3,36.48,,,,,,,,,,
15.10.02.281,36.2,9.0,0,,,58719.9,17.03,-0.77,-0.25,-0.05,-7.2,13.6,19.9,36.35,,,,,,,,,,
15.10.02.291,33.2,8.3,0,,,58719.9,17.03,-1.04,-0.03,-0.22,11.6,10.2,-14.9,36.2,,,,,,,,,,
15.10.02.300,10.8,2.7,0,,,58719.9,17.03,-0.88,-0.36,-0.39,-29.1,14.0,-6.3,36.19,,,,,,,,,,
15.10.02.310,17.1,4.3,0,,,58719.9,17.03,-0.95,-0.31,-0.3,-21.2,-18.6,-9.6,36.42,,,,,,,,,,
15.10.02.321,-29.8,7.4,0,,,58719.9,17.03,-1.22,-0.38,-0.12,6.0,-4.5,-11.0,36.33,,,,,,,,,,
15.10.02.333,-41.5,10.4,0,,,58719.9,17.03,-0.95,-0.28,0.22,-1.2,0.8,-0.2,36.38,,,,,,,,,,
15.10.02.342,-57.2,14.3,0,,,58719.9,17.03,-0.92,-0.21,-0.62,-8.9,23.3,-7.4,36.13,,,,,,,,,,
15.10.02.352,1.5,0.4,0,,,58719.9,17.03,-1.05,-0.16,-0.08,-31.4,2.2,-5.8,36.41,,,,,,,,,,
15.10.02.362,-44.6,11.2,0,,,58719.9,17.03,-0.95,0.13,-0.35,-0.0,10.0,2.5,36.26,,,,,,,,,,
15.10.02.372,-46.9,11.7,0,,,58719.9,17.03,-1.18,-0.17,-0.7,-0.8,12.7,-1.0,36.28,,,,,,,,,,
15.10.02.381,-59.9,15.0,0,,,58719.9,17.03,-1.23,-0.58,-0.05,20.0,14.6,9.6,36.38,,,,,,,,,,
15.10.02.391,-45.4,11.4,1,5.0,121.0,58719.9,17.03,-1.31,-0.31,0.42,0.1,8.5,-5.3,36.17,,,,,,,,,,
15.10.02.398,-28.9,7.2,0,,,58719.9,17.03,-0.81,-0.15,-0.5,-16.2,19.2,8.3,36.47,,,,,,,,,,
15.10.02.407,-53.7,13.4,0,,,58719.9,17.03,-0.92,0.2,-0.14,-2.7,0.5,-6.1,36.48,,,,,,,,,,
15.10.02.418,-44.7,11.2,0,,,58719.9,17.03,-1.22,-0.13,-0.03,-9.8,13.6,3.0,36.21,,,,,,,,,,
15.10.02.427,-102.9,25.7,0,,,58719.9,17.03,-0.94,-0.69,-0.29,-8.1,15.9,-1.7,36.54,,,,,,,,,,
15.10.02.438,-85.9,21.5,0,,,58719.9,17.03,-0.6,0.21,-0.19,28.6,5.6,5.1,36.23,,,,,,,,,,
15.10.02.448,-94.3,23.6,0,,,58719.9,17.03,-0.35,0.02,-0.22,-13.0,8.8,-1.1,36.35,,,,,,,,,,
15.10.02.458,-79.8,20.0,0,,,58719.9,17.03,-0.68,0.44,-0.35,28.1,24.7,15.7,36.11,,,,,,,,,,
15.10.02.469,-115.5,28.9,0,,,58719.9,17.03,-0.72,-0.23,-0.5,-6.4,-1.1,7.6,36.24,,,,,,,,,,
15.10.02.481,-131.2,32.8,0,,,58719.9,17.03,-1.0,0.08,-0.35,-16.3,6.7,-16.7,36.33,,,,,,,,,,
15.10.02.490,-154.2,38.6,0,,,58719.9,17.03,-1.06,0.25,-0.49,-13.4,3.8,6.3,36.33,,,,,,,,,,
15.10.02.498,-131.5,32.9,0,,,58719.9,17.03,-1.35,0.28,-0.17,14.0,-12.6,-15.7,36.55,,,,,,,,,,
15.10.02.506,-167.7,41.9,0,,,58719.9,17.03,-0.99,-0.21,-0.44,-29.8,-27.9,3.3,36.3,,,,,,,,,,
15.10.02.513,-98.2,24.6,0,,,58719.9,17.03,-1.33,-0.57,-0.1,-17.7,17.4,0.5,36.24,,,,,,,,,,
15.10.02.524,-152.0,38.0,0,,,58719.9,17.03,-1.18,0.14,-0.7,15.3,8.3,17.6,36.39,,,,,,,,,,
15.10.02.532,-132.2,33.0,0,,,58719.9,17.03,-0.83,-0.22,-0.4,46.0,21.2,6.4,36.11,,,,,,,,,,
15.10.02.542,60.3,15.1,0,,,58719.9,17.03,-0.9,0.33,-0.3,18.9,-9.5,-1.7,36.17,,,,,,,,,,
15.10.02.551,81.1,20.3,0,,,58719.9,17.03,-1.27,0.19,-0.42,-9.6,2.7,13.7,36.43,,,,,,,,,,
15.10.02.562,187.3,46.8,0,,,58754.4,17.02,-0.7,-0.2,-0.65,15.4,-19.3,-8.0,36.16,,,,,,,,,,
15.10.02.573,237.1,59.3,0,,,58754.4,17.02,-0.74,0.12,-0.66,22.6,13.6,9.2,36.52,,,,,,,,,,
15.10.02.583,307.2,76.8,0,,,58754.4,17.02,-0.75,0.0,-0.59,5.6,-12.3,-10.5,36.28,,,,,,,,,,
15.10.02.592,361.6,90.4,0,,,58754.4,17.02,-1.1,-0.31,-0.28,19.6,19.8,-7.6,36.36,,,,,,,,,,
15.10.02.603,396.6,99.2,0,,,58754.4,17.02,-1.21,0.36,-0.63,6.7,2.2,1.8,36.23,,,,,,,,,,
15.10.02.615,398.2,99.6,0,,,58754.4,17.02,-1.02,0.4,0.02,1.5,19.7,-2.2,36.4,,,,,,,,,,
15.10.02.625,331.6,82.9,0,,,58754.4,17.02,-0.81,-0.02,-0.14,-12.9,-9.0,6.2,36.28,,,,,,,,,,
15.10.02.633,378.5,94.6,0,,,58754.4,17.02,-0.76,-0.01,-0.26,-1.6,12.5,3.8,36.22,,,,,,,,,,
15.10.02.641,417.4,104.4,0,,,58754.4,17.02,-0.98,0.46,-0.04,-13.0,10.4,-7.2,36.38,,,,,,,,,,
15.10.02.652,393.7,98.4,0,,,58754.4,17.02,-0.78,0.1,0.4,29.2,19.6,7.2,36.41,,,,,,,,,,
15.10.02.665,323.8,81.0,0,,,58754.4,17.02,-0.87,0.26,0.13,3.9,-2.5,-2.5,36.54,,,,,,,,,,
15.10.02.676,254.8,63.7,0,,,58754.4,17.02,-0.6,0.28,-0.11,-12.1,-5.0,3.6,36.4,,,,,,,,,,
15.10.02.687,177.5,44.4,0,,,58754.4,17.02,-0.73,0.34,-0.28,-21.0,15.9,3.1,36.53,,,,,,,,,,
15.10.02.696,111.3,27.8,0,,,58754.4,17.02,-0.79,0.04,0.45,32.6,3.6,-5.7,36.33,,,,,,,,,,
15.10.02.707,46.1,11.5,0,,,58754.4,17.02,-0.71,0.31,-0.08,11.2,14.8,-10.5,36.46,,,,,,,,,,
15.10.02.716,-0.7,0.2,0,,,58754.4,17.02,-0.83,0.03,-0.69,0.0,15.4,4.9,36.23,,,,,,,,,,
15.10.02.727,31.9,8.0,0,,,58754.4,17.02,-0.72,-0.24,0.1,7.9,-12.9,-4.0,36.33,,,,,,,,,,
15.10.02.736,40.0,10.0,0,,,58754.4,17.02,-0.69,-0.16,-0.04,7.1,26.6,-14.9,36.18,,,,,,,,,,
15.10.02.747,46.1,11.5,0,,,58754.4,17.02,-0.58,0.21,0.22,-13.1,1.0,-7.9,36.34,,,,,,,,,,
15.10.02.757,65.3,16.3,0,,,58754.4,17.02,-0.44,0.0,0.27,9.0,-11.2,8.0,36.43,,,,,,,,,,
15.10.02.768,89.6,22.4,0,,,58754.4,17.02,-1.01,0.22,-0.39,12.7,11.5,-11.5,36.61,,,,,,,,,,
15.10.02.779,54.7,13.7,0,,,58754.4,17.02,-0.67,-0.38,-0.42,-5.7,6.3,-1.4,36.24,,,,,,,,,,
15.10.02.790,64.6,16.2,0,,,58754.4,17.02,-0.49,-0.03,-0.26,3.9,1.9,-6.5,36.27,,,,,,,,,,
15.10.02.799,32.4,8.1,0,,,58754.4,17.02,-0.8,0.66,-0.19,10.3,36.2,-1.2,36.13,,,,,,,,,,
15.10.02.808,34.0,8.5,0,,,58754.4,17.02,-1.27,0.09,-0.07,6.4,0.7,-23.1,36.29,,,,,,,,,,
15.10.02.819,-17.5,4.4,0,,,58754.4,17.02,-0.61,-0.45,0.08,5.3,-3.6,-12.7,36.28,,,,,,,,,,
15.10.02.829,12.5,3.1,0,,,58754.4,17.02,-0.52,-0.33,0.1,22.9,-24.9,-5.4,36.19,,,,,,,,,,
15.10.02.841,-13.0,3.2,0,,,58754.4,17.02,-0.64,-0.37,-0.08,2.7,7.2,2.3,36.32,,,,,,,,,,
15.10.02.849,17.3,4.3,0,,,58754.4,17.02,-0.76,-0.07,0.07,15.5,8.0,5.4,36.17,,,,,,,,,,
15.10.02.859,-29.7,7.4,1,6.0,128.2,58754.4,17.02,-0.95,-0.07,-0.18,0.6,32.0,10.7,36.3,,,,,,,,,,
15.10.02.871,-55.6,13.9,0,,,58754.4,17.02,-1.19,-0.22,-0.05,25.7,-0.3,-1.7,36.24,,,,,,,,,,
15.10.02.878,-66.5,16.6,0,,,58754.4,17.02,-1.07,-0.13,0.03,19.4,-15.9,-20.3,36.28,,,,,,,,,,
15.10.02.890,-50.1,12.5,0,,,58754.4,17.02,-1.0,0.15,0.15,1.2,6.9,25.1,36.28,,,,,,,,,,
15.10.02.899,-87.9,22.0,0,,,58754.4,17.02,-0.96,-0.26,-0.52,-9.8,15.4,-6.8,36.23,,,,,,,,,,
15.10.02.908,-37.9,9.5,0,,,58754.4,17.02,-0.74,0.51,-0.25,23.7,-9.9,-9.8,36.14,,,,,,,,,,
15.10.02.917,-57.8,14.4,0,,,58754.4,17.02,-0.61,-0.16,-0.03,-3.1,6.3,1.6,36.41,,,,,,,,,,
15.10.02.925,-80.4,20.1,0,,,58754.4,17.02,-0.89,-0.27,0.02,10.7,1.8,-15.5,36.27,,,,,,,,,,
15.10.02.934,-67.4,16.8,0,,,58754.4,17.02,-0.71,0.12,-0.69,3.1,21.4,10.2,36.15,,,,,,,,,,
15.10.02.946,-102.4,25.6,0,,,58754.4,17.02,-0.45,-0.31,-0.31,9.3,-1.5,-4.6,36.39,,,,,,,,,,
15.10.02.955,-83.3,20.8,0,,,58754.4,17.02,-0.75,-0.13,-0.2,16.9,24.1,18.8,36.27,,,,,,,,,,
15.10.02.965,-82.5,20.6,0,,,58754.4,17.02,-0.68,0.02,-0.34,-25.6,-2.7,8.1,36.51,,,,,,,,,,
15.10.02.974,-88.4,22.1,0,,,58754.4,17.02,-0.88,-0.18,-0.61,10.9,9.9,2.2,36.16,,,,,,,,,,
15.10.02.986,-96.6,24.2,0,,,58754.4,17.02,-1.15,-0.24,0.22,-16.8,-9.1,-25.2,36.4,,,,,,,,,,
15.10.02.996,-121.0,30.2,0,,,58754.4,17.02,-1.21,-0.08,-0.43,19.3,24.1,1.4,36.38,,,,,,,,,,
15.10.03.005,-178.5,44.6,0,,,58754.4,17.02,-0.63,-0.19,-0.21,-17.1,35.8,2.4,36.25,,,,,,,,,,
15.10.03.016,-156.8,39.2,0,,,58754.4,17.02,-0.78,-0.31,-0.09,11.9,18.7,-4.5,36.25,,,,,,,,,,
15.10.03.026,-156.7,39.2,0,,,58754.4,17.02,-0.9,-0.51,-0.23,-1.8,-0.9,5.6,36.29,,,,,,,,,,
15.10.03.037,-159.5,39.9,0,,,58754.4,17.02,-0.94,-0.62,-1.0,6.3,12.5,-22.8,36.37,,,,,,,,,,
15.10.03.048,56.9,14.2,0,,,58754.4,17.02,-1.43,-0.27,-0.33,21.4,-7.5,8.9,36.15,,,,,,,,,,
15.10.03.058,124.6,31.2,0,,,58754.4,17.02,-0.9,-0.17,-0.52,1.7,-7.6,4.1,36.23,,,,,,,,,,
15.10.03.069,181.8,45.4,0,,,58754.4,17.02,-1.0,0.12,-0.42,-4.2,-13.9,24.7,36.38,,,,,,,,,,
15.10.03.078,246.4,61.6,0,,,58754.4,17.02,-0.79,-0.36,0.1,17.2,17.1,15.4,36.35,,,,,,,,,,
15.10.03.087,303.3,75.8,0,,,58754.4,17.02,-0.88,-0.02,0.29,-3.8,17.7,-19.5,36.13,,,,,,,,,,
15.10.03.096,369.1,92.3,0,,,58754.4,17.02,-1.22,0.03,-0.48,-6.2,-4.2,-10.0,36.56,,,,,,,,,,
15.10.03.107,340.9,85.2,0,,,58754.4,17.02,-1.12,-0.64,-0.25,13.3,3.2,7.0,36.34,,,,,,,,,,
15.10.03.117,364.9,91.2,0,,,58754.4,17.02,-0.34,-0.35,0.22,23.4,-10.5,-11.7,36.37,,,,,,,,,,
15.10.03.125,402.5,100.6,0,,,58754.4,17.02,-1.07,-0.51,0.61,-20.5,15.1,-0.1,36.26,,,,,,,,,,
15.10.03.136,416.5,104.1,0,,,58754.4,17.02,-1.25,-0.3,-0.35,23.2,-5.9,-16.5,36.33,,,,,,,,,,
15.10.03.146,394.9,98.7,0,,,58754.4,17.02,-1.22,-0.16,-0.14,-8.2,0.4,-0.9,36.26,,,,,,,,,,
15.10.03.157,336.9,84.2,0,,,58754.4,17.02,-0.8,0.05,-0.24,29.8,11.0,-6.6,36.39,,,,,,,,,,
15.10.03.167,341.7,85.4,0,,,58754.4,17.02,-0.8,-0.39,-0.28,-2.0,23.9,5.2,36.38,,,,,,,,,,
15.10.03.175,294.2,73.6,0,,,58754.4,17.02,-0.85,-0.59,0.2,-11.5,-6.3,-2.4,36.23,,,,,,,,,,
15.10.03.185,254.2,63.6,0,,,58788.9,17.01,-1.1,-0.24,0.09,5.7,-27.6,13.6,36.39,,,,,,,,,,
15.10.03.194,190.7,47.7,0,,,58788.9,17.01,-0.94,0.09,-0.19,21.0,3.9,3.8,36.33,,,,,,,,,,
15.10.03.205,95.7,23.9,0,,,58788.9,17.01,-0.87,0.04,-0.24,-26.6,16.1,-2.6,36.45,,,,,,,,,,
15.10.03.216,26.2,6.6,0,,,58788.9,17.01,-1.03,-0.76,0.01,19.7,8.6,-21.5,36.39,,,,,,,,,,
15.10.03.226,2.1,0.5,0,,,58788.9,17.01,-1.09,-0.43,0.7,13.4,-6.4,6.7,36.5,,,,,,,,,,
15.10.03.235,28.3,7.1,0,,,58788.9,17.01,-1.11,-0.17,0.04,-10.3,4.7,6.0,36.07,,,,,,,,,,
15.10.03.244,67.8,17.0,0,,,58788.9,17.01,-0.66,-0.21,0.27,-0.2,31.5,-11.0,36.15,,,,,,,,,,
15.10.03.254,80.3,20.1,0,,,58788.9,17.01,-1.06,0.19,0.27,-4.7,-7.6,2.0,36.45,,,,,,,,,,
15.10.03.263,90.2,22.6,0,,,58788.9,17.01,-0.83,-0.23,-0.01,4.6,-1.2,11.8,36.41,,,,,,,,,,
15.10.03.273,50.3,12.6,0,,,58788.9,17.01,-0.88,0.23,0.31,24.8,-23.3,-6.0,36.36,,,,,,,,,,
15.10.03.282,88.2,22.0,0,,,58788.9,17.01,-0.97,-0.31,0.24,10.4,-0.7,-7.8,36.16,,,,,,,,,,
15.10.03.291,46.5,11.6,0,,,58788.9,17.01,-0.74,-0.15,-0.21,2.6,-2.2,1.2,36.17,,,,,,,,,,
15.10.03.299,40.9,10.2,0,,,58788.9,17.01,-0.97,-0.31,-0.83,9.4,5.8,-25.0,36.24,,,,,,,,,,
15.10.03.308,40.7,10.2,0,,,58788.9,17.01,-1.07,-0.03,-0.86,15.7,7.4,4.0,36.41,,,,,,,,,,
15.10.03.319,19.5,4.9,0,,,58788.9,17.01,-1.11,0.02,-0.21,5.8,18.4,-3.8,36.34,,,,,,,,,,
15.10.03.328,12.5,3.1,0,,,58788.9,17.01,-1.04,0.27,-0.31,26.1,-13.3,-18.0,36.07,,,,,,,,,,
15.10.03.337,-5.4,1.4,0,,,58788.9,17.01,-0.8,-0.71,-0.61,-20.9,12.8,-11.9,36.4,,,,,,,,,,
15.10.03.348,-12.8,3.2,0,,,58788.9,17.01,-0.99,0.11,-0.47,18.9,18.7,5.4,36.13,,,,,,,,,,
15.10.03.357,-1.3,0.3,1,7.0,120.5,58788.9,17.01,-0.58,-0.3,0.12,18.8,2.5,-9.4,36.47,,,,,,,,,,
15.10.03.366,-64.3,16.1,0,,,58788.9,17.01,-1.03,-0.01,-0.46,25.8,6.1,-6.9,36.21,,,,,,,,,,
15.10.03.377,-64.7,16.2,0,,,58788.9,17.01,-1.05,0.2,-0.34,37.6,0.8,-16.4,36.29,,,,,,,,,,
15.10.03.386,-49.3,12.3,0,,,58788.9,17.01,-1.1,0.56,-0.86,27.9,17.5,-8.6,36.26,,,,,,,,,,
15.10.03.397,-58.2,14.6,0,,,58788.9,17.01,-0.83,0.37,-0.27,7.3,7.7,10.5,36.32,,,,,,,,,,
15.10.03.406,-72.4,18.1,0,,,58788.9,17.01,-0.95,-0.39,-0.85,-26.9,13.8,-9.8,36.32,,,,,,,,,,
15.10.03.415,-70.1,17.5,0,,,58788.9,17.01,-1.34,-0.11,-0.33,6.0,9.9,1.6,36.42,,,,,,,,,,
15.10.03.425,-70.7,17.7,0,,,58788.9,17.01,-1.04,0.39,-0.6,4.0,-3.6,30.1,36.09,,,,,,,,,,
15.10.03.434,-106.7,26.7,0,,,58788.9,17.01,-0.9,-0.08,-0.36,5.6,1.7,4.3,36.53,,,,,,,,,,
15.10.03.444,-77.6,19.4,0,,,58788.9,17.01,-0.39,-0.14,-0.1,-20.8,13.9,2.9,36.31,,,,,,,,,,
15.10.03.453,-68.0,17.0,0,,,58788.9,17.01,-1.13,-0.06,-0.21,26.7,12.8,-0.7,36.25,,,,,,,,,,
15.10.03.461,-95.6,23.9,0,,,58788.9,17.01,-0.98,0.25,-0.02,-7.0,7.0,2.6,36.45,,,,,,,,,,
15.10.03.472,-100.0,25.0,0,,,58788.9,17.01,-0.96,0.16,-0.5,11.9,8.0,-5.2,36.46,,,,,,,,,,
15.10.03.481,-119.0,29.8,0,,,58788.9,17.01,-1.12,-0.1,-0.36,-19.2,14.4,-6.8,36.02,,,,,,,,,,
15.10.03.492,-117.8,29.4,0,,,58788.9,17.01,-0.87,0.24,-0.35,14.8,4.9,-3.3,36.2,,,,,,,,,,
15.10.03.500,-150.1,37.5,0,,,58788.9,17.01,-0.94,0.32,-0.62,15.7,3.5,-4.8,36.34,,,,,,,,,,
15.10.03.510,-174.4,43.6,0,,,58788.9,17.01,-0.95,-0.03,0.15,3.0,25.4,-10.7,36.2,,,,,,,,,,
15.10.03.520,-120.5,30.1,0,,,58788.9,17.01,-0.8,0.37,-0.39,7.1,-3.8,16.4,36.2,,,,,,,,,,
15.10.03.531,-159.1,39.8,0,,,58788.9,17.01,-0.97,0.36,-0.55,10.4,10.2,-7.7,36.39,,,,,,,,,,
15.10.03.542,-146.2,36.6,0,,,58788.9,17.01,-0.88,-0.43,0.32,26.1,-5.6,3.3,36.2,,,,,,,,,,
15.10.03.554,75.8,19.0,0,,,58788.9,17.01,-0.62,0.14,-0.58,-27.4,8.6,-6.9,36.22,,,,,,,,,,
15.10.03.564,130.0,32.5,0,,,58788.9,17.01,-0.83,0.07,-0.22,-41.8,1.9,15.1,36.41,,,,,,,,,,
15.10.03.573,188.1,47.0,0,,,58788.9,17.01,-0.81,0.46,0.18,0.2,-12.8,-3.1,36.46,,,,,,,,,,
15.10.03.585,263.1,65.8,0,,,58788.9,17.01,-1.04,0.36,0.13,-15.8,-0.1,-1.0,36.4,,,,,,,,,,
15.10.03.594,333.9,83.5,0,,,58788.9,17.01,-0.77,-0.01,-0.0,14.8,-8.8,15.1,36.3,,,,,,,,,,
15.10.03.601,326.6,81.6,0,,,58788.9,17.01,-0.22,0.15,0.05,-8.2,-25.2,16.0,36.17,,,,,,,,,,
15.10.03.610,380.0,95.0,0,,,58788.9,17.01,-0.86,0.42,-0.08,14.1,4.7,0.6,36.49,,,,,,,,,,
15.10.03.618,384.8,96.2,0,,,58788.9,17.01,-0.55,-0.36,0.26,4.9,-8.3,19.0,36.36,,,,,,,,,,
15.10.03.627,402.4,100.6,0,,,58788.9,17.01,-0.78,-0.37,-0.54,17.5,-13.8,-7.7,36.28,,,,,,,,,,
15.10.03.637,447.8,112.0,0,,,58788.9,17.01,-0.85,-0.02,-0.2,-13.6,30.6,-1.6,36.45,,,,,,,,,,
15.10.03.647,419.4,104.8,0,,,58788.9,17.01,-0.38,0.75,-0.01,-13.3,17.1,14.4,36.4,,,,,,,,,,
15.10.03.657,360.7,90.2,0,,,58788.9,17.01,-0.47,0.3,0.05,6.9,-17.5,-5.6,36.2,,,,,,,,,,
15.10.03.666,356.1,89.0,0,,,58788.9,17.01,-0.88,-0.18,-0.03,17.9,-4.8,-14.5,36.34,,,,,,,,,,
15.10.03.677,341.1,85.3,0,,,58823.5,17.0,-1.03,-0.04,0.14,19.4,17.3,-10.5,36.12,,,,,,,,,,
15.10.03.686,266.2,66.6,0,,,58823.5,17.0,-0.86,0.43,-0.1,24.6,46.5,-13.4,36.06,,,,,,,,,,
15.10.03.694,193.7,48.4,0,,,58823.5,17.0,-1.02,-0.07,0.33,-9.0,-12.7,10.0,36.44,,,,,,,,,,
15.10.03.704,132.3,33.1,0,,,58823.5,17.0,-0.57,0.37,-0.13,-3.1,15.3,1.5,36.19,,,,,,,,,,
15.10.03.713,97.6,24.4,0,,,58823.5,17.0,-1.16,0.11,-0.38,-3.3,-2.6,-2.3,36.25,,,,,,,,,,
15.10.03.723,23.1,5.8,0,,,58823.5,17.0,-0.89,-0.04,-0.29,-18.1,-4.0,9.1,36.51,,,,,,,,,,
15.10.03.733,40.3,10.1,0,,,58823.5,17.0,-0.82,0.11,0.04,-26.0,23.3,1.2,36.48,,,,,,,,,,
15.10.03.744,42.3,10.6,0,,,58823.5,17.0,-0.58,-0.31,0.11,-3.2,17.0,-10.5,36.29,,,,,,,,,,
15.10.03.756,52.0,13.0,0,,,58823.5,17.0,-0.78,-0.36,-0.45,14.3,5.0,-4.3,36.33,,,,,,,,,,
15.10.03.765,105.4,26.4,0,,,58823.5,17.0,-0.35,-0.06,-0.04,-12.7,-11.9,14.8,36.27,,,,,,,,,,
15.10.03.775,86.0,21.5,0,,,58823.5,17.0,-0.61,0.01,-0.61,-6.6,26.8,-3.3,36.41,,,,,,,,,,
15.10.03.786,81.8,20.4,0,,,58823.5,17.0,-0.88,-0.08,-0.48,10.6,21.1,-3.8,36.45,,,,,,,,,,
15.10.03.795,55.9,14.0,0,,,58823.5,17.0,-0.92,-0.12,-0.2,-8.7,18.0,5.1,36.28,,,,,,,,,,
15.10.03.807,39.5,9.9,0,,,58823.5,17.0,-0.89,-0.38,-0.92,22.3,14.4,9.4,36.43,,,,,,,,,,
15.10.03.817,12.1,3.0,0,,,58823.5,17.0,-0.72,-0.21,-0.57,27.5,12.2,12.2,36.45,,,,,,,,,,
15.10.03.825,0.9,0.2,1,8.0,128.2,58823.5,17.0,-0.5,-0.29,0.04,-2.0,-6.5,-29.3,36.11,,,,,,,,,,
15.10.03.836,-4.0,1.0,0,,,58823.5,17.0,-0.6,-0.09,-0.19,4.0,1.5,1.5,36.28,,,,,,,,,,
15.10.03.847,8.8,2.2,0,,,58823.5,17.0,-0.56,-0.28,-0.03,-31.9,16.2,-13.1,36.35,,,,,,,,,,
15.10.03.855,-55.9,14.0,0,,,58823.5,17.0,-0.89,0.31,-0.02,18.6,-0.5,8.6,36.09,,,,,,,,,,
15.10.03.865,-11.5,2.9,0,,,58823.5,17.0,-0.8,-0.19,-0.55,-14.2,-18.0,20.8,36.25,,,,,,,,,,
15.10.03.874,-0.7,0.2,0,,,58823.5,17.0,-1.12,-0.46,0.08,0.8,5.1,-23.2,36.23,,,,,,,,,,
15.10.03.880,-57.3,14.3,0,,,58823.5,17.0,-1.11,-0.72,-0.64,15.8,6.8,1.4,36.11,,,,,,,,,,
15.10.03.890,-30.3,7.6,0,,,58823.5,17.0,-0.87,0.02,-0.27,-22.5,22.0,-0.3,36.22,,,,,,,,,,
15.10.03.901,-60.5,15.1,0,,,58823.5,17.0,-0.61,-0.69,-0.7,1.3,14.6,12.9,36.28,,,,,,,,,,
15.10.03.911,-78.6,19.6,0,,,58823.5,17.0,-0.98,-0.46,-0.31,23.6,4.3,-17.3,36.41,,,,,,,,,,
15.10.03.922,-60.8,15.2,0,,,58823.5,17.0,-0.99,-0.19,-0.24,-10.1,4.8,5.1,36.03,,,,,,,,,,
15.10.03.932,-91.7,22.9,0,,,58823.5,17.0,-0.51,-0.13,0.1,-18.6,0.2,9.6,36.22,,,,,,,,,,
15.10.03.942,-113.1,28.3,0,,,58823.5,17.0,-1.02,-0.41,0.13,0.9,-6.2,-5.8,36.3,,,,,,,,,,
15.10.03.952,-118.4,29.6,0,,,58823.5,17.0,-1.04,-0.42,-0.03,10.4,2.0,4.4,36.23,,,,,,,,,,
15.10.03.960,-97.8,24.4,0,,,58823.5,17.0,-0.71,-0.22,-0.32,-24.6,-7.7,5.1,36.65,,,,,,,,,,
15.10.03.969,,,0,,,,,,,,,,,,,,,,,,,,,
15.10.03.980,-111.6,27.9,0,,,58823.5,17.0,-0.9,-0.42,0.17,15.8,17.4,-15.8,36.37,,,,,,,,,,
15.10.03.988,-119.2,29.8,0,,,58823.5,17.0,-0.8,-0.38,-0.33,36.0,32.5,2.4,36.33,,,,,,,,,,
15.10.03.997,-156.4,39.1,0,,,58823.5,17.0,-0.66,-0.04,0.06,-4.8,11.3,-12.3,36.1,,,,,,,,,,
15.10.04.008,-101.5,25.4,0,,,58823.5,17.0,-0.89,-0.15,-0.31,4.0,3.7,4.8,36.2,,,,,,,,,,
15.10.04.019,-149.7,37.4,0,,,58823.5,17.0,-0.93,-0.23,0.0,-2.5,10.9,4.1,36.26,,,,,,,,,,
15.10.04.028,-141.3,35.3,0,,,58823.5,17.0,-0.98,-0.34,0.31,29.6,6.5,-5.8,36.49,,,,,,,,,,
15.10.04.039,-198.6,49.6,0,,,58823.5,17.0,-1.14,-0.49,0.34,1.7,20.8,-14.4,36.27,,,,,,,,,,
15.10.04.048,-178.5,44.6,0,,,58823.5,17.0,-1.36,0.03,-0.32,-1.1,-11.9,3.1,36.52,,,,,,,,,,
15.10.04.057,56.6,14.2,0,,,58823.5,17.0,-0.83,-0.07,0.33,-26.1,15.3,12.2,36.11,,,,,,,,,,
15.10.04.067,101.8,25.4,0,,,58823.5,17.0,-0.87,-0.03,0.07,15.4,15.1,-5.4,36.37,,,,,,,,,,
15.10.04.076,155.9,39.0,0,,,58823.5,17.0,-1.18,-0.71,-0.51,-32.2,2.3,-6.8,36.16,,,,,,,,,,
15.10.04.086,235.5,58.9,0,,,58823.5,17.0,-1.17,-0.31,-0.11,18.3,15.6,-13.8,36.49,,,,,,,,,,
15.10.04.095,307.5,76.9,0,,,58823.5,17.0,-0.81,-0.25,-0.34,-9.2,-0.7,-4.3,36.2,,,,,,,,,,
15.10.04.105,329.2,82.3,0,,,58823.5,17.0,-1.15,0.21,-0.13,-9.6,-22.6,12.9,36.14,,,,,,,,,,
15.10.04.114,404.7,101.2,0,,,58823.5,17.0,-1.04,-0.51,-0.2,16.6,7.6,3.8,36.25,,,,,,,,,,
15.10.04.126,448.0,112.0,0,,,58823.5,17.0,-1.22,-0.18,-0.55,-4.4,19.5,2.9,36.13,,,,,,,,,,
15.10.04.136,388.2,97.0,0,,,58823.5,17.0,-1.22,-0.28,-0.79,-4.4,0.3,2.8,36.28,,,,,,,,,,
15.10.04.145,459.6,114.9,0,,,58823.5,17.0,-1.33,0.25,-0.04,-2.3,-5.7,10.2,36.23,,,,,,,,,,
15.10.04.155,382.0,95.5,0,,,58823.5,17.0,-1.17,0.24,-0.31,15.8,11.4,12.6,36.24,,,,,,,,,,
15.10.04.164,392.1,98.0,0,,,58823.5,17.0,-1.02,0.06,0.14,-19.3,-6.5,34.7,36.18,,,,,,,,,,
15.10.04.174,325.2,81.3,0,,,58823.5,17.0,-1.22,0.24,0.34,5.8,21.8,-15.1,36.35,,,,,,,,,,
15.10.04.183,298.4,74.6,0,,,58823.5,17.0,-1.16,-0.41,0.03,-9.8,-15.0,-16.5,36.31,,,,,,,,,,
15.10.04.192,252.7,63.2,0,,,58823.5,17.0,-1.07,-0.08,0.06,22.8,4.8,-20.2,36.27,,,,,,,,,,
15.10.04.203,187.3,46.8,0,,,58823.5,17.0,-1.2,-0.92,-0.16,10.8,11.3,18.6,36.35,,,,,,,,,,
15.10.04.214,94.4,23.6,0,,,58823.5,17.0,-0.57,-0.05,-0.42,-7.5,0.8,-20.1,36.36,,,,,,,,,,
15.10.04.224,34.3,8.6,0,,,58823.5,17.0,-0.91,-0.11,-0.41,-27.0,6.6,-6.7,36.12,,,,,,,,,,
15.10.04.236,43.4,10.8,0,,,58823.5,17.0,-1.13,0.08,-0.13,-4.3,11.8,-11.1,36.43,,,,,,,,,,
15.10.04.246,30.4,7.6,0,,,58858.2,16.99,-0.94,0.13,-0.18,-1.7,-11.8,20.3,36.31,,,,,,,,,,
15.10.04.254,67.7,16.9,0,,,58858.2,16.99,-1.03,-0.2,-0.56,-1.7,-29.6,17.5,36.25,,,,,,,,,,
15.10.04.264,60.2,15.0,0,,,58858.2,16.99,-0.9,0.13,-0.18,-16.4,-5.9,-3.7,36.53,,,,,,,,,,
15.10.04.274,105.3,26.3,0,,,58858.2,16.99,-1.18,-0.08,-0.3,6.7,11.5,-0.2,36.23,,,,,,,,,,
15.10.04.284,53.6,13.4,0,,,58858.2,16.99,-0.96,-0.36,-0.27,-14.3,-14.9,-3.7,36.15,,,,,,,,,,
15.10.04.292,64.2,16.0,0,,,58858.2,16.99,-0.68,0.13,-0.33,41.0,-5.2,2.3,36.3,,,,,,,,,,
15.10.04.301,83.4,20.8,1,9.0,126.1,58858.2,16.99,-1.05,0.04,-0.4,28.2,2.3,-14.0,36.37,,,,,,,,,,
15.10.04.313,48.8,12.2,0,,,58858.2,16.99,-0.98,-0.21,-0.02,-27.2,7.4,-13.6,36.32,,,,,,,,,,
15.10.04.324,-2.0,0.5,0,,,58858.2,16.99,-0.91,-0.15,-0.47,-2.3,22.6,-4.7,36.44,,,,,,,,,,
15.10.04.334,-22.8,5.7,0,,,58858.2,16.99,-0.74,-0.55,-0.29,16.6,13.5,7.7,36.28,,,,,,,,,,
15.10.04.344,19.4,4.8,0,,,58858.2,16.99,-0.87,-0.05,-0.76,-10.4,12.7,-12.7,36.21,,,,,,,,,,
15.10.04.353,-35.7,8.9,0,,,58858.2,16.99,-0.93,-0.09,-0.72,-11.9,8.0,16.1,36.39,,,,,,,,,,
15.10.04.362,-8.3,2.1,0,,,58858.2,16.99,-1.28,-0.39,-0.52,7.0,3.2,-12.2,36.35,,,,,,,,,,
15.10.04.372,-26.0,6.5,0,,,58858.2,16.99,-0.67,-0.25,-0.65,-4.1,-11.6,-13.0,36.26,,,,,,,,,,
15.10.04.382,-60.4,15.1,0,,,58858.2,16.99,-0.92,-0.22,0.08,1.8,16.7,-7.9,36.27,,,,,,,,,,
15.10.04.392,-45.9,11.5,0,,,58858.2,16.99,-1.06,0.27,-0.37,2.9,24.7,6.8,36.43,,,,,,,,,,
15.10.04.403,-51.3,12.8,0,,,58858.2,16.99,-1.05,0.2,-0.01,0.5,1.0,15.7,36.18,,,,,,,,,,
15.10.04.413,-52.9,13.2,0,,,58858.2,16.99,-0.68,0.3,-0.17,15.9,-10.1,-10.5,36.28,,,,,,,,,,
15.10.04.424,-51.6,12.9,0,,,58858.2,16.99,-0.91,-0.29,-0.39,-21.0,24.9,-4.3,36.4,,,,,,,,,,
15.10.04.436,-95.4,23.8,0,,,58858.2,16.99,-1.01,-0.15,-0.46,3.5,27.9,19.2,36.24,,,,,,,,,,
15.10.04.449,-60.9,15.2,0,,,58858.2,16.99,-0.46,0.3,-0.3,15.1,40.4,-12.0,36.23,,,,,,,,,,
15.10.04.461,-116.4,29.1,0,,,58858.2,16.99,-0.7,0.25,-0.69,29.8,-1.0,-3.0,36.31,,,,,,,,,,
15.10.04.471,-81.3,20.3,0,,,58858.2,16.99,-1.01,-0.16,-0.02,-1.4,10.0,6.6,36.27,,,,,,,,,,
15.10.04.481,-120.0,30.0,0,,,58858.2,16.99,-0.64,-0.06,0.13,-13.0,29.8,-6.6,36.27,,,,,,,,,,
15.10.04.492,-126.0,31.5,0,,,58858.2,16.99,-0.66,0.06,0.07,-27.7,18.7,-15.4,36.33,,,,,,,,,,
15.10.04.501,-133.1,33.3,0,,,58858.2,16.99,-0.75,0.03,-0.65,2.7,3.7,-10.6,36.17,,,,,,,,,,
15.10.04.509,-112.5,28.1,0,,,58858.2,16.99,-0.58,-0.21,0.24,28.7,0.2,1.1,36.4,,,,,,,,,,
15.10.04.520,-116.5,29.1,0,,,58858.2,16.99,-0.83,-0.03,0.34,-17.9,-10.5,-9.3,36.39,,,,,,,,,,
15.10.04.530,-135.5,33.9,0,,,58858.2,16.99,-0.83,-0.13,-0.09,18.7,-9.2,5.6,36.67,,,,,,,,,,
15.10.04.541,-122.0,30.5,0,,,58858.2,16.99,-0.45,-0.05,-0.24,-5.9,2.4,8.0,36.36,,,,,,,,,,
15.10.04.552,-127.6,31.9,0,,,58858.2,16.99,-0.96,0.23,-0.55,7.6,-0.9,8.3,36.27,,,,,,,,,,
15.10.04.563,40.1,10.0,0,,,58858.2,16.99,-0.67,0.19,0.51,-1.1,-9.5,13.0,36.29,,,,,,,,,,
15.10.04.572,118.3,29.6,0,,,58858.2,16.99,-0.55,0.2,-0.0,-23.3,20.4,-20.8,36.29,,,,,,,,,,
15.10.04.580,156.1,39.0,0,,,58858.2,16.99,-0.96,0.11,-0.55,-1.0,15.8,7.7,36.19,,,,,,,,,,
15.10.04.589,274.5,68.6,0,,,58858.2,16.99,-0.74,-0.2,-0.39,-11.1,35.7,11.5,36.49,,,,,,,,,,
15.10.04.598,245.3,61.3,0,,,58858.2,16.99,-0.74,-0.19,-0.15,-3.8,10.0,-1.6,36.34,,,,,,,,,,
15.10.04.608,307.7,76.9,0,,,58858.2,16.99,-0.73,-0.18,-0.12,6.2,29.7,-3.7,36.36,,,,,,,,,,
15.10.04.618,335.1,83.8,0,,,58858.2,16.99,-0.13,0.01,-0.68,15.3,4.0,2.1,36.35,,,,,,,,,,
15.10.04.628,404.4,101.1,0,,,58858.2,16.99,-0.6,-0.02,-0.42,-20.6,29.4,-12.6,36.39,,,,,,,,,,
15.10.04.636,427.4,106.8,0,,,58858.2,16.99,-0.54,0.32,-0.29,4.1,-8.5,-8.5,36.25,,,,,,,,,,
15.10.04.647,446.2,111.6,0,,,58858.2,16.99,-0.57,0.33,0.35,6.0,4.1,-11.9,36.35,,,,,,,,,,
15.10.04.656,426.1,106.5,0,,,58858.2,16.99,-0.46,-0.47,-0.28,-11.6,-7.5,12.2,36.09,,,,,,,,,,
15.10.04.666,382.3,95.6,0,,,58858.2,16.99,-0.44,-0.09,-0.21,-16.5,20.0,10.0,36.24,,,,,,,,,,
15.10.04.676,357.4,89.4,0,,,58858.2,16.99,-0.99,-0.09,-0.28,7.5,25.7,0.8,36.32,,,,,,,,,,
15.10.04.683,293.6,73.4,0,,,58858.2,16.99,-0.75,-0.15,-0.45,4.2,7.7,-5.7,36.33,,,,,,,,,,
15.10.04.690,270.9,67.7,0,,,58858.2,16.99,-0.45,-0.43,-0.1,7.4,-10.5,10.4,36.3,,,,,,,,,,
15.10.04.700,224.4,56.1,0,,,58858.2,16.99,-0.25,-0.05,-0.26,-10.2,-1.8,-5.0,36.23,,,,,,,,,,
15.10.04.711,151.9,38.0,0,,,58858.2,16.99,-1.01,-0.59,-0.3,0.4,7.9,5.1,36.34,,,,,,,,,,
15.10.04.720,102.1,25.5,0,,,58858.2,16.99,-0.9,-0.22,-0.18,-27.5,12.2,-2.9,36.08,,,,,,,,,,
15.10.04.730,24.2,6.0,0,,,58858.2,16.99,-0.58,-0.19,-0.54,8.5,0.7,0.3,36.2,,,,,,,,,,
15.10.04.740,30.8,7.7,0,,,58858.2,16.99,-0.91,-0.81,-0.09,-2.0,-6.7,5.4,36.3,,,,,,,,,,
15.10.04.751,30.5,7.6,0,,,58858.2,16.99,-0.95,-0.2,-0.58,-12.3,17.9,3.5,36.16,,,,,,,,,,
15.10.04.764,59.5,14.9,0,,,58858.2,16.99,-0.81,-0.32,-0.2,39.5,0.6,-10.8,36.32,,,,,,,,,,
15.10.04.776,83.5,20.9,0,,,58858.2,16.99,-0.75,0.2,-0.8,27.1,2.7,-15.2,36.44,,,,,,,,,,
15.10.04.786,63.2,15.8,0,,,58858.2,16.99,-0.93,0.11,-0.31,-2.0,28.2,3.8,36.28,,,,,,,,,,
15.10.04.795,56.0,14.0,0,,,58858.2,16.99,-0.7,-0.54,-0.48,13.4,-17.0,-6.0,36.29,,,,,,,,,,
15.10.04.806,46.4,11.6,0,,,58858.2,16.99,-0.98,-0.36,-0.02,0.5,-12.2,26.3,36.34,,,,,,,,,,
15.10.04.816,50.6,12.6,1,10.0,116.5,58858.2,16.99,-0.86,-0.44,-0.39,-43.3,-4.2,-1.3,36.08,,,,,,,,,,
15.10.04.827,5.5,1.4,0,,,58858.2,16.99,-0.69,-0.43,-0.6,2.4,-16.1,-8.4,36.41,,,,,,,,,,
15.10.04.838,-30.4,7.6,0,,,58858.2,16.99,-0.93,-0.29,-0.25,-5.0,10.7,-14.1,36.42,,,,,,,,,,
15.10.04.848,-8.1,2.0,0,,,58858.2,16.99,-0.43,-0.1,0.02,-19.5,9.2,4.4,36.23,,,,,,,,,,
15.10.04.857,-55.3,13.8,0,,,58858.2,16.99,-0.69,-0.47,-0.3,4.7,23.5,-1.8,36.22,,,,,,,,,,
15.10.04.865,-49.9,12.5,0,,,58858.2,16.99,-0.89,-0.83,0.02,-39.1,-3.5,3.8,36.18,,,,,,,,,,
15.10.04.874,-24.2,6.0,0,,,58858.2,16.99,-0.8,-0.19,-0.11,-3.6,23.6,-10.6,36.27,,,,,,,,,,
15.10.04.884,-43.5,10.9,0,,,58858.2,16.99,-0.88,-0.18,0.14,12.4,14.2,5.3,36.37,,,,,,,,,,
15.10.04.893,-50.7,12.7,0,,,58858.2,16.99,-0.68,-0.2,0.02,5.2,-1.4,-15.8,36.39,,,,,,,,,,
15.10.04.902,-74.1,18.5,0,,,58858.2,16.99,-1.19,-0.23,-0.12,-4.3,-10.5,-9.1,36.42,,,,,,,,,,
15.10.04.910,-69.1,17.3,0,,,58858.2,16.99,-1.13,-0.27,0.08,-9.4,23.4,-8.1,36.39,,,,,,,,,,
15.10.04.921,-24.2,6.0,0,,,58858.2,16.99,-1.04,-0.15,-0.28,-15.6,29.7,2.3,36.43,,,,,,,,,,
15.10.04.931,-71.2,17.8,0,,,58858.2,16.99,-0.82,-0.27,-0.38,-6.2,31.4,-10.0,36.2,,,,,,,,,,
15.10.04.943,-88.8,22.2,0,,,58858.2,16.99,-1.07,-0.56,0.54,20.0,-1.5,0.3,36.28,,,,,,,,,,
15.10.04.951,-105.0,26.2,0,,,58858.2,16.99,-1.11,-0.42,-0.38,-0.1,14.6,-6.1,36.5,,,,,,,,,,
15.10.04.960,-62.0,15.5,0,,,58858.2,16.99,-1.15,-0.6,-0.28,9.5,22.3,-5.4,36.39,,,,,,,,,,
15.10.04.973,-106.4,26.6,0,,,58892.8,16.98,-1.11,-0.71,0.15,1.2,15.1,-13.2,36.3,,,,,,,,,,
15.10.04.982,-74.0,18.5,0,,,58892.8,16.98,-1.24,-0.52,0.11,-29.9,-2.8,11.5,36.34,,,,,,,,,,
15.10.04.991,-110.0,27.5,0,,,58892.8,16.98,-0.87,-0.42,0.12,3.5,9.4,-2.3,36.19,,,,,,,,,,
15.10.05.001,-85.8,21.4,0,,,58892.8,16.98,-1.08,-0.0,0.28,6.0,16.3,-0.3,36.27,119.5,,,,,,,,,
15.10.05.009,-122.8,30.7,0,,,58892.8,16.98,-1.02,-0.46,-0.15,5.1,0.2,4.2,36.3,,,,,,,,,,
15.10.05.019,-129.4,32.4,0,,,58892.8,16.98,-1.27,0.02,0.08,-0.6,0.1,-7.3,36.28,,,,,,,,,,
15.10.05.027,-137.2,34.3,0,,,58892.8,16.98,-0.92,-0.33,-0.21,4.3,14.5,-13.0,36.3,,,,,,,,,,
15.10.05.038,-165.5,41.4,0,,,58892.8,16.98,-1.03,0.06,-0.17,-3.7,-6.8,-15.7,36.41,,,,,,,,,,
15.10.05.046,-157.5,39.4,0,,,58892.8,16.98,-0.78,0.2,0.2,-2.7,14.6,-0.9,36.46,,,,,,,,,,
15.10.05.056,-150.1,37.5,0,,,58892.8,16.98,-1.18,-0.46,0.34,13.0,-21.2,3.7,36.38,,,,,,,,,,
15.10.05.067,74.2,18.6,0,,,58892.8,16.98,-0.98,-0.4,-0.12,18.4,-3.5,5.2,36.36,,,,,,,,,,
15.10.05.076,118.8,29.7,0,,,58892.8,16.98,-0.45,-0.73,0.03,14.5,9.8,8.7,36.44,,,,,,,,,,
15.10.05.085,175.3,43.8,0,,,58892.8,16.98,-1.22,0.15,0.07,-23.0,6.3,-5.2,36.24,,,,,,,,,,
15.10.05.096,242.0,60.5,0,,,58892.8,16.98,-0.62,-0.22,-0.69,11.7,2.4,0.1,36.16,,,,,,,,,,
15.10.05.104,286.8,71.7,0,,,58892.8,16.98,-1.04,-0.43,-0.05,-4.2,-3.2,-4.3,36.34,,,,,,,,,,
15.10.05.114,376.0,94.0,0,,,58892.8,16.98,-1.28,0.24,0.11,1.7,6.8,-14.7,36.24,,,,,,,,,,
15.10.05.124,338.1,84.5,0,,,58892.8,16.98,-0.71,-0.06,-0.2,-10.0,6.3,-6.8,36.47,,,,,,,,,,
15.10.05.133,437.2,109.3,0,,,58892.8,16.98,-1.0,-0.62,-0.01,-14.7,9.1,10.1,36.18,,,,,,,,,,
15.10.05.144,380.2,95.0,0,,,58892.8,16.98,-1.32,0.25,-0.2,-11.2,6.6,5.1,36.11,,,,,,,,,,
15.10.05.154,475.0,118.8,0,,,58892.8,16.98,-1.2,0.28,-0.34,-4.2,-7.7,8.2,36.32,,,,,,,,,,
15.10.05.165,366.2,91.6,0,,,58892.8,16.98,-0.84,0.23,-0.07,-1.6,-17.7,5.4,36.32,,,,,,,,,,
15.10.05.174,390.0,97.5,0,,,58892.8,16.98,-1.19,-0.1,-0.24,12.0,19.4,6.8,36.29,,,,,,,,,,
15.10.05.186,328.6,82.2,0,,,58892.8,16.98,-1.11,-0.05,-0.3,2.3,10.7,-12.1,36.29,,,,,,,,,,
15.10.05.195,268.1,67.0,0,,,58892.8,16.98,-0.93,-0.2,-0.52,11.1,15.4,-4.8,36.22,,,,,,,,,,
15.10.05.203,207.9,52.0,0,,,58892.8,16.98,-1.21,-0.41,-0.47,-15.5,24.3,-10.7,36.42,,,,,,,,,,
15.10.05.215,123.6,30.9,0,,,58892.8,16.98,-0.76,-0.1,-0.49,36.2,22.0,-5.1,36.39,,,,,,,,,,
15.10.05.224,66.3,16.6,0,,,58892.8,16.98,-0.99,0.08,-0.78,-31.4,14.9,6.7,36.22,,,,,,,,,,
15.10.05.233,21.8,5.4,0,,,58892.8,16.98,-0.88,-0.07,-0.45,3.1,11.1,-1.2,36.37,,,,,,,,,,
15.10.05.243,39.3,9.8,0,,,58892.8,16.98,-0.92,-0.09,-0.21,-19.3,18.4,13.0,36.22,,,,,,,,,,
15.10.05.253,44.5,11.1,0,,,58892.8,16.98,-0.68,-0.04,-0.72,-7.9,11.2,33.1,36.47,,,,,,,,,,
15.10.05.262,46.2,11.6,0,,,58892.8,16.98,-1.25,0.56,-0.55,-19.9,3.3,3.6,36.47,,,,,,,,,,
15.10.05.271,69.2,17.3,1,11.0,131.9,58892.8,16.98,-1.18,0.06,-0.28,-16.8,10.7,12.8,36.44,,,,,,,,,,
15.10.05.279,99.1,24.8,0,,,58892.8,16.98,-0.83,-0.33,-0.17,-6.7,23.9,-5.9,36.37,,,,,,,,,,
15.10.05.288,72.5,18.1,0,,,58892.8,16.98,-0.99,0.12,-0.08,0.6,-8.9,-6.9,36.27,,,,,,,,,,
15.10.05.299,88.6,22.2,0,,,58892.8,16.98,-1.13,0.01,-0.58,5.3,-2.9,8.9,36.34,,,,,,,,,,
15.10.05.309,82.3,20.6,0,,,58892.8,16.98,-1.03,-0.35,-0.37,-18.6,6.1,-11.3,36.19,,,,,,,,,,
15.10.05.319,43.6,10.9,0,,,58892.8,16.98,-0.87,-0.32,-0.4,15.6,15.2,1.2,36.34,,,,,,,,,,
15.10.05.329,4.3,1.1,0,,,58892.8,16.98,-0.99,-0.14,-0.01,-0.5,10.0,13.2,36.3,,,,,,,,,,
15.10.05.337,19.3,4.8,0,,,58892.8,16.98,-0.73,-0.37,-0.68,-19.9,5.9,-1.6,36.25,,,,,,,,,,
15.10.05.347,0.8,0.2,0,,,58892.8,16.98,-1.08,-0.05,-0.24,-6.1,13.8,-2.1,36.3,,,,,,,,,,
15.10.05.356,-10.8,2.7,0,,,58892.8,16.98,-0.66,0.34,-0.16,-2.7,9.1,-9.9,36.33,,,,,,,,,,
15.10.05.366,-26.6,6.6,0,,,58892.8,16.98,-0.94,0.02,-0.0,27.2,7.3,3.1,36.31,,,,,,,,,,
15.10.05.376,-15.0,3.8,0,,,58892.8,16.98,-0.88,0.12,-0.23,12.3,6.5,-2.3,36.29,,,,,,,,,,
15.10.05.387,-67.5,16.9,0,,,58892.8,16.98,-0.81,0.47,-0.11,-32.1,25.3,8.6,36.51,,,,,,,,,,
15.10.05.397,-72.1,18.0,0,,,58927.5,16.97,-0.52,0.04,0.29,-3.8,-1.2,28.2,36.14,,,,,,,,,,
15.10.05.407,,,0,,,,,,,,,,,,,,,,,,,,,
15.10.05.416,-49.8,12.4,0,,,58927.5,16.97,-1.16,0.04,-0.07,11.7,8.8,-12.2,36.38,,,,,,,,,,
15.10.05.426,-58.1,14.5,0,,,58927.5,16.97,-0.5,0.54,0.05,-2.7,3.3,2.5,36.29,,,,,,,,,,
15.10.05.433,-95.7,23.9,0,,,58927.5,16.97,-0.75,-0.09,-0.07,-28.1,4.4,4.4,36.5,,,,,,,,,,
15.10.05.444,-75.4,18.8,0,,,58927.5,16.97,-0.5,0.34,-0.18,-5.8,4.5,-8.2,36.2,,,,,,,,,,
15.10.05.455,-76.7,19.2,0,,,58927.5,16.97,-0.57,0.04,0.2,-21.8,8.5,-10.8,36.23,,,,,,,,,,
15.10.05.466,-81.9,20.5,0,,,58927.5,16.97,-0.7,-0.25,0.09,-56.0,14.7,-4.9,36.35,,,,,,,,,,
15.10.05.476,-82.9,20.7,0,,,58927.5,16.97,-0.78,-0.22,-0.21,-19.7,10.5,-2.2,36.43,,,,,,,,,,
15.10.05.486,-114.2,28.6,0,,,58927.5,16.97,-0.72,0.1,-0.49,-9.8,17.2,10.8,36.52,,,,,,,,,,
15.10.05.496,-127.7,31.9,0,,,58927.5,16.97,-0.81,-0.2,0.58,34.5,-6.9,1.0,36.3,,,,,,,,,,
15.10.05.506,,,0,,,,,,,,,,,,,,,,,,,,,
15.10.05.518,-143.1,35.8,0,,,58927.5,16.97,-0.73,0.17,-0.3,1.0,6.3,-12.6,36.46,,,,,,,,,,
15.10.05.525,-160.4,40.1,0,,,58927.5,16.97,-0.48,0.2,-0.09,-8.1,-7.1,15.2,36.22,,,,,,,,,,
15.10.05.534,-97.7,24.4,0,,,58927.5,16.97,-0.55,0.07,0.0,-5.7,-0.3,-0.5,36.5,,,,,,,,,,
15.10.05.543,-161.8,40.4,0,,,58927.5,16.97,-0.41,-0.52,-0.25,0.8,-1.1,18.7,36.29,,,,,,,,,,
15.10.05.553,-160.0,40.0,0,,,58927.5,16.97,-0.62,-0.23,0.11,-25.5,28.9,5.9,36.38,,,,,,,,,,
15.10.05.564,-31.3,7.8,0,,,58927.5,16.97,-0.38,0.14,-0.38,-16.3,7.7,3.7,36.24,,,,,,,,,,
15.10.05.576,104.3,26.1,0,,,58927.5,16.97,-0.57,-0.1,-0.41,2.4,5.8,7.1,36.19,,,,,,,,,,
15.10.05.587,145.0,36.2,0,,,58927.5,16.97,-0.77,-0.31,-0.6,-11.3,1.3,7.4,36.29,,,,,,,,,,
15.10.05.597,280.2,70.0,0,,,58927.5,16.97,-0.84,-0.28,-0.49,6.3,4.2,-5.5,36.27,,,,,,,,,,
15.10.05.605,297.1,74.3,0,,,58927.5,16.97,-0.79,-0.54,0.01,17.2,-19.8,-11.4,36.32,,,,,,,,,,
15.10.05.614,351.8,88.0,0,,,58927.5,16.97,-1.06,-0.09,-0.23,15.1,4.6,1.7,36.32,,,,,,,,,,
15.10.05.625,427.1,106.8,0,,,58927.5,16.97,-1.19,-0.53,-0.22,-6.4,7.6,5.5,36.44,,,,,,,,,,
15.10.05.634,359.0,89.8,0,,,58927.5,16.97,-1.2,-0.23,-0.34,-20.2,8.2,-24.3,36.13,,,,,,,,,,
15.10.05.644,425.3,106.3,0,,,58927.5,16.97,-0.72,-0.66,-1.02,30.4,6.1,1.4,36.19,,,,,,,,,,
15.10.05.654,390.0,97.5,0,,,58927.5,16.97,-0.52,-0.12,-0.74,-4.2,17.2,9.6,36.44,,,,,,,,,,
15.10.05.663,385.4,96.4,0,,,58927.5,16.97,-0.96,-0.13,-0.13,4.8,-2.7,16.2,36.16,,,,,,,,,,
15.10.05.671,424.4,106.1,0,,,58927.5,16.97,-0.9,-0.6,-0.91,0.9,9.6,9.3,36.16,,,,,,,,,,
15.10.05.682,316.3,79.1,0,,,58927.5,16.97,-1.39,-0.42,-1.04,0.7,-1.6,15.4,36.09,,,,,,,,,,
15.10.05.691,330.1,82.5,0,,,58927.5,16.97,-0.99,-0.66,0.0,11.3,3.1,1.5,36.4,,,,,,,,,,
15.10.05.701,251.6,62.9,0,,,58927.5,16.97,-0.71,-0.32,-0.62,-6.0,-12.4,-15.6,36.25,,,,,,,,,,
15.10.05.712,175.4,43.8,0,,,58927.5,16.97,-0.94,-0.53,-0.07,-4.8,12.8,-3.3,36.39,,,,,,,,,,
15.10.05.722,146.4,36.6,1,12.0,133.0,58927.5,16.97,-0.99,-0.59,0.0,3.4,8.8,0.5,36.29,,,,,,,,,,
15.10.05.733,22.6,5.6,0,,,58927.5,16.97,-0.77,-0.44,-0.6,-24.6,9.5,-10.7,36.31,,,,,,,,,,
15.10.05.742,26.0,6.5,0,,,58927.5,16.97,-1.03,-0.62,0.13,11.6,-14.3,-21.8,36.36,,,,,,,,,,
15.10.05.753,45.5,11.4,0,,,58927.5,16.97,-0.75,-0.65,-0.23,15.4,16.2,-1.5,36.45,,,,,,,,,,
15.10.05.763,46.0,11.5,0,,,58927.5,16.97,-0.69,-0.26,-0.21,23.2,1.3,0.7,36.55,,,,,,,,,,
15.10.05.772,81.7,20.4,0,,,58927.5,16.97,-0.75,0.08,-0.43,-14.0,13.0,3.6,36.34,,,,,,,,,,
15.10.05.782,75.7,18.9,0,,,58927.5,16.97,-1.0,-0.28,-0.28,14.9,5.1,5.0,36.51,,,,,,,,,,
15.10.05.793,70.3,17.6,0,,,58927.5,16.97,-0.48,-0.47,0.22,-1.5,-17.3,-2.9,36.44,,,,,,,,,,
15.10.05.799,87.8,22.0,0,,,58927.5,16.97,-0.98,0.01,-0.1,3.7,8.2,-10.1,36.08,,,,,,,,,,
15.10.05.810,67.9,17.0,0,,,58962.3,16.96,-0.76,-0.51,-0.57,17.8,7.2,-0.2,36.21,,,,,,,,,,
15.10.05.819,30.3,7.6,0,,,58962.3,16.96,-1.4,-0.41,-0.41,-22.8,-8.8,9.2,36.21,,,,,,,,,,
15.10.05.829,33.4,8.4,0,,,58962.3,16.96,-1.02,0.01,0.33,-0.4,-13.0,0.4,36.28,,,,,,,,,,
15.10.05.840,-20.6,5.2,0,,,58962.3,16.96,-0.94,-0.42,-0.64,7.9,13.6,-14.2,36.41,,,,,,,,,,
15.10.05.852,-12.5,3.1,0,,,58962.3,16.96,-0.7,-0.11,-0.39,-23.8,-4.7,-4.7,36.25,,,,,,,,,,
15.10.05.862,-20.7,5.2,0,,,58962.3,16.96,-1.08,-0.55,0.33,-38.1,-1.7,9.5,36.47,,,,,,,,,,
15.10.05.873,-64.1,16.0,0,,,58962.3,16.96,-1.25,-0.15,-0.33,-5.4,19.3,1.3,36.21,,,,,,,,,,
15.10.05.883,-32.3,8.1,0,,,58962.3,16.96,-1.11,-0.52,-0.37,-0.6,5.1,0.6,36.29,,,,,,,,,,
15.10.05.895,-44.9,11.2,0,,,58962.3,16.96,-0.66,-0.02,0.22,-8.6,16.3,-25.2,36.16,,,,,,,,,,
15.10.05.904,-63.2,15.8,0,,,58962.3,16.96,-0.48,-0.31,-0.36,13.3,4.9,9.1,36.36,,,,,,,,,,
15.10.05.914,-70.2,17.6,0,,,58962.3,16.96,-0.73,-0.36,0.27,-24.5,9.7,-7.7,36.53,,,,,,,,,,
15.10.05.923,-76.0,19.0,0,,,58962.3,16.96,-1.3,-0.54,-0.05,12.1,13.0,-5.5,36.19,,,,,,,,,,
15.10.05.934,-78.1,19.5,0,,,58962.3,16.96,-0.8,-0.63,-0.45,11.6,9.5,-6.2,36.07,,,,,,,,,,
15.10.05.943,-80.5,20.1,0,,,58962.3,16.96,-0.92,-0.83,-0.1,12.4,-10.5,-5.6,36.12,,,,,,,,,,
15.10.05.953,-74.3,18.6,0,,,58962.3,16.96,-1.24,-0.31,0.27,-5.2,2.4,13.0,36.33,,,,,,,,,,
15.10.05.963,-86.0,21.5,0,,,58962.3,16.96,-1.06,-0.29,0.25,-11.2,18.3,10.7,36.23,,,,,,,,,,
15.10.05.973,-95.2,23.8,0,,,58962.3,16.96,-0.82,0.09,-0.11,-18.1,-6.3,-3.2,36.35,,,,,,,,,,
15.10.05.982,-118.7,29.7,0,,,58962.3,16.96,-0.66,-0.4,0.19,-2.9,31.0,-19.9,36.07,,,,,,,,,,
15.10.05.991,-112.2,28.0,0,,,58962.3,16.96,-0.74,0.03,-0.47,-6.0,-26.2,6.2,36.31,,,,,,,,,,
15.10.06.000,-140.8,35.2,0,,,58962.3,16.96,-0.93,0.31,0.0,-10.9,13.2,4.9,36.08,,,,,,,,,,
15.10.06.009,-122.9,30.7,0,,,58962.3,16.96,-1.34,-0.15,-0.68,-17.5,-10.0,5.8,36.32,,,,,,,,,,
15.10.06.020,-133.8,33.4,0,,,58962.3,16.96,-1.17,-0.2,-0.52,-9.3,0.7,-22.0,36.16,,,,,,,,,,
15.10.06.028,-142.3,35.6,0,,,58962.3,16.96,-0.86,-0.27,-0.42,-3.3,15.8,-3.7,36.33,,,,,,,,,,
15.10.06.039,-126.8,31.7,0,,,58962.3,16.96,-1.03,0.04,-0.1,-18.3,-11.9,-7.1,36.26,,,,,,,,,,
15.10.06.051,-177.4,44.4,0,,,58962.3,16.96,-0.96,0.28,-0.35,-17.8,22.8,12.9,36.48,,,,,,,,,,
15.10.06.061,-135.1,33.8,0,,,58962.3,16.96,-0.69,-0.06,-0.78,-16.2,-2.0,6.1,36.43,,,,,,,,,,
15.10.06.073,33.6,8.4,0,,,58962.3,16.96,-0.98,-0.06,-0.28,-17.8,0.8,-15.7,36.26,,,,,,,,,,
15.10.06.082,132.7,33.2,0,,,58962.3,16.96,-1.15,0.28,-0.88,8.5,-10.7,-20.1,36.5,,,,,,,,,,
15.10.06.094,210.7,52.7,0,,,58962.3,16.96,-0.77,-0.12,-0.24,15.2,2.7,9.4,36.38,,,,,,,,,,
15.10.06.104,241.8,60.4,0,,,58962.3,16.96,-0.95,0.51,-0.61,-5.2,-17.9,3.6,36.46,,,,,,,,,,
15.10.06.113,358.7,89.7,0,,,58962.3,16.96,-0.88,0.43,-0.55,-24.8,23.0,17.7,36.33,,,,,,,,,,
15.10.06.122,360.4,90.1,0,,,58962.3,16.96,-1.09,-0.39,-0.03,36.1,-16.3,-6.1,36.31,,,,,,,,,,
15.10.06.132,416.5,104.1,0,,,58962.3,16.96,-0.75,0.38,-0.27,-28.4,10.0,-5.3,36.31,,,,,,,,,,
15.10.06.142,414.7,103.7,0,,,58962.3,16.96,-0.83,0.12,-0.14,19.7,26.9,10.6,36.21,,,,,,,,,,
15.10.06.150,406.8,101.7,0,,,58962.3,16.96,-0.99,0.15,-0.31,26.5,3.8,2.2,36.2,,,,,,,,,,
15.10.06.159,389.4,97.4,0,,,58962.3,16.96,-1.04,0.14,0.23,15.1,6.7,-10.7,36.33,,,,,,,,,,
15.10.06.168,381.7,95.4,0,,,58962.3,16.96,-1.0,-0.01,-0.33,16.5,8.6,-17.0,36.33,,,,,,,,,,
15.10.06.178,387.8,97.0,1,13.0,131.6,58962.3,16.96,-1.03,0.4,-0.4,16.6,24.8,-8.8,36.45,,,,,,,,,,
15.10.06.187,323.7,80.9,0,,,58962.3,16.96,-0.79,0.05,-0.65,15.8,-4.1,13.1,36.37,,,,,,,,,,
15.10.06.197,,,0,,,,,,,,,,,,,,,,,,,,,
15.10.06.205,255.4,63.8,0,,,58962.3,16.96,-0.69,0.25,-1.02,-2.5,6.1,-12.1,36.36,,,,,,,,,,
15.10.06.212,200.9,50.2,0,,,58962.3,16.96,-0.49,-0.77,-0.2,23.2,26.3,-0.2,36.18,,,,,,,,,,
15.10.06.222,152.2,38.0,0,,,58962.3,16.96,-0.65,0.52,0.18,-39.7,3.4,-14.4,36.3,,,,,,,,,,
15.10.06.232,66.8,16.7,0,,,58962.3,16.96,-0.72,0.11,0.35,-2.6,1.5,-3.2,36.41,,,,,,,,,,
15.10.06.239,26.7,6.7,0,,,58962.3,16.96,-0.96,0.32,0.33,-18.2,19.7,0.0,36.32,,,,,,,,,,
15.10.06.248,6.1,1.5,0,,,58962.3,16.96,-0.47,0.24,-0.06,13.2,16.8,-3.8,36.27,,,,,,,,,,
15.10.06.257,41.1,10.3,0,,,58962.3,16.96,-1.05,-0.33,-0.09,5.0,25.3,-6.3,36.17,,,,,,,,,,
15.10.06.267,39.5,9.9,0,,,58962.3,16.96,-0.74,0.28,0.32,0.1,5.9,-11.6,36.42,,,,,,,,,,
15.10.06.276,89.6,22.4,0,,,58962.3,16.96,-1.04,-0.05,-0.02,15.2,31.0,-15.3,36.21,,,,,,,,,,
15.10.06.286,51.6,12.9,0,,,58962.3,16.96,-0.94,0.15,-0.23,16.8,41.5,7.6,36.16,,,,,,,,,,
15.10.06.295,98.7,24.7,0,,,58962.3,16.96,-1.12,-0.11,-0.04,-12.7,4.1,29.1,36.25,,,,,,,,,,
15.10.06.305,45.4,11.4,0,,,58962.3,16.96,-0.84,0.11,-0.12,-24.7,-2.3,-12.9,36.21,,,,,,,,,,
15.10.06.313,63.8,16.0,0,,,58997.1,16.95,-1.04,0.12,-0.08,2.7,4.3,23.7,36.31,,,,,,,,,,
15.10.06.323,18.0,4.5,0,,,58997.1,16.95,-0.54,-0.11,0.17,15.7,-3.8,7.7,36.41,,,,,,,,,,
15.10.06.335,2.6,0.6,0,,,58997.1,16.95,-0.59,0.3,-0.14,3.8,46.8,15.0,36.27,,,,,,,,,,
15.10.06.346,-14.3,3.6,0,,,58997.1,16.95,-1.03,0.03,-0.3,-24.9,8.5,1.0,36.36,,,,,,,,,,
15.10.06.356,-11.5,2.9,0,,,58997.1,16.95,-1.1,-0.15,-0.36,-10.4,2.9,10.0,36.33,,,,,,,,,,
15.10.06.366,4.3,1.1,0,,,58997.1,16.95,-0.45,0.19,-0.15,1.1,8.3,1.9,36.3,,,,,,,,,,
15.10.06.376,-4.2,1.0,0,,,58997.1,16.95,-0.6,-0.16,0.18,-4.7,-2.7,14.1,36.38,,,,,,,,,,
15.10.06.385,-43.1,10.8,0,,,58997.1,16.95,-0.86,-0.35,-0.57,-30.3,5.5,-14.0,36.42,,,,,,,,,,
15.10.06.395,-56.5,14.1,0,,,58997.1,16.95,-0.86,-0.71,-0.02,-35.1,-19.0,2.9,36.4,,,,,,,,,,
15.10.06.403,-29.7,7.4,0,,,58997.1,16.95,-0.72,0.17,0.54,-1.6,11.2,-13.5,36.26,,,,,,,,,,
15.10.06.412,-48.3,12.1,0,,,58997.1,16.95,-0.72,-0.24,-0.33,-14.4,-15.8,11.8,36.37,,,,,,,,,,
15.10.06.423,-51.8,13.0,0,,,58997.1,16.95,-0.76,-0.21,0.32,-2.7,-11.1,5.5,36.18,,,,,,,,,,
15.10.06.434,-76.5,19.1,0,,,58997.1,16.95,-0.93,-0.42,-0.26,9.2,-25.6,-1.5,36.56,,,,,,,,,,
15.10.06.443,-56.8,14.2,0,,,58997.1,16.95,-0.73,0.14,-0.16,24.6,-4.7,0.4,36.21,,,,,,,,,,
15.10.06.455,-77.4,19.4,0,,,58997.1,16.95,-0.82,-0.53,-0.34,-12.7,-4.1,13.7,36.37,,,,,,,,,,
15.10.06.464,-73.4,18.4,0,,,58997.1,16.95,-0.9,-0.34,-0.11,-18.7,-13.4,1.4,36.14,,,,,,,,,,
15.10.06.474,-116.8,29.2,0,,,58997.1,16.95,-0.45,-0.06,-0.59,0.0,23.3,-17.0,36.19,,,,,,,,,,
15.10.06.484,-102.4,25.6,0,,,58997.1,16.95,-0.69,-0.21,-0.67,-0.6,-1.4,6.0,36.34,,,,,,,,,,
15.10.06.493,-128.1,32.0,0,,,58997.1,16.95,-0.62,-0.13,0.07,4.1,7.3,9.7,36.46,,,,,,,,,,
15.10.06.503,-134.8,33.7,0,,,58997.1,16.95,-0.71,-0.52,-0.71,-4.8,19.9,7.9,36.35,,,,,,,,,,
15.10.06.512,-134.1,33.5,0,,,58997.1,16.95,-0.8,-0.37,-0.39,-4.1,1.2,16.5,36.26,,,,,,,,,,
15.10.06.521,-152.4,38.1,0,,,58997.1,16.95,-0.7,-0.3,-0.31,14.1,6.3,0.6,36.35,,,,,,,,,,
15.10.06.532,-130.3,32.6,0,,,58997.1,16.95,-0.82,-0.46,-0.52,22.2,-5.8,-3.7,36.48,,,,,,,,,,
15.10.06.539,-152.3,38.1,0,,,58997.1,16.95,-0.38,-0.86,-0.09,6.9,16.2,-14.5,36.4,,,,,,,,,,
15.10.06.552,-173.7,43.4,0,,,58997.1,16.95,-0.79,-0.71,-0.41,-9.8,10.9,-3.7,36.25,,,,,,,,,,
15.10.06.562,-128.8,32.2,0,,,58997.1,16.95,-0.95,-0.41,-0.17,15.7,23.0,-8.5,36.25,,,,,,,,,,
15.10.06.569,8.3,2.1,0,,,58997.1,16.95,-0.82,-0.91,0.08,5.4,6.2,-0.8,36.22,,,,,,,,,,
15.10.06.580,85.4,21.4,0,,,58997.1,16.95,-0.78,-0.29,-0.46,-15.4,0.6,-9.6,36.02,,,,,,,,,,
15.10.06.590,143.5,35.9,0,,,58997.1,16.95,-0.74,-0.33,-0.49,-0.2,10.6,-3.9,36.31,,,,,,,,,,
15.10.06.598,184.2,46.0,0,,,58997.1,16.95,-0.85,-0.13,-0.58,30.9,1.9,-20.1,36.41,,,,,,,,,,
15.10.06.609,312.0,78.0,0,,,58997.1,16.95,-0.84,-0.75,-0.56,14.6,19.2,-2.9,36.43,,,,,,,,,,
15.10.06.617,322.1,80.5,0,,,58997.1,16.95,-0.83,-0.4,-0.9,-19.0,-5.1,-16.8,36.32,,,,,,,,,,
15.10.06.626,353.6,88.4,0,,,58997.1,16.95,-0.77,0.04,-0.29,-17.4,-1.0,16.5,36.37,,,,,,,,,,
15.10.06.635,352.0,88.0,1,14.0,131.3,58997.1,16.95,-0.76,-0.56,-0.11,-0.1,1.0,-0.6,36.27,,,,,,,,,,
15.10.06.645,399.1,99.8,0,,,58997.1,16.95,-0.86,-0.17,-0.07,-34.7,26.0,0.3,36.29,,,,,,,,,,
15.10.06.656,438.4,109.6,0,,,58997.1,16.95,-0.96,-0.24,-0.53,-12.8,25.2,-5.4,36.24,,,,,,,,,,
15.10.06.665,426.5,106.6,0,,,58997.1,16.95,-1.28,-0.22,-0.27,3.1,-0.4,7.9,36.05,,,,,,,,,,
15.10.06.675,345.9,86.5,0,,,58997.1,16.95,-1.08,-0.19,0.18,-4.1,-7.0,1.3,36.21,,,,,,,,,,
15.10.06.684,348.8,87.2,0,,,58997.1,16.95,-0.83,-0.42,-0.01,45.8,5.7,-10.5,36.4,,,,,,,,,,
15.10.06.695,300.2,75.0,0,,,58997.1,16.95,-0.75,-0.24,0.49,-9.8,7.5,-19.3,36.38,,,,,,,,,,
15.10.06.706,271.7,67.9,0,,,58997.1,16.95,-0.71,0.09,-0.31,-13.6,17.2,-8.5,36.16,,,,,,,,,,
15.10.06.716,186.1,46.5,0,,,58997.1,16.95,-0.81,-0.43,0.09,-7.8,-4.7,-7.6,36.21,,,,,,,,,,
15.10.06.726,91.5,22.9,0,,,58997.1,16.95,-1.2,-0.14,-0.29,7.6,20.2,16.9,36.12,,,,,,,,,,
15.10.06.734,45.0,11.2,0,,,58997.1,16.95,-0.84,-0.32,0.38,-15.3,9.4,-10.8,36.47,,,,,,,,,,
15.10.06.743,-26.7,6.7,0,,,58997.1,16.95,-1.04,0.27,0.03,-10.7,-22.2,1.4,36.44,,,,,,,,,,
15.10.06.751,42.0,10.5,0,,,58997.1,16.95,-0.88,-0.02,-0.37,17.6,22.4,2.4,36.34,,,,,,,,,,
15.10.06.760,40.5,10.1,0,,,58997.1,16.95,-0.9,-0.51,-0.3,-7.1,11.8,-13.1,36.22,,,,,,,,,,
15.10.06.769,57.2,14.3,0,,,58997.1,16.95,-1.05,0.13,-0.29,-13.7,-0.3,11.1,36.27,,,,,,,,,,
15.10.06.778,60.2,15.0,0,,,58997.1,16.95,-1.23,0.17,-0.29,27.0,2.1,7.3,36.25,,,,,,,,,,
15.10.06.789,34.9,8.7,0,,,58997.1,16.95,-0.45,0.0,0.23,-18.0,-5.2,2.6,36.22,,,,,,,,,,
15.10.06.800,60.5,15.1,0,,,58997.1,16.95,-1.08,0.46,-0.1,10.3,8.6,-6.1,36.27,,,,,,,,,,
15.10.06.810,56.8,14.2,0,,,58997.1,16.95,-0.98,-0.38,0.07,1.2,-0.8,6.7,36.16,,,,,,,,,,
15.10.06.818,72.9,18.2,0,,,58997.1,16.95,-0.95,-0.2,-0.26,23.2,-11.6,-0.3,36.36,,,,,,,,,,
15.10.06.826,45.0,11.2,0,,,58997.1,16.95,-1.35,-0.07,-0.09,22.3,7.4,7.4,36.27,,,,,,,,,,
15.10.06.837,28.5,7.1,0,,,58997.1,16.95,-1.17,-0.38,-0.73,-20.3,-6.6,-8.9,36.35,,,,,,,,,,
15.10.06.848,-45.9,11.5,0,,,58997.1,16.95,-1.12,-0.23,0.13,19.4,11.9,20.1,36.42,,,,,,,,,,
15.10.06.859,-26.6,6.6,0,,,58997.1,16.95,-0.87,0.29,0.12,8.8,7.8,-12.3,36.04,,,,,,,,,,
15.10.06.870,-10.5,2.6,0,,,58997.1,16.95,-1.14,-0.25,-0.01,-24.4,-22.1,-9.0,36.62,,,,,,,,,,
15.10.06.878,-47.5,11.9,0,,,58997.1,16.95,-0.85,-0.46,0.02,21.2,44.2,-0.0,36.37,,,,,,,,,,
15.10.06.887,-52.1,13.0,0,,,58997.1,16.95,-1.06,-0.25,-0.21,-25.4,5.0,15.3,36.39,,,,,,,,,,
15.10.06.898,-55.5,13.9,0,,,59031.9,16.94,-0.95,0.31,-0.63,-14.4,-2.7,-3.3,36.27,,,,,,,,,,
15.10.06.908,-58.5,14.6,0,,,59031.9,16.94,-1.03,-0.3,-0.39,9.1,5.4,9.2,36.4,,,,,,,,,,
15.10.06.919,-53.6,13.4,0,,,59031.9,16.94,-0.93,0.19,-0.09,-11.3,25.8,-1.0,36.35,,,,,,,,,,
15.10.06.928,-40.0,10.0,0,,,59031.9,16.94,-0.88,-0.15,0.01,-15.9,27.3,8.8,36.14,,,,,,,,,,
15.10.06.938,-73.2,18.3,0,,,59031.9,16.94,-0.94,-0.36,-0.53,21.6,20.0,-3.1,36.19,,,,,,,,,,
15.10.06.948,-87.1,21.8,0,,,59031.9,16.94,-0.84,0.05,-0.48,18.2,-12.8,-4.5,36.21,,,,,,,,,,
15.10.06.959,-103.7,25.9,0,,,59031.9,16.94,-0.85,0.29,-0.04,0.3,5.9,-5.0,36.51,,,,,,,,,,
15.10.06.968,-117.0,29.2,0,,,59031.9,16.94,-0.66,-0.07,-0.24,-26.2,-0.8,1.8,36.61,,,,,,,,,,
15.10.06.975,-87.3,21.8,0,,,59031.9,16.94,-1.09,0.12,-0.3,8.6,15.4,-2.3,36.41,,,,,,,,,,
15.10.06.985,-109.7,27.4,0,,,59031.9,16.94,-1.03,-0.04,-0.43,-21.1,10.5,-12.6,36.21,,,,,,,,,,
15.10.06.995,-100.5,25.1,0,,,59031.9,16.94,-0.88,0.32,-0.08,-4.2,-3.6,-9.4,36.38,,,,,,,,,,
15.10.07.004,-79.8,20.0,0,,,59031.9,16.94,-1.14,0.1,-0.26,-8.6,-3.9,-7.6,36.31,,,,,,,,,,
15.10.07.015,-116.0,29.0,0,,,59031.9,16.94,-0.92,0.06,-0.19,12.2,-1.4,-19.5,36.19,,,,,,,,,,
15.10.07.025,-132.2,33.0,0,,,59031.9,16.94,-0.95,0.49,-0.21,8.5,-4.3,6.1,36.36,,,,,,,,,,
15.10.07.033,-129.4,32.4,0,,,59031.9,16.94,-1.16,-0.34,-0.27,-25.5,-3.0,-13.4,36.42,,,,,,,,,,
15.10.07.043,-151.8,38.0,0,,,59031.9,16.94,-0.98,-0.4,0.28,23.0,30.4,8.2,36.41,,,,,,,,,,
15.10.07.055,-168.5,42.1,0,,,59031.9,16.94,-1.02,-0.06,-0.6,2.7,20.6,-0.9,36.51,,,,,,,,,,
15.10.07.064,-184.2,46.0,0,,,59031.9,16.94,-0.9,0.13,-0.21,11.6,13.1,2.4,36.22,,,,,,,,,,
15.10.07.074,35.3,8.8,0,,,59031.9,16.94,-0.63,-0.42,-0.36,-30.1,19.2,12.2,36.46,,,,,,,,,,
15.10.07.085,119.0,29.8,0,,,59031.9,16.94,-0.65,-0.07,-0.13,27.8,10.3,-9.3,36.25,,,,,,,,,,
15.10.07.098,214.5,53.6,0,,,59031.9,16.94,-0.79,-0.14,0.26,-11.9,23.7,-25.2,36.24,,,,,,,,,,
15.10.07.109,286.3,71.6,0,,,59031.9,16.94,-0.41,-0.06,-0.59,11.5,-15.8,-0.4,36.39,,,,,,,,,,
15.10.07.117,302.5,75.6,0,,,59031.9,16.94,-0.67,0.02,-0.41,-24.3,7.0,-22.8,36.47,,,,,,,,,,
15.10.07.128,398.5,99.6,0,,,59031.9,16.94,-0.71,0.11,-0.01,54.9,1.1,21.1,36.12,,,,,,,,,,
15.10.07.136,375.9,94.0,0,,,59031.9,16.94,-0.83,0.06,-0.14,-0.0,24.6,-7.6,36.23,,,,,,,,,,
15.10.07.146,422.2,105.6,1,15.0,117.4,59031.9,16.94,-0.46,-0.16,-0.4,-18.6,17.4,-18.6,36.33,,,,,,,,,,
15.10.07.156,387.0,96.8,0,,,59031.9,16.94,-0.62,-0.01,-0.18,4.4,9.1,-5.5,36.29,,,,,,,,,,
15.10.07.168,381.6,95.4,0,,,59031.9,16.94,-0.82,-0.28,0.06,18.5,15.9,8.1,36.2,,,,,,,,,,
15.10.07.177,414.3,103.6,0,,,59031.9,16.94,-0.95,0.1,0.03,10.4,5.6,-1.9,36.34,,,,,,,,,,
15.10.07.188,318.8,79.7,0,,,59031.9,16.94,-0.63,-0.0,-0.21,-7.2,18.2,-1.2,36.18,,,,,,,,,,
15.10.07.197,343.0,85.8,0,,,59031.9,16.94,-0.91,-0.03,-0.13,12.2,19.0,-16.3,36.16,,,,,,,,,,
15.10.07.207,251.2,62.8,0,,,59031.9,16.94,-0.61,0.15,0.05,14.5,1.3,-26.2,36.34,,,,,,,,,,
15.10.07.215,189.3,47.3,0,,,59031.9,16.94,-1.07,0.34,-0.04,38.0,15.8,1.1,36.42,,,,,,,,,,
15.10.07.224,117.5,29.4,0,,,59031.9,16.94,-1.05,-0.2,0.1,0.3,25.2,-2.3,36.14,,,,,,,,,,
15.10.07.236,66.5,16.6,0,,,59031.9,16.94,-0.54,-0.15,0.37,7.0,3.5,14.2,36.4,,,,,,,,,,
15.10.07.246,-0.3,0.1,0,,,59031.9,16.94,-1.06,-0.41,0.67,15.6,-1.7,-15.1,36.5,,,,,,,,,,
15.10.07.253,19.5,4.9,0,,,59031.9,16.94,-1.12,-0.91,-0.45,0.6,10.3,-8.1,36.17,,,,,,,,,,
15.10.07.261,35.0,8.8,0,,,59031.9,16.94,-0.88,0.24,-0.07,4.5,-22.1,14.8,36.36,,,,,,,,,,
15.10.07.270,64.6,16.2,0,,,59031.9,16.94,-0.76,-0.08,-0.53,-18.8,9.8,15.4,36.25,,,,,,,,,,
15.10.07.281,58.6,14.6,0,,,59031.9,16.94,-0.86,-0.11,-0.65,-40.0,-9.2,10.6,36.32,,,,,,,,,,
15.10.07.291,101.4,25.4,0,,,59031.9,16.94,-0.87,-0.27,0.2,-16.2,1.5,1.5,36.12,,,,,,,,,,
15.10.07.300,76.3,19.1,0,,,59031.9,16.94,-0.96,-0.22,-0.13,5.9,-6.2,19.1,36.27,,,,,,,,,,
15.10.07.309,63.7,15.9,0,,,59031.9,16.94,-0.78,-0.04,-0.2,7.3,-5.1,-14.2,36.16,,,,,,,,,,
15.10.07.320,53.6,13.4,0,,,59031.9,16.94,-0.92,0.13,-0.28,-4.8,10.0,4.2,36.31,,,,,,,,,,
15.10.07.330,29.8,7.4,0,,,59031.9,16.94,-0.92,-0.45,0.41,-9.4,4.0,0.7,36.15,,,,,,,,,,
15.10.07.340,-7.6,1.9,0,,,59031.9,16.94,-0.5,-0.36,-0.17,1.0,14.1,-1.7,36.39,,,,,,,,,,
15.10.07.351,-15.3,3.8,0,,,59031.9,16.94,-0.96,-0.53,-0.65,11.5,29.4,7.0,36.42,,,,,,,,,,
15.10.07.362,8.7,2.2,0,,,59031.9,16.94,-0.76,-0.1,-0.52,-11.0,18.5,-12.8,36.29,,,,,,,,,,
15.10.07.371,18.1,4.5,0,,,59031.9,16.94,-0.52,-0.24,-0.24,-11.1,0.4,12.4,36.09,,,,,,,,,,
15.10.07.381,10.0,2.5,0,,,59031.9,16.94,-0.79,-0.11,-0.32,-16.0,15.0,-9.3,36.3,,,,,,,,,,
15.10.07.391,-55.8,14.0,0,,,59031.9,16.94,-0.92,-0.37,-0.25,-11.4,1.1,18.5,36.45,,,,,,,,,,
15.10.07.401,-48.8,12.2,0,,,59031.9,16.94,-1.01,-0.16,-0.4,13.6,15.2,-7.7,36.48,,,,,,,,,,
15.10.07.410,-49.6,12.4,0,,,59031.9,16.94,-1.1,-0.39,-0.34,1.4,5.4,-5.6,36.22,,,,,,,,,,
15.10.07.418,-82.7,20.7,0,,,59031.9,16.94,-0.73,-0.54,-0.34,-17.0,-16.3,6.4,36.24,,,,,,,,,,
15.10.07.428,-72.2,18.0,0,,,59031.9,16.94,-0.82,0.11,0.21,-5.7,-21.3,-22.2,36.39,,,,,,,,,,
15.10.07.439,-56.0,14.0,0,,,59031.9,16.94,-0.98,-0.41,-0.56,-5.7,8.1,-2.7,36.59,,,,,,,,,,
15.10.07.450,-95.3,23.8,0,,,59066.7,16.93,-0.69,-0.43,-0.32,23.2,-3.1,13.5,36.25,,,,,,,,,,
15.10.07.460,-87.7,21.9,0,,,59066.7,16.93,-0.95,-0.31,-0.44,-7.3,-18.8,-2.6,36.55,,,,,,,,,,
15.10.07.469,-74.4,18.6,0,,,59066.7,16.93,-0.88,-0.15,-0.22,25.8,25.6,0.8,36.47,,,,,,,,,,
15.10.07.476,-75.6,18.9,0,,,59066.7,16.93,-0.98,-0.8,-0.15,42.8,10.9,5.8,36.45,,,,,,,,,,
15.10.07.486,-113.0,28.2,0,,,59066.7,16.93,-0.72,-0.4,-0.76,-10.1,-11.0,-15.5,36.27,,,,,,,,,,
15.10.07.497,-100.7,25.2,0,,,59066.7,16.93,-0.76,-0.21,-0.07,-10.2,12.7,3.9,36.49,,,,,,,,,,
15.10.07.508,-120.2,30.0,0,,,59066.7,16.93,-0.77,0.03,-0.17,-10.7,-10.6,-2.7,36.26,,,,,,,,,,
15.10.07.518,-118.5,29.6,0,,,59066.7,16.93,-0.93,-0.86,0.05,7.8,-10.7,-9.3,36.34,,,,,,,,,,
15.10.07.526,-163.1,40.8,0,,,59066.7,16.93,-0.82,-0.42,-0.28,15.7,4.1,-7.2,36.57,,,,,,,,,,
15.10.07.536,-115.9,29.0,0,,,59066.7,16.93,-1.07,-0.56,-0.68,-10.1,-6.3,-13.5,36.06,,,,,,,,,,
15.10.07.545,-125.1,31.3,0,,,59066.7,16.93,-0.6,-0.7,0.07,-1.1,-10.3,-11.4,36.07,,,,,,,,,,
15.10.07.553,-165.1,41.3,0,,,59066.7,16.93,-0.89,-0.55,-0.0,5.3,-4.3,-16.1,36.25,,,,,,,,,,
15.10.07.563,-187.0,46.8,0,,,59066.7,16.93,-1.34,-0.03,-0.51,19.3,1.8,-3.6,36.24,,,,,,,,,,
15.10.07.573,31.7,7.9,0,,,59066.7,16.93,-0.9,0.26,-0.41,22.4,25.3,0.8,36.42,,,,,,,,,,
15.10.07.582,84.9,21.2,0,,,59066.7,16.93,-1.12,0.19,0.44,8.4,15.9,2.2,36.48,,,,,,,,,,
15.10.07.592,110.5,27.6,0,,,59066.7,16.93,-0.86,-0.57,0.16,-16.4,-3.0,3.8,36.27,,,,,,,,,,
15.10.07.603,224.8,56.2,0,,,59066.7,16.93,-1.26,-0.55,-0.23,9.8,5.3,12.5,36.29,,,,,,,,,,
15.10.07.614,306.4,76.6,0,,,59066.7,16.93,-1.2,-0.02,0.28,7.8,-29.2,-0.7,36.29,,,,,,,,,,
15.10.07.625,312.1,78.0,0,,,59066.7,16.93,-1.15,-0.34,-0.05,-17.2,11.0,-1.8,36.28,,,,,,,,,,
15.10.07.635,414.9,103.7,0,,,59066.7,16.93,-0.8,-0.54,-0.34,18.5,5.8,-3.1,36.44,,,,,,,,,,
15.10.07.644,383.8,96.0,1,16.0,120.5,59066.7,16.93,-0.88,-0.79,0.05,5.7,17.3,1.2,36.46,,,,,,,,,,
15.10.07.651,382.8,95.7,0,,,59066.7,16.93,-1.1,-0.49,0.12,19.4,-7.1,-7.4,36.25,,,,,,,,,,
15.10.07.661,414.2,103.6,0,,,59066.7,16.93,-1.2,-0.63,-0.11,22.6,19.5,3.5,36.2,,,,,,,,,,
15.10.07.668,402.8,100.7,0,,,59066.7,16.93,-1.14,0.03,0.39,-17.1,-6.4,-5.5,36.21,,,,,,,,,,
15.10.07.675,376.8,94.2,0,,,59066.7,16.93,-0.55,-0.03,-0.14,-1.3,-27.5,-1.0,36.35,,,,,,,,,,
15.10.07.684,383.8,96.0,0,,,59066.7,16.93,-0.98,0.32,0.2,12.2,-14.4,-4.3,36.31,,,,,,,,,,
15.10.07.695,336.6,84.2,0,,,59066.7,16.93,-1.12,-0.12,-0.18,-18.5,25.4,-11.3,36.26,,,,,,,,,,
15.10.07.704,284.3,71.1,0,,,59066.7,16.93,-0.84,-0.57,0.23,-8.1,21.4,1.6,36.49,,,,,,,,,,
15.10.07.714,232.0,58.0,0,,,59066.7,16.93,-0.94,0.02,0.08,-4.7,21.4,-12.1,36.26,,,,,,,,,,
15.10.07.722,159.8,40.0,0,,,59066.7,16.93,-1.46,-0.14,-0.08,-8.8,1.2,13.8,36.36,,,,,,,,,,
15.10.07.732,107.5,26.9,0,,,59066.7,16.93,-1.01,0.02,-0.11,18.3,6.5,-13.9,36.19,,,,,,,,,,
15.10.07.742,16.1,4.0,0,,,59066.7,16.93,-0.93,-0.62,-0.28,-0.7,-11.9,9.3,36.51,,,,,,,,,,
15.10.07.753,15.1,3.8,0,,,59066.7,16.93,-1.04,-0.21,-0.22,-12.6,18.7,6.6,36.26,,,,,,,,,,
15.10.07.763,56.4,14.1,0,,,59066.7,16.93,-0.92,0.04,-0.88,-20.8,23.7,12.2,36.25,,,,,,,,,,
15.10.07.772,40.0,10.0,0,,,59066.7,16.93,-1.03,-0.18,-0.08,-9.8,6.7,-12.5,36.51,,,,,,,,,,
15.10.07.780,60.8,15.2,0,,,59066.7,16.93,-1.02,0.17,-0.23,-26.3,-12.9,2.3,36.18,,,,,,,,,,
15.10.07.790,66.5,16.6,0,,,59066.7,16.93,-1.15,0.49,-0.37,-15.7,-7.3,4.3,36.44,,,,,,,,,,
15.10.07.800,80.1,20.0,0,,,59066.7,16.93,-0.92,-0.35,-0.83,-15.6,1.6,11.5,36.29,,,,,,,,,,
15.10.07.810,62.7,15.7,0,,,59066.7,16.93,-0.87,0.19,-0.44,-21.6,1.0,5.8,36.42,,,,,,,,,,
15.10.07.820,89.7,22.4,0,,,59066.7,16.93,-1.15,-0.26,-0.21,-23.9,-6.6,4.6,36.17,,,,,,,,,,
15.10.07.829,52.2,13.0,0,,,59066.7,16.93,-0.69,0.29,-0.42,-18.8,20.0,-3.2,36.2,,,,,,,,,,
15.10.07.837,-12.5,3.1,0,,,59066.7,16.93,-0.74,0.51,-0.47,-28.0,1.2,2.5,36.62,,,,,,,,,,
15.10.07.847,27.1,6.8,0,,,59066.7,16.93,-1.38,0.07,-0.76,11.1,12.6,-9.5,36.51,,,,,,,,,,
15.10.07.856,-34.8,8.7,0,,,59066.7,16.93,-0.55,0.28,-0.8,-3.8,-0.3,-2.0,36.38,,,,,,,,,,
15.10.07.865,-43.9,11.0,0,,,59066.7,16.93,-0.98,0.63,-0.27,-21.9,31.1,14.4,36.45,,,,,,,,,,
15.10.07.875,-28.4,7.1,0,,,59066.7,16.93,-0.84,-0.05,-0.29,4.7,1.2,14.5,36.39,,,,,,,,,,
15.10.07.884,-39.5,9.9,0,,,59066.7,16.93,-0.86,-0.27,-0.66,6.9,8.8,11.1,36.22,,,,,,,,,,
15.10.07.892,-57.1,14.3,0,,,59066.7,16.93,-0.87,0.32,-0.4,17.5,8.7,-25.6,36.19,,,,,,,,,,
15.10.07.903,-43.1,10.8,0,,,59066.7,16.93,-0.61,-0.15,-0.16,0.1,-1.4,0.8,36.27,,,,,,,,,,
15.10.07.913,-57.3,14.3,0,,,59066.7,16.93,-0.87,-0.01,-0.33,-16.0,-22.8,9.0,36.33,,,,,,,,,,
15.10.07.922,-58.3,14.6,0,,,59066.7,16.93,-0.84,-0.18,0.05,16.0,-13.8,-16.2,36.22,,,,,,,,,,
15.10.07.932,-94.8,23.7,0,,,59066.7,16.93,-0.78,0.35,0.22,-14.0,22.0,-10.9,36.1,,,,,,,,,,
15.10.07.942,-87.3,21.8,0,,,59066.7,16.93,-0.75,-0.55,-0.65,10.9,12.4,-14.0,36.27,,,,,,,,,,
15.10.07.953,-61.8,15.4,0,,,59066.7,16.93,-0.96,-0.4,0.11,42.2,-2.3,4.1,36.5,,,,,,,,,,
15.10.07.963,-139.9,35.0,0,,,59066.7,16.93,-0.79,0.05,-0.35,17.5,14.8,-25.6,36.31,,,,,,,,,,
15.10.07.973,-79.4,19.8,0,,,59066.7,16.93,-0.92,0.28,0.02,-9.5,1.7,-2.4,36.38,,,,,,,,,,
15.10.07.983,-86.2,21.6,0,,,59066.7,16.93,-0.63,-0.29,-0.32,8.4,10.6,9.3,36.43,,,,,,,,,,
15.10.07.994,-119.2,29.8,0,,,59066.7,16.93,-1.09,-0.15,-0.45,-2.8,-5.1,13.8,36.18,,,,,,,,,,
15.10.08.004,-127.6,31.9,0,,,59101.7,16.92,-1.06,-0.02,0.01,-14.7,8.6,16.3,36.36,,,,,,,,,,
15.10.08.010,-119.2,29.8,0,,,59101.7,16.92,-0.99,-0.4,-0.58,-29.1,-5.9,-17.8,36.22,,,,,,,,,,
15.10.08.021,-137.2,34.3,0,,,59101.7,16.92,-0.9,-0.28,-0.39,13.8,18.1,-1.3,36.39,,,,,,,,,,
15.10.08.030,-115.5,28.9,0,,,59101.7,16.92,-0.6,0.1,-0.39,1.6,-23.4,13.5,36.27,,,,,,,,,,
15.10.08.040,-151.1,37.8,0,,,59101.7,16.92,-0.46,0.94,0.21,-20.0,1.4,17.1,36.16,,,,,,,,,,
15.10.08.051,-169.1,42.3,0,,,59101.7,16.92,-0.69,-0.01,-0.17,-46.5,1.2,-9.8,36.31,,,,,,,,,,
15.10.08.063,-154.4,38.6,0,,,59101.7,16.92,-0.79,-0.38,-0.19,17.8,19.1,0.6,36.29,,,,,,,,,,
15.10.08.072,21.8,5.4,0,,,59101.7,16.92,-1.02,0.3,0.33,19.8,8.9,-5.7,36.34,,,,,,,,,,
15.10.08.080,67.6,16.9,0,,,59101.7,16.92,-0.89,-0.11,0.1,-29.2,-11.4,-10.9,36.14,,,,,,,,,,
15.10.08.090,135.0,33.8,0,,,59101.7,16.92,-0.55,-0.05,-0.14,-19.7,0.2,-7.5,36.34,,,,,,,,,,
15.10.08.099,229.2,57.3,1,17.0,131.9,59101.7,16.92,-0.98,0.26,-0.17,1.1,1.4,-10.5,36.38,,,,,,,,,,
15.10.08.111,261.9,65.5,0,,,59101.7,16.92,-0.38,-0.24,-0.44,17.9,8.5,1.9,36.4,,,,,,,,,,
15.10.08.122,308.3,77.1,0,,,59101.7,16.92,-0.35,0.13,0.23,9.8,-6.8,-3.6,36.62,,,,,,,,,,
15.10.08.133,380.8,95.2,0,,,59101.7,16.92,-0.48,0.63,-0.04,6.1,-13.3,-4.8,36.31,,,,,,,,,,
15.10.08.142,377.5,94.4,0,,,59101.7,16.92,-0.52,-0.53,0.48,-38.8,23.6,2.7,36.36,,,,,,,,,,
15.10.08.151,381.9,95.5,0,,,59101.7,16.92,-0.85,0.68,-0.18,17.9,-0.3,2.6,36.22,,,,,,,,,,
15.10.08.162,404.0,101.0,0,,,59101.7,16.92,-1.09,-0.31,-0.26,-19.7,-16.8,-3.6,36.17,,,,,,,,,,
15.10.08.173,383.4,95.8,0,,,59101.7,16.92,-0.96,-0.05,0.06,19.5,-0.8,-6.1,36.37,,,,,,,,,,
15.10.08.185,343.5,85.9,0,,,59101.7,16.92,-0.53,0.04,-0.19,10.5,2.0,-1.7,36.26,,,,,,,,,,
15.10.08.196,286.7,71.7,0,,,59101.7,16.92,-0.67,-0.37,0.09,19.1,24.4,7.6,36.34,,,,,,,,,,
15.10.08.207,271.0,67.8,0,,,59101.7,16.92,-0.58,-0.12,0.18,-14.9,19.7,-21.4,36.45,,,,,,,,,,
15.10.08.215,240.0,60.0,0,,,59101.7,16.92,-0.75,0.23,-0.32,10.3,12.2,4.9,36.31,,,,,,,,,,
15.10.08.222,162.1,40.5,0,,,59101.7,16.92,-0.44,0.09,-0.21,-3.5,4.5,6.9,36.2,,,,,,,,,,
15.10.08.228,99.3,24.8,0,,,59101.7,16.92,-0.73,0.08,-0.49,-4.2,4.5,24.7,36.14,,,,,,,,,,
15.10.08.238,57.8,14.4,0,,,59101.7,16.92,-0.82,-0.47,-0.94,11.0,-10.1,25.7,36.13,,,,,,,,,,
15.10.08.250,14.2,3.6,0,,,59101.7,16.92,-0.87,0.23,-0.25,-17.5,-12.7,-20.3,36.25,,,,,,,,,,
15.10.08.258,15.6,3.9,0,,,59101.7,16.92,-0.79,0.08,-0.55,35.8,7.0,-8.9,36.1,,,,,,,,,,
15.10.08.266,14.6,3.6,0,,,59101.7,16.92,-0.45,-0.58,0.29,-13.8,-7.1,8.7,36.37,,,,,,,,,,
15.10.08.275,64.3,16.1,0,,,59101.7,16.92,-0.71,0.22,-0.48,-7.1,-3.6,-21.9,36.16,,,,,,,,,,
15.10.08.284,67.1,16.8,0,,,59101.7,16.92,-0.61,-0.31,-0.62,-16.3,20.4,11.3,36.43,,,,,,,,,,
15.10.08.294,,,0,,,,,,,,,,,,,,,,,,,,,
15.10.08.302,77.1,19.3,0,,,59101.7,16.92,-0.6,-0.14,-0.49,4.4,3.1,10.7,36.52,,,,,,,,,,
15.10.08.312,94.0,23.5,0,,,59101.7,16.92,-1.1,-0.79,-0.27,-17.0,7.2,-10.2,36.42,,,,,,,,,,
15.10.08.321,32.1,8.0,0,,,59101.7,16.92,-0.68,-0.22,-0.54,21.5,13.3,0.7,36.58,,,,,,,,,,
15.10.08.330,58.1,14.5,0,,,59101.7,16.92,-1.14,-0.12,-0.52,-16.2,10.5,6.7,36.47,,,,,,,,,,
15.10.08.339,7.5,1.9,0,,,59101.7,16.92,-0.71,-0.88,-0.03,-19.4,1.9,-7.2,36.37,,,,,,,,,,
15.10.08.347,-17.9,4.5,0,,,59101.7,16.92,-1.06,-0.5,0.39,24.6,24.2,-12.7,36.33,,,,,,,,,,
15.10.08.356,-24.9,6.2,0,,,59101.7,16.92,-1.0,-0.52,0.1,12.6,5.2,16.0,36.46,,,,,,,,,,
15.10.08.364,20.8,5.2,0,,,59101.7,16.92,-1.09,-0.37,0.24,20.6,-6.4,0.2,36.42,,,,,,,,,,
15.10.08.372,-28.4,7.1,0,,,59101.7,16.92,-0.26,-0.24,-0.02,-24.6,-10.1,6.5,36.28,,,,,,,,,,
15.10.08.381,-43.2,10.8,0,,,59101.7,16.92,-1.37,-0.64,-0.4,3.2,-5.1,-27.3,36.14,,,,,,,,,,
15.10.08.389,-46.2,11.6,0,,,59101.7,16.92,-1.0,-0.49,-0.48,-0.5,10.2,1.1,36.31,,,,,,,,,,
15.10.08.398,-25.4,6.4,0,,,59101.7,16.92,-0.91,-0.18,-0.23,4.4,-6.2,-6.2,36.04,,,,,,,,,,
15.10.08.406,-58.5,14.6,0,,,59101.7,16.92,-0.89,-0.59,0.04,38.9,16.0,20.3,36.3,,,,,,,,,,
15.10.08.415,-63.9,16.0,0,,,59101.7,16.92,-1.02,-0.98,-0.23,13.4,3.6,2.2,36.3,,,,,,,,,,
15.10.08.423,-68.6,17.2,0,,,59101.7,16.92,-0.6,-0.31,0.38,10.2,9.4,-1.0,36.42,,,,,,,,,,
15.10.08.435,-78.2,19.6,0,,,59101.7,16.92,-1.32,-0.85,-0.3,1.6,5.3,5.4,36.47,,,,,,,,,,
15.10.08.445,-88.0,22.0,0,,,59101.7,16.92,-1.16,-0.54,-0.51,-13.0,0.6,-9.7,36.4,,,,,,,,,,
15.10.08.453,-74.1,18.5,0,,,59101.7,16.92,-0.47,0.07,-0.1,6.7,10.4,-10.5,36.33,,,,,,,,,,
15.10.08.463,-98.1,24.5,0,,,59101.7,16.92,-0.95,-0.47,-0.24,-11.4,10.1,-10.0,36.37,,,,,,,,,,
15.10.08.470,-73.3,18.3,0,,,59101.7,16.92,-0.63,-0.35,0.08,17.6,-9.6,-9.1,36.1,,,,,,,,,,
15.10.08.477,-110.4,27.6,0,,,59101.7,16.92,-1.02,-0.19,-0.41,-22.3,6.9,4.8,36.35,,,,,,,,,,
15.10.08.488,-76.9,19.2,0,,,59101.7,16.92,-0.92,-0.35,-0.2,-1.3,29.2,-3.2,36.42,,,,,,,,,,
15.10.08.499,-125.7,31.4,0,,,59101.7,16.92,-1.11,0.13,0.08,9.2,-0.2,-12.4,36.14,,,,,,,,,,
15.10.08.510,-134.5,33.6,0,,,59101.7,16.92,-0.73,-0.57,-0.0,12.1,5.2,17.3,36.53,,,,,,,,,,
15.10.08.520,-150.6,37.6,0,,,59101.7,16.92,-1.17,0.07,-0.16,36.2,14.6,-6.3,36.17,,,,,,,,,,
15.10.08.530,-144.0,36.0,0,,,59101.7,16.92,-0.86,-0.21,-0.01,-19.0,-0.5,-1.7,36.42,,,,,,,,,,
15.10.08.542,-183.1,45.8,0,,,59101.7,16.92,-0.9,-0.47,0.43,-1.0,13.7,-1.7,36.28,,,,,,,,,,
15.10.08.551,-173.5,43.4,0,,,59101.7,16.92,-1.16,-0.18,0.07,22.6,8.8,-27.5,36.44,,,,,,,,,,
15.10.08.559,-205.6,51.4,0,,,59101.7,16.92,-1.25,-0.02,-0.08,40.6,3.9,7.3,36.35,,,,,,,,,,
15.10.08.566,-173.5,43.4,0,,,59101.7,16.92,-0.87,-0.16,0.14,35.8,-22.6,-7.2,36.3,,,,,,,,,,
15.10.08.576,12.0,3.0,0,,,59101.7,16.92,-0.68,-0.1,0.18,10.6,12.1,19.0,36.29,,,,,,,,,,
15.10.08.586,111.8,28.0,1,18.0,123.2,59101.7,16.92,-0.7,-0.12,-0.68,19.3,10.1,4.6,36.41,,,,,,,,,,
15.10.08.593,172.0,43.0,0,,,59101.7,16.92,-0.76,-0.15,-0.3,6.9,-4.3,-0.7,36.27,,,,,,,,,,
15.10.08.603,189.1,47.3,0,,,59101.7,16.92,-0.97,-0.0,-0.26,-8.0,-1.4,3.6,36.36,,,,,,,,,,
15.10.08.612,275.1,68.8,0,,,59101.7,16.92,-0.9,-0.4,-0.07,17.7,-3.7,-21.2,36.28,,,,,,,,,,
15.10.08.620,307.7,76.9,0,,,59101.7,16.92,-0.83,0.09,-0.17,-12.7,7.6,10.0,36.2,,,,,,,,,,
15.10.08.630,345.6,86.4,0,,,59101.7,16.92,-0.94,-0.15,-0.69,-9.5,3.2,-10.3,36.36,,,,,,,,,,
15.10.08.638,397.8,99.4,0,,,59101.7,16.92,-1.23,-0.22,-0.29,-24.4,-2.5,5.4,36.31,,,,,,,,,,
15.10.08.648,423.0,105.8,0,,,59101.7,16.92,-1.12,0.26,0.21,12.4,9.3,-1.3,36.39,,,,,,,,,,
15.10.08.657,349.3,87.3,0,,,59101.7,16.92,-0.81,-0.1,-0.25,-15.7,11.8,-10.2,36.19,,,,,,,,,,
15.10.08.668,387.3,96.8,0,,,59101.7,16.92,-0.84,-0.05,-0.22,23.7,3.8,-3.6,36.3,,,,,,,,,,
15.10.08.678,420.7,105.2,0,,,59101.7,16.92,-0.79,-0.18,0.05,2.0,1.1,-11.2,36.2,,,,,,,,,,
15.10.08.687,326.4,81.6,0,,,59101.7,16.92,-1.37,-0.18,-0.25,9.7,1.1,-0.8,36.22,,,,,,,,,,
15.10.08.697,314.8,78.7,0,,,59101.7,16.92,-1.24,-0.69,-0.18,-26.8,-2.2,0.5,36.26,,,,,,,,,,
15.10.08.707,247.5,61.9,0,,,59136.6,16.91,-1.07,-0.11,-0.67,-5.5,4.7,-6.0,36.66,,,,,,,,,,
15.10.08.717,253.7,63.4,0,,,59136.6,16.91,-1.19,-0.7,-0.49,15.5,-3.9,-17.9,36.15,,,,,,,,,,
15.10.08.724,158.7,39.7,0,,,59136.6,16.91,-0.56,-0.11,-0.81,-12.8,0.5,-5.5,36.5,,,,,,,,,,
15.10.08.736,88.4,22.1,0,,,59136.6,16.91,-1.08,0.0,-0.1,-5.1,-4.3,8.9,36.45,,,,,,,,,,
15.10.08.744,19.3,4.8,0,,,59136.6,16.91,-1.06,-0.27,-0.32,-16.8,12.6,-0.9,36.39,,,,,,,,,,
15.10.08.753,-5.6,1.4,0,,,59136.6,16.91,-0.66,0.32,-0.09,13.6,13.9,-22.9,36.42,,,,,,,,,,
15.10.08.763,48.1,12.0,0,,,59136.6,16.91,-1.06,-0.12,-0.67,4.9,14.2,14.2,35.99,,,,,,,,,,
15.10.08.771,74.0,18.5,0,,,59136.6,16.91,-0.82,-0.1,-0.51,-20.1,8.2,-5.3,36.09,,,,,,,,,,
15.10.08.780,43.8,11.0,0,,,59136.6,16.91,-1.27,0.29,-0.14,-10.3,17.7,-2.4,36.36,,,,,,,,,,
15.10.08.789,68.7,17.2,0,,,59136.6,16.91,-1.24,-0.02,-0.65,-24.8,4.8,-5.4,36.4,,,,,,,,,,
15.10.08.799,75.5,18.9,0,,,59136.6,16.91,-1.19,-0.55,-0.7,-20.6,-8.4,-6.7,36.31,,,,,,,,,,
15.10.08.810,106.6,26.6,0,,,59136.6,16.91,-0.73,-0.11,-0.29,6.3,19.0,-0.7,36.34,,,,,,,,,,
15.10.08.820,41.6,10.4,0,,,59136.6,16.91,-0.94,-0.05,-0.01,-2.1,20.4,-17.8,36.42,,,,,,,,,,
15.10.08.830,44.8,11.2,0,,,59136.6,16.91,-0.58,-0.12,0.08,-12.8,-4.6,-20.8,36.4,,,,,,,,,,
15.10.08.839,3.4,0.8,0,,,59136.6,16.91,-1.0,0.34,-0.55,-5.0,-3.2,-1.0,36.35,,,,,,,,,,
15.10.08.848,1.0,0.2,0,,,59136.6,16.91,-0.96,0.12,0.2,14.2,2.4,8.9,36.2,,,,,,,,,,
15.10.08.858,-2.0,0.5,0,,,59136.6,16.91,-0.76,-0.23,0.32,-5.5,2.1,-2.7,36.44,,,,,,,,,,
15.10.08.868,-69.8,17.4,0,,,59136.6,16.91,-0.75,0.06,0.2,-9.3,2.6,-1.1,36.22,,,,,,,,,,
15.10.08.878,-36.7,9.2,0,,,59136.6,16.91,-0.74,0.12,0.2,5.0,17.3,-7.1,36.39,,,,,,,,,,
15.10.08.889,-3.0,0.8,0,,,59136.6,16.91,-0.69,0.3,-0.09,20.2,30.8,14.0,36.34,,,,,,,,,,
15.10.08.898,-44.6,11.2,0,,,59136.6,16.91,-1.17,-0.24,-0.44,-6.0,0.2,4.8,36.4,,,,,,,,,,
15.10.08.907,-42.1,10.5,0,,,59136.6,16.91,-0.73,-0.34,0.12,0.9,4.0,-15.3,36.36,,,,,,,,,,
15.10.08.918,-38.6,9.6,0,,,59136.6,16.91,-0.73,-0.19,0.57,5.8,0.7,23.0,36.33,,36.31,,,,,,,,
15.10.08.929,-25.6,6.4,0,,,59136.6,16.91,-0.74,-0.3,-0.17,2.2,-5.5,0.6,36.14,,,,,,,,,,
15.10.08.939,-39.9,10.0,0,,,59136.6,16.91,-0.75,-0.14,0.02,-17.1,4.2,-5.0,36.2,,,,,,,,,,
15.10.08.950,-79.3,19.8,0,,,59136.6,16.91,-1.08,-0.24,-0.44,10.4,26.7,-5.7,36.26,,,,,,,,,,
15.10.08.960,-101.6,25.4,0,,,59136.6,16.91,-0.98,-0.18,0.42,10.6,-17.0,-0.6,36.46,,,,,,,,,,
15.10.08.969,-89.1,22.3,0,,,59136.6,16.91,-0.98,0.48,-0.06,14.9,-16.0,-5.1,36.44,,,,,,,,,,
15.10.08.979,-104.0,26.0,0,,,59136.6,16.91,-0.98,0.14,0.32,17.3,12.7,-12.7,36.26,,,,,,,,,,
15.10.08.989,-102.5,25.6,0,,,59136.6,16.91,-0.66,0.22,-0.08,-19.9,-1.4,5.6,36.31,,,,,,,,,,
15.10.08.998,-83.8,21.0,0,,,59136.6,16.91,-0.52,-0.16,-0.27,-43.2,13.3,-9.7,36.41,,,,,,,,,,
15.10.09.008,-112.2,28.0,0,,,59136.6,16.91,-0.74,0.73,-0.17,-27.8,5.6,12.1,36.4,,,,,,,,,,
15.10.09.017,-92.8,23.2,0,,,59136.6,16.91,-0.84,-0.54,-0.1,-0.9,-2.9,-1.9,36.26,,,,,,,,,,
15.10.09.026,-116.4,29.1,0,,,59136.6,16.91,-0.82,0.17,-0.26,14.2,-1.9,-8.2,36.24,,,,,,,,,,
15.10.09.036,-195.3,48.8,0,,,59136.6,16.91,-0.72,-0.15,-0.15,-32.9,9.3,0.1,36.25,,,,,,,,,,
15.10.09.045,-147.7,36.9,0,,,59136.6,16.91,-0.74,-0.08,0.2,16.6,16.5,5.9,36.45,,,,,,,,,,
15.10.09.055,-157.4,39.4,0,,,59136.6,16.91,-0.73,-0.45,-0.81,-7.7,-16.4,21.6,36.4,,,,,,,,,,
15.10.09.066,-129.4,32.4,1,19.0,125.0,59136.6,16.91,-0.59,0.06,-0.68,24.2,8.2,-7.6,36.26,,,,,,,,,,
15.10.09.075,41.5,10.4,0,,,59136.6,16.91,-0.77,-0.41,-0.56,16.9,4.8,8.0,36.21,,,,,,,,,,
15.10.09.085,107.7,26.9,0,,,59136.6,16.91,-0.93,0.21,-0.23,-16.9,11.9,3.6,36.09,,,,,,,,,,
15.10.09.094,169.9,42.5,0,,,59136.6,16.91,-0.61,0.34,0.65,-22.8,21.8,-0.1,36.25,,,,,,,,,,
15.10.09.104,214.5,53.6,0,,,59136.6,16.91,-1.09,-0.52,-0.61,3.9,4.9,7.8,36.27,,,,,,,,,,
15.10.09.111,306.0,76.5,0,,,59136.6,16.91,-0.92,-0.26,-0.57,8.4,-19.0,-2.0,36.31,,,,,,,,,,
15.10.09.119,317.4,79.4,0,,,59136.6,16.91,-0.84,0.28,-0.4,-12.7,-1.5,-32.9,36.36,,,,,,,,,,
15.10.09.129,330.7,82.7,0,,,59136.6,16.91,-0.64,0.24,-0.5,-22.5,-11.4,-16.0,36.45,,,,,,,,,,
15.10.09.138,362.4,90.6,0,,,59136.6,16.91,-0.8,-0.35,-0.61,26.4,20.2,5.4,36.37,,,,,,,,,,
15.10.09.147,,,0,,,,,,,,,,,,,,,,,,,,,
15.10.09.157,364.7,91.2,0,,,59136.6,16.91,-0.86,-0.27,-0.63,-45.5,-14.9,-12.4,36.47,,,,,,,,,,
15.10.09.166,414.8,103.7,0,,,59136.6,16.91,-0.93,-0.15,-0.08,-8.4,7.7,11.4,36.38,,,,,,,,,,
15.10.09.174,388.2,97.0,0,,,59136.6,16.91,-0.73,-0.44,-0.13,4.4,-1.6,-2.8,36.36,,,,,,,,,,
15.10.09.186,329.0,82.2,0,,,59136.6,16.91,-0.69,-0.05,-0.74,-25.0,8.3,13.8,36.39,,,,,,,,,,
15.10.09.197,290.8,72.7,0,,,59136.6,16.91,-0.99,-0.6,-0.67,23.6,16.5,3.0,36.3,,,,,,,,,,
15.10.09.207,262.3,65.6,0,,,59136.6,16.91,-0.83,-0.16,-0.34,-6.5,30.1,-16.4,36.33,,,,,,,,,,
15.10.09.216,187.0,46.8,0,,,59171.6,16.9,-0.77,-0.2,-0.36,-16.3,20.6,-13.9,36.54,,,,,,,,,,
15.10.09.227,125.7,31.4,0,,,59171.6,16.9,-0.95,-0.03,-0.2,6.5,21.5,16.2,36.19,,,,,,,,,,
15.10.09.236,90.6,22.6,0,,,59171.6,16.9,-0.88,-0.47,-0.21,34.7,14.5,10.3,36.35,,,,,,,,,,
15.10.09.246,0.3,0.1,0,,,59171.6,16.9,-0.84,-0.85,-0.37,-18.2,3.0,0.4,36.33,,,,,,,,,,
15.10.09.256,34.7,8.7,0,,,59171.6,16.9,-0.78,-0.03,-0.56,21.0,7.0,1.4,36.41,,,,,,,,,,
15.10.09.265,5.4,1.4,0,,,59171.6,16.9,-0.62,0.16,-0.51,14.4,-8.2,4.2,36.5,,,,,,,,,,
15.10.09.275,42.4,10.6,0,,,59171.6,16.9,-0.61,-0.47,-0.0,-23.9,39.7,15.1,36.27,,,,,,,,,,
15.10.09.286,69.7,17.4,0,,,59171.6,16.9,-0.91,-0.11,0.47,-11.1,18.3,4.9,36.14,,,,,,,,,,
15.10.09.296,57.8,14.4,0,,,59171.6,16.9,-0.89,-0.99,-0.17,13.9,17.1,-6.3,36.3,,,,,,,,,,
15.10.09.304,91.3,22.8,0,,,59171.6,16.9,-0.52,0.27,-0.35,34.6,-7.9,13.3,36.35,,,,,,,,,,
15.10.09.313,50.0,12.5,0,,,59171.6,16.9,-0.77,0.1,-0.54,-12.5,-3.3,-18.9,36.31,,,,,,,,,,
15.10.09.323,77.9,19.5,0,,,59171.6,16.9,-1.06,-0.03,-0.01,-17.3,-1.2,-17.1,36.47,,,,,,,,,,
15.10.09.333,22.1,5.5,0,,,59171.6,16.9,-1.04,-0.08,0.04,-16.5,10.2,1.9,36.31,,,,,,,,,,
15.10.09.344,-11.2,2.8,0,,,59171.6,16.9,-0.77,-0.01,-0.7,14.7,-2.7,-5.2,36.13,,,,,,,,,,
15.10.09.353,-23.0,5.8,0,,,59171.6,16.9,-0.89,-0.26,-0.04,16.6,8.0,33.8,36.27,,,,,,,,,,
15.10.09.364,-16.0,4.0,0,,,59171.6,16.9,-0.78,-0.45,-0.1,-6.0,16.1,-9.3,36.37,,,,,,,,,,
15.10.09.374,-27.1,6.8,0,,,59171.6,16.9,-1.49,-0.45,-0.18,-19.3,8.0,9.5,36.46,,,,,,,,,,
15.10.09.386,-34.7,8.7,0,,,59171.6,16.9,-0.91,-0.05,-0.2,-4.3,10.6,-6.7,36.28,,,,,,,,,,
15.10.09.397,-61.5,15.4,0,,,59171.6,16.9,-0.96,-0.05,0.02,-18.8,-7.9,-0.6,36.55,,,,,,,,,,
15.10.09.407,-19.2,4.8,0,,,59171.6,16.9,-0.83,0.41,0.69,-8.0,17.7,-7.8,36.3,,,,,,,,,,
15.10.09.418,-55.0,13.8,0,,,59171.6,16.9,-0.88,-0.02,-0.03,-0.9,-3.5,18.7,36.17,,,,,,,,,,
15.10.09.427,-38.5,9.6,0,,,59171.6,16.9,-0.86,-0.07,0.14,-14.9,5.9,-6.9,36.43,,,,,,,,,,
15.10.09.438,-82.0,20.5,0,,,59171.6,16.9,-1.06,-0.35,-0.25,-1.4,-5.0,9.7,36.22,,,,,,,,,,
15.10.09.448,-65.4,16.4,0,,,59171.6,16.9,-0.74,0.18,-0.17,-0.4,-13.3,-21.6,36.0,,,,,,,,,,
15.10.09.457,-78.8,19.7,0,,,59171.6,16.9,-0.81,-0.08,0.08,-14.2,-9.1,-22.1,36.62,,,,,,,,,,
15.10.09.468,-93.9,23.5,0,,,59171.6,16.9,-0.97,-0.11,-0.41,-2.2,-1.8,6.2,36.24,,,,,,,,,,
15.10.09.477,-77.9,19.5,0,,,59171.6,16.9,-0.95,0.31,0.22,1.3,0.6,2.8,36.31,,,,,,,,,,
15.10.09.485,-127.9,32.0,0,,,59171.6,16.9,-1.2,-0.07,-0.79,0.2,7.4,-3.0,36.47,,,,,,,,,,
15.10.09.495,-88.7,22.2,0,,,59171.6,16.9,-1.09,-0.06,-0.32,14.2,-2.2,0.4,36.28,,,,,,,,,,
15.10.09.504,-155.6,38.9,1,20.0,137.0,59171.6,16.9,-0.99,0.16,-0.33,28.0,12.2,4.2,36.54,,,,,,,,,,
15.10.09.512,-127.0,31.8,0,,,59171.6,16.9,-1.04,-0.22,-0.02,10.7,16.3,-0.2,36.4,,,,,,,,,,
15.10.09.519,-136.1,34.0,0,,,59171.6,16.9,-1.0,-0.49,0.31,2.8,9.5,-3.5,36.4,,,,,,,,,,
15.10.09.528,-162.8,40.7,0,,,59171.6,16.9,-1.27,-0.41,-0.22,-10.1,38.1,-3.3,36.37,,,,,,,,,,
15.10.09.539,-123.0,30.8,0,,,59171.6,16.9,-1.49,-0.17,-0.25,-13.5,23.8,-4.9,36.25,,,,,,,,,,
15.10.09.550,-137.3,34.3,0,,,59171.6,16.9,-1.33,-0.57,-0.11,6.6,-7.1,-14.3,36.4,,,,,,,,,,
15.10.09.559,-139.1,34.8,0,,,59171.6,16.9,-1.05,0.07,-0.52,14.6,17.7,-13.8,36.36,,,,,,,,,,
15.10.09.567,-168.0,42.0,0,,,59171.6,16.9,-0.92,-0.46,-0.13,-1.9,22.7,6.9,36.19,,,,,,,,,,
15.10.09.580,101.3,25.3,0,,,59171.6,16.9,-1.14,-0.23,-0.36,-11.6,-1.9,-16.8,36.24,,,,,,,,,,
15.10.09.589,139.8,35.0,0,,,59206.6,16.89,-0.81,0.06,-0.74,13.2,5.4,-2.2,36.23,,,,,,,,,,
15.10.09.599,173.2,43.3,0,,,59206.6,16.89,-0.83,0.27,-0.17,26.9,26.0,9.1,36.39,,,,,,,,,,
15.10.09.608,235.4,58.8,0,,,59206.6,16.89,-0.78,-0.04,-0.32,-12.5,16.2,11.9,36.54,,,,,,,,,,
15.10.09.617,295.0,73.8,0,,,59206.6,16.89,-1.27,-0.22,-0.27,-23.0,3.1,-11.3,36.51,,,,,,,,,,
15.10.09.628,330.6,82.6,0,,,59206.6,16.89,-0.76,0.37,-0.32,-12.3,15.9,-0.2,36.41,,,,,,,,,,
15.10.09.637,368.6,92.2,0,,,59206.6,16.89,-0.94,0.07,-0.32,-4.1,12.3,-5.3,36.34,,,,,,,,,,
15.10.09.646,424.0,106.0,0,,,59206.6,16.89,-0.99,0.07,0.0,7.7,6.4,-11.4,36.22,,,,,,,,,,
15.10.09.659,439.6,109.9,0,,,59206.6,16.89,-1.49,0.08,-0.82,-7.6,9.5,13.3,36.14,,,,,,,,,,
15.10.09.668,396.6,99.2,0,,,59206.6,16.89,-0.42,-0.29,-0.0,-27.8,-9.8,-9.4,36.41,,,,,,,,,,
15.10.09.678,353.5,88.4,0,,,59206.6,16.89,-0.98,-0.27,-0.09,10.5,6.6,-11.7,36.22,,,,,,,,,,
15.10.09.689,333.1,83.3,0,,,59206.6,16.89,-0.98,-0.09,-0.28,18.3,12.5,23.1,36.48,,,,,,,,,,
15.10.09.698,283.4,70.8,0,,,59206.6,16.89,-0.97,0.05,-0.12,5.5,-1.4,17.6,36.05,,,,,,,,,,
15.10.09.708,234.9,58.7,0,,,59206.6,16.89,-0.93,0.21,0.46,4.0,3.5,-5.9,36.32,,,,,,,,,,
15.10.09.716,200.9,50.2,0,,,59206.6,16.89,-1.08,0.22,0.67,1.7,16.7,-1.6,36.42,,,,,,,,,,
15.10.09.725,126.1,31.5,0,,,59206.6,16.89,-0.92,-0.13,-0.32,-12.7,21.0,6.4,36.42,,,,,,,,,,
15.10.09.734,52.8,13.2,0,,,59206.6,16.89,-0.75,-0.13,-0.31,23.4,11.8,4.7,36.23,,,,,,,,,,
15.10.09.743,1.1,0.3,0,,,59206.6,16.89,-0.69,-0.11,-0.4,-10.3,-2.3,11.2,36.27,,,,,,,,,,
15.10.09.753,-3.8,1.0,0,,,59206.6,16.89,-0.87,0.05,-0.21,5.4,13.0,4.8,36.29,,,,,,,,,,
15.10.09.761,58.9,14.7,0,,,59206.6,16.89,-0.5,0.06,0.13,-18.1,-6.3,10.9,36.27,,,,,,,,,,
15.10.09.770,59.0,14.8,0,,,59206.6,16.89,-0.87,-0.08,-0.36,9.1,17.8,-6.8,36.33,,,,,,,,,,
15.10.09.779,86.1,21.5,0,,,59206.6,16.89,-0.67,-0.27,0.32,-5.5,-2.5,-6.1,36.45,,,,,,,,,,
15.10.09.788,87.1,21.8,0,,,59206.6,16.89,-1.01,-0.2,-0.54,-29.0,0.5,2.2,36.44,,,,,,,,,,
15.10.09.798,93.9,23.5,0,,,59206.6,16.89,-1.2,-0.1,0.21,28.5,9.3,16.5,36.47,,,,,,,,,,
15.10.09.806,86.1,21.5,0,,,59206.6,16.89,-0.8,-0.08,-0.51,29.4,-11.8,-10.6,36.42,,,,,,,,,,
15.10.09.816,64.4,16.1,0,,,59206.6,16.89,-0.75,-0.3,0.51,-22.0,8.2,15.7,36.34,,,,,,,,,,
15.10.09.826,11.4,2.8,0,,,59206.6,16.89,-0.45,0.14,-0.02,28.9,7.9,2.9,36.4,,,,,,,,,,
15.10.09.835,36.9,9.2,0,,,59206.6,16.89,-0.94,-0.08,-0.5,13.2,-6.2,-3.9,36.35,,,,,,,,,,
15.10.09.844,32.3,8.1,0,,,59206.6,16.89,-0.77,-0.18,-0.47,-23.1,-25.8,1.9,36.38,,,,,,,,,,
15.10.09.853,-27.7,6.9,0,,,59206.6,16.89,-0.86,-0.01,-0.64,-5.1,0.1,-0.4,36.25,,,,,,,,,,
15.10.09.861,-6.6,1.6,0,,,59206.6,16.89,-0.65,-0.02,-0.02,13.0,16.6,-10.1,36.37,,,,,,,,,,
15.10.09.870,-48.8,12.2,0,,,59206.6,16.89,-0.3,-0.14,-0.08,-20.2,-7.3,-5.5,36.42,,,,,,,,,,
15.10.09.882,-97.5,24.4,0,,,59206.6,16.89,-0.98,0.54,-0.38,13.8,19.5,-7.2,36.28,,,,,,,,,,
15.10.09.891,-30.5,7.6,0,,,59206.6,16.89,-0.84,-0.03,-0.23,-9.2,12.3,10.7,36.11,,,,,,,,,,
15.10.09.901,-32.5,8.1,0,,,59206.6,16.89,-1.16,-0.05,-0.01,-28.6,-4.2,-5.3,36.31,,,,,,,,,,
15.10.09.911,-70.0,17.5,0,,,59206.6,16.89,-0.54,-0.62,0.2,15.8,4.8,-1.0,36.35,,,,,,,,,,
15.10.09.921,-41.0,10.2,0,,,59206.6,16.89,-0.85,-0.39,-0.48,3.3,16.4,-5.8,36.33,,,,,,,,,,
15.10.09.931,-62.8,15.7,0,,,59206.6,16.89,-0.71,-0.61,0.18,1.2,-5.5,4.4,36.2,,,,,,,,,,
15.10.09.940,-35.5,8.9,0,,,59206.6,16.89,-0.97,0.23,-0.29,-11.7,-12.9,-17.0,36.24,,,,,,,,,,
15.10.09.947,-80.8,20.2,0,,,59206.6,16.89,-0.9,0.09,-0.48,-12.7,13.8,1.0,36.41,,,,,,,,,,
15.10.09.957,-88.2,22.0,0,,,59206.6,16.89,-0.74,0.34,0.09,-47.3,20.2,-15.8,36.05,,,,,,,,,,
15.10.09.968,-79.6,19.9,0,,,59241.7,16.88,-0.52,-0.19,-0.19,-4.7,16.4,4.2,36.33,,,,,,,,,,
15.10.09.979,-121.3,30.3,0,,,59241.7,16.88,-0.6,-0.08,-0.18,4.0,-4.7,-2.9,36.13,,,,,,,,,,
15.10.09.990,-105.8,26.4,1,21.0,123.5,59241.7,16.88,-0.45,-0.52,-0.16,8.6,-14.6,-0.5,36.22,,,,,,,,,,
15.10.10.001,-131.2,32.8,0,,,59241.7,16.88,-0.65,-0.58,-0.8,-19.7,-3.8,8.0,36.3,119.8,,,,,,,,,
15.10.10.009,-136.5,34.1,0,,,59241.7,16.88,-0.87,0.03,-0.02,-11.5,15.6,-14.5,36.32,,,,,,,,,,
15.10.10.017,-115.2,28.8,0,,,59241.7,16.88,-0.8,-0.13,0.02,4.4,0.9,-9.3,36.28,,,,,,,,,,
15.10.10.028,-135.7,33.9,0,,,59241.7,16.88,-0.93,-0.48,0.03,6.9,40.2,1.3,36.47,,,,,,,,,,
15.10.10.038,-121.5,30.4,0,,,59241.7,16.88,-0.67,-0.15,-0.2,19.4,4.4,-9.5,36.29,,,,,,,,,,
15.10.10.050,-161.2,40.3,0,,,59241.7,16.88,-0.32,-0.5,-0.24,-4.7,-15.6,-5.0,36.45,,,,,,,,,,
15.10.10.060,-169.1,42.3,0,,,59241.7,16.88,-0.74,-0.28,-1.04,15.6,14.8,-12.9,36.22,,,,,,,,,,
15.10.10.071,-4.8,1.2,0,,,59241.7,16.88,-0.51,-0.08,-1.12,-15.3,15.8,-17.1,36.32,,,,,,,,,,
15.10.10.080,64.0,16.0,0,,,59241.7,16.88,-0.84,-0.33,-0.32,-32.8,12.3,-4.6,36.26,,,,,,,,,,
15.10.10.090,155.3,38.8,0,,,59241.7,16.88,-0.74,-0.65,-0.22,-19.6,16.2,3.3,36.22,,,,,,,,,,
15.10.10.100,229.0,57.2,0,,,59241.7,16.88,-0.7,-0.28,-0.3,-1.2,5.4,15.1,36.25,,,,,,,,,,
15.10.10.111,299.2,74.8,0,,,59241.7,16.88,-0.84,-1.18,-0.17,17.9,15.4,19.7,36.27,,,,,,,,,,
15.10.10.121,315.6,78.9,0,,,59241.7,16.88,-0.85,0.16,-0.26,-3.8,-5.4,-2.6,36.43,,,,,,,,,,
15.10.10.130,345.7,86.4,0,,,59241.7,16.88,-0.75,-0.7,-0.39,13.9,-21.4,20.7,36.38,,,,,,,,,,
15.10.10.141,360.5,90.1,0,,,59241.7,16.88,-0.86,-0.64,-0.46,18.7,-14.1,-11.1,36.09,,,,,,,,,,
15.10.10.151,412.5,103.1,0,,,59241.7,16.88,-0.74,-0.14,0.14,-13.3,19.5,-0.9,36.57,,,,,,,,,,
15.10.10.159,405.8,101.4,0,,,59241.7,16.88,-1.01,-0.32,-0.07,16.9,19.0,3.4,36.39,,,,,,,,,,
15.10.10.168,434.3,108.6,0,,,59241.7,16.88,-1.06,-0.56,0.1,-2.3,-14.3,9.4,36.38,,,,,,,,,,
15.10.10.178,358.3,89.6,0,,,59241.7,16.88,-1.22,0.14,-0.12,-16.3,-6.6,-9.7,36.24,,,,,,,,,,
15.10.10.186,360.7,90.2,0,,,59241.7,16.88,-0.83,-0.36,-0.38,-3.1,-8.8,14.3,36.33,,,,,,,,,,
15.10.10.194,,,0,,,,,,,,,,,,,,,,,,,,,
15.10.10.201,278.2,69.6,0,,,59241.7,16.88,-1.25,-0.53,0.07,-1.4,4.1,1.4,36.35,,,,,,,,,,
15.10.10.212,254.2,63.6,0,,,59241.7,16.88,-1.14,-1.09,-0.04,18.1,-11.5,0.5,36.42,,,,,,,,,,
15.10.10.221,181.1,45.3,0,,,59241.7,16.88,-1.17,-0.48,-0.23,-30.5,-15.9,1.8,36.53,,,,,,,,,,
15.10.10.232,100.6,25.2,0,,,59241.7,16.88,-1.23,-0.36,-0.31,0.3,-5.7,-6.0,36.19,,,,,,,,,,
15.10.10.241,50.8,12.7,0,,,59241.7,16.88,-1.07,-0.35,-0.09,-4.8,2.5,15.0,36.16,,,,,,,,,,
15.10.10.252,-3.5,0.9,0,,,59241.7,16.88,-0.68,-0.53,-0.12,13.1,12.3,-15.4,36.3,,,,,,,,,,
15.10.10.260,31.4,7.8,0,,,59241.7,16.88,-1.44,-0.67,-0.35,0.3,-1.9,-4.6,36.2,,,,,,,,,,
15.10.10.268,52.9,13.2,0,,,59241.7,16.88,-1.21,-0.03,-0.51,13.9,-12.0,-19.4,36.54,,,,,,,,,,
15.10.10.279,36.9,9.2,0,,,59241.7,16.88,-1.03,-0.98,0.2,-15.7,7.3,20.3,36.27,,,,,,,,,,
15.10.10.290,89.7,22.4,0,,,59241.7,16.88,-0.96,-0.35,-0.13,-3.3,2.3,-6.9,36.36,,,,,,,,,,
15.10.10.298,92.8,23.2,0,,,59241.7,16.88,-1.22,-0.59,-0.01,0.8,-13.1,-1.7,36.65,,,,,,,,,,
15.10.10.306,82.6,20.6,0,,,59241.7,16.88,-0.75,-0.04,0.0,-23.2,1.7,11.8,36.19,,,,,,,,,,
15.10.10.315,49.6,12.4,0,,,59241.7,16.88,-1.24,-0.47,-0.1,-17.8,29.9,-8.8,36.3,,,,,,,,,,
15.10.10.325,36.2,9.0,0,,,59241.7,16.88,-1.17,-0.1,-0.19,-7.9,5.2,3.1,36.38,,,,,,,,,,
15.10.10.334,19.2,4.8,0,,,59241.7,16.88,-1.05,-0.35,0.16,9.2,14.3,-1.5,36.51,,,,,,,,,,
15.10.10.344,15.1,3.8,0,,,59241.7,16.88,-0.67,-0.14,-0.34,-3.0,6.8,-10.2,36.2,,,,,,,,,,
15.10.10.353,-16.8,4.2,0,,,59241.7,16.88,-1.06,-0.42,-0.7,-29.1,3.3,9.7,36.24,,,,,,,,,,
15.10.10.364,-17.3,4.3,0,,,59241.7,16.88,-0.52,-0.14,-0.16,-50.1,-4.6,11.2,36.18,,,,,,,,,,
15.10.10.375,-57.9,14.5,0,,,59241.7,16.88,-0.61,0.03,-0.5,2.5,18.6,8.5,36.29,,,,,,,,,,
15.10.10.383,-47.5,11.9,0,,,59241.7,16.88,-1.21,0.29,0.01,-18.4,7.2,-22.3,36.38,,,,,,,,,,
15.10.10.394,-95.6,23.9,0,,,59241.7,16.88,-0.59,-0.21,-0.72,26.0,-16.5,-8.7,36.25,,,,,,,,,,
15.10.10.405,-77.1,19.3,0,,,59241.7,16.88,-1.59,0.02,-0.34,-22.8,7.8,-9.0,36.38,,,,,,,,,,
15.10.10.415,-63.0,15.8,0,,,59241.7,16.88,-1.52,-0.3,-0.52,4.8,20.7,10.1,36.32,,,,,,,,,,
15.10.10.425,-71.4,17.8,0,,,59241.7,16.88,-1.26,-0.11,-0.48,-3.5,5.4,22.7,36.21,,,,,,,,,,
15.10.10.434,-82.5,20.6,0,,,59241.7,16.88,-1.09,-0.58,-0.61,20.1,0.9,8.7,36.22,,,,,,,,,,
15.10.10.443,-89.8,22.4,1,22.0,132.5,59241.7,16.88,-0.81,0.24,-0.31,1.0,20.9,-4.1,36.33,,,,,,,,,,
15.10.10.451,-101.3,25.3,0,,,59241.7,16.88,-0.84,-0.23,-0.52,-24.5,0.6,20.1,36.36,,,,,,,,,,
15.10.10.461,-66.4,16.6,0,,,59241.7,16.88,-0.72,-0.2,-0.59,10.8,0.1,-3.9,36.1,,,,,,,,,,
15.10.10.473,-64.7,16.2,0,,,59206.6,16.89,-1.11,-0.04,-0.76,-9.6,9.1,6.0,36.49,,,,,,,,,,
15.10.10.483,-104.0,26.0,0,,,59206.6,16.89,-0.4,0.14,-0.83,19.6,20.4,1.6,36.19,,,,,,,,,,
15.10.10.494,-71.9,18.0,0,,,59206.6,16.89,-0.7,0.45,-0.06,-31.0,15.2,13.5,36.37,,,,,,,,,,
15.10.10.503,-99.8,25.0,0,,,59206.6,16.89,-1.07,0.16,-0.54,24.2,7.3,12.2,36.38,,,,,,,,,,
15.10.10.514,-116.4,29.1,0,,,59206.6,16.89,-0.89,-0.09,-0.58,-21.1,18.2,-5.0,36.3,,,,,,,,,,
15.10.10.523,-97.3,24.3,0,,,59206.6,16.89,-0.72,-0.2,-0.47,-12.4,-3.2,7.1,36.44,,,,,,,,,,
15.10.10.530,-145.8,36.4,0,,,59206.6,16.89,-0.8,0.46,-0.45,16.0,12.2,-8.2,36.52,,,,,,,,,,
15.10.10.540,-122.6,30.6,0,,,59206.6,16.89,-0.55,-0.42,-0.73,11.6,-8.3,7.7,36.3,,,,,,,,,,
15.10.10.550,-91.7,22.9,0,,,59206.6,16.89,-0.76,0.03,0.2,-8.5,0.7,-12.8,36.18,,,,,,,,,,
15.10.10.557,-194.1,48.5,0,,,59206.6,16.89,-0.94,-0.07,0.1,13.0,7.8,4.6,36.56,,,,,,,,,,
15.10.10.567,-152.5,38.1,0,,,59206.6,16.89,-1.21,0.16,0.23,37.1,3.5,-11.2,36.42,,,,,,,,,,
15.10.10.577,69.1,17.3,0,,,59206.6,16.89,-0.9,-0.12,-0.38,9.1,-3.8,2.1,36.29,,,,,,,,,,
15.10.10.585,120.9,30.2,0,,,59206.6,16.89,-0.79,0.44,-0.28,7.4,0.8,-6.3,36.33,,,,,,,,,,
15.10.10.595,218.0,54.5,0,,,59206.6,16.89,-0.67,0.29,0.11,-7.1,26.4,-1.2,36.27,,,,,,,,,,
15.10.10.604,243.2,60.8,0,,,59206.6,16.89,-0.69,-0.44,0.05,24.2,25.7,11.2,36.27,,,,,,,,,,
15.10.10.612,316.5,79.1,0,,,59206.6,16.89,-0.6,0.01,-0.28,-20.9,-5.7,3.0,36.27,,,,,,,,,,
15.10.10.619,326.6,81.6,0,,,59206.6,16.89,-1.16,-0.3,-0.13,5.1,1.8,9.7,36.18,,,,,,,,,,
15.10.10.625,400.6,100.2,0,,,59206.6,16.89,-1.04,-0.31,-0.11,6.7,24.9,-25.6,36.16,,,,,,,,,,
15.10.10.635,387.3,96.8,0,,,59206.6,16.89,-0.83,0.34,-0.02,-16.6,6.0,3.1,36.24,,,,,,,,,,
15.10.10.645,399.6,99.9,0,,,59206.6,16.89,-0.75,0.2,0.56,-22.5,1.8,-9.3,36.5,,,,,,,,,,
15.10.10.656,388.5,97.1,0,,,59206.6,16.89,-0.65,-0.52,0.12,11.4,6.9,7.2,36.62,,,,,,,,,,
15.10.10.664,380.3,95.1,0,,,59206.6,16.89,-1.1,0.02,-0.23,-17.0,-4.0,-9.0,36.36,,,,,,,,,,
15.10.10.672,383.5,95.9,0,,,59206.6,16.89,-0.72,0.07,0.17,-8.3,12.0,13.3,36.36,,,,,,,,,,
15.10.10.681,366.3,91.6,0,,,59206.6,16.89,-0.78,-0.33,0.24,24.5,22.5,-1.3,36.21,,,,,,,,,,
15.10.10.692,313.6,78.4,0,,,59206.6,16.89,-0.85,-0.08,-0.04,17.0,10.6,9.4,36.32,,,,,,,,,,
15.10.10.700,304.1,76.0,0,,,59206.6,16.89,-0.75,0.2,0.4,-7.8,-17.6,-3.9,36.17,,,,,,,,,,
15.10.10.708,204.4,51.1,0,,,59206.6,16.89,-0.68,0.18,0.02,-12.8,17.1,9.1,36.41,,,,,,,,,,
15.10.10.717,194.8,48.7,0,,,59206.6,16.89,-0.72,-0.19,0.07,15.2,7.4,-8.6,36.43,,,,,,,,,,
15.10.10.727,109.9,27.5,0,,,59206.6,16.89,-0.66,-0.28,0.26,13.3,9.9,-25.6,36.35,,,,,,,,,,
15.10.10.737,35.8,9.0,0,,,59206.6,16.89,-0.68,-0.22,-0.24,-5.6,10.7,-10.1,36.15,,,,,,,,,,
15.10.10.746,14.8,3.7,0,,,59206.6,16.89,-0.54,0.12,0.4,23.6,-17.4,11.9,36.43,,,,,,,,,,
15.10.10.756,46.5,11.6,0,,,59206.6,16.89,-0.89,0.42,-0.01,-22.8,-4.8,11.6,36.33,,,,,,,,,,
15.10.10.764,61.4,15.4,0,,,59206.6,16.89,-1.08,-0.04,-0.53,22.3,-19.5,8.0,36.1,,,,,,,,,,
15.10.10.774,64.3,16.1,0,,,59206.6,16.89,-0.95,0.17,-0.19,17.8,20.2,20.5,36.44,,,,,,,,,,
15.10.10.785,65.1,16.3,0,,,59206.6,16.89,-0.61,-0.04,-0.32,30.4,12.7,-19.0,36.37,,,,,,,,,,
15.10.10.796,69.4,17.4,0,,,59206.6,16.89,-0.64,-0.51,0.28,-16.4,28.9,5.8,36.06,,,,,,,,,,
15.10.10.807,77.4,19.4,0,,,59206.6,16.89,-0.79,-0.69,-0.21,24.5,4.1,-17.5,36.49,,,,,,,,,,
15.10.10.816,20.6,5.2,0,,,59206.6,16.89,-0.69,-0.15,-0.3,23.0,5.3,5.5,36.04,,,,,,,,,,
15.10.10.826,66.2,16.6,0,,,59206.6,16.89,-0.36,0.2,-0.65,3.7,-5.7,-10.2,36.42,,,,,,,,,,
15.10.10.837,1.3,0.3,0,,,59206.6,16.89,-0.69,-0.27,-0.22,11.9,12.8,-1.9,36.3,,,,,,,,,,
15.10.10.846,-1.4,0.4,0,,,59206.6,16.89,-0.83,-0.48,-0.46,21.7,14.4,-2.5,36.37,,,,,,,,,,
15.10.10.856,-45.6,11.4,0,,,59206.6,16.89,-0.6,-0.39,-0.33,22.6,5.6,-0.7,36.26,,,,,,,,,,
15.10.10.866,-43.2,10.8,0,,,59206.6,16.89,-0.4,-0.61,-0.04,15.1,16.6,-8.2,36.29,,,,,,,,,,
15.10.10.876,-1.5,0.4,1,23.0,138.6,59206.6,16.89,-0.85,-0.86,-0.53,33.7,20.2,-8.0,36.31,,,,,,,,,,
15.10.10.885,-66.4,16.6,0,,,59206.6,16.89,-0.64,-0.19,-1.13,-1.9,12.8,-12.3,36.36,,,,,,,,,,
15.10.10.895,-37.5,9.4,0,,,59206.6,16.89,-0.89,-0.27,-0.42,0.6,6.7,3.3,36.31,,,,,,,,,,
15.10.10.903,-102.6,25.6,0,,,59206.6,16.89,-1.1,-0.61,-0.49,-6.4,0.8,-4.4,36.3,,,,,,,,,,
15.10.10.914,-58.2,14.6,0,,,59206.6,16.89,-0.94,-0.7,0.03,32.1,6.6,1.8,36.27,,,,,,,,,,
15.10.10.923,-30.6,7.6,0,,,59206.6,16.89,-0.63,-0.43,-0.06,1.0,25.6,14.4,36.47,,,,,,,,,,
15.10.10.935,-67.8,17.0,0,,,59206.6,16.89,-1.12,-0.37,0.01,7.3,-1.1,2.2,36.24,,,,,,,,,,
15.10.10.944,-74.6,18.6,0,,,59206.6,16.89,-1.0,-0.33,-0.24,-31.3,12.3,-2.7,36.25,,,,,,,,,,
15.10.10.955,-88.0,22.0,0,,,59206.6,16.89,-0.99,0.03,-0.37,8.9,6.9,0.1,36.34,,,,,,,,,,
15.10.10.965,-92.9,23.2,0,,,59206.6,16.89,-0.64,-0.01,-0.19,15.9,-1.1,-1.4,36.4,,,,,,,,,,
15.10.10.974,-107.9,27.0,0,,,59206.6,16.89,-0.91,-0.18,-0.05,15.7,34.0,8.3,36.57,,,,,,,,,,
15.10.10.985,-87.4,21.8,0,,,59206.6,16.89,-0.96,-0.76,-0.37,-17.0,17.7,13.2,36.26,,,,,,,,,,
15.10.10.995,-107.6,26.9,0,,,59206.6,16.89,-0.75,-0.57,-0.25,-25.5,18.4,6.7,36.29,,,,,,,,,,
15.10.11.005,-120.5,30.1,0,,,59206.6,16.89,-1.12,-0.19,-0.39,-7.9,17.4,4.9,36.48,,,,,,,,,,
15.10.11.014,-110.4,27.6,0,,,59206.6,16.89,-0.89,-0.52,-0.13,-25.6,-11.2,-18.4,36.2,,,,,,,,,,
15.10.11.025,-130.1,32.5,0,,,59206.6,16.89,-0.89,-0.64,0.08,10.4,8.3,-13.5,36.25,,,,,,,,,,
15.10.11.035,-141.1,35.3,0,,,59206.6,16.89,-1.12,-0.56,-0.22,25.0,16.1,-14.9,36.12,,,,,,,,,,
15.10.11.047,-145.8,36.4,0,,,59206.6,16.89,-0.88,-0.73,0.29,-1.5,-34.0,-23.9,36.24,,,,,,,,,,
15.10.11.055,-170.0,42.5,0,,,59206.6,16.89,-1.16,-0.46,0.14,-22.5,-0.4,-9.5,36.29,,,,,,,,,,
15.10.11.064,-178.0,44.5,0,,,59241.7,16.88,-0.84,-0.11,0.06,-34.8,-10.4,6.3,36.33,,,,,,,,,,
15.10.11.075,29.6,7.4,0,,,59241.7,16.88,-0.78,0.27,0.24,3.6,6.7,1.2,36.44,,,,,,,,,,
15.10.11.086,148.9,37.2,0,,,59241.7,16.88,-1.14,-0.6,0.03,1.5,24.7,12.5,36.69,,,,,,,,,,
15.10.11.096,260.3,65.1,0,,,59241.7,16.88,-0.82,-0.38,-0.27,21.3,4.7,-1.7,36.3,,,,,,,,,,
15.10.11.105,262.6,65.6,0,,,59241.7,16.88,-1.14,-0.99,0.27,-8.1,4.5,25.1,36.3,,,,,,,,,,
15.10.11.117,304.3,76.1,0,,,59241.7,16.88,-0.99,-0.4,-0.79,-29.5,3.4,10.9,36.29,,,,,,,,,,
15.10.11.127,345.3,86.3,0,,,59241.7,16.88,-1.03,-0.18,0.28,-21.1,4.4,-6.3,36.45,,,,,,,,,,
15.10.11.138,432.8,108.2,0,,,59241.7,16.88,-0.95,-0.03,0.4,1.6,-0.6,12.0,36.35,,,,,,,,,,
15.10.11.147,386.9,96.7,0,,,59241.7,16.88,-1.19,-0.61,-0.07,1.1,5.4,-11.7,36.34,,,,,,,,,,
15.10.11.158,419.0,104.8,0,,,59241.7,16.88,-0.87,-0.16,-0.22,-14.8,-13.7,-30.3,36.17,,,,,,,,,,
15.10.11.169,374.8,93.7,0,,,59241.7,16.88,-0.78,-0.08,-0.36,-22.3,-14.4,-0.8,36.53,,,,,,,,,,
15.10.11.180,322.5,80.6,0,,,59241.7,16.88,-0.96,-0.6,-0.09,22.6,8.5,-1.2,36.25,,,,,,,,,,
15.10.11.189,350.5,87.6,0,,,59241.7,16.88,-0.34,-0.41,-0.14,10.4,12.1,11.4,36.28,,,,,,,,,,
15.10.11.200,257.5,64.4,0,,,59241.7,16.88,-1.08,0.52,0.16,2.4,18.1,-10.9,36.55,,,,,,,,,,
15.10.11.209,216.9,54.2,0,,,59241.7,16.88,-1.11,-0.22,-0.33,-27.1,4.4,0.7,36.42,,,,,,,,,,
15.10.11.218,166.0,41.5,0,,,59241.7,16.88,-1.33,-0.41,-0.47,-14.3,23.6,3.1,36.22,,,,,,,,,,
15.10.11.227,69.2,17.3,0,,,59241.7,16.88,-1.12,-0.25,-0.37,35.2,-0.8,5.8,36.42,,,,,,,,,,
15.10.11.235,30.1,7.5,0,,,59241.7,16.88,-0.96,-0.47,-0.58,0.9,11.7,6.3,36.41,,,,,,,,,,
15.10.11.244,42.5,10.6,0,,,59241.7,16.88,-1.24,-0.25,0.31,26.4,15.3,-4.8,36.35,,,,,,,,,,
15.10.11.257,69.2,17.3,0,,,59241.7,16.88,-1.0,0.0,-0.54,5.7,3.7,-18.0,36.32,,,,,,,,,,
15.10.11.267,71.9,18.0,0,,,59241.7,16.88,-0.99,-0.16,-0.59,-2.2,-6.3,-15.2,36.19,,,,,,,,,,
15.10.11.277,77.0,19.2,0,,,59241.7,16.88,-1.05,0.31,-0.26,10.4,26.3,-1.3,36.24,,,,,,,,,,
15.10.11.288,62.5,15.6,0,,,59241.7,16.88,-1.42,0.33,-0.26,11.1,-9.2,5.1,36.21,,,,,,,,,,
15.10.11.297,52.8,13.2,0,,,59241.7,16.88,-1.18,0.03,-0.36,5.6,25.3,-3.1,36.48,,,,,,,,,,
15.10.11.308,40.5,10.1,0,,,59241.7,16.88,-1.28,0.26,-0.67,1.1,-12.1,2.3,36.31,,,,,,,,,,
15.10.11.319,56.6,14.2,0,,,59241.7,16.88,-0.84,0.31,0.05,10.8,-8.2,-6.6,36.1,,,,,,,,,,
15.10.11.329,37.1,9.3,0,,,59241.7,16.88,-0.88,-0.03,0.48,2.8,13.5,-11.4,36.46,,,,,,,,,,
15.10.11.338,-15.8,4.0,0,,,59241.7,16.88,-1.16,0.05,0.09,-11.0,18.7,6.4,36.11,,,,,,,,,,
15.10.11.347,14.6,3.6,0,,,59241.7,16.88,-0.86,0.05,-0.65,6.3,-9.6,12.8,36.21,,,,,,,,,,
15.10.11.356,-25.4,6.4,0,,,59241.7,16.88,-0.58,0.29,-0.36,-9.3,2.9,3.5,36.28,,,,,,,,,,
15.10.11.363,-9.9,2.5,0,,,59241.7,16.88,-1.34,0.16,-0.58,7.6,-1.3,27.8,36.23,,,,,,,,,,
15.10.11.373,-8.2,2.0,0,,,59241.7,16.88,-1.03,-0.05,-0.51,-32.5,4.9,-2.1,36.37,,,,,,,,,,
15.10.11.382,-26.1,6.5,1,24.0,118.6,59241.7,16.88,-1.08,0.55,-0.31,-10.2,-1.1,0.5,36.32,,,,,,,,,,
15.10.11.392,-17.2,4.3,0,,,59241.7,16.88,-1.14,-0.01,-0.17,0.2,-0.2,1.6,36.48,,,,,,,,,,
15.10.11.403,-43.1,10.8,0,,,59241.7,16.88,-0.79,-0.01,-0.69,-25.4,-8.0,9.2,36.52,,,,,,,,,,
15.10.11.412,-40.8,10.2,0,,,59241.7,16.88,-0.87,0.2,0.59,-23.3,15.3,-3.7,36.31,,,,,,,,,,
15.10.11.421,-67.7,16.9,0,,,59241.7,16.88,-0.99,0.19,-0.5,-13.1,21.4,-6.1,36.28,,,,,,,,,,
15.10.11.428,-79.4,19.8,0,,,59241.7,16.88,-1.18,-0.2,-0.39,0.1,10.7,-22.2,36.42,,,,,,,,,,
15.10.11.436,-58.1,14.5,0,,,59241.7,16.88,-0.86,0.18,-0.38,34.0,6.9,-9.8,36.37,,,,,,,,,,
15.10.11.444,-95.1,23.8,0,,,59241.7,16.88,-0.77,0.04,0.12,-2.5,14.0,-9.0,36.07,,,,,,,,,,
15.10.11.455,-112.5,28.1,0,,,59241.7,16.88,-0.71,0.16,-0.68,5.3,5.4,5.5,36.21,,,,,,,,,,
15.10.11.466,-75.9,19.0,0,,,59241.7,16.88,-0.83,0.1,0.04,-0.3,4.1,-12.6,36.54,,,,,,,,,,
15.10.11.477,-123.5,30.9,0,,,59241.7,16.88,-0.62,0.16,0.17,38.1,15.1,-11.8,36.24,,,,,,,,,,
15.10.11.489,-104.8,26.2,0,,,59241.7,16.88,-1.07,0.24,0.29,-5.7,6.7,-8.7,36.35,,,,,,,,,,
15.10.11.499,-121.0,30.2,0,,,59241.7,16.88,-1.0,0.27,-0.16,-15.5,-7.2,-3.1,36.28,,,,,,,,,,
15.10.11.507,-107.0,26.8,0,,,59241.7,16.88,-0.82,-0.17,-0.38,-9.1,3.3,2.2,36.44,,,,,,,,,,
15.10.11.516,-107.4,26.8,0,,,59241.7,16.88,-0.38,0.22,0.37,11.6,6.5,-0.0,36.07,,,,,,,,,,
15.10.11.526,-127.2,31.8,0,,,59241.7,16.88,-0.79,0.33,-0.54,-0.6,-8.8,6.0,36.22,,,,,,,,,,
15.10.11.535,-148.5,37.1,0,,,59241.7,16.88,-0.75,0.17,0.34,24.0,26.5,-2.9,36.15,,,,,,,,,,
15.10.11.544,-157.2,39.3,0,,,59241.7,16.88,-0.9,0.06,0.3,-1.2,-4.9,-11.6,36.26,,,,,,,,,,
15.10.11.554,-168.2,42.0,0,,,59241.7,16.88,-0.81,0.04,0.09,-19.0,-5.8,10.6,36.48,,,,,,,,,,
15.10.11.565,15.6,3.9,0,,,59241.7,16.88,-0.54,-0.17,0.59,22.0,-9.2,-5.3,36.27,,,,,,,,,,
15.10.11.571,70.2,17.6,0,,,59241.7,16.88,-0.87,0.65,0.11,-6.6,20.0,-1.5,36.34,,,,,,,,,,
15.10.11.580,120.0,30.0,0,,,59241.7,16.88,-0.89,-0.29,-0.14,19.5,5.3,19.6,36.42,,,,,,,,,,
15.10.11.591,198.5,49.6,0,,,59241.7,16.88,-0.9,-0.53,0.23,2.0,10.6,3.6,36.36,,,,,,,,,,
15.10.11.601,275.3,68.8,0,,,59276.8,16.87,-1.02,-0.11,-0.17,9.1,19.4,3.7,36.49,,,,,,,,,,
15.10.11.610,306.7,76.7,0,,,59276.8,16.87,-0.68,-0.84,0.03,-13.1,10.0,4.7,36.36,,,,,,,,,,
15.10.11.621,384.1,96.0,0,,,59276.8,16.87,-0.53,-0.0,0.34,27.4,10.3,-2.1,36.27,,,,,,,,,,
15.10.11.632,365.6,91.4,0,,,59276.8,16.87,-0.6,0.13,0.25,-9.0,17.1,-8.8,36.39,,,,,,,,,,
15.10.11.643,408.5,102.1,0,,,59276.8,16.87,-0.53,-0.15,-0.23,-7.4,-8.4,4.8,36.1,,,,,,,,,,
15.10.11.654,428.6,107.2,0,,,59276.8,16.87,-0.82,-0.08,-0.11,19.5,4.0,-6.2,36.38,,,,,,,,,,
15.10.11.662,438.0,109.5,0,,,59276.8,16.87,-0.7,0.29,-0.51,2.8,16.0,5.2,36.32,,,,,,,,,,
15.10.11.669,401.8,100.4,0,,,59276.8,16.87,-0.65,-0.55,-0.57,28.2,16.3,-8.9,36.19,,,,,,,,,,
15.10.11.678,379.0,94.8,0,,,59276.8,16.87,-0.64,-0.33,0.13,-44.3,4.0,-4.5,36.28,,,,,,,,,,
15.10.11.687,317.5,79.4,0,,,59276.8,16.87,-0.38,-0.6,-0.37,-27.8,-3.4,9.3,36.21,,,,,,,,,,
15.10.11.697,282.6,70.6,0,,,59276.8,16.87,-0.76,-0.51,-0.1,0.2,-0.9,-2.7,36.44,,,,,,,,,,
15.10.11.706,248.2,62.0,0,,,59276.8,16.87,-0.73,0.3,-0.21,10.3,0.8,10.0,36.34,,,,,,,,,,
15.10.11.716,129.9,32.5,0,,,59276.8,16.87,-1.09,-0.25,-0.44,48.3,2.1,-7.1,36.25,,,,,,,,,,
15.10.11.725,52.8,13.2,0,,,59276.8,16.87,-1.04,-0.06,-0.58,1.5,-1.5,13.5,36.56,,,,,,,,,,
15.10.11.735,19.3,4.8,0,,,59276.8,16.87,-1.13,-0.62,-0.76,-28.0,16.8,2.5,36.37,,,,,,,,,,
15.10.11.744,-12.0,3.0,0,,,59276.8,16.87,-0.81,-0.06,-0.9,35.7,4.4,2.1,36.29,,,,,,,,,,
15.10.11.754,37.4,9.4,0,,,59276.8,16.87,-0.62,-0.21,-0.44,-6.1,-11.6,5.9,36.26,,,,,,,,,,
15.10.11.763,50.9,12.7,0,,,59276.8,16.87,-0.97,-0.15,-0.52,-22.2,15.9,10.2,36.35,,,,,,,,,,
15.10.11.772,51.3,12.8,0,,,59276.8,16.87,-0.68,-0.21,-0.12,-10.7,25.6,1.3,36.49,,,,,,,,,,
15.10.11.783,90.6,22.6,0,,,59276.8,16.87,-0.48,-0.28,-0.52,16.2,4.3,-11.7,36.3,,,,,,,,,,
15.10.11.792,86.7,21.7,0,,,59276.8,16.87,-0.85,-0.19,0.33,17.9,-3.3,11.5,36.15,,,,,,,,,,
15.10.11.802,71.2,17.8,0,,,59276.8,16.87,-0.56,-0.21,-0.31,0.3,-8.3,-12.7,36.26,,,,,,,,,,
15.10.11.814,78.7,19.7,0,,,59276.8,16.87,-0.86,-0.77,0.05,-17.8,12.2,-8.5,36.35,,,,,,,,,,
15.10.11.823,33.8,8.4,0,,,59276.8,16.87,-0.96,-0.41,-0.03,-30.9,17.9,3.4,36.12,,,,,,,,,,
15.10.11.833,15.5,3.9,0,,,59276.8,16.87,-0.62,-0.59,-0.28,38.9,-4.7,-8.9,36.26,,,,,,,,,,
15.10.11.840,19.5,4.9,0,,,59276.8,16.87,-0.71,-0.11,-0.25,-3.4,-2.6,2.4,36.27,,,,,,,,,,
15.10.11.850,-8.3,2.1,0,,,59276.8,16.87,-0.78,-0.44,-0.49,-16.9,-1.5,-3.3,36.37,,,,,,,,,,
15.10.11.860,9.4,2.4,0,,,59276.8,16.87,-0.61,0.01,-0.29,-17.3,-5.3,3.4,36.51,,,,,,,,,,
15.10.11.869,-0.6,0.2,0,,,59276.8,16.87,-0.83,-0.28,-0.39,-15.5,29.5,4.5,36.26,,,,,,,,,,
15.10.11.878,-19.2,4.8,0,,,59276.8,16.87,-0.77,-1.02,0.08,-11.7,5.8,5.7,36.29,,,,,,,,,,
15.10.11.889,-38.3,9.6,1,25.0,118.3,59276.8,16.87,-1.02,-0.11,0.15,-2.9,4.3,1.3,36.42,,,,,,,,,,
15.10.11.897,-61.6,15.4,0,,,59276.8,16.87,-1.24,-0.26,-0.11,15.6,-19.9,-10.9,36.44,,,,,,,,,,
15.10.11.907,-45.0,11.2,0,,,59276.8,16.87,-0.91,-0.45,-0.56,-36.0,-1.6,1.1,36.09,,,,,,,,,,
15.10.11.917,-42.6,10.6,0,,,59276.8,16.87,-0.83,-0.19,-0.53,-0.5,-13.4,-7.5,36.61,,,,,,,,,,
15.10.11.926,-63.2,15.8,0,,,59276.8,16.87,-1.01,0.13,-0.31,-11.5,1.9,-4.6,36.04,,,,,,,,,,
15.10.11.935,-84.2,21.0,0,,,59276.8,16.87,-0.85,-0.25,-0.11,14.8,0.4,-22.7,36.34,,,,,,,,,,
15.10.11.944,-100.7,25.2,0,,,59276.8,16.87,-0.89,-0.02,-0.18,-7.8,-14.0,10.1,36.27,,,,,,,,,,
15.10.11.952,-89.0,22.2,0,,,59276.8,16.87,-0.93,-0.1,-0.39,1.5,-1.9,-8.3,36.25,,,,,,,,,,
15.10.11.961,-100.4,25.1,0,,,59276.8,16.87,-0.8,-0.54,-0.33,9.7,3.6,-0.5,36.04,,,,,,,,,,
15.10.11.970,-99.3,24.8,0,,,59276.8,16.87,-0.83,-0.35,-0.28,9.9,20.9,-14.4,36.23,,,,,,,,,,
15.10.11.980,-136.8,34.2,0,,,59276.8,16.87,-0.58,-0.31,0.05,-14.6,11.8,1.1,36.53,,,,,,,,,,
15.10.11.990,-122.9,30.7,0,,,59276.8,16.87,-0.78,-0.38,0.1,0.8,21.0,2.0,36.29,,,,,,,,,,
15.10.11.999,-92.2,23.0,0,,,59276.8,16.87,-1.09,-0.22,-0.42,21.3,-2.0,2.7,36.29,,,,,,,,,,
15.10.12.010,-117.0,29.2,0,,,59276.8,16.87,-1.18,0.01,-0.21,-8.2,4.1,-9.4,36.18,,,,,,,,,,
15.10.12.020,-122.8,30.7,0,,,59276.8,16.87,-0.99,-0.36,0.09,-2.7,-5.9,-11.8,36.44,,,,,,,,,,
15.10.12.029,-184.7,46.2,0,,,59276.8,16.87,-1.39,0.07,-0.02,2.6,14.6,15.8,35.97,,,,,,,,,,
15.10.12.040,-164.4,41.1,0,,,59276.8,16.87,-1.03,-0.05,-0.18,26.1,5.3,-7.6,36.32,,,,,,,,,,
15.10.12.049,-176.0,44.0,0,,,59276.8,16.87,-1.17,-0.81,0.32,17.4,3.3,-10.0,36.37,,,,,,,,,,
15.10.12.058,-163.4,40.8,0,,,59276.8,16.87,-0.78,-0.03,-0.09,-19.6,-2.1,-2.4,36.11,,,,,,,,,,
15.10.12.068,19.9,5.0,0,,,59276.8,16.87,-1.16,-0.18,-0.38,-3.1,13.9,14.5,36.51,,,,,,,,,,
15.10.12.076,89.7,22.4,0,,,59276.8,16.87,-1.08,-0.1,-0.33,-0.0,-7.8,-10.8,36.35,,,,,,,,,,
15.10.12.083,143.3,35.8,0,,,59276.8,16.87,-1.03,-0.12,-0.09,-34.0,10.8,-8.7,36.05,,,,,,,,,,
15.10.12.092,236.8,59.2,0,,,59276.8,16.87,-1.28,-0.4,0.11,-1.1,-21.1,-3.8,36.34,,,,,,,,,,
15.10.12.101,242.5,60.6,0,,,59276.8,16.87,-0.94,-0.32,-0.53,32.5,21.2,-9.0,36.34,,,,,,,,,,
15.10.12.111,324.6,81.2,0,,,59276.8,16.87,-1.19,-0.36,-0.26,1.5,4.7,9.0,36.36,,,,,,,,,,
15.10.12.120,351.7,87.9,0,,,59276.8,16.87,-1.09,-0.15,0.12,23.7,11.6,-5.2,35.94,,,,,,,,,,
15.10.12.130,409.4,102.4,0,,,59276.8,16.87,-0.92,-0.09,-0.41,6.1,-9.4,-3.0,36.2,,,,,,,,,,
15.10.12.139,428.2,107.0,0,,,59276.8,16.87,-0.96,0.04,-0.56,5.9,7.2,16.1,36.52,,,,,,,,,,
15.10.12.147,408.7,102.2,0,,,59276.8,16.87,-0.7,0.21,-0.45,-38.3,41.8,-4.0,36.14,,,,,,,,,,
15.10.12.155,428.2,107.0,0,,,59276.8,16.87,-0.8,0.01,-0.24,-8.5,18.1,-4.7,36.21,,,,,,,,,,
15.10.12.164,400.9,100.2,0,,,59276.8,16.87,-0.96,-0.18,-0.62,4.2,2.4,-3.3,36.3,,,,,,,,,,
15.10.12.174,345.2,86.3,0,,,59276.8,16.87,-1.11,-0.39,-0.48,-0.6,11.1,0.4,36.45,,,,,,,,,,
15.10.12.186,278.7,69.7,0,,,59276.8,16.87,-0.92,0.14,-0.02,-7.6,14.6,0.3,36.33,,,,,,,,,,
15.10.12.196,275.4,68.8,0,,,59276.8,16.87,-0.91,0.45,0.01,39.7,16.3,7.8,36.37,,,,,,,,,,
15.10.12.207,196.6,49.2,0,,,59276.8,16.87,-0.9,0.15,-0.51,-7.9,6.8,-1.8,36.68,,,,,,,,,,
15.10.12.216,101.9,25.5,0,,,59276.8,16.87,-0.99,-0.13,0.12,13.5,0.2,-8.9,36.24,,,,,,,,,,
15.10.12.224,76.1,19.0,0,,,59276.8,16.87,-1.22,-0.13,-0.12,44.4,14.5,22.4,36.34,,,,,,,,,,
15.10.12.236,24.8,6.2,0,,,59276.8,16.87,-0.97,0.0,-0.35,-9.7,-2.1,8.6,36.54,,,,,,,,,,
15.10.12.247,15.9,4.0,0,,,59276.8,16.87,-0.77,-0.03,-0.43,-9.6,17.9,-13.0,36.15,,,,,,,,,,
15.10.12.257,35.4,8.8,0,,,59276.8,16.87,-1.01,-0.08,-0.46,-9.1,5.8,0.3,36.28,,,,,,,,,,
15.10.12.267,56.4,14.1,0,,,59276.8,16.87,-1.15,0.02,-0.22,14.7,-8.6,-12.4,36.25,,,,,,,,,,
15.10.12.276,80.3,20.1,0,,,59312.0,16.86,-1.16,0.02,-0.36,30.8,14.0,18.2,36.27,,,,,,,,,,
15.10.12.287,89.5,22.4,0,,,59312.0,16.86,-1.03,0.09,-0.67,23.8,-8.7,-6.7,36.37,,,,,,,,,,
15.10.12.297,62.5,15.6,0,,,59312.0,16.86,-0.63,-0.64,-0.2,-0.0,21.2,11.3,36.32,,,,,,,,,,
15.10.12.307,74.6,18.6,0,,,59312.0,16.86,-0.85,0.17,-0.61,16.3,-4.5,-0.6,36.62,,,,,,,,,,
15.10.12.317,-2.7,0.7,0,,,59312.0,16.86,-0.6,-0.3,-0.57,10.3,1.7,1.6,36.45,,,,,,,,,,
15.10.12.327,3.9,1.0,0,,,59312.0,16.86,-0.87,0.27,-0.38,-2.3,-1.4,-6.6,36.25,,,,,,,,,,
15.10.12.337,18.5,4.6,0,,,59312.0,16.86,-0.76,-0.59,-0.15,0.8,15.3,9.6,36.4,,,,,,,,,,
15.10.12.349,2.7,0.7,0,,,59312.0,16.86,-0.74,0.11,-0.23,20.0,2.0,-19.9,36.46,,,,,,,,,,
15.10.12.360,-15.8,4.0,0,,,59312.0,16.86,-0.9,-0.52,-0.39,21.5,-11.5,-9.4,36.22,,,,,,,,,,
15.10.12.367,-52.4,13.1,0,,,59312.0,16.86,-0.95,0.57,-0.35,1.9,6.5,-11.6,36.18,,,,,,,,,,
15.10.12.376,-61.2,15.3,0,,,59312.0,16.86,-0.61,0.06,-0.13,-28.7,-13.8,8.7,36.31,,,,,,,,,,
15.10.12.385,-63.8,16.0,0,,,59312.0,16.86,-0.8,0.19,-0.07,-18.0,15.0,-17.2,36.48,,,,,,,,,,
15.10.12.394,-21.4,5.4,0,,,59312.0,16.86,-0.74,-0.22,-0.19,-46.3,44.3,12.5,36.45,,,,,,,,,,
15.10.12.402,-34.1,8.5,1,26.0,117.0,59312.0,16.86,-1.0,0.22,-0.01,-15.2,7.6,-7.2,36.31,,,,,,,,,,
15.10.12.414,-56.3,14.1,0,,,59312.0,16.86,-1.14,-0.48,-0.53,-36.2,-18.3,-10.0,36.38,,,,,,,,,,
15.10.12.425,-75.9,19.0,0,,,59312.0,16.86,-0.98,-0.58,0.27,-10.5,0.3,-9.6,36.31,,,,,,,,,,
15.10.12.434,-88.6,22.2,0,,,59312.0,16.86,-0.82,-0.17,-0.27,-0.8,-12.3,-1.5,36.39,,,,,,,,,,
15.10.12.443,-61.2,15.3,0,,,59312.0,16.86,-0.82,-0.08,0.1,7.3,21.1,-6.7,36.25,,,,,,,,,,
15.10.12.454,-98.8,24.7,0,,,59312.0,16.86,-0.8,0.12,-0.34,18.9,18.9,1.5,36.32,,,,,,,,,,
15.10.12.464,-97.2,24.3,0,,,59312.0,16.86,-0.68,-0.18,-0.78,4.8,9.0,-13.6,36.37,,,,,,,,,,
15.10.12.474,-66.2,16.6,0,,,59312.0,16.86,-0.64,-0.55,-0.55,-15.8,-0.4,-10.2,36.21,,,,,,,,,,
15.10.12.483,-99.3,24.8,0,,,59312.0,16.86,-0.65,-0.01,-0.57,2.5,-8.2,11.0,36.46,,,,,,,,,,
15.10.12.493,-142.1,35.5,0,,,59312.0,16.86,-0.75,0.11,0.16,-1.1,33.0,12.4,36.45,,,,,,,,,,
15.10.12.502,-106.1,26.5,0,,,59312.0,16.86,-0.75,-0.21,-0.42,17.9,13.1,-10.8,36.51,,,,,,,,,,
15.10.12.510,-118.0,29.5,0,,,59312.0,16.86,-0.68,0.23,0.05,-8.6,-16.4,-3.0,36.36,,,,,,,,,,
15.10.12.519,-108.0,27.0,0,,,59312.0,16.86,-0.37,-0.33,-0.54,9.6,-10.0,9.4,36.45,,,,,,,,,,
15.10.12.529,-134.7,33.7,0,,,59312.0,16.86,-0.68,-0.23,-0.56,20.3,-8.0,-7.2,36.76,,,,,,,,,,
15.10.12.539,-159.9,40.0,0,,,59312.0,16.86,-0.62,-0.79,-0.64,11.9,18.3,10.8,36.11,,,,,,,,,,
15.10.12.549,-164.7,41.2,0,,,59312.0,16.86,-0.57,0.12,0.18,-8.1,30.2,7.1,36.06,,,,,,,,,,
15.10.12.560,41.4,10.4,0,,,59312.0,16.86,-0.76,-0.08,0.13,18.9,-5.9,8.8,36.36,,,,,,,,,,
15.10.12.570,137.8,34.4,0,,,59312.0,16.86,-0.69,0.01,-0.66,13.7,10.4,5.0,36.27,,,,,,,,,,
15.10.12.580,205.3,51.3,0,,,59312.0,16.86,-0.9,0.14,-1.09,-12.4,9.0,16.7,36.29,,,,,,,,,,
15.10.12.588,221.6,55.4,0,,,59312.0,16.86,-0.87,-0.49,0.13,-12.4,-2.5,11.4,36.48,,,,,,,,,,
15.10.12.597,283.2,70.8,0,,,59312.0,16.86,-0.94,-0.08,-0.23,4.6,-2.2,12.1,36.34,,,,,,,,,,
15.10.12.606,301.1,75.3,0,,,59312.0,16.86,-0.59,-0.66,-0.49,-5.3,7.9,7.9,36.21,,,,,,,,,,
15.10.12.615,388.0,97.0,0,,,59312.0,16.86,-0.79,0.06,-0.69,-25.0,-6.2,7.0,36.25,,,,,,,,,,
15.10.12.627,414.1,103.5,0,,,59312.0,16.86,-0.67,-0.07,-0.52,9.6,19.0,5.1,36.23,,,,,,,,,,
15.10.12.634,451.5,112.9,0,,,59312.0,16.86,-0.7,-0.47,-0.45,8.1,-12.2,4.0,36.24,,,,,,,,,,
15.10.12.644,387.9,97.0,0,,,59312.0,16.86,-0.72,-0.44,-0.21,-2.4,0.2,5.3,36.08,,,,,,,,,,
15.10.12.654,369.9,92.5,0,,,59312.0,16.86,-0.91,-1.04,-0.53,16.1,-6.2,-2.0,36.18,,,,,,,,,,
15.10.12.663,365.4,91.4,0,,,59312.0,16.86,-1.06,-0.51,-0.24,5.3,-0.7,8.9,36.46,,,,,,,,,,
15.10.12.671,351.2,87.8,0,,,59312.0,16.86,-0.73,0.16,-0.51,-2.3,6.4,-9.0,36.49,,,,,,,,,,
15.10.12.681,333.7,83.4,0,,,59312.0,16.86,-0.45,-0.19,-0.74,-17.3,9.9,-4.5,36.28,,,,,,,,,,
15.10.12.691,260.6,65.2,0,,,59312.0,16.86,-0.74,-0.57,0.12,-12.6,16.4,-12.0,36.22,,,,,,,,,,
15.10.12.699,219.4,54.8,0,,,59312.0,16.86,-0.91,-0.16,-0.36,-21.5,16.4,5.5,36.26,,,,,,,,,,
15.10.12.708,140.9,35.2,0,,,59312.0,16.86,-1.02,-0.17,-0.49,-24.9,2.6,-12.4,36.11,,,,,,,,,,
15.10.12.717,63.1,15.8,0,,,59312.0,16.86,-1.01,-0.67,-0.42,17.5,11.6,7.5,36.37,,,,,,,,,,
15.10.12.726,7.3,1.8,0,,,59312.0,16.86,-1.27,-0.51,-0.14,-31.9,14.5,2.8,36.23,,,,,,,,,,
15.10.12.735,-12.5,3.1,0,,,59312.0,16.86,-1.04,-0.63,-0.19,-1.3,-4.4,19.1,36.33,,,,,,,,,,
15.10.12.745,33.9,8.5,0,,,59312.0,16.86,-0.89,-0.2,0.08,26.2,-10.3,1.8,36.17,,,,,,,,,,
15.10.12.755,28.1,7.0,0,,,59312.0,16.86,-1.22,-0.69,0.25,-2.5,23.0,6.9,36.27,,,,,,,,,,
15.10.12.766,78.6,19.6,0,,,59312.0,16.86,-1.11,-0.35,-0.55,1.9,-4.8,-4.7,36.51,,,,,,,,,,
15.10.12.777,88.5,22.1,0,,,59312.0,16.86,-0.98,-0.07,-0.32,33.1,-0.6,3.6,36.1,,,,,,,,,,
15.10.12.786,61.6,15.4,0,,,59312.0,16.86,-0.96,-0.84,-0.08,4.3,-5.8,-12.3,36.42,,,,,,,,,,
15.10.12.795,102.7,25.7,0,,,59312.0,16.86,-0.9,-0.14,-0.09,-11.8,1.9,-11.7,36.32,,,,,,,,,,
15.10.12.805,91.7,22.9,0,,,59312.0,16.86,-1.44,0.2,-0.56,39.1,3.6,12.6,36.21,,,,,,,,,,
15.10.12.817,11.5,2.9,0,,,59312.0,16.86,-0.98,-0.12,-0.2,-3.4,-6.0,17.2,36.45,,,,,,,,,,
15.10.12.825,6.0,1.5,0,,,59312.0,16.86,-1.05,-0.09,0.16,-6.4,16.8,-6.3,36.33,,,,,,,,,,
15.10.12.833,0.4,0.1,0,,,59312.0,16.86,-0.46,0.52,0.01,4.2,27.6,-2.9,36.32,,,,,,,,,,
15.10.12.843,20.7,5.2,0,,,59312.0,16.86,-0.88,-0.41,0.03,11.9,6.4,-10.5,36.09,,,,,,,,,,
15.10.12.853,-23.3,5.8,0,,,59312.0,16.86,-0.97,-0.02,-0.17,17.2,-2.4,-12.5,36.37,,,,,,,,,,
15.10.12.862,-26.5,6.6,0,,,59312.0,16.86,-1.24,-0.36,0.74,22.5,-8.2,17.3,36.3,,,,,,,,,,
15.10.12.869,-42.1,10.5,0,,,59312.0,16.86,-0.78,-0.62,0.23,9.6,0.1,1.8,36.5,,,,,,,,,,
15.10.12.879,-58.4,14.6,0,,,59312.0,16.86,-1.06,-0.4,0.23,17.4,15.9,10.2,36.39,,,,,,,,,,
15.10.12.891,-61.8,15.4,0,,,59312.0,16.86,-0.92,-0.28,-0.39,16.6,-2.6,12.0,36.31,,,,,,,,,,
15.10.12.901,-38.2,9.6,1,27.0,120.2,59312.0,16.86,-0.8,-0.07,-0.54,-10.6,13.7,10.9,36.12,,,,,,,,,,
15.10.12.909,-78.8,19.7,0,,,59312.0,16.86,-1.09,-0.32,0.12,-4.7,1.3,-1.0,36.43,,,,,,,,,,
15.10.12.919,-88.3,22.1,0,,,59312.0,16.86,-1.01,-0.42,-0.26,-4.5,4.5,-9.2,36.27,,,,,,,,,,
15.10.12.927,-61.9,15.5,0,,,59312.0,16.86,-1.29,-0.29,0.04,12.0,17.9,-8.8,36.37,,,,,,,,,,
15.10.12.937,-41.0,10.2,0,,,59312.0,16.86,-1.12,-0.3,-0.35,-6.6,-17.7,-13.2,36.12,,,,,,,,,,
15.10.12.947,-98.5,24.6,0,,,59312.0,16.86,-0.82,0.03,-0.48,19.4,-11.9,-2.8,36.2,,,,,,,,,,
