timestamp,ppg,threshold,beat,beat_count,inst_bpm,gsr_resistance_ohm,gsr_conductance_us,accel_x,accel_y,accel_z,gyro_x,gyro_y,gyro_z,temp_c,window_bpm,window_temp_c,status_message,SpO2,bmi,age,height,weight,env_temp_c,env_humidity_pct
15.16.03.000,0.0,0.0,0,,,91407.7,10.94,-0.58,0.61,0.55,-0.2,2.9,5.6,36.2,101.8,,,100.0,19.6,19.0,167.64,55.0,31.44,45.0
15.16.03.009,43.3,10.8,0,,,91407.7,10.94,-0.39,0.44,0.58,7.1,-4.0,-0.1,36.15,,,,,,,,,,
15.16.03.019,78.7,19.7,0,,,91407.7,10.94,-0.52,0.45,0.56,-0.8,0.7,-0.8,36.3,,,,,,,,,,
15.16.03.030,147.9,37.0,0,,,91407.7,10.94,-0.48,0.66,0.61,-8.7,-0.1,-2.7,36.37,,,,,,,,,,
15.16.03.038,182.8,45.7,0,,,91407.7,10.94,-0.53,0.48,0.58,3.5,-7.8,-0.8,36.32,,,,,,,,,,
15.16.03.049,213.2,53.3,0,,,91407.7,10.94,-0.47,0.65,0.56,-2.4,2.5,-3.9,36.35,,,,,,,,,,
15.16.03.060,246.1,61.5,0,,,91407.7,10.94,-0.49,0.56,0.58,-4.3,8.1,1.6,36.28,,,,,,,,,,
15.16.03.072,298.4,74.6,0,,,91407.7,10.94,-0.46,0.75,0.56,-1.1,3.9,-0.2,36.18,,,,,,,,,,
15.16.03.083,305.0,76.2,0,,,91407.7,10.94,-0.36,0.5,0.42,7.3,6.5,-4.2,36.6,,,,,,,,,,
15.16.03.092,314.8,78.7,0,,,91407.7,10.94,-0.4,0.46,0.41,-6.4,6.3,-1.3,36.17,,,,,,,,,,
15.16.03.100,324.9,81.2,0,,,91407.7,10.94,-0.58,0.39,0.69,-1.5,15.7,-8.3,36.37,,,,,,,,,,
15.16.03.109,304.9,76.2,0,,,91407.7,10.94,-0.51,0.62,0.5,9.4,11.0,-1.2,36.17,,,,,,,,,,
15.16.03.118,294.9,73.7,0,,,91407.7,10.94,-0.46,0.64,0.53,-7.3,18.0,-7.7,36.18,,,,,,,,,,
15.16.03.129,291.3,72.8,0,,,91407.7,10.94,-0.48,0.71,0.48,5.0,4.2,4.2,36.16,,,,,,,,,,
15.16.03.138,255.0,63.8,0,,,91407.7,10.94,-0.66,0.61,0.58,2.4,11.4,3.3,36.51,,,,,,,,,,
15.16.03.147,259.4,64.8,0,,,91407.7,10.94,-0.47,0.56,0.6,-10.2,3.4,-1.1,36.38,,,,,,,,,,
15.16.03.159,211.0,52.8,0,,,91407.7,10.94,-0.28,0.66,0.51,-9.2,11.1,3.8,36.12,,,,,,,,,,
15.16.03.169,174.6,43.6,0,,,91407.7,10.94,-0.35,0.87,0.53,-6.0,-3.1,3.5,36.12,,,,,,,,,,
15.16.03.177,136.3,34.1,0,,,91407.7,10.94,-0.42,0.57,0.73,3.7,16.1,7.9,36.29,,,,,,,,,,
15.16.03.187,94.4,23.6,0,,,91407.7,10.94,-0.55,0.55,0.59,-1.3,10.6,-4.5,36.28,,,,,,,,,,
15.16.03.197,35.7,8.9,0,,,91407.7,10.94,-0.52,0.62,0.51,7.0,11.4,-3.5,36.06,,,,,,,,,,
15.16.03.207,3.1,0.8,0,,,91407.7,10.94,-0.41,0.54,0.5,2.8,9.8,1.7,36.23,,,,,,,,,,
15.16.03.216,25.7,6.4,0,,,91407.7,10.94,-0.54,0.62,0.46,-3.4,18.3,3.5,36.08,,,,,,,,,,
15.16.03.224,23.3,5.8,0,,,91407.7,10.94,-0.37,0.62,0.65,10.1,12.7,-1.3,36.62,,,,,,,,,,
15.16.03.232,48.3,12.1,0,,,91407.7,10.94,-0.37,0.71,0.51,4.9,9.2,-0.6,36.35,,,,,,,,,,
15.16.03.244,49.6,12.4,0,,,91407.7,10.94,-0.56,0.65,0.62,0.4,4.8,9.1,36.14,,,,,,,,,,
15.16.03.253,43.7,10.9,0,,,91407.7,10.94,-0.51,0.65,0.66,4.9,2.5,-2.2,36.27,,,,,,,,,,
15.16.03.263,47.4,11.8,0,,,91407.7,10.94,-0.52,0.6,0.68,5.4,10.5,-2.7,36.28,,,,,,,,,,
15.16.03.273,61.9,15.5,0,,,91407.7,10.94,-0.58,0.58,0.41,9.4,7.4,1.6,36.33,,,,,,,,,,
15.16.03.282,51.0,12.8,0,,,91407.7,10.94,-0.58,0.44,0.6,-5.5,0.7,-4.3,36.34,,,,,,,,,,
15.16.03.291,43.9,11.0,0,,,91407.7,10.94,-0.41,0.64,0.6,2.1,4.5,-1.6,36.26,,,,,,,,,,
15.16.03.301,22.5,5.6,0,,,91407.7,10.94,-0.36,0.64,0.47,-10.0,14.2,-10.8,36.5,,,,,,,,,,
15.16.03.311,19.3,4.8,0,,,91407.7,10.94,-0.33,0.45,0.48,9.4,9.0,-5.5,36.35,,,,,,,,,,
15.16.03.320,3.0,0.8,0,,,91407.7,10.94,-0.45,0.56,0.71,-0.0,12.5,-1.1,36.29,,,,,,,,,,
15.16.03.329,-4.5,1.1,0,,,91407.7,10.94,-0.58,0.49,0.61,4.8,-2.0,4.5,36.16,,,,,,,,,,
15.16.03.338,-15.4,3.8,0,,,91407.7,10.94,-0.44,0.77,0.51,1.3,5.5,-14.3,36.36,,,,,,,,,,
15.16.03.349,-11.2,2.8,0,,,91407.7,10.94,-0.63,0.71,0.6,6.5,5.3,-1.4,36.31,,,,,,,,,,
15.16.03.359,-19.7,4.9,0,,,91407.7,10.94,-0.61,0.61,0.7,-14.2,15.0,-1.5,36.4,,,,,,,,,,
15.16.03.368,-37.9,9.5,0,,,91407.7,10.94,-0.46,0.57,0.69,1.4,9.6,3.1,36.28,,,,,,,,,,
15.16.03.378,-25.9,6.5,0,,,91407.7,10.94,-0.56,0.65,0.63,5.5,8.8,6.2,36.17,,,,,,,,,,
15.16.03.387,-33.7,8.4,0,,,91407.7,10.94,-0.49,0.69,0.6,5.3,6.9,0.3,36.33,,,,,,,,,,
15.16.03.393,-28.2,7.0,0,,,91407.7,10.94,-0.48,0.64,0.55,-2.4,5.5,-1.2,36.24,,,,,,,,,,
15.16.03.402,-38.4,9.6,0,,,91407.7,10.94,-0.51,0.59,0.46,6.1,9.2,-4.4,36.27,,,,,,,,,,
15.16.03.412,-44.0,11.0,0,,,91407.7,10.94,-0.37,0.72,0.75,-4.2,12.7,-0.8,36.27,,,,,,,,,,
15.16.03.421,-47.0,11.8,0,,,91407.7,10.94,-0.5,0.64,0.58,-14.2,2.3,-5.9,36.28,,,,,,,,,,
15.16.03.430,-49.8,12.4,0,,,91407.7,10.94,-0.51,0.56,0.5,1.5,-3.5,1.9,36.22,,,,,,,,,,
15.16.03.439,-50.1,12.5,0,,,91407.7,10.94,-0.5,0.7,0.43,6.3,16.7,7.8,36.38,,,,,,,,,,
15.16.03.448,-58.6,14.6,0,,,91407.7,10.94,-0.43,0.77,0.56,-1.8,1.4,1.1,36.53,,,,,,,,,,
15.16.03.458,-63.2,15.8,0,,,91407.7,10.94,-0.51,0.79,0.59,-15.0,6.8,-8.0,36.32,,,,,,,,,,
15.16.03.468,-65.0,16.2,0,,,91407.7,10.94,-0.46,0.58,0.63,-2.0,3.2,-2.5,36.48,,,,,,,,,,
15.16.03.478,-84.5,21.1,0,,,91407.7,10.94,-0.58,0.73,0.53,15.2,3.6,-3.2,36.26,,,,,,,,,,
15.16.03.487,-84.9,21.2,0,,,91407.7,10.94,-0.52,0.72,0.56,1.0,3.9,-3.8,36.38,,,,,,,,,,
15.16.03.496,-85.9,21.5,0,,,91407.7,10.94,-0.53,0.8,0.66,7.2,11.4,-12.1,36.22,,,,,,,,,,
15.16.03.506,-82.4,20.6,0,,,91407.7,10.94,-0.54,0.41,0.68,12.2,18.1,-4.1,36.42,,,,,,,,,,
15.16.03.516,-91.9,23.0,0,,,91407.7,10.94,-0.45,0.56,0.6,2.6,5.6,3.3,36.49,,,,,,,,,,
15.16.03.524,-86.0,21.5,0,,,91407.7,10.94,-0.57,0.69,0.66,7.4,3.5,-6.3,36.35,,,,,,,,,,
15.16.03.532,-93.1,23.3,0,,,91407.7,10.94,-0.38,0.65,0.75,1.7,-2.3,-2.5,36.12,,,,,,,,,,
15.16.03.542,-101.5,25.4,0,,,91407.7,10.94,-0.46,0.53,0.51,-6.1,9.7,-5.9,36.51,,,,,,,,,,
15.16.03.551,-107.4,26.8,0,,,91407.7,10.94,-0.5,0.64,0.6,-6.3,9.5,-8.3,36.53,,,,,,,,,,
15.16.03.561,-113.6,28.4,0,,,91407.7,10.94,-0.61,0.57,0.44,-10.8,9.1,0.0,36.42,,,,,,,,,,
15.16.03.569,-123.2,30.8,0,,,91407.7,10.94,-0.38,0.61,0.58,-4.6,-8.9,-6.6,36.31,,,,,,,,,,
15.16.03.579,-123.4,30.8,0,,,91407.7,10.94,-0.49,0.52,0.65,1.6,14.5,-0.2,36.25,,,,,,,,,,
15.16.03.587,-128.8,32.2,0,,,91407.7,10.94,-0.6,0.62,0.72,-4.5,0.0,0.1,36.38,,,,,,,,,,
15.16.03.597,49.9,12.5,1,1.0,,91407.7,10.94,-0.36,0.68,0.51,-6.9,6.6,0.3,36.12,,,,,,,,,,
15.16.03.605,86.2,21.6,0,,,91407.7,10.94,-0.37,0.61,0.67,20.5,10.8,-8.4,36.4,,,,,,,,,,
15.16.03.615,123.0,30.8,0,,,91407.7,10.94,-0.36,0.68,0.57,14.6,6.2,-9.6,36.46,,,,,,,,,,
15.16.03.626,160.7,40.2,0,,,91407.7,10.94,-0.48,0.57,0.61,-9.0,9.5,-1.0,36.2,,,,,,,,,,
15.16.03.637,208.7,52.2,0,,,91407.7,10.94,-0.47,0.69,0.62,2.8,8.8,-2.3,36.21,,,,,,,,,,
15.16.03.647,252.8,63.2,0,,,91407.7,10.94,-0.58,0.6,0.55,4.2,-4.6,-7.3,36.22,,,,,,,,,,
15.16.03.656,264.5,66.1,0,,,91407.7,10.94,-0.42,0.47,0.5,19.9,6.4,-1.5,36.17,,,,,,,,,,
15.16.03.667,312.2,78.0,0,,,91407.7,10.94,-0.42,0.66,0.67,7.5,13.1,2.2,36.46,,,,,,,,,,
15.16.03.678,314.7,78.7,0,,,91407.7,10.94,-0.66,0.57,0.58,-1.7,12.0,-1.5,36.16,,,,,,,,,,
15.16.03.690,322.6,80.6,0,,,91407.7,10.94,-0.35,0.63,0.56,0.8,-3.8,-0.2,36.15,,,,,,,,,,
15.16.03.702,308.1,77.0,0,,,91407.7,10.94,-0.49,0.81,0.62,13.3,8.6,-1.1,36.24,,,,,,,,,,
15.16.03.711,309.8,77.4,0,,,91407.7,10.94,-0.56,0.78,0.57,3.7,3.9,2.6,36.3,,,,,,,,,,
15.16.03.721,293.3,73.3,0,,,91407.7,10.94,-0.4,0.54,0.62,-2.7,0.7,-0.2,36.52,,,,,,,,,,
15.16.03.731,272.0,68.0,0,,,91407.7,10.94,-0.5,0.5,0.5,-8.2,6.7,-9.4,36.37,,,,,,,,,,
15.16.03.742,209.4,52.4,0,,,91407.7,10.94,-0.44,0.57,0.51,-2.0,2.0,-5.0,36.26,,,,,,,,,,
15.16.03.751,206.6,51.6,0,,,91407.7,10.94,-0.5,0.64,0.58,1.6,8.8,2.8,36.21,,,,,,,,,,
15.16.03.758,170.5,42.6,0,,,91407.7,10.94,-0.4,0.63,0.55,-5.7,10.4,-4.7,36.45,,,,,,,,,,
15.16.03.766,139.2,34.8,0,,,91407.7,10.94,-0.53,0.67,0.56,0.1,16.8,-5.0,36.15,,,,,,,,,,
15.16.03.775,93.0,23.2,0,,,91407.7,10.94,-0.46,0.38,0.64,-0.7,4.0,0.1,36.27,,,,,,,,,,
15.16.03.785,48.0,12.0,0,,,91407.7,10.94,-0.45,0.56,0.47,-9.2,20.2,3.3,36.2,,,,,,,,,,
15.16.03.794,-0.2,0.0,0,,,91407.7,10.94,-0.43,0.54,0.64,4.9,7.5,4.6,36.53,,,,,,,,,,
15.16.03.805,19.6,4.9,0,,,91407.7,10.94,-0.33,0.63,0.57,28.2,8.7,0.1,36.13,,,,,,,,,,
15.16.03.814,30.9,7.7,0,,,91407.7,10.94,-0.56,0.66,0.66,-7.4,3.1,4.2,36.38,,,,,,,,,,
15.16.03.823,37.3,9.3,0,,,91407.7,10.94,-0.46,0.63,0.62,-5.9,9.2,-4.8,36.36,,,,,,,,,,
15.16.03.835,43.6,10.9,0,,,91407.7,10.94,-0.5,0.68,0.7,-7.3,4.4,7.6,36.29,,,,,,,,,,
15.16.03.846,51.4,12.8,0,,,91407.7,10.94,-0.35,0.61,0.48,5.3,1.8,6.5,36.31,,,,,,,,,,
15.16.03.855,62.2,15.6,0,,,91407.7,10.94,-0.44,0.73,0.49,1.6,8.1,0.9,36.26,,,,,,,,,,
15.16.03.864,61.9,15.5,0,,,91407.7,10.94,-0.48,0.76,0.51,10.3,16.6,-4.9,36.25,,,,,,,,,,
15.16.03.875,56.7,14.2,0,,,91407.7,10.94,-0.59,0.58,0.59,9.0,11.4,4.9,36.15,,,,,,,,,,
15.16.03.887,26.2,6.6,0,,,91407.7,10.94,-0.35,0.67,0.57,4.2,10.4,2.9,35.94,,,,,,,,,,
15.16.03.895,21.6,5.4,0,,,91407.7,10.94,-0.35,0.68,0.56,4.1,12.2,-3.5,36.51,,,,,,,,,,
15.16.03.905,6.2,1.6,0,,,91407.7,10.94,-0.38,0.51,0.63,-9.5,1.6,-1.5,36.26,,,,,,,,,,
15.16.03.915,-2.5,0.6,0,,,91407.7,10.94,-0.62,0.62,0.52,-7.7,-2.1,1.1,36.65,,,,,,,,,,
15.16.03.926,-5.1,1.3,0,,,91407.7,10.94,-0.54,0.65,0.47,10.7,9.8,-2.3,36.43,,,,,,,,,,
15.16.03.934,-12.3,3.1,0,,,91407.7,10.94,-0.56,0.66,0.53,9.4,-5.2,-8.0,36.37,,,,,,,,,,
15.16.03.944,-17.2,4.3,0,,,91407.7,10.94,-0.53,0.79,0.5,-3.7,8.2,-2.8,36.2,,,,,,,,,,
15.16.03.956,-23.7,5.9,0,,,91407.7,10.94,-0.47,0.51,0.51,8.1,4.9,0.6,36.46,,,,,,,,,,
15.16.03.966,-27.2,6.8,0,,,91407.7,10.94,-0.61,0.45,0.78,0.4,0.3,5.8,36.28,,,,,,,,,,
15.16.03.974,-25.3,6.3,0,,,91407.7,10.94,-0.48,0.6,0.42,-8.0,-0.2,-2.1,36.25,,,,,,,,,,
15.16.03.984,-35.7,8.9,0,,,91407.7,10.94,-0.42,0.55,0.6,5.2,0.7,1.3,36.42,,,,,,,,,,
15.16.03.992,-48.6,12.2,0,,,91407.7,10.94,-0.57,0.58,0.66,7.7,8.6,4.1,36.4,,,,,,,,,,
15.16.04.000,-37.8,9.4,0,,,91407.7,10.94,-0.37,0.67,0.43,5.7,1.3,-4.2,36.24,,,,,,,,,,
15.16.04.010,-50.8,12.7,0,,,91407.7,10.94,-0.43,0.57,0.4,3.6,6.4,-4.3,36.38,,,,,,,,,,
15.16.04.019,-51.6,12.9,0,,,91407.7,10.94,-0.51,0.59,0.56,-0.0,3.8,-4.6,36.25,,,,,,,,,,
15.16.04.026,-41.4,10.4,0,,,91407.7,10.94,-0.53,0.58,0.54,-15.7,-1.1,0.1,36.23,,,,,,,,,,
15.16.04.035,-59.4,14.8,0,,,91407.7,10.94,-0.46,0.64,0.54,2.9,4.7,-6.0,36.23,,,,,,,,,,
15.16.04.046,-60.7,15.2,0,,,91407.7,10.94,-0.53,0.61,0.55,-4.5,3.8,1.3,36.31,,,,,,,,,,
15.16.04.056,-72.7,18.2,0,,,91407.7,10.94,-0.5,0.74,0.59,0.7,7.2,1.3,36.44,,,,,,,,,,
15.16.04.066,-76.4,19.1,0,,,91407.7,10.94,-0.45,0.79,0.59,-11.9,8.5,-3.3,36.38,,,,,,,,,,
15.16.04.077,-88.4,22.1,0,,,91407.7,10.94,-0.47,0.5,0.59,-1.3,4.7,1.7,36.17,,,,,,,,,,
15.16.04.088,-84.0,21.0,0,,,91407.7,10.94,-0.54,0.72,0.59,4.0,2.3,6.9,36.23,,,,,,,,,,
15.16.04.095,-94.3,23.6,0,,,91407.7,10.94,-0.58,0.67,0.54,-2.5,7.5,-9.0,36.16,,,,,,,,,,
15.16.04.105,-98.0,24.5,0,,,91407.7,10.94,-0.49,0.5,0.65,1.0,13.6,-0.9,36.25,,,,,,,,,,
15.16.04.116,-110.7,27.7,0,,,91407.7,10.94,-0.55,0.61,0.56,-2.1,15.6,-7.0,36.42,,,,,,,,,,
15.16.04.127,-105.2,26.3,0,,,91407.7,10.94,-0.53,0.47,0.6,5.2,2.4,3.9,36.32,,,,,,,,,,
15.16.04.138,-103.4,25.8,0,,,91407.7,10.94,-0.54,0.54,0.48,-7.0,7.4,-12.4,36.34,,,,,,,,,,
15.16.04.146,-118.5,29.6,0,,,91407.7,10.94,-0.5,0.68,0.65,9.3,7.6,-7.3,36.36,,,,,,,,,,
15.16.04.155,-128.7,32.2,0,,,91407.7,10.94,-0.47,0.59,0.56,-0.3,-3.5,0.7,36.2,,,,,,,,,,
15.16.04.167,-130.3,32.6,1,2.0,105.3,91407.7,10.94,-0.39,0.56,0.6,22.3,-1.0,-5.2,36.11,,,,,,,,,,
15.16.04.176,-2.8,0.7,0,,,91407.7,10.94,-0.46,0.68,0.5,10.5,2.0,2.5,36.37,,,,,,,,,,
15.16.04.186,41.2,10.3,0,,,91407.7,10.94,-0.44,0.5,0.61,-3.9,8.9,-3.9,36.29,,,,,,,,,,
15.16.04.196,87.6,21.9,0,,,91407.7,10.94,-0.49,0.7,0.59,10.6,9.1,-4.8,36.41,,,,,,,,,,
15.16.04.209,152.2,38.0,0,,,91407.7,10.94,-0.44,0.61,0.65,-1.9,10.7,-0.6,36.23,,,,,,,,,,
15.16.04.220,224.1,56.0,0,,,91407.7,10.94,-0.36,0.66,0.69,11.8,10.2,8.8,36.26,,,,,,,,,,
15.16.04.230,237.7,59.4,0,,,91407.7,10.94,-0.38,0.62,0.59,10.1,8.0,12.4,36.52,,,,,,,,,,
15.16.04.240,255.1,63.8,0,,,91407.7,10.94,-0.59,0.58,0.59,-4.7,0.9,3.9,36.4,,,,,,,,,,
15.16.04.246,296.2,74.0,0,,,91407.7,10.94,-0.68,0.66,0.51,14.9,-7.8,1.7,36.23,,,,,,,,,,
15.16.04.256,300.4,75.1,0,,,91407.7,10.94,-0.43,0.38,0.59,1.9,11.8,-2.4,36.41,,,,,,,,,,
15.16.04.268,299.2,74.8,0,,,91407.7,10.94,-0.48,0.73,0.62,5.4,5.4,0.6,36.47,,,,,,,,,,
15.16.04.278,305.8,76.4,0,,,91407.7,10.94,-0.49,0.62,0.65,-3.5,-3.0,-1.6,36.43,,,,,,,,,,
15.16.04.289,314.6,78.6,0,,,91407.7,10.94,-0.52,0.56,0.66,-2.8,9.8,4.5,36.59,,,,,,,,,,
15.16.04.300,304.6,76.2,0,,,91407.7,10.94,-0.52,0.5,0.6,0.8,14.0,2.0,36.14,,,,,,,,,,
15.16.04.309,301.5,75.4,0,,,91407.7,10.94,-0.49,0.53,0.47,11.0,4.1,4.9,36.04,,,,,,,,,,
15.16.04.318,236.2,59.0,0,,,91407.7,10.94,-0.49,0.62,0.4,-6.6,1.6,-10.1,36.37,,,,,,,,,,
15.16.04.326,,,0,,,,,,,,,,,,,,,,,,,,,
15.16.04.335,224.3,56.1,0,,,91407.7,10.94,-0.59,0.59,0.57,3.7,9.7,-10.3,36.47,,,,,,,,,,
15.16.04.344,176.9,44.2,0,,,91407.7,10.94,-0.55,0.62,0.46,-1.6,11.0,1.2,36.3,,,,,,,,,,
15.16.04.353,144.3,36.1,0,,,91407.7,10.94,-0.47,0.71,0.5,-2.5,-0.0,1.8,36.37,,,,,,,,,,
15.16.04.361,90.4,22.6,0,,,91407.7,10.94,-0.56,0.67,0.52,0.1,5.5,-4.0,36.18,,,,,,,,,,
15.16.04.370,55.2,13.8,0,,,91407.7,10.94,-0.71,0.69,0.58,-9.6,2.3,2.2,36.2,,,,,,,,,,
15.16.04.380,-2.1,0.5,0,,,91407.7,10.94,-0.37,0.77,0.74,10.6,15.0,-0.6,36.21,,,,,,,,,,
15.16.04.389,6.7,1.7,0,,,91407.7,10.94,-0.35,0.71,0.59,-2.0,2.3,-2.9,36.26,,,,,,,,,,
15.16.04.399,30.6,7.6,0,,,91407.7,10.94,-0.48,0.63,0.53,4.4,-1.3,0.3,36.21,,,,,,,,,,
15.16.04.408,40.3,10.1,0,,,91407.7,10.94,-0.31,0.65,0.68,3.8,5.2,3.8,36.4,,,,,,,,,,
15.16.04.419,42.5,10.6,0,,,91407.7,10.94,-0.54,0.43,0.77,0.3,2.5,-2.1,36.58,,,,,,,,,,
15.16.04.428,48.9,12.2,0,,,91407.7,10.94,-0.46,0.44,0.62,-0.6,13.2,1.0,36.11,,,,,,,,,,
15.16.04.437,58.8,14.7,0,,,91407.7,10.94,-0.48,0.71,0.6,-23.3,7.3,4.4,36.28,,,,,,,,,,
15.16.04.446,59.0,14.8,0,,,91407.7,10.94,-0.41,0.86,0.54,-9.8,0.6,-5.5,36.21,,,,,,,,,,
15.16.04.456,49.2,12.3,0,,,91407.7,10.94,-0.51,0.5,0.51,3.8,4.3,1.4,36.53,,,,,,,,,,
15.16.04.466,43.1,10.8,0,,,91407.7,10.94,-0.58,0.3,0.59,3.0,12.9,2.4,36.59,,,,,,,,,,
15.16.04.475,35.3,8.8,0,,,91407.7,10.94,-0.5,0.64,0.58,17.5,-1.5,-1.7,36.4,,,,,,,,,,
15.16.04.487,19.4,4.8,0,,,91407.7,10.94,-0.45,0.67,0.55,-1.3,-5.9,0.3,36.12,,,,,,,,,,
15.16.04.497,7.2,1.8,0,,,91407.7,10.94,-0.53,0.5,0.64,-8.7,21.5,-0.1,36.34,,,,,,,,,,
15.16.04.507,-0.9,0.2,0,,,91407.7,10.94,-0.48,0.64,0.65,-12.9,7.6,2.3,36.48,,,,,,,,,,
15.16.04.516,-14.3,3.6,0,,,91407.7,10.94,-0.61,0.68,0.63,-17.6,11.0,-4.4,36.21,,,,,,,,,,
15.16.04.524,-7.6,1.9,0,,,91407.7,10.94,-0.47,0.65,0.56,8.2,-1.2,-3.1,36.33,,,,,,,,,,
15.16.04.533,-21.7,5.4,0,,,91407.7,10.94,-0.44,0.56,0.66,6.7,2.1,1.4,36.41,,,,,,,,,,
15.16.04.543,-20.1,5.0,0,,,91407.7,10.94,-0.43,0.65,0.61,-14.5,0.6,3.3,36.46,,,,,,,,,,
15.16.04.555,-30.7,7.7,0,,,91407.7,10.94,-0.49,0.62,0.58,-2.8,9.8,-7.6,36.46,,,,,,,,,,
15.16.04.563,-31.7,7.9,0,,,91407.7,10.94,-0.41,0.63,0.6,7.5,10.4,-7.8,36.36,,,,,,,,,,
15.16.04.573,-36.2,9.0,0,,,91407.7,10.94,-0.42,0.64,0.62,-12.3,-6.4,-6.9,36.46,,,,,,,,,,
15.16.04.584,-40.2,10.0,0,,,91407.7,10.94,-0.36,0.68,0.63,4.6,2.7,-2.0,36.14,,,,,,,,,,
15.16.04.593,-45.7,11.4,0,,,91407.7,10.94,-0.36,0.61,0.54,-6.0,8.6,9.2,36.34,,,,,,,,,,
15.16.04.603,-48.5,12.1,0,,,91407.7,10.94,-0.32,0.71,0.48,6.8,4.1,-5.9,36.56,,,,,,,,,,
15.16.04.614,-56.5,14.1,0,,,91407.7,10.94,-0.58,0.65,0.54,4.5,4.2,-0.2,36.08,,,,,,,,,,
15.16.04.625,-58.1,14.5,0,,,91407.7,10.94,-0.52,0.6,0.66,7.0,0.1,0.8,36.21,,,,,,,,,,
15.16.04.636,-64.9,16.2,0,,,91407.7,10.94,-0.42,0.55,0.59,5.5,17.1,1.6,36.15,,,,,,,,,,
15.16.04.647,-77.7,19.4,0,,,91407.7,10.94,-0.48,0.59,0.52,2.7,7.7,0.2,36.39,,,,,,,,,,
15.16.04.657,-63.0,15.8,0,,,91407.7,10.94,-0.47,0.65,0.53,13.4,0.7,5.8,36.38,,,,,,,,,,
15.16.04.664,-89.0,22.2,0,,,91407.7,10.94,-0.5,0.67,0.47,-10.6,1.8,-2.0,36.32,,,,,,,,,,
15.16.04.675,-95.8,24.0,0,,,91407.7,10.94,-0.54,0.67,0.6,-7.4,5.1,0.1,36.38,,,,,,,,,,
15.16.04.684,-99.6,24.9,0,,,91407.7,10.94,-0.43,0.62,0.6,-4.6,-5.0,-3.5,36.3,,,,,,,,,,
15.16.04.694,-94.4,23.6,0,,,91407.7,10.94,-0.38,0.57,0.74,1.7,3.8,4.0,36.25,,,,,,,,,,
15.16.04.704,-99.6,24.9,0,,,91407.7,10.94,-0.5,0.57,0.64,-10.1,15.5,-9.6,36.57,,,,,,,,,,
15.16.04.714,-108.8,27.2,0,,,91407.7,10.94,-0.47,0.58,0.65,5.3,0.4,-6.2,36.32,,,,,,,,,,
15.16.04.723,-114.5,28.6,0,,,91407.7,10.94,-0.55,0.96,0.54,5.8,16.4,-4.7,36.27,,,,,,,,,,
15.16.04.734,-127.9,32.0,0,,,91407.7,10.94,-0.39,0.59,0.61,8.5,3.4,-1.7,36.43,,,,,,,,,,
15.16.04.745,-118.9,29.7,1,3.0,103.8,91407.7,10.94,-0.31,0.64,0.43,2.6,12.5,-4.9,36.32,,,,,,,,,,
15.16.04.753,-119.9,30.0,0,,,91407.7,10.94,-0.45,0.68,0.57,-12.9,12.7,-2.3,36.52,,,,,,,,,,
15.16.04.762,-133.6,33.4,0,,,91407.7,10.94,-0.5,0.69,0.49,15.5,5.9,3.1,36.23,,,,,,,,,,
15.16.04.770,29.9,7.5,0,,,91407.7,10.94,-0.53,0.58,0.67,-5.1,2.3,4.7,36.38,,,,,,,,,,
15.16.04.779,70.6,17.6,0,,,91407.7,10.94,-0.56,0.63,0.72,5.6,8.9,-3.6,36.17,,,,,,,,,,
15.16.04.787,98.2,24.6,0,,,91407.7,10.94,-0.42,0.8,0.55,6.6,3.6,3.5,36.23,,,,,,,,,,
15.16.04.796,140.8,35.2,0,,,91407.7,10.94,-0.49,0.46,0.48,-5.4,11.7,-4.6,36.32,,,,,,,,,,
15.16.04.806,181.5,45.4,0,,,91407.7,10.94,-0.63,0.64,0.58,10.5,2.4,-0.9,36.37,,,,,,,,,,
15.16.04.814,236.8,59.2,0,,,91407.7,10.94,-0.53,0.7,0.49,27.6,5.9,-4.1,36.06,,,,,,,,,,
15.16.04.824,270.0,67.5,0,,,91407.7,10.94,-0.48,0.59,0.53,-5.9,3.5,-3.0,36.11,,,,,,,,,,
15.16.04.834,285.2,71.3,0,,,91407.7,10.94,-0.37,0.56,0.54,6.1,5.7,4.4,36.3,,,,,,,,,,
15.16.04.842,301.2,75.3,0,,,91407.7,10.94,-0.36,0.71,0.63,18.2,6.2,3.6,36.38,,,,,,,,,,
15.16.04.851,341.5,85.4,0,,,91407.7,10.94,-0.43,0.59,0.51,-2.1,6.2,-9.1,36.34,,,,,,,,,,
15.16.04.860,325.8,81.4,0,,,91407.7,10.94,-0.4,0.73,0.66,3.7,17.6,-1.5,36.38,,,,,,,,,,
15.16.04.871,312.3,78.1,0,,,91407.7,10.94,-0.42,0.4,0.51,0.1,6.5,0.2,36.07,,,,,,,,,,
15.16.04.883,309.9,77.5,0,,,91407.7,10.94,-0.48,0.6,0.53,7.4,20.4,5.0,36.33,,,,,,,,,,
15.16.04.891,336.1,84.0,0,,,91407.7,10.94,-0.48,0.67,0.74,8.0,0.1,-2.4,36.21,,,,,,,,,,
15.16.04.902,284.1,71.0,0,,,91407.7,10.94,-0.35,0.73,0.56,9.4,5.0,-6.7,36.33,,,,,,,,,,
15.16.04.914,258.1,64.5,0,,,91407.7,10.94,-0.45,0.69,0.72,-3.9,5.7,6.2,36.33,,,,,,,,,,
15.16.04.923,209.6,52.4,0,,,91407.7,10.94,-0.49,0.6,0.64,-4.9,13.4,3.6,36.26,,,,,,,,,,
15.16.04.933,173.0,43.2,0,,,91407.7,10.94,-0.35,0.53,0.56,-7.7,-2.1,-8.0,36.27,,,,,,,,,,
15.16.04.944,120.4,30.1,0,,,91407.7,10.94,-0.7,0.66,0.63,-8.4,3.3,-1.0,36.26,,,,,,,,,,
15.16.04.953,75.5,18.9,0,,,91407.7,10.94,-0.33,0.6,0.61,-0.1,1.0,0.6,36.42,,,,,,,,,,
15.16.04.965,24.0,6.0,0,,,91407.7,10.94,-0.44,0.69,0.62,2.1,5.6,5.3,35.97,,,,,,,,,,
15.16.04.976,4.7,1.2,0,,,91407.7,10.94,-0.48,0.72,0.71,-3.0,3.1,-0.1,36.33,,,,,,,,,,
15.16.04.985,20.7,5.2,0,,,91407.7,10.94,-0.34,0.57,0.62,5.4,10.9,-4.7,36.27,,,,,,,,,,
15.16.04.994,36.2,9.0,0,,,91407.7,10.94,-0.57,0.63,0.52,-5.6,-15.9,0.7,36.13,,,,,,,,,,
15.16.05.004,50.4,12.6,0,,,91407.7,10.94,-0.52,0.7,0.54,-4.1,-4.0,0.0,36.25,,,,,,,,,,
15.16.05.013,53.4,13.4,0,,,91407.7,10.94,-0.4,0.66,0.51,5.7,8.6,-2.8,36.25,,,,,,,,,,
15.16.05.022,52.9,13.2,0,,,91407.7,10.94,-0.43,0.48,0.55,2.9,3.7,-6.4,36.36,,,,,,,,,,
15.16.05.032,62.2,15.6,0,,,91407.7,10.94,-0.39,0.67,0.53,15.4,-4.4,-6.1,36.45,,,,,,,,,,
15.16.05.042,51.3,12.8,0,,,91407.7,10.94,-0.47,0.61,0.6,-3.0,0.2,-5.0,36.08,,,,,,,,,,
15.16.05.055,47.9,12.0,0,,,91407.7,10.94,-0.5,0.64,0.56,2.3,6.5,2.4,36.24,,,,,,,,,,
15.16.05.067,25.8,6.4,0,,,91407.7,10.94,-0.4,0.57,0.63,-1.5,10.1,4.1,36.46,,,,,,,,,,
15.16.05.076,20.7,5.2,0,,,91407.7,10.94,-0.29,0.78,0.58,-6.6,18.8,4.9,36.16,,,,,,,,,,
15.16.05.087,-4.0,1.0,0,,,91407.7,10.94,-0.52,0.55,0.61,6.6,10.7,6.1,36.34,,,,,,,,,,
15.16.05.094,2.5,0.6,0,,,91407.7,10.94,-0.57,0.6,0.69,-6.7,-2.3,-1.2,36.21,,,,,,,,,,
15.16.05.104,-17.8,4.4,0,,,91407.7,10.94,-0.45,0.64,0.56,2.2,8.1,2.6,36.2,,,,,,,,,,
15.16.05.114,-7.7,1.9,0,,,91407.7,10.94,-0.34,0.45,0.55,12.0,7.9,-4.4,36.23,,,,,,,,,,
15.16.05.122,-20.2,5.0,0,,,91407.7,10.94,-0.45,0.67,0.68,-0.8,6.7,-10.7,36.31,,,,,,,,,,
15.16.05.132,-12.5,3.1,0,,,91407.7,10.94,-0.44,0.66,0.61,-5.9,4.2,-5.5,36.37,,,,,,,,,,
15.16.05.141,-18.6,4.6,0,,,91407.7,10.94,-0.4,0.61,0.59,0.9,9.4,-1.4,36.28,,,,,,,,,,
15.16.05.151,-30.4,7.6,0,,,91407.7,10.94,-0.54,0.57,0.51,9.1,0.6,8.1,36.23,,,,,,,,,,
15.16.05.159,-36.2,9.0,0,,,91407.7,10.94,-0.59,0.71,0.63,7.8,3.5,-6.7,36.3,,,,,,,,,,
15.16.05.168,-47.0,11.8,0,,,91407.7,10.94,-0.38,0.48,0.55,3.0,6.6,-5.4,36.41,,,,,,,,,,
15.16.05.178,-47.7,11.9,0,,,91407.7,10.94,-0.53,0.71,0.62,-4.8,12.3,4.2,36.2,,,,,,,,,,
15.16.05.188,-42.3,10.6,0,,,91407.7,10.94,-0.37,0.5,0.67,1.1,5.8,-0.9,36.42,,,,,,,,,,
15.16.05.198,-49.1,12.3,0,,,91407.7,10.94,-0.4,0.78,0.75,-0.5,-0.6,-6.9,36.14,,,,,,,,,,
15.16.05.207,-61.7,15.4,0,,,91407.7,10.94,-0.61,0.59,0.6,-0.1,-1.5,-3.1,36.31,,,,,,,,,,
15.16.05.216,-70.8,17.7,0,,,91407.7,10.94,-0.36,0.49,0.45,1.6,6.7,4.3,36.39,,,,,,,,,,
15.16.05.227,-61.4,15.4,0,,,91407.7,10.94,-0.49,0.57,0.75,-6.3,8.3,3.2,36.3,,,,,,,,,,
15.16.05.238,-72.2,18.0,0,,,91407.7,10.94,-0.49,0.68,0.57,-4.8,5.1,-0.1,36.22,,,,,,,,,,
15.16.05.249,-75.8,19.0,0,,,91407.7,10.94,-0.58,0.73,0.64,-4.1,8.3,-7.0,36.43,,,,,,,,,,
15.16.05.259,-91.7,22.9,0,,,91407.7,10.94,-0.51,0.58,0.5,0.2,13.7,-2.4,36.31,,,,,,,,,,
15.16.05.272,-92.9,23.2,0,,,91407.7,10.94,-0.37,0.6,0.66,1.2,9.3,-3.3,36.43,,,,,,,,,,
15.16.05.281,-93.3,23.3,0,,,91407.7,10.94,-0.48,0.72,0.59,11.4,-2.3,-1.3,36.35,,,,,,,,,,
15.16.05.291,-107.4,26.8,0,,,91407.7,10.94,-0.51,0.53,0.45,8.8,1.0,10.7,36.14,,,,,,,,,,
15.16.05.302,-104.2,26.0,0,,,91407.7,10.94,-0.53,0.52,0.66,-3.9,7.5,-2.8,36.24,,,,,,,,,,
15.16.05.312,-112.2,28.0,0,,,91407.7,10.94,-0.56,0.76,0.64,-8.7,-1.6,3.3,36.44,,,,,,,,,,
15.16.05.323,-98.0,24.5,1,4.0,103.8,91407.7,10.94,-0.34,0.69,0.62,-1.0,8.2,-4.0,36.43,,,,,,,,,,
15.16.05.331,-106.5,26.6,0,,,91407.7,10.94,-0.35,0.77,0.52,0.8,11.2,1.3,36.24,,,,,,,,,,
15.16.05.341,-118.3,29.6,0,,,91407.7,10.94,-0.49,0.58,0.48,-16.3,0.1,-8.2,36.46,,,,,,,,,,
15.16.05.351,-132.3,33.1,0,,,91407.7,10.94,-0.43,0.63,0.72,6.2,6.1,-11.0,36.52,,,,,,,,,,
15.16.05.361,40.1,10.0,0,,,91407.7,10.94,-0.46,0.66,0.52,11.3,2.2,-3.6,36.47,,,,,,,,,,
15.16.05.373,106.1,26.5,0,,,91407.7,10.94,-0.64,0.64,0.68,-2.4,-3.0,3.4,36.34,,,,,,,,,,
15.16.05.383,146.6,36.6,0,,,91407.7,10.94,-0.39,0.61,0.7,0.9,-5.3,-6.2,36.15,,,,,,,,,,
15.16.05.391,183.4,45.8,0,,,91407.7,10.94,-0.58,0.7,0.59,-0.6,2.8,-0.6,36.43,,,,,,,,,,
15.16.05.401,243.3,60.8,0,,,91407.7,10.94,-0.59,0.59,0.55,4.9,10.9,3.9,36.23,,,,,,,,,,
15.16.05.411,255.2,63.8,0,,,91407.7,10.94,-0.41,0.71,0.71,22.1,8.1,5.6,36.33,,,,,,,,,,
15.16.05.420,283.6,70.9,0,,,91407.7,10.94,-0.46,0.46,0.54,0.4,4.9,2.9,35.99,,,,,,,,,,
15.16.05.431,317.9,79.5,0,,,91407.7,10.94,-0.44,0.49,0.68,6.9,-2.7,-6.9,36.14,,,,,,,,,,
15.16.05.444,326.5,81.6,0,,,91407.7,10.94,-0.47,0.58,0.49,-0.9,14.1,-2.2,36.39,,,,,,,,,,
15.16.05.456,295.9,74.0,0,,,91407.7,10.94,-0.49,0.6,0.66,-8.4,2.4,-1.0,36.49,,,,,,,,,,
15.16.05.466,345.0,86.2,0,,,91407.7,10.94,-0.43,0.84,0.53,-2.9,13.3,-6.3,36.15,,,,,,,,,,
15.16.05.475,309.7,77.4,0,,,91407.7,10.94,-0.46,0.66,0.54,1.5,-1.1,0.3,36.54,,,,,,,,,,
15.16.05.484,,,0,,,,,,,,,,,,,,,,,,,,,
15.16.05.496,296.4,74.1,0,,,91407.7,10.94,-0.36,0.63,0.6,1.7,9.6,-12.7,36.36,,,,,,,,,,
15.16.05.506,213.9,53.5,0,,,91407.7,10.94,-0.47,0.58,0.65,-1.6,5.1,-5.1,36.26,,,,,,,,,,
15.16.05.516,188.3,47.1,0,,,91407.7,10.94,-0.42,0.67,0.73,-6.6,13.7,-1.8,36.33,,,,,,,,,,
15.16.05.525,148.8,37.2,0,,,91407.7,10.94,-0.35,0.64,0.5,-16.4,4.6,-2.7,36.23,,,,,,,,,,
15.16.05.535,114.4,28.6,0,,,91407.7,10.94,-0.57,0.65,0.54,-6.1,4.2,2.0,36.43,,,,,,,,,,
15.16.05.546,60.6,15.2,0,,,91324.2,10.95,-0.48,0.48,0.73,6.4,4.2,1.4,36.23,,,,,,,,,,
15.16.05.557,3.2,0.8,0,,,91324.2,10.95,-0.46,0.65,0.57,5.2,4.3,-0.1,36.13,,,,,,,,,,
15.16.05.566,7.3,1.8,0,,,91324.2,10.95,-0.35,0.78,0.54,-8.8,-1.6,5.1,36.38,,,,,,,,,,
15.16.05.577,32.9,8.2,0,,,91324.2,10.95,-0.39,0.42,0.67,3.8,11.5,0.2,36.42,,,,,,,,,,
15.16.05.589,44.4,11.1,0,,,91324.2,10.95,-0.46,0.49,0.64,10.2,6.1,6.0,36.45,,,,,,,,,,
15.16.05.599,59.2,14.8,0,,,91324.2,10.95,-0.47,0.57,0.49,-10.2,13.6,-7.7,36.21,,,,,,,,,,
15.16.05.607,40.1,10.0,0,,,91324.2,10.95,-0.45,0.57,0.56,-6.7,4.5,-3.6,36.27,,,,,,,,,,
15.16.05.617,56.9,14.2,0,,,91324.2,10.95,-0.49,0.48,0.72,25.3,5.5,-3.3,36.36,,,,,,,,,,
15.16.05.626,57.5,14.4,0,,,91324.2,10.95,-0.6,0.62,0.73,6.5,6.6,-3.5,36.42,,,,,,,,,,
15.16.05.636,48.4,12.1,0,,,91324.2,10.95,-0.72,0.69,0.57,-6.9,9.6,-1.7,36.5,,,,,,,,,,
15.16.05.645,39.5,9.9,0,,,91324.2,10.95,-0.52,0.51,0.74,-2.5,7.7,-3.6,36.04,,,,,,,,,,
15.16.05.655,34.5,8.6,0,,,91324.2,10.95,-0.52,0.74,0.53,-10.8,-4.3,-8.9,36.2,,,,,,,,,,
15.16.05.665,6.1,1.5,0,,,91324.2,10.95,-0.53,0.67,0.52,-12.1,2.4,3.7,36.46,,,,,,,,,,
15.16.05.675,-6.6,1.6,0,,,91324.2,10.95,-0.5,0.61,0.42,-4.4,6.9,-2.2,36.41,,,,,,,,,,
15.16.05.685,5.4,1.4,0,,,91324.2,10.95,-0.6,0.64,0.42,-14.9,12.9,-8.9,36.39,,,,,,,,,,
15.16.05.694,-9.0,2.2,0,,,91324.2,10.95,-0.47,0.59,0.65,8.6,2.9,4.9,36.29,,,,,,,,,,
15.16.05.704,-13.8,3.4,0,,,91324.2,10.95,-0.49,0.54,0.36,-7.8,8.2,-3.2,36.16,,,,,,,,,,
15.16.05.713,-16.0,4.0,0,,,91324.2,10.95,-0.48,0.74,0.41,7.7,-1.6,0.8,36.42,,,,,,,,,,
15.16.05.722,-18.6,4.6,0,,,91324.2,10.95,-0.46,0.55,0.65,-1.6,7.9,-1.7,36.26,,,,,,,,,,
15.16.05.733,-19.9,5.0,0,,,91324.2,10.95,-0.49,0.63,0.78,4.0,10.5,-5.3,36.16,,,,,,,,,,
15.16.05.743,-26.6,6.6,0,,,91324.2,10.95,-0.58,0.49,0.61,-0.3,-7.8,0.5,36.31,,,,,,,,,,
15.16.05.754,-41.5,10.4,0,,,91324.2,10.95,-0.49,0.6,0.49,-2.8,11.7,7.6,36.45,,,,,,,,,,
15.16.05.764,-34.4,8.6,0,,,91324.2,10.95,-0.56,0.53,0.59,5.5,7.8,-9.4,36.19,,,,,,,,,,
15.16.05.772,-47.9,12.0,0,,,91324.2,10.95,-0.2,0.48,0.63,-5.6,10.5,3.3,36.22,,,,,,,,,,
15.16.05.781,-56.0,14.0,0,,,91324.2,10.95,-0.35,0.78,0.47,-7.2,-1.1,-5.0,36.46,,,,,,,,,,
15.16.05.791,-54.2,13.6,0,,,91324.2,10.95,-0.45,0.6,0.58,-5.8,18.5,-1.1,36.45,,,,,,,,,,
15.16.05.800,-68.0,17.0,0,,,91324.2,10.95,-0.27,0.74,0.71,6.1,12.7,-5.8,36.31,,,,,,,,,,
15.16.05.809,-59.4,14.8,0,,,91324.2,10.95,-0.42,0.59,0.75,-13.3,13.3,13.4,36.3,,,,,,,,,,
15.16.05.819,-74.7,18.7,0,,,91324.2,10.95,-0.54,0.49,0.53,-11.5,-0.7,-3.4,36.39,,,,,,,,,,
15.16.05.829,-74.0,18.5,0,,,91324.2,10.95,-0.56,0.69,0.52,0.7,9.2,-7.1,36.21,,,,,,,,,,
15.16.05.837,-83.2,20.8,0,,,91324.2,10.95,-0.43,0.72,0.62,-0.9,9.0,1.7,36.47,,,,,,,,,,
15.16.05.845,-79.7,19.9,0,,,91324.2,10.95,-0.63,0.59,0.59,2.4,-3.9,-6.2,36.14,,,,,,,,,,
15.16.05.854,-74.7,18.7,0,,,91324.2,10.95,-0.45,0.63,0.58,7.4,3.7,-6.4,36.29,,,,,,,,,,
15.16.05.864,-100.5,25.1,0,,,91324.2,10.95,-0.55,0.6,0.56,4.1,-2.6,6.8,36.31,,,,,,,,,,
15.16.05.875,-84.7,21.2,0,,,91324.2,10.95,-0.53,0.54,0.66,-7.6,8.6,-10.6,36.29,,,,,,,,,,
15.16.05.886,-102.6,25.6,1,5.0,106.6,91324.2,10.95,-0.53,0.7,0.66,2.4,10.2,-9.0,36.2,,,,,,,,,,
15.16.05.899,-106.3,26.6,0,,,91324.2,10.95,-0.56,0.41,0.5,2.2,7.2,-7.3,36.32,,,,,,,,,,
15.16.05.910,-117.8,29.4,0,,,91324.2,10.95,-0.46,0.75,0.52,4.4,10.8,4.4,36.34,,,,,,,,,,
15.16.05.919,-125.8,31.4,0,,,91324.2,10.95,-0.48,0.63,0.55,7.8,-3.6,-3.1,36.46,,,,,,,,,,
15.16.05.929,-125.5,31.4,0,,,91324.2,10.95,-0.4,0.48,0.53,4.7,8.0,-0.9,36.2,,,,,,,,,,
15.16.05.938,-123.8,31.0,0,,,91324.2,10.95,-0.47,0.61,0.5,7.0,6.5,-4.4,36.07,,,,,,,,,,
15.16.05.947,36.2,9.0,0,,,91324.2,10.95,-0.46,0.62,0.57,-5.1,10.5,-1.8,36.35,,,,,,,,,,
15.16.05.956,89.8,22.4,0,,,91324.2,10.95,-0.5,0.58,0.57,11.7,2.2,-4.4,36.31,,,,,,,,,,
15.16.05.966,123.5,30.9,0,,,91324.2,10.95,-0.44,0.67,0.53,-5.2,7.6,3.3,36.16,,,,,,,,,,
15.16.05.978,172.6,43.2,0,,,91324.2,10.95,-0.53,0.57,0.57,2.2,11.1,-3.5,36.36,,,,,,,,,,
15.16.05.987,226.6,56.6,0,,,91324.2,10.95,-0.46,0.76,0.5,3.6,-6.9,-2.0,36.17,,,,,,,,,,
15.16.05.997,226.7,56.7,0,,,91324.2,10.95,-0.41,0.64,0.52,3.0,11.4,3.6,36.39,,,,,,,,,,
15.16.06.006,239.1,59.8,0,,,91324.2,10.95,-0.67,0.43,0.57,1.1,10.0,-0.4,36.07,,,,,,,,,,
15.16.06.016,265.3,66.3,0,,,91324.2,10.95,-0.44,0.59,0.6,0.3,1.9,-1.9,36.4,,,,,,,,,,
15.16.06.026,284.3,71.1,0,,,91324.2,10.95,-0.47,0.64,0.56,-2.4,15.4,-2.0,36.65,,,,,,,,,,
15.16.06.037,311.1,77.8,0,,,91324.2,10.95,-0.52,0.47,0.6,-3.5,11.9,-5.1,36.2,,,,,,,,,,
15.16.06.047,343.5,85.9,0,,,91324.2,10.95,-0.41,0.65,0.53,16.0,-7.3,6.5,36.33,,,,,,,,,,
15.16.06.058,318.7,79.7,0,,,91324.2,10.95,-0.44,0.52,0.54,-4.9,9.1,4.8,36.38,,,,,,,,,,
15.16.06.068,299.0,74.8,0,,,91324.2,10.95,-0.4,0.82,0.73,-6.7,15.3,2.1,36.48,,,,,,,,,,
15.16.06.078,284.9,71.2,0,,,91324.2,10.95,-0.47,0.44,0.53,5.5,8.3,-6.9,36.54,,,,,,,,,,
15.16.06.087,228.7,57.2,0,,,91324.2,10.95,-0.49,0.65,0.6,-0.3,11.6,2.5,36.02,,,,,,,,,,
15.16.06.098,215.6,53.9,0,,,91324.2,10.95,-0.48,0.55,0.4,-16.3,8.8,-7.5,36.41,,,,,,,,,,
15.16.06.107,175.5,43.9,0,,,91324.2,10.95,-0.47,0.58,0.69,-10.2,0.1,-12.9,36.24,,,,,,,,,,
15.16.06.117,129.4,32.4,0,,,91324.2,10.95,-0.37,0.57,0.56,-2.9,-0.5,0.3,36.15,,,,,,,,,,
15.16.06.125,87.5,21.9,0,,,91324.2,10.95,-0.39,0.6,0.62,-7.9,1.4,-5.2,36.62,,,,,,,,,,
15.16.06.136,58.9,14.7,0,,,91324.2,10.95,-0.47,0.45,0.54,2.7,0.0,6.0,36.23,,,,,,,,,,
15.16.06.147,3.1,0.8,0,,,91324.2,10.95,-0.43,0.51,0.5,-2.2,7.3,-7.8,36.38,,,,,,,,,,
15.16.06.155,19.3,4.8,0,,,91324.2,10.95,-0.47,0.63,0.63,-11.8,12.6,-4.9,36.38,,,,,,,,,,
15.16.06.164,27.3,6.8,0,,,91324.2,10.95,-0.49,0.69,0.64,8.1,8.3,0.0,36.15,,,,,,,,,,
15.16.06.176,42.6,10.6,0,,,91324.2,10.95,-0.59,0.72,0.61,5.1,6.1,9.4,36.38,,,,,,,,,,
15.16.06.188,50.1,12.5,0,,,91324.2,10.95,-0.42,0.66,0.43,-7.0,-4.0,1.3,36.36,,,,,,,,,,
15.16.06.197,48.8,12.2,0,,,91324.2,10.95,-0.52,0.71,0.66,6.8,-0.8,-0.9,36.3,,,,,,,,,,
15.16.06.206,63.9,16.0,0,,,91324.2,10.95,-0.49,0.68,0.76,-10.1,-1.4,4.0,36.32,,,,,,,,,,
15.16.06.216,53.2,13.3,0,,,91324.2,10.95,-0.48,0.58,0.64,0.6,6.4,0.1,36.37,,,,,,,,,,
15.16.06.226,49.2,12.3,0,,,91324.2,10.95,-0.41,0.62,0.52,6.1,13.5,-3.1,36.47,,,,,,,,,,
15.16.06.235,49.4,12.4,0,,,91324.2,10.95,-0.37,0.51,0.66,3.9,17.4,7.1,36.28,,,,,,,,,,
15.16.06.246,33.7,8.4,0,,,91324.2,10.95,-0.38,0.35,0.53,-8.6,20.6,3.1,36.42,,,,,,,,,,
15.16.06.256,13.0,3.2,0,,,91324.2,10.95,-0.41,0.68,0.52,-1.1,16.2,0.9,36.35,,,,,,,,,,
15.16.06.266,4.2,1.0,0,,,91324.2,10.95,-0.37,0.65,0.54,-10.4,2.1,-2.5,36.46,,,,,,,,,,
15.16.06.277,-8.7,2.2,0,,,91324.2,10.95,-0.45,0.51,0.63,13.1,6.9,-4.5,36.53,,,,,,,,,,
15.16.06.288,-7.0,1.8,0,,,91324.2,10.95,-0.59,0.62,0.63,-2.9,2.9,-3.0,36.18,,,,,,,,,,
15.16.06.299,-28.7,7.2,0,,,91324.2,10.95,-0.55,0.64,0.5,3.2,2.4,-2.7,36.5,,,,,,,,,,
15.16.06.308,-22.4,5.6,0,,,91324.2,10.95,-0.46,0.76,0.47,-16.5,3.3,-4.0,36.23,,,,,,,,,,
15.16.06.318,-19.1,4.8,0,,,91324.2,10.95,-0.46,0.54,0.62,7.9,10.6,-4.4,36.21,,,,,,,,,,
15.16.06.329,-34.4,8.6,0,,,91324.2,10.95,-0.56,0.54,0.6,-0.3,-0.6,0.1,36.28,,,,,,,,,,
15.16.06.338,-28.5,7.1,0,,,91324.2,10.95,-0.42,0.56,0.51,-9.9,8.6,-0.4,36.28,,,,,,,,,,
15.16.06.347,-34.2,8.6,0,,,91324.2,10.95,-0.58,0.59,0.62,12.5,-2.3,3.6,36.26,,,,,,,,,,
15.16.06.356,-42.0,10.5,0,,,91324.2,10.95,-0.51,0.68,0.54,5.2,4.9,6.1,36.17,,,,,,,,,,
15.16.06.366,-52.2,13.0,0,,,91324.2,10.95,-0.59,0.55,0.61,-2.4,7.5,2.8,36.31,,,,,,,,,,
15.16.06.377,-51.8,13.0,0,,,91324.2,10.95,-0.49,0.68,0.6,7.0,3.2,-0.7,36.14,,,,,,,,,,
15.16.06.389,-62.3,15.6,0,,,91324.2,10.95,-0.47,0.62,0.59,4.1,6.4,2.7,36.24,,,,,,,,,,
15.16.06.400,-51.7,12.9,0,,,91324.2,10.95,-0.44,0.66,0.63,-3.2,3.4,-5.7,36.02,,,,,,,,,,
15.16.06.412,-79.0,19.8,0,,,91324.2,10.95,-0.39,0.77,0.76,5.1,15.4,-3.4,36.25,,,,,,,,,,
15.16.06.421,-69.1,17.3,0,,,91324.2,10.95,-0.41,0.7,0.6,0.7,2.6,-2.3,36.24,,,,,,,,,,
15.16.06.430,-66.3,16.6,0,,,91324.2,10.95,-0.48,0.69,0.71,-0.6,0.4,3.9,36.33,,,,,,,,,,
15.16.06.440,-78.4,19.6,0,,,91324.2,10.95,-0.6,0.76,0.66,-4.0,7.9,-0.4,36.33,,,,,,,,,,
15.16.06.451,-96.2,24.0,0,,,91324.2,10.95,-0.46,0.56,0.63,6.8,10.2,0.9,36.29,,,,,,,,,,
15.16.06.463,-94.8,23.7,0,,,91324.2,10.95,-0.47,0.57,0.54,-7.8,9.3,-2.5,36.14,,,,,,,,,,
15.16.06.472,-106.5,26.6,1,6.0,102.4,91324.2,10.95,-0.51,0.54,0.55,-1.6,6.7,2.2,36.36,,,,,,,,,,
15.16.06.483,-109.4,27.4,0,,,91324.2,10.95,-0.45,0.65,0.61,3.9,1.0,-3.7,36.35,,,,,,,,,,
15.16.06.492,-108.4,27.1,0,,,91324.2,10.95,-0.5,0.81,0.66,-5.9,6.4,3.2,36.51,,,,,,,,,,
15.16.06.501,-117.9,29.5,0,,,91324.2,10.95,-0.51,0.53,0.55,-8.0,-0.7,12.3,36.44,,,,,,,,,,
15.16.06.509,-127.7,31.9,0,,,91324.2,10.95,-0.46,0.72,0.62,6.6,3.1,-1.9,36.28,,,,,,,,,,
15.16.06.518,-128.2,32.0,0,,,91324.2,10.95,-0.33,0.61,0.64,14.5,10.3,3.0,36.46,,,,,,,,,,
15.16.06.527,-132.3,33.1,0,,,91324.2,10.95,-0.51,0.71,0.47,6.4,10.8,-2.9,36.25,,,,,,,,,,
15.16.06.536,35.8,9.0,0,,,91324.2,10.95,-0.64,0.58,0.54,7.6,9.8,7.8,36.02,,,,,,,,,,
15.16.06.546,94.0,23.5,0,,,91324.2,10.95,-0.5,0.63,0.58,-3.4,12.9,-2.5,36.39,,,,,,,,,,
15.16.06.557,136.0,34.0,0,,,91324.2,10.95,-0.42,0.65,0.53,-4.1,0.6,-4.0,36.31,,,,,,,,,,
15.16.06.566,195.0,48.8,0,,,91324.2,10.95,-0.35,0.71,0.65,3.9,12.0,-6.1,36.3,,,,,,,,,,
15.16.06.575,198.7,49.7,0,,,91324.2,10.95,-0.49,0.44,0.47,10.6,5.1,7.9,36.29,,,,,,,,,,
15.16.06.584,252.5,63.1,0,,,91324.2,10.95,-0.51,0.58,0.53,1.2,-6.7,4.0,36.49,,,,,,,,,,
15.16.06.593,241.3,60.3,0,,,91324.2,10.95,-0.41,0.62,0.6,7.1,-0.7,6.4,36.39,,,,,,,,,,
15.16.06.602,279.7,69.9,0,,,91324.2,10.95,-0.41,0.6,0.63,11.9,9.8,-0.2,36.5,,,,,,,,,,
15.16.06.612,315.6,78.9,0,,,91324.2,10.95,-0.26,0.67,0.43,-16.8,6.1,-4.5,36.13,,,,,,,,,,
15.16.06.623,313.4,78.4,0,,,91324.2,10.95,-0.43,0.72,0.65,-15.7,1.6,2.4,36.25,,,,,,,,,,
15.16.06.632,336.1,84.0,0,,,91324.2,10.95,-0.44,0.51,0.68,-1.3,-2.8,-6.1,36.15,,,,,,,,,,
15.16.06.642,344.1,86.0,0,,,91324.2,10.95,-0.5,0.6,0.59,-12.6,-0.1,-9.4,36.33,,,,,,,,,,
15.16.06.653,297.7,74.4,0,,,91324.2,10.95,-0.46,0.66,0.5,-3.1,18.2,0.8,36.02,,,,,,,,,,
15.16.06.661,275.0,68.8,0,,,91324.2,10.95,-0.52,0.79,0.57,2.4,5.5,-2.3,36.05,,,,,,,,,,
15.16.06.670,269.6,67.4,0,,,91324.2,10.95,-0.39,0.47,0.54,1.4,6.2,-1.6,36.06,,,,,,,,,,
15.16.06.681,231.2,57.8,0,,,91324.2,10.95,-0.43,0.59,0.5,7.5,8.1,-2.4,36.25,,,,,,,,,,
15.16.06.688,186.9,46.7,0,,,91324.2,10.95,-0.39,0.63,0.54,-17.6,9.8,-1.0,36.49,,,,,,,,,,
15.16.06.699,149.3,37.3,0,,,91324.2,10.95,-0.4,0.57,0.6,-22.6,20.0,2.9,36.25,,,,,,,,,,
15.16.06.708,120.1,30.0,0,,,91324.2,10.95,-0.38,0.66,0.46,4.8,6.3,4.6,36.24,,,,,,,,,,
15.16.06.720,69.9,17.5,0,,,91324.2,10.95,-0.58,0.54,0.55,-4.5,0.2,-3.9,36.24,,,,,,,,,,
15.16.06.728,16.6,4.2,0,,,91324.2,10.95,-0.63,0.67,0.66,-14.6,12.1,-3.5,36.34,,,,,,,,,,
15.16.06.739,19.9,5.0,0,,,91324.2,10.95,-0.53,0.48,0.53,4.1,11.9,-3.3,36.28,,,,,,,,,,
15.16.06.747,20.0,5.0,0,,,91324.2,10.95,-0.49,0.5,0.47,-9.5,6.7,0.9,36.27,,,,,,,,,,
15.16.06.755,33.9,8.5,0,,,91324.2,10.95,-0.52,0.65,0.49,9.0,7.5,0.2,36.49,,,,,,,,,,
15.16.06.763,51.6,12.9,0,,,91324.2,10.95,-0.51,0.63,0.53,10.8,2.1,-5.0,36.49,,,,,,,,,,
15.16.06.770,35.3,8.8,0,,,91324.2,10.95,-0.43,0.8,0.47,-26.1,16.0,6.1,36.25,,,,,,,,,,
15.16.06.780,46.1,11.5,0,,,91324.2,10.95,-0.44,0.57,0.66,-3.7,2.1,2.1,36.22,,,,,,,,,,
15.16.06.788,53.1,13.3,0,,,91324.2,10.95,-0.42,0.38,0.63,5.5,9.7,0.9,36.42,,,,,,,,,,
15.16.06.798,54.2,13.6,0,,,91324.2,10.95,-0.51,0.67,0.76,12.7,5.4,-6.2,36.42,,,,,,,,,,
15.16.06.808,49.2,12.3,0,,,91324.2,10.95,-0.52,0.52,0.57,7.5,2.8,-2.1,36.47,,,,,,,,,,
15.16.06.819,49.7,12.4,0,,,91324.2,10.95,-0.48,0.53,0.57,-3.3,5.2,-1.7,36.44,,,,,,,,,,
15.16.06.830,29.7,7.4,0,,,91324.2,10.95,-0.42,0.6,0.65,11.2,7.2,0.8,36.57,,,,,,,,,,
15.16.06.841,16.0,4.0,0,,,91324.2,10.95,-0.52,0.62,0.61,-3.9,12.8,6.7,36.31,,,,,,,,,,
15.16.06.850,-0.2,0.0,0,,,91324.2,10.95,-0.52,0.53,0.55,4.1,11.1,-5.5,36.2,,,,,,,,,,
15.16.06.859,2.7,0.7,0,,,91324.2,10.95,-0.52,0.54,0.48,-16.0,2.2,3.9,36.25,,,,,,,,,,
15.16.06.868,-18.1,4.5,0,,,91324.2,10.95,-0.45,0.48,0.57,4.6,-4.3,0.7,36.29,,,,,,,,,,
15.16.06.880,-16.2,4.0,0,,,91324.2,10.95,-0.55,0.7,0.63,10.1,12.4,-5.4,36.38,,,,,,,,,,
15.16.06.890,-20.8,5.2,0,,,91324.2,10.95,-0.43,0.66,0.61,-6.4,15.0,3.1,36.1,,,,,,,,,,
15.16.06.900,-19.7,4.9,0,,,91324.2,10.95,-0.5,0.57,0.64,-2.9,-2.0,2.4,36.19,,,,,,,,,,
15.16.06.909,-37.7,9.4,0,,,91324.2,10.95,-0.48,0.58,0.69,-7.7,-4.4,-4.2,36.33,,,,,,,,,,
15.16.06.919,-36.5,9.1,0,,,91324.2,10.95,-0.45,0.58,0.65,-6.0,20.1,-10.7,36.26,,,,,,,,,,
15.16.06.929,-46.4,11.6,0,,,91324.2,10.95,-0.44,0.63,0.66,3.6,0.8,1.0,36.34,,,,,,,,,,
15.16.06.941,-46.2,11.6,0,,,91324.2,10.95,-0.53,0.54,0.51,8.0,10.4,8.2,36.3,,,,,,,,,,
15.16.06.952,-55.8,14.0,0,,,91324.2,10.95,-0.57,0.64,0.46,19.0,2.2,-4.1,36.37,,,,,,,,,,
15.16.06.961,-57.4,14.4,0,,,91324.2,10.95,-0.43,0.83,0.46,13.2,9.4,7.4,36.17,,,,,,,,,,
15.16.06.968,-62.7,15.7,0,,,91324.2,10.95,-0.47,0.66,0.51,0.1,1.8,-4.7,36.41,,,,,,,,,,
15.16.06.978,-56.8,14.2,0,,,91324.2,10.95,-0.44,0.72,0.44,-8.7,3.7,-0.9,36.08,,,,,,,,,,
15.16.06.987,-65.7,16.4,0,,,91324.2,10.95,-0.48,0.72,0.63,8.3,-1.1,2.7,36.65,,,,,,,,,,
15.16.06.998,-71.1,17.8,0,,,91324.2,10.95,-0.48,0.63,0.51,0.1,-3.3,-0.8,36.2,,,,,,,,,,
15.16.07.005,-78.3,19.6,0,,,91324.2,10.95,-0.5,0.64,0.59,1.2,6.8,4.3,36.38,,,,,,,,,,
15.16.07.012,-79.2,19.8,0,,,91324.2,10.95,-0.38,0.63,0.42,3.7,4.3,-0.8,36.25,,,,,,,,,,
15.16.07.021,-92.8,23.2,0,,,91324.2,10.95,-0.4,0.64,0.53,6.4,6.3,-5.9,36.68,,,,,,,,,,
15.16.07.031,-77.5,19.4,0,,,91324.2,10.95,-0.52,0.75,0.66,0.4,2.6,-5.8,36.45,,,,,,,,,,
15.16.07.041,-90.1,22.5,1,7.0,105.4,91324.2,10.95,-0.43,0.75,0.63,17.2,-1.7,-4.9,36.13,,,,,,,,,,
15.16.07.050,-95.0,23.8,0,,,91324.2,10.95,-0.54,0.52,0.66,3.3,5.3,-4.8,36.25,,,,,,,,,,
15.16.07.059,-100.5,25.1,0,,,91324.2,10.95,-0.44,0.37,0.5,5.3,1.6,-5.6,36.28,,,,,,,,,,
15.16.07.069,-103.2,25.8,0,,,91324.2,10.95,-0.41,0.62,0.5,11.3,3.4,-7.4,36.27,,,,,,,,,,
15.16.07.079,-111.7,27.9,0,,,91324.2,10.95,-0.58,0.67,0.46,2.9,15.6,4.9,36.44,,,,,,,,,,
15.16.07.087,-112.5,28.1,0,,,91324.2,10.95,-0.37,0.76,0.64,-11.9,-9.8,0.4,36.15,,,,,,,,,,
15.16.07.097,-120.6,30.2,0,,,91324.2,10.95,-0.43,0.65,0.45,-7.5,9.5,-8.8,36.17,,,,,,,,,,
15.16.07.108,-127.0,31.8,0,,,91324.2,10.95,-0.57,0.54,0.64,8.2,12.0,-3.5,36.23,,,,,,,,,,
15.16.07.116,6.9,1.7,0,,,91324.2,10.95,-0.49,0.73,0.68,-1.7,0.2,-9.2,36.33,,,,,,,,,,
15.16.07.125,53.6,13.4,0,,,91324.2,10.95,-0.43,0.7,0.64,13.4,2.3,-2.0,36.27,,,,,,,,,,
15.16.07.135,89.6,22.4,0,,,91324.2,10.95,-0.42,0.6,0.54,4.3,7.6,0.6,36.39,,,,,,,,,,
15.16.07.143,131.2,32.8,0,,,91324.2,10.95,-0.42,0.56,0.53,2.4,5.5,-2.6,36.24,,,,,,,,,,
15.16.07.152,168.9,42.2,0,,,91324.2,10.95,-0.38,0.67,0.53,1.3,7.4,-3.1,36.26,,,,,,,,,,
15.16.07.162,197.7,49.4,0,,,91324.2,10.95,-0.53,0.81,0.59,-21.0,1.9,-2.4,36.62,,,,,,,,,,
15.16.07.171,253.3,63.3,0,,,91324.2,10.95,-0.42,0.62,0.62,9.7,1.5,0.3,36.17,,,,,,,,,,
15.16.07.180,253.4,63.4,0,,,91324.2,10.95,-0.53,0.66,0.57,0.1,0.2,-10.3,36.31,,,,,,,,,,
15.16.07.190,320.9,80.2,0,,,91324.2,10.95,-0.39,0.62,0.58,20.4,9.6,5.0,36.35,,,,,,,,,,
15.16.07.200,316.6,79.2,0,,,91324.2,10.95,-0.35,0.67,0.6,16.6,1.8,1.4,36.59,,,,,,,,,,
15.16.07.212,280.8,70.2,0,,,91324.2,10.95,-0.39,0.53,0.68,4.5,13.2,5.0,36.42,,,,,,,,,,
15.16.07.222,327.2,81.8,0,,,91324.2,10.95,-0.49,0.77,0.59,-3.9,-0.2,-2.6,36.52,,,,,,,,,,
15.16.07.231,311.1,77.8,0,,,91324.2,10.95,-0.47,0.57,0.32,-8.6,13.5,0.2,36.24,,,,,,,,,,
15.16.07.240,283.9,71.0,0,,,91324.2,10.95,-0.51,0.7,0.62,2.9,1.6,-0.8,36.48,,,,,,,,,,
15.16.07.250,257.3,64.3,0,,,91324.2,10.95,-0.4,0.59,0.47,2.6,5.6,-1.2,36.16,,,,,,,,,,
15.16.07.259,249.5,62.4,0,,,91324.2,10.95,-0.5,0.65,0.52,12.5,15.6,-9.8,36.18,,,,,,,,,,
15.16.07.266,238.3,59.6,0,,,91324.2,10.95,-0.43,0.54,0.57,13.0,18.1,6.5,36.2,,,,,,,,,,
15.16.07.274,243.5,60.9,0,,,91324.2,10.95,-0.51,0.79,0.52,6.1,10.5,-1.6,36.44,,,,,,,,,,
15.16.07.282,174.4,43.6,0,,,91324.2,10.95,-0.46,0.6,0.63,0.9,2.9,-5.8,36.17,,,,,,,,,,
15.16.07.294,130.0,32.5,0,,,91324.2,10.95,-0.54,0.65,0.54,14.9,0.0,-0.2,36.51,,,,,,,,,,
15.16.07.303,95.3,23.8,0,,,91324.2,10.95,-0.39,0.46,0.62,-3.0,11.7,-5.1,36.31,,,,,,,,,,
15.16.07.313,26.9,6.7,0,,,91324.2,10.95,-0.46,0.57,0.67,0.4,16.1,-1.4,36.05,,,,,,,,,,
15.16.07.323,1.6,0.4,0,,,91324.2,10.95,-0.48,0.57,0.52,-11.5,4.9,0.7,36.33,,,,,,,,,,
15.16.07.334,21.3,5.3,0,,,91324.2,10.95,-0.53,0.62,0.58,-0.2,-0.1,-1.5,36.4,,,,,,,,,,
15.16.07.342,27.5,6.9,0,,,91324.2,10.95,-0.58,0.56,0.67,-8.2,1.6,-7.3,36.15,,,,,,,,,,
15.16.07.351,34.4,8.6,0,,,91324.2,10.95,-0.42,0.58,0.55,8.7,3.1,7.7,36.07,,,,,,,,,,
15.16.07.361,53.8,13.4,0,,,91324.2,10.95,-0.49,0.66,0.58,-0.4,4.2,-5.3,36.27,,,,,,,,,,
15.16.07.372,48.1,12.0,0,,,91324.2,10.95,-0.31,0.59,0.46,-7.2,15.9,-3.1,36.57,,,,,,,,,,
15.16.07.382,58.5,14.6,0,,,91324.2,10.95,-0.49,0.7,0.65,8.2,9.3,0.5,36.28,,,,,,,,,,
15.16.07.393,55.4,13.8,0,,,91324.2,10.95,-0.55,0.73,0.67,9.6,-1.6,-0.5,36.28,,,,,,,,,,
15.16.07.402,53.8,13.4,0,,,91324.2,10.95,-0.53,0.56,0.62,-5.8,-1.3,5.1,36.42,,,,,,,,,,
15.16.07.412,30.6,7.6,0,,,91324.2,10.95,-0.39,0.56,0.6,-18.7,-1.0,1.9,36.35,,,,,,,,,,
15.16.07.421,28.7,7.2,0,,,91324.2,10.95,-0.62,0.41,0.63,-7.2,9.0,-3.0,36.27,,,,,,,,,,
15.16.07.428,19.6,4.9,0,,,91324.2,10.95,-0.51,0.69,0.61,-5.4,0.7,4.3,36.23,,,,,,,,,,
15.16.07.439,4.3,1.1,0,,,91324.2,10.95,-0.52,0.73,0.8,-0.3,8.6,8.8,36.4,,,,,,,,,,
15.16.07.450,-3.8,1.0,0,,,91324.2,10.95,-0.39,0.51,0.68,1.7,7.1,6.6,36.42,,,,,,,,,,
15.16.07.459,-14.9,3.7,0,,,91324.2,10.95,-0.51,0.47,0.48,-4.5,9.8,-5.9,36.46,,,,,,,,,,
15.16.07.471,-12.1,3.0,0,,,91324.2,10.95,-0.4,0.75,0.51,-2.3,3.6,5.4,36.23,,,,,,,,,,
15.16.07.480,-20.4,5.1,0,,,91324.2,10.95,-0.49,0.46,0.55,-4.2,4.5,-4.0,36.23,,,,,,,,,,
15.16.07.489,-25.7,6.4,0,,,91324.2,10.95,-0.43,0.68,0.44,0.9,2.4,-5.0,36.27,,,,,,,,,,
15.16.07.500,-29.4,7.4,0,,,91324.2,10.95,-0.46,0.71,0.54,-5.8,4.3,-12.4,36.38,,,,,,,,,,
15.16.07.511,-36.9,9.2,0,,,91324.2,10.95,-0.41,0.72,0.63,12.9,-6.7,2.5,36.37,,,,,,,,,,
15.16.07.522,-32.1,8.0,0,,,91324.2,10.95,-0.46,0.61,0.72,3.1,4.8,0.6,36.32,,,,,,,,,,
15.16.07.533,-42.5,10.6,0,,,91324.2,10.95,-0.48,0.62,0.48,-7.3,10.9,7.0,36.23,,,,,,,,,,
15.16.07.544,-53.8,13.4,0,,,91324.2,10.95,-0.37,0.66,0.46,-0.9,9.7,-14.0,36.18,,,,,,,,,,
15.16.07.555,-53.5,13.4,0,,,91324.2,10.95,-0.52,0.67,0.53,-2.0,15.8,-1.9,36.34,,,,,,,,,,
15.16.07.565,-73.1,18.3,0,,,91324.2,10.95,-0.54,0.54,0.77,-3.4,9.4,-4.2,36.37,,,,,,,,,,
15.16.07.573,-73.5,18.4,0,,,91324.2,10.95,-0.65,0.43,0.58,1.0,7.6,3.3,36.1,,,,,,,,,,
15.16.07.583,-75.0,18.8,0,,,91324.2,10.95,-0.38,0.71,0.7,4.0,3.8,-2.6,36.36,,,,,,,,,,
15.16.07.593,-74.5,18.6,0,,,91324.2,10.95,-0.55,0.67,0.52,10.0,7.9,4.7,36.3,,,,,,,,,,
15.16.07.602,-72.1,18.0,1,8.0,107.0,91324.2,10.95,-0.44,0.56,0.57,9.7,5.2,-4.3,36.21,,,,,,,,,,
15.16.07.612,-94.0,23.5,0,,,91324.2,10.95,-0.46,0.53,0.56,-1.1,-3.8,-7.8,36.46,,,,,,,,,,
15.16.07.622,-92.1,23.0,0,,,91324.2,10.95,-0.53,0.75,0.48,10.9,2.7,-3.7,36.37,,,,,,,,,,
15.16.07.633,-83.8,21.0,0,,,91324.2,10.95,-0.52,0.53,0.57,2.9,5.2,3.3,36.32,,,,,,,,,,
15.16.07.642,-98.5,24.6,0,,,91324.2,10.95,-0.44,0.57,0.53,-18.8,9.3,-1.1,36.25,,,,,,,,,,
15.16.07.653,-108.8,27.2,0,,,91324.2,10.95,-0.53,0.8,0.5,-1.9,4.2,-2.2,36.39,,,,,,,,,,
15.16.07.663,-126.3,31.6,0,,,91324.2,10.95,-0.6,0.76,0.68,-12.8,13.6,-4.9,36.41,,,,,,,,,,
15.16.07.673,-104.4,26.1,0,,,91324.2,10.95,-0.47,0.61,0.56,4.9,-2.6,1.7,36.54,,,,,,,,,,
15.16.07.684,-122.3,30.6,0,,,91324.2,10.95,-0.54,0.55,0.67,10.3,3.3,-2.3,36.44,,,,,,,,,,
15.16.07.692,-130.6,32.6,0,,,91324.2,10.95,-0.43,0.5,0.63,18.2,0.5,1.9,36.17,,,,,,,,,,
15.16.07.703,-0.4,0.1,0,,,91324.2,10.95,-0.5,0.81,0.48,19.5,17.8,-14.6,36.11,,,,,,,,,,
15.16.07.712,43.4,10.8,0,,,91324.2,10.95,-0.51,0.74,0.65,7.1,8.0,2.1,36.29,,,,,,,,,,
15.16.07.721,83.4,20.8,0,,,91324.2,10.95,-0.38,0.39,0.66,-3.5,13.9,1.5,36.46,,,,,,,,,,
15.16.07.730,132.7,33.2,0,,,91324.2,10.95,-0.65,0.54,0.54,-3.6,2.5,-11.7,36.41,,,,,,,,,,
15.16.07.742,186.9,46.7,0,,,91324.2,10.95,-0.37,0.62,0.68,-4.3,1.6,3.8,36.18,,,,,,,,,,
15.16.07.753,225.7,56.4,0,,,91324.2,10.95,-0.4,0.47,0.57,-14.8,6.5,0.1,36.43,,,,,,,,,,
15.16.07.762,236.5,59.1,0,,,91324.2,10.95,-0.55,0.49,0.7,-2.7,-0.4,8.6,36.21,,,,,,,,,,
15.16.07.772,280.6,70.2,0,,,91324.2,10.95,-0.57,0.62,0.52,7.7,-0.2,1.4,36.25,,,,,,,,,,
15.16.07.782,294.1,73.5,0,,,91324.2,10.95,-0.55,0.67,0.58,1.6,-1.6,2.0,36.24,,,,,,,,,,
15.16.07.794,287.9,72.0,0,,,91324.2,10.95,-0.44,0.68,0.59,-3.1,7.8,-3.0,36.34,,,,,,,,,,
15.16.07.805,344.0,86.0,0,,,91324.2,10.95,-0.53,0.61,0.55,4.5,-2.5,-6.5,36.17,,,,,,,,,,
15.16.07.815,298.7,74.7,0,,,91324.2,10.95,-0.45,0.61,0.48,1.4,-2.7,6.8,36.17,,,,,,,,,,
15.16.07.824,309.8,77.4,0,,,91324.2,10.95,-0.47,0.89,0.66,-3.0,-1.8,1.3,36.36,,,,,,,,,,
15.16.07.834,302.3,75.6,0,,,91324.2,10.95,-0.52,0.59,0.6,-9.1,9.0,-0.2,36.22,,,,,,,,,,
15.16.07.843,272.1,68.0,0,,,91324.2,10.95,-0.47,0.44,0.53,8.7,-0.1,-14.7,36.28,,,,,,,,,,
15.16.07.853,243.2,60.8,0,,,91324.2,10.95,-0.39,0.5,0.51,2.0,11.3,-5.9,36.29,,,,,,,,,,
15.16.07.862,209.0,52.2,0,,,91324.2,10.95,-0.42,0.51,0.66,-8.0,12.5,7.2,36.11,,,,,,,,,,
15.16.07.870,188.1,47.0,0,,,91324.2,10.95,-0.6,0.51,0.61,2.0,-5.2,2.1,36.29,,,,,,,,,,
15.16.07.881,128.4,32.1,0,,,91324.2,10.95,-0.46,0.79,0.64,2.0,9.6,-0.3,36.31,,,,,,,,,,
15.16.07.890,86.1,21.5,0,,,91324.2,10.95,-0.46,0.58,0.63,0.7,10.8,-8.6,36.3,,,,,,,,,,
15.16.07.902,39.1,9.8,0,,,91324.2,10.95,-0.45,0.67,0.66,3.1,14.4,7.6,36.36,,,,,,,,,,
15.16.07.913,11.1,2.8,0,,,91324.2,10.95,-0.5,0.63,0.57,11.2,13.9,-2.3,36.19,,,,,,,,,,
15.16.07.924,19.6,4.9,0,,,91324.2,10.95,-0.47,0.53,0.54,2.8,4.5,-8.6,36.26,,,,,,,,,,
15.16.07.934,26.7,6.7,0,,,91324.2,10.95,-0.49,0.64,0.47,-19.1,9.7,-5.2,36.55,,,,,,,,,,
15.16.07.944,51.2,12.8,0,,,91324.2,10.95,-0.46,0.7,0.61,9.3,-5.9,-4.5,36.3,,,,,,,,,,
15.16.07.955,61.0,15.2,0,,,91324.2,10.95,-0.58,0.76,0.7,2.9,-1.3,1.4,36.2,,,,,,,,,,
15.16.07.965,52.9,13.2,0,,,91324.2,10.95,-0.39,0.68,0.59,13.4,2.4,1.6,36.48,,,,,,,,,,
15.16.07.974,64.5,16.1,0,,,91324.2,10.95,-0.41,0.62,0.49,-12.4,2.0,-2.1,36.09,,,,,,,,,,
15.16.07.985,64.2,16.0,0,,,91324.2,10.95,-0.65,0.83,0.56,-7.7,11.4,2.3,36.21,,,,,,,,,,
15.16.07.994,37.0,9.2,0,,,91324.2,10.95,-0.55,0.8,0.62,-9.1,8.9,-9.2,36.34,,,,,,,,,,
15.16.08.003,36.2,9.0,0,,,91324.2,10.95,-0.44,0.7,0.54,-3.5,-1.7,-8.3,36.37,102.1,,,,,,,,,
15.16.08.014,9.7,2.4,0,,,91324.2,10.95,-0.57,0.72,0.7,5.7,7.3,5.9,36.23,,,,,,,,,,
15.16.08.024,-2.8,0.7,0,,,91324.2,10.95,-0.41,0.63,0.61,0.4,3.1,6.9,36.29,,,,,,,,,,
15.16.08.034,-15.1,3.8,0,,,91324.2,10.95,-0.54,0.71,0.48,6.2,-2.3,-6.0,36.11,,,,,,,,,,
15.16.08.046,-10.4,2.6,0,,,91324.2,10.95,-0.4,0.63,0.63,3.4,3.2,-3.0,36.52,,,,,,,,,,
15.16.08.054,-11.6,2.9,0,,,91324.2,10.95,-0.43,0.69,0.53,-1.6,11.9,-0.6,36.15,,,,,,,,,,
15.16.08.062,-18.0,4.5,0,,,91324.2,10.95,-0.47,0.57,0.56,-1.2,-0.2,1.1,36.18,,,,,,,,,,
15.16.08.072,-22.7,5.7,0,,,91324.2,10.95,-0.45,0.59,0.64,8.8,3.4,-0.9,36.54,,,,,,,,,,
15.16.08.081,-30.5,7.6,0,,,91324.2,10.95,-0.52,0.54,0.52,-16.6,1.6,0.7,36.35,,,,,,,,,,
15.16.08.091,-24.7,6.2,0,,,91324.2,10.95,-0.53,0.69,0.7,-7.7,6.3,0.3,36.07,,,,,,,,,,
15.16.08.102,-42.5,10.6,0,,,91324.2,10.95,-0.5,0.57,0.71,1.9,1.6,-2.8,36.33,,,,,,,,,,
15.16.08.113,-31.7,7.9,0,,,91324.2,10.95,-0.49,0.54,0.63,-2.1,5.9,0.3,36.2,,,,,,,,,,
15.16.08.123,-36.6,9.2,0,,,91324.2,10.95,-0.54,0.57,0.57,4.3,10.8,-2.7,36.25,,,,,,,,,,
15.16.08.133,-53.0,13.2,0,,,91324.2,10.95,-0.39,0.67,0.54,4.7,6.6,3.1,36.35,,,,,,,,,,
15.16.08.144,-56.4,14.1,0,,,91324.2,10.95,-0.39,0.81,0.6,-0.5,5.9,2.4,36.36,,,,,,,,,,
15.16.08.155,-67.8,17.0,0,,,91324.2,10.95,-0.52,0.56,0.65,-0.8,11.6,-1.1,36.44,,,,,,,,,,
15.16.08.164,-66.1,16.5,0,,,91324.2,10.95,-0.45,0.49,0.6,6.8,8.8,5.9,36.28,,,,,,,,,,
15.16.08.173,-67.4,16.8,1,9.0,105.1,91324.2,10.95,-0.47,0.53,0.49,-4.4,3.4,-2.6,36.39,,,,,,,,,,
15.16.08.184,-78.4,19.6,0,,,91324.2,10.95,-0.38,0.51,0.55,8.6,6.5,2.6,36.54,,,,,,,,,,
15.16.08.193,-78.1,19.5,0,,,91324.2,10.95,-0.45,0.58,0.62,4.0,19.4,-3.8,36.16,,,,,,,,,,
15.16.08.203,-79.9,20.0,0,,,91324.2,10.95,-0.46,0.64,0.54,0.3,5.0,1.3,36.0,,,,,,,,,,
15.16.08.212,-99.9,25.0,0,,,91324.2,10.95,-0.47,0.6,0.64,1.1,14.8,-4.5,36.14,,,,,,,,,,
15.16.08.221,-93.6,23.4,0,,,91324.2,10.95,-0.53,0.56,0.59,-7.6,7.4,-2.6,36.03,,,,,,,,,,
15.16.08.229,-99.5,24.9,0,,,91324.2,10.95,-0.55,0.66,0.52,-8.1,8.9,-1.1,36.24,,,,,,,,,,
15.16.08.238,-105.9,26.5,0,,,91324.2,10.95,-0.61,0.7,0.57,6.0,4.1,-2.0,36.48,,,,,,,,,,
15.16.08.248,-113.9,28.5,0,,,91324.2,10.95,-0.57,0.67,0.45,-8.2,13.9,-7.9,36.36,,,,,,,,,,
15.16.08.256,-116.8,29.2,0,,,91324.2,10.95,-0.53,0.65,0.62,0.5,13.0,6.4,36.49,,,,,,,,,,
15.16.08.266,-111.9,28.0,0,,,91324.2,10.95,-0.54,0.64,0.61,-3.2,1.1,-4.1,36.37,,,,,,,,,,
15.16.08.276,-119.6,29.9,0,,,91324.2,10.95,-0.39,0.62,0.59,-4.5,-3.3,1.4,36.33,,,,,,,,,,
15.16.08.287,-121.7,30.4,0,,,91324.2,10.95,-0.44,0.7,0.59,3.6,1.3,5.0,36.46,,,,,,,,,,
15.16.08.296,23.8,6.0,0,,,91324.2,10.95,-0.58,0.71,0.6,4.9,2.9,-0.8,36.33,,,,,,,,,,
15.16.08.305,68.4,17.1,0,,,91324.2,10.95,-0.43,0.65,0.52,2.6,5.0,1.0,36.11,,,,,,,,,,
15.16.08.313,96.4,24.1,0,,,91324.2,10.95,-0.55,0.65,0.5,2.2,14.2,5.0,36.45,,,,,,,,,,
15.16.08.325,167.0,41.8,0,,,91324.2,10.95,-0.52,0.75,0.64,6.3,9.0,5.0,36.25,,,,,,,,,,
15.16.08.335,179.9,45.0,0,,,91324.2,10.95,-0.49,0.53,0.48,-6.3,-0.0,-3.8,36.31,,,,,,,,,,
15.16.08.348,246.8,61.7,0,,,91324.2,10.95,-0.42,0.55,0.6,0.6,14.9,-1.1,36.3,,,,,,,,,,
15.16.08.356,262.9,65.7,0,,,91324.2,10.95,-0.39,0.49,0.7,3.5,24.4,1.7,35.99,,,,,,,,,,
15.16.08.364,274.2,68.6,0,,,91324.2,10.95,-0.47,0.55,0.56,-7.8,10.9,2.5,36.16,,,,,,,,,,
15.16.08.374,301.2,75.3,0,,,91324.2,10.95,-0.4,0.65,0.74,5.3,11.0,-0.5,36.07,,,,,,,,,,
15.16.08.384,309.9,77.5,0,,,91324.2,10.95,-0.63,0.63,0.53,-7.1,17.6,4.0,36.31,,,,,,,,,,
15.16.08.394,317.9,79.5,0,,,91324.2,10.95,-0.38,0.7,0.65,11.8,6.3,4.9,36.18,,,,,,,,,,
15.16.08.403,313.0,78.2,0,,,91324.2,10.95,-0.37,0.5,0.49,2.2,0.4,-2.3,36.19,,,,,,,,,,
15.16.08.413,322.2,80.6,0,,,91324.2,10.95,-0.53,0.6,0.59,8.6,2.2,-4.0,36.21,,,,,,,,,,
15.16.08.421,291.7,72.9,0,,,91324.2,10.95,-0.39,0.67,0.55,14.1,8.7,0.8,36.5,,,,,,,,,,
15.16.08.428,275.3,68.8,0,,,91324.2,10.95,-0.43,0.59,0.7,-10.0,4.5,-9.8,36.17,,,,,,,,,,
15.16.08.435,264.6,66.2,0,,,91324.2,10.95,-0.54,0.55,0.61,-19.0,2.4,3.0,36.3,,,,,,,,,,
15.16.08.444,228.0,57.0,0,,,91324.2,10.95,-0.47,0.8,0.68,-7.2,1.0,8.2,36.22,,,,,,,,,,
15.16.08.453,212.6,53.2,0,,,91324.2,10.95,-0.48,0.6,0.57,6.1,-1.2,-6.1,36.39,,,,,,,,,,
15.16.08.467,130.3,32.6,0,,,91324.2,10.95,-0.58,0.67,0.55,17.7,12.3,7.0,36.56,,,,,,,,,,
15.16.08.477,91.0,22.8,0,,,91324.2,10.95,-0.53,0.59,0.49,8.7,8.3,5.8,36.17,,,,,,,,,,
15.16.08.486,44.8,11.2,0,,,91324.2,10.95,-0.45,0.71,0.43,-5.5,2.0,-4.7,36.45,,,,,,,,,,
15.16.08.497,2.4,0.6,0,,,91324.2,10.95,-0.52,0.66,0.52,0.8,2.3,3.5,36.53,,,,,,,,,,
15.16.08.504,10.9,2.7,0,,,91324.2,10.95,-0.58,0.51,0.56,-6.1,20.7,11.9,36.41,,,,,,,,,,
15.16.08.513,27.5,6.9,0,,,91324.2,10.95,-0.5,0.56,0.55,15.3,14.4,1.2,36.49,,,,,,,,,,
15.16.08.522,33.4,8.4,0,,,91324.2,10.95,-0.38,0.51,0.57,-4.3,10.4,-2.0,36.22,,,,,,,,,,
15.16.08.531,56.0,14.0,0,,,91324.2,10.95,-0.41,0.83,0.64,-0.7,5.0,-1.4,36.35,,,,,,,,,,
15.16.08.543,52.6,13.2,0,,,91240.9,10.96,-0.62,0.69,0.54,3.7,11.5,0.7,36.28,,,,,,,,,,
15.16.08.554,67.5,16.9,0,,,91240.9,10.96,-0.45,0.67,0.61,3.7,6.3,-1.3,36.23,,,,,,,,,,
15.16.08.562,46.3,11.6,0,,,91240.9,10.96,-0.59,0.81,0.53,3.2,7.4,-5.9,36.42,,,,,,,,,,
15.16.08.572,46.2,11.6,0,,,91240.9,10.96,-0.57,0.71,0.62,3.7,1.5,-9.2,36.24,,,,,,,,,,
15.16.08.582,33.8,8.4,0,,,91240.9,10.96,-0.65,0.69,0.49,-5.7,15.0,-0.2,36.17,,,,,,,,,,
15.16.08.590,42.5,10.6,0,,,91240.9,10.96,-0.63,0.6,0.55,0.1,2.2,-4.3,36.28,,,,,,,,,,
15.16.08.597,26.5,6.6,0,,,91240.9,10.96,-0.36,0.68,0.75,0.5,-2.6,-4.8,36.41,,,,,,,,,,
15.16.08.609,11.9,3.0,0,,,91240.9,10.96,-0.44,0.68,0.63,12.4,1.8,1.5,36.26,,,,,,,,,,
15.16.08.619,-2.1,0.5,0,,,91240.9,10.96,-0.47,0.62,0.54,-5.0,5.4,-3.8,36.36,,,,,,,,,,
15.16.08.628,-5.1,1.3,0,,,91240.9,10.96,-0.58,0.66,0.44,-14.3,10.4,-1.8,36.14,,,,,,,,,,
15.16.08.639,-3.1,0.8,0,,,91240.9,10.96,-0.27,0.55,0.52,0.4,12.8,0.9,36.39,,,,,,,,,,
15.16.08.646,-22.7,5.7,0,,,91240.9,10.96,-0.52,0.59,0.56,2.2,1.2,-6.1,36.3,,,,,,,,,,
15.16.08.658,-31.6,7.9,0,,,91240.9,10.96,-0.55,0.46,0.52,5.3,10.0,11.5,36.52,,,,,,,,,,
15.16.08.670,-25.1,6.3,0,,,91240.9,10.96,-0.42,0.57,0.59,-6.9,13.8,-1.6,36.23,,,,,,,,,,
15.16.08.679,-36.6,9.2,0,,,91240.9,10.96,-0.3,0.73,0.46,9.5,10.3,2.1,36.23,,,,,,,,,,
15.16.08.688,-38.9,9.7,0,,,91240.9,10.96,-0.4,0.74,0.59,-5.7,5.3,6.0,36.53,,,,,,,,,,
15.16.08.699,-41.0,10.2,0,,,91240.9,10.96,-0.46,0.6,0.6,-3.8,14.7,-4.9,36.33,,,,,,,,,,
15.16.08.710,-32.0,8.0,0,,,91240.9,10.96,-0.53,0.69,0.59,9.6,5.0,-3.4,36.28,,,,,,,,,,
15.16.08.720,-48.0,12.0,0,,,91240.9,10.96,-0.47,0.58,0.64,0.9,19.6,3.4,36.15,,,,,,,,,,
15.16.08.730,-53.8,13.4,1,10.0,107.7,91240.9,10.96,-0.41,0.71,0.45,-0.6,1.9,3.5,36.24,,,,,,,,,,
15.16.08.740,-62.9,15.7,0,,,91240.9,10.96,-0.46,0.43,0.58,-7.0,-2.5,-5.3,36.48,,,,,,,,,,
15.16.08.749,-71.8,18.0,0,,,91240.9,10.96,-0.55,0.52,0.72,1.9,14.1,-0.8,36.24,,,,,,,,,,
15.16.08.758,-62.0,15.5,0,,,91240.9,10.96,-0.59,0.73,0.56,-8.4,4.3,-3.5,36.32,,,,,,,,,,
15.16.08.767,-77.3,19.3,0,,,91240.9,10.96,-0.43,0.76,0.51,4.8,10.6,-5.5,36.31,,,,,,,,,,
15.16.08.776,-83.6,20.9,0,,,91240.9,10.96,-0.46,0.6,0.68,1.8,9.0,6.5,36.33,,,,,,,,,,
15.16.08.787,-88.5,22.1,0,,,91240.9,10.96,-0.57,0.7,0.58,15.6,4.2,-7.7,36.31,,,,,,,,,,
15.16.08.796,-91.1,22.8,0,,,91240.9,10.96,-0.53,0.68,0.68,-1.2,-1.1,0.1,36.17,,,,,,,,,,
15.16.08.805,-90.2,22.6,0,,,91240.9,10.96,-0.4,0.64,0.56,-12.9,-2.0,-1.0,36.42,,,,,,,,,,
15.16.08.817,-105.5,26.4,0,,,91240.9,10.96,-0.54,0.62,0.66,6.2,10.6,-2.2,36.28,,,,,,,,,,
15.16.08.826,-99.4,24.8,0,,,91240.9,10.96,-0.56,0.45,0.66,1.5,12.9,1.4,36.09,,,,,,,,,,
15.16.08.836,-124.2,31.0,0,,,91240.9,10.96,-0.53,0.61,0.61,-1.5,12.5,3.6,36.14,,,,,,,,,,
15.16.08.846,-114.0,28.5,0,,,91240.9,10.96,-0.57,0.64,0.69,0.6,23.9,0.1,36.26,,,,,,,,,,
15.16.08.855,-109.3,27.3,0,,,91240.9,10.96,-0.52,0.5,0.59,-2.6,0.3,2.7,36.58,,,,,,,,,,
15.16.08.864,-122.6,30.6,0,,,91240.9,10.96,-0.5,0.58,0.51,14.2,7.7,-3.4,36.42,,,,,,,,,,
15.16.08.874,-131.2,32.8,0,,,91240.9,10.96,-0.41,0.39,0.64,9.9,9.8,-1.4,36.31,,,,,,,,,,
15.16.08.885,41.2,10.3,0,,,91240.9,10.96,-0.59,0.55,0.48,2.1,-11.4,-3.3,36.36,,,,,,,,,,
15.16.08.895,75.8,19.0,0,,,91240.9,10.96,-0.56,0.69,0.74,-2.2,10.9,-6.1,36.4,,,,,,,,,,
15.16.08.905,136.8,34.2,0,,,91240.9,10.96,-0.39,0.67,0.57,-9.3,9.4,-0.2,36.13,,,,,,,,,,
15.16.08.915,168.7,42.2,0,,,91240.9,10.96,-0.46,0.66,0.69,-5.5,15.1,4.0,36.33,,,,,,,,,,
15.16.08.925,197.3,49.3,0,,,91240.9,10.96,-0.53,0.69,0.67,8.7,14.0,-3.8,36.14,,,,,,,,,,
15.16.08.934,235.7,58.9,0,,,91240.9,10.96,-0.53,0.78,0.62,-10.7,5.6,-6.0,36.33,,,,,,,,,,
15.16.08.941,269.5,67.4,0,,,91240.9,10.96,-0.55,0.66,0.51,-3.4,8.5,3.4,36.23,,,,,,,,,,
15.16.08.951,309.5,77.4,0,,,91240.9,10.96,-0.4,0.64,0.68,-6.5,-1.0,5.0,36.28,,,,,,,,,,
15.16.08.960,321.4,80.4,0,,,91240.9,10.96,-0.49,0.6,0.66,9.0,3.0,12.8,36.4,,,,,,,,,,
15.16.08.969,304.0,76.0,0,,,91240.9,10.96,-0.55,0.69,0.69,1.7,-4.0,3.4,36.21,,,,,,,,,,
15.16.08.979,313.5,78.4,0,,,91240.9,10.96,-0.55,0.62,0.65,22.9,-5.0,-5.2,36.31,,,,,,,,,,
15.16.08.991,326.6,81.6,0,,,91240.9,10.96,-0.38,0.52,0.45,9.7,3.7,3.2,36.32,,,,,,,,,,
15.16.08.999,286.9,71.7,0,,,91240.9,10.96,-0.53,0.74,0.67,2.5,0.2,2.9,36.24,,,,,,,,,,
15.16.09.007,305.3,76.3,0,,,91240.9,10.96,-0.53,0.65,0.58,-5.7,4.5,4.7,36.31,,,,,,,,,,
15.16.09.016,266.8,66.7,0,,,91240.9,10.96,-0.39,0.43,0.53,0.2,14.0,2.0,36.44,,,,,,,,,,
15.16.09.026,222.8,55.7,0,,,91240.9,10.96,-0.54,0.63,0.64,-4.7,9.3,3.6,36.45,,,,,,,,,,
15.16.09.035,241.0,60.2,0,,,91240.9,10.96,-0.51,0.76,0.64,5.5,14.8,-5.5,36.31,,,,,,,,,,
15.16.09.046,166.4,41.6,0,,,91240.9,10.96,-0.48,0.86,0.51,5.7,5.7,6.9,36.46,,,,,,,,,,
15.16.09.054,144.1,36.0,0,,,91240.9,10.96,-0.44,0.59,0.53,-5.3,-10.2,-4.2,36.32,,,,,,,,,,
15.16.09.066,91.6,22.9,0,,,91240.9,10.96,-0.37,0.63,0.64,2.1,11.0,-7.0,36.55,,,,,,,,,,
15.16.09.078,28.7,7.2,0,,,91240.9,10.96,-0.51,0.59,0.6,-3.1,25.6,1.1,36.49,,,,,,,,,,
15.16.09.089,4.3,1.1,0,,,91240.9,10.96,-0.52,0.63,0.64,-10.9,3.4,-6.7,36.18,,,,,,,,,,
15.16.09.099,22.7,5.7,0,,,91240.9,10.96,-0.4,0.73,0.62,-9.4,3.0,-5.4,36.12,,,,,,,,,,
15.16.09.107,20.3,5.1,0,,,91240.9,10.96,-0.45,0.78,0.57,13.2,11.8,10.0,36.42,,,,,,,,,,
15.16.09.117,36.4,9.1,0,,,91240.9,10.96,-0.39,0.72,0.57,-6.7,6.1,2.1,36.19,,,,,,,,,,
15.16.09.128,64.9,16.2,0,,,91240.9,10.96,-0.45,0.56,0.63,9.8,14.0,-3.0,36.41,,,,,,,,,,
15.16.09.137,59.6,14.9,0,,,91240.9,10.96,-0.6,0.67,0.55,1.7,8.4,-12.9,36.28,,,,,,,,,,
15.16.09.145,50.4,12.6,0,,,91240.9,10.96,-0.65,0.68,0.56,-10.6,-10.9,-0.2,36.1,,,,,,,,,,
15.16.09.155,52.5,13.1,0,,,91240.9,10.96,-0.49,0.68,0.56,8.3,9.0,4.1,36.57,,,,,,,,,,
15.16.09.163,45.3,11.3,0,,,91240.9,10.96,-0.51,0.61,0.45,-14.4,11.1,-11.9,36.2,,,,,,,,,,
15.16.09.171,37.4,9.4,0,,,91240.9,10.96,-0.51,0.68,0.67,-12.6,11.5,4.6,36.31,,,,,,,,,,
15.16.09.180,36.3,9.1,0,,,91240.9,10.96,-0.6,0.7,0.53,-0.8,12.4,4.6,36.24,,,,,,,,,,
15.16.09.190,13.2,3.3,0,,,91240.9,10.96,-0.41,0.63,0.55,-6.4,3.3,-2.5,36.32,,,,,,,,,,
15.16.09.202,0.5,0.1,0,,,91240.9,10.96,-0.34,0.49,0.55,-3.0,0.2,-10.4,36.34,,,,,,,,,,
15.16.09.210,-13.4,3.4,0,,,91240.9,10.96,-0.38,0.49,0.56,-6.5,13.8,3.6,36.13,,,,,,,,,,
15.16.09.221,-12.9,3.2,0,,,91240.9,10.96,-0.52,0.74,0.61,10.3,17.4,5.3,36.31,,,,,,,,,,
15.16.09.231,-16.3,4.1,0,,,91240.9,10.96,-0.44,0.6,0.54,-4.0,8.7,2.9,36.34,,,,,,,,,,
15.16.09.239,-23.3,5.8,0,,,91240.9,10.96,-0.49,0.6,0.7,9.8,12.8,-17.6,36.28,,,,,,,,,,
15.16.09.249,-31.5,7.9,0,,,91240.9,10.96,-0.51,0.72,0.48,-8.4,8.9,0.3,36.33,,,,,,,,,,
15.16.09.258,-25.4,6.4,0,,,91240.9,10.96,-0.53,0.48,0.5,3.9,9.2,7.3,36.23,,,,,,,,,,
15.16.09.267,-29.2,7.3,0,,,91240.9,10.96,-0.6,0.63,0.63,19.5,2.6,-1.4,36.36,,,,,,,,,,
15.16.09.277,-36.5,9.1,0,,,91240.9,10.96,-0.55,0.61,0.58,-11.2,5.0,7.1,36.22,,,,,,,,,,
15.16.09.287,-37.8,9.4,1,11.0,107.7,91240.9,10.96,-0.37,0.64,0.6,-9.4,-1.7,5.7,36.28,,,,,,,,,,
15.16.09.296,-47.6,11.9,0,,,91240.9,10.96,-0.62,0.81,0.64,0.8,9.3,-4.9,36.09,,,,,,,,,,
15.16.09.304,-55.5,13.9,0,,,91240.9,10.96,-0.46,0.62,0.55,3.8,4.1,-0.3,36.1,,,,,,,,,,
15.16.09.314,-55.2,13.8,0,,,91240.9,10.96,-0.57,0.44,0.57,2.5,7.1,1.9,36.63,,,,,,,,,,
15.16.09.324,-59.4,14.8,0,,,91240.9,10.96,-0.47,0.55,0.5,4.3,-0.3,-3.5,36.47,,,,,,,,,,
15.16.09.335,-71.0,17.8,0,,,91240.9,10.96,-0.51,0.82,0.51,-0.3,11.3,-2.7,36.44,,,,,,,,,,
15.16.09.346,-70.7,17.7,0,,,91240.9,10.96,-0.49,0.62,0.68,3.9,1.6,-3.9,36.16,,,,,,,,,,
15.16.09.353,-68.2,17.0,0,,,91240.9,10.96,-0.35,0.81,0.63,1.6,-1.5,-4.8,36.33,,,,,,,,,,
15.16.09.362,-81.1,20.3,0,,,91240.9,10.96,-0.53,0.58,0.86,-1.2,4.1,0.3,36.3,,,,,,,,,,
15.16.09.373,-90.5,22.6,0,,,91240.9,10.96,-0.44,0.64,0.49,9.1,3.9,4.2,36.39,,,,,,,,,,
15.16.09.381,-93.7,23.4,0,,,91240.9,10.96,-0.52,0.83,0.5,4.7,9.9,-7.5,36.5,,,,,,,,,,
15.16.09.392,-113.1,28.3,0,,,91240.9,10.96,-0.49,0.59,0.54,-3.7,1.5,-3.7,36.23,,,,,,,,,,
15.16.09.401,-89.3,22.3,0,,,91240.9,10.96,-0.52,0.6,0.6,0.4,17.0,0.6,36.31,,,,,,,,,,
15.16.09.409,-110.3,27.6,0,,,91240.9,10.96,-0.41,0.76,0.67,10.6,13.1,-6.2,36.25,,,,,,,,,,
15.16.09.419,-83.5,20.9,0,,,91240.9,10.96,-0.36,0.78,0.59,-13.7,11.2,-2.8,36.35,,,,,,,,,,
15.16.09.428,-111.4,27.8,0,,,91240.9,10.96,-0.52,0.58,0.6,9.4,1.9,-0.5,36.25,,,,,,,,,,
15.16.09.438,-120.7,30.2,0,,,91240.9,10.96,-0.41,0.48,0.62,3.2,4.0,-9.7,36.08,,,,,,,,,,
15.16.09.446,-115.6,28.9,0,,,91240.9,10.96,-0.49,0.65,0.6,11.5,-8.4,0.6,36.38,,,,,,,,,,
15.16.09.457,-132.2,33.0,0,,,91240.9,10.96,-0.49,0.55,0.36,-8.0,7.7,4.2,35.95,,,,,,,,,,
15.16.09.468,14.4,3.6,0,,,91240.9,10.96,-0.52,0.57,0.67,-3.7,16.5,-0.5,36.36,,,,,,,,,,
15.16.09.481,73.2,18.3,0,,,91240.9,10.96,-0.33,0.53,0.55,8.2,-6.6,1.3,36.25,,,,,,,,,,
15.16.09.490,115.4,28.8,0,,,91240.9,10.96,-0.52,0.64,0.59,-2.9,-1.2,-11.6,36.33,,,,,,,,,,
15.16.09.499,173.7,43.4,0,,,91240.9,10.96,-0.61,0.61,0.51,2.9,15.2,-5.9,36.36,,,,,,,,,,
15.16.09.508,202.4,50.6,0,,,91240.9,10.96,-0.43,0.72,0.55,0.1,3.5,-2.6,36.26,,,,,,,,,,
15.16.09.518,236.0,59.0,0,,,91240.9,10.96,-0.42,0.62,0.48,-4.7,12.3,1.3,36.61,,,,,,,,,,
15.16.09.529,270.4,67.6,0,,,91240.9,10.96,-0.54,0.76,0.63,-16.9,13.7,-3.7,36.2,,,,,,,,,,
15.16.09.540,303.8,76.0,0,,,91240.9,10.96,-0.58,0.42,0.53,3.9,12.0,3.2,36.26,,,,,,,,,,
15.16.09.550,303.1,75.8,0,,,91240.9,10.96,-0.34,0.66,0.46,-3.0,12.8,-1.5,36.24,,,,,,,,,,
15.16.09.560,327.8,82.0,0,,,91240.9,10.96,-0.33,0.57,0.61,-12.8,11.6,6.1,36.48,,,,,,,,,,
15.16.09.569,336.9,84.2,0,,,91240.9,10.96,-0.5,0.52,0.46,-1.1,1.1,-1.0,36.24,,,,,,,,,,
15.16.09.579,299.0,74.8,0,,,91240.9,10.96,-0.45,0.63,0.58,-13.6,4.5,8.2,36.19,,,,,,,,,,
15.16.09.587,325.9,81.5,0,,,91240.9,10.96,-0.46,0.71,0.62,-4.5,-2.5,-3.9,36.54,,,,,,,,,,
15.16.09.597,309.2,77.3,0,,,91240.9,10.96,-0.38,0.65,0.51,-7.2,4.5,5.2,36.47,,,,,,,,,,
15.16.09.608,239.6,59.9,0,,,91240.9,10.96,-0.51,0.62,0.41,4.7,2.4,4.1,36.21,,,,,,,,,,
15.16.09.618,221.3,55.3,0,,,91240.9,10.96,-0.34,0.62,0.57,-0.2,-3.0,-8.2,36.11,,,,,,,,,,
15.16.09.629,187.6,46.9,0,,,91240.9,10.96,-0.44,0.55,0.68,-5.7,2.5,-4.9,36.36,,,,,,,,,,
15.16.09.636,165.7,41.4,0,,,91240.9,10.96,-0.47,0.63,0.78,4.2,9.6,1.7,36.32,,,,,,,,,,
15.16.09.646,130.6,32.6,0,,,91240.9,10.96,-0.41,0.58,0.69,0.4,10.0,-0.8,36.51,,,,,,,,,,
15.16.09.655,84.9,21.2,0,,,91240.9,10.96,-0.65,0.62,0.61,-4.2,-3.8,0.1,36.43,,,,,,,,,,
15.16.09.666,37.6,9.4,0,,,91240.9,10.96,-0.44,0.61,0.59,10.4,12.8,-4.3,36.29,,,,,,,,,,
15.16.09.675,5.5,1.4,0,,,91240.9,10.96,-0.43,0.58,0.64,14.3,4.5,-5.4,36.11,,,,,,,,,,
15.16.09.685,28.6,7.2,0,,,91240.9,10.96,-0.52,0.69,0.55,-6.7,2.2,-7.4,36.39,,,,,,,,,,
15.16.09.695,34.9,8.7,0,,,91240.9,10.96,-0.51,0.52,0.39,2.9,6.7,0.4,36.22,,,,,,,,,,
15.16.09.704,40.8,10.2,0,,,91240.9,10.96,-0.47,0.85,0.53,2.5,13.7,4.4,36.32,,,,,,,,,,
15.16.09.714,41.3,10.3,0,,,91240.9,10.96,-0.5,0.65,0.62,0.3,6.0,-3.5,36.6,,,,,,,,,,
15.16.09.724,57.8,14.4,0,,,91240.9,10.96,-0.42,0.68,0.65,1.5,-0.2,1.4,36.36,,,,,,,,,,
15.16.09.732,56.7,14.2,0,,,91240.9,10.96,-0.54,0.76,0.56,7.4,6.6,3.2,36.33,,,,,,,,,,
15.16.09.740,52.6,13.2,0,,,91240.9,10.96,-0.56,0.5,0.68,-1.3,-1.2,-2.7,36.33,,,,,,,,,,
15.16.09.750,44.1,11.0,0,,,91240.9,10.96,-0.56,0.43,0.55,16.6,-0.2,2.2,36.44,,,,,,,,,,
15.16.09.760,39.3,9.8,0,,,91240.9,10.96,-0.43,0.8,0.54,11.1,6.8,-0.6,36.34,,,,,,,,,,
15.16.09.769,32.3,8.1,0,,,91240.9,10.96,-0.46,0.76,0.6,5.7,6.1,-2.6,36.42,,,,,,,,,,
15.16.09.780,21.7,5.4,0,,,91240.9,10.96,-0.46,0.77,0.51,1.6,10.7,-0.2,36.52,,,,,,,,,,
15.16.09.790,-5.2,1.3,0,,,91240.9,10.96,-0.56,0.6,0.51,3.7,8.7,-1.9,36.1,,,,,,,,,,
15.16.09.800,-8.7,2.2,0,,,91240.9,10.96,-0.51,0.49,0.64,-10.4,-2.0,8.9,36.41,,,,,,,,,,
15.16.09.809,-6.5,1.6,0,,,91240.9,10.96,-0.48,0.73,0.5,-6.9,7.6,2.2,36.08,,,,,,,,,,
15.16.09.818,-11.5,2.9,0,,,91240.9,10.96,-0.53,0.69,0.46,6.3,2.4,-9.9,36.53,,,,,,,,,,
15.16.09.830,-16.5,4.1,0,,,91240.9,10.96,-0.48,0.55,0.4,-11.6,7.3,-6.2,36.35,,,,,,,,,,
15.16.09.841,-26.7,6.7,0,,,91240.9,10.96,-0.47,0.52,0.62,0.7,11.9,-4.6,36.22,,,,,,,,,,
15.16.09.850,-29.1,7.3,0,,,91240.9,10.96,-0.48,0.75,0.6,-2.6,-0.1,2.3,36.33,,,,,,,,,,
15.16.09.860,-34.5,8.6,0,,,91240.9,10.96,-0.58,0.58,0.63,1.9,2.3,-3.5,36.44,,,,,,,,,,
15.16.09.869,-31.3,7.8,1,12.0,103.1,91240.9,10.96,-0.51,0.62,0.59,-1.1,6.1,-9.8,36.24,,,,,,,,,,
15.16.09.878,-49.6,12.4,0,,,91240.9,10.96,-0.55,0.56,0.66,-10.3,1.2,5.3,36.42,,,,,,,,,,
15.16.09.887,-41.6,10.4,0,,,91240.9,10.96,-0.44,0.67,0.55,-0.2,10.8,3.9,36.09,,,,,,,,,,
15.16.09.899,-53.4,13.4,0,,,91240.9,10.96,-0.43,0.65,0.75,-3.5,8.9,3.7,36.24,,,,,,,,,,
15.16.09.908,-57.7,14.4,0,,,91240.9,10.96,-0.49,0.65,0.64,-0.4,11.9,-6.0,36.32,,,,,,,,,,
15.16.09.921,-61.9,15.5,0,,,91240.9,10.96,-0.37,0.47,0.63,4.9,6.1,5.0,36.3,,,,,,,,,,
15.16.09.932,-70.7,17.7,0,,,91240.9,10.96,-0.57,0.66,0.56,-12.6,11.1,-0.4,36.54,,,,,,,,,,
15.16.09.943,-78.7,19.7,0,,,91240.9,10.96,-0.51,0.61,0.54,5.7,8.3,-9.3,36.33,,,,,,,,,,
15.16.09.955,-82.8,20.7,0,,,91240.9,10.96,-0.42,0.61,0.62,-3.6,4.0,-10.0,36.2,,,,,,,,,,
15.16.09.965,-78.3,19.6,0,,,91240.9,10.96,-0.31,0.61,0.62,-3.0,4.9,-4.3,36.37,,,,,,,,,,
15.16.09.976,-83.5,20.9,0,,,91240.9,10.96,-0.56,0.54,0.49,-5.9,2.7,0.9,36.4,,,,,,,,,,
15.16.09.987,-80.6,20.2,0,,,91240.9,10.96,-0.48,0.67,0.54,2.3,17.9,3.1,36.44,,,,,,,,,,
15.16.09.998,-102.6,25.6,0,,,91240.9,10.96,-0.44,0.55,0.55,-7.7,16.8,-1.8,36.2,,,,,,,,,,
15.16.10.007,-105.9,26.5,0,,,91240.9,10.96,-0.51,0.63,0.54,8.0,0.3,-8.5,36.45,,,,,,,,,,
15.16.10.017,-102.8,25.7,0,,,91240.9,10.96,-0.38,0.64,0.41,-3.9,3.5,-3.1,36.25,,,,,,,,,,
15.16.10.026,-114.2,28.6,0,,,91240.9,10.96,-0.52,0.7,0.7,16.5,-0.7,2.9,36.08,,,,,,,,,,
15.16.10.036,-119.5,29.9,0,,,91240.9,10.96,-0.47,0.59,0.57,3.0,5.0,-6.9,36.37,,,,,,,,,,
15.16.10.044,-128.0,32.0,0,,,91240.9,10.96,-0.54,0.61,0.39,0.4,9.4,0.2,36.34,,,,,,,,,,
15.16.10.054,10.7,2.7,0,,,91240.9,10.96,-0.4,0.73,0.4,-18.8,1.1,10.3,36.38,,,,,,,,,,
15.16.10.065,51.6,12.9,0,,,91240.9,10.96,-0.51,0.54,0.47,-0.0,2.7,-2.0,36.24,,,,,,,,,,
15.16.10.075,93.7,23.4,0,,,91240.9,10.96,-0.5,0.74,0.49,3.1,-2.3,-5.1,36.38,,,,,,,,,,
15.16.10.084,151.7,37.9,0,,,91240.9,10.96,-0.39,0.56,0.6,-1.3,3.5,1.6,36.33,,,,,,,,,,
15.16.10.094,193.3,48.3,0,,,91240.9,10.96,-0.36,0.76,0.62,-8.3,16.7,7.0,36.47,,,,,,,,,,
15.16.10.102,216.2,54.0,0,,,91240.9,10.96,-0.56,0.57,0.51,10.6,-6.1,8.9,36.45,,,,,,,,,,
15.16.10.111,251.6,62.9,0,,,91240.9,10.96,-0.56,0.67,0.47,12.1,6.8,-5.5,36.16,,,,,,,,,,
15.16.10.121,298.4,74.6,0,,,91240.9,10.96,-0.59,0.63,0.59,1.8,11.1,5.7,36.41,,,,,,,,,,
15.16.10.129,308.5,77.1,0,,,91240.9,10.96,-0.43,0.55,0.63,0.5,5.3,0.7,36.19,,,,,,,,,,
15.16.10.140,325.8,81.4,0,,,91240.9,10.96,-0.48,0.52,0.54,-11.5,11.3,-2.4,36.52,,,,,,,,,,
15.16.10.149,325.5,81.4,0,,,91240.9,10.96,-0.54,0.46,0.81,-1.2,11.7,-2.4,36.25,,,,,,,,,,
15.16.10.160,294.1,73.5,0,,,91240.9,10.96,-0.53,0.6,0.59,14.3,4.2,-0.3,36.37,,,,,,,,,,
15.16.10.169,290.3,72.6,0,,,91240.9,10.96,-0.44,0.55,0.51,12.3,-1.4,-4.2,36.08,,,,,,,,,,
15.16.10.178,342.1,85.5,0,,,91240.9,10.96,-0.49,0.73,0.48,-0.3,18.8,-2.1,36.29,,,,,,,,,,
15.16.10.188,266.6,66.6,0,,,91240.9,10.96,-0.45,0.68,0.53,4.0,9.4,-0.1,36.28,,,,,,,,,,
15.16.10.201,240.0,60.0,0,,,91240.9,10.96,-0.58,0.7,0.5,-5.5,11.5,-2.2,36.25,,,,,,,,,,
15.16.10.209,191.3,47.8,0,,,91240.9,10.96,-0.31,0.65,0.53,12.0,2.5,-2.0,36.49,,,,,,,,,,
15.16.10.216,208.9,52.2,0,,,91240.9,10.96,-0.54,0.64,0.5,15.8,-6.8,-1.9,36.46,,,,,,,,,,
15.16.10.226,168.5,42.1,0,,,91240.9,10.96,-0.53,0.46,0.65,4.4,3.1,-3.0,36.22,,,,,,,,,,
15.16.10.237,110.2,27.6,0,,,91240.9,10.96,-0.49,0.6,0.7,-0.5,18.4,2.1,36.53,,,,,,,,,,
15.16.10.247,73.1,18.3,0,,,91240.9,10.96,-0.52,0.51,0.48,11.3,6.1,-0.4,36.22,,,,,,,,,,
15.16.10.255,10.1,2.5,0,,,91240.9,10.96,-0.5,0.61,0.51,-4.0,8.1,3.9,36.2,,,,,,,,,,
15.16.10.265,10.0,2.5,0,,,91240.9,10.96,-0.45,0.64,0.7,-0.0,8.4,-0.2,36.45,,,,,,,,,,
15.16.10.275,22.1,5.5,0,,,91240.9,10.96,-0.52,0.55,0.5,4.6,2.7,0.3,36.35,,,,,,,,,,
15.16.10.286,35.2,8.8,0,,,91240.9,10.96,-0.62,0.58,0.61,7.2,18.4,1.1,36.41,,,,,,,,,,
15.16.10.296,46.1,11.5,0,,,91240.9,10.96,-0.46,0.57,0.49,-13.0,12.6,-10.5,36.49,,,,,,,,,,
15.16.10.308,53.7,13.4,0,,,91240.9,10.96,-0.5,0.68,0.53,6.2,-5.0,2.2,36.25,,,,,,,,,,
15.16.10.317,74.0,18.5,0,,,91240.9,10.96,-0.52,0.74,0.67,-8.0,11.2,-8.7,36.45,,,,,,,,,,
15.16.10.327,56.4,14.1,0,,,91240.9,10.96,-0.4,0.54,0.63,8.8,1.4,-2.5,36.27,,,,,,,,,,
15.16.10.336,56.6,14.2,0,,,91240.9,10.96,-0.54,0.51,0.53,-14.9,-2.7,-4.4,36.42,,,,,,,,,,
15.16.10.347,45.3,11.3,0,,,91240.9,10.96,-0.47,0.66,0.7,10.6,2.1,4.8,36.04,,,,,,,,,,
15.16.10.356,24.4,6.1,0,,,91240.9,10.96,-0.54,0.66,0.52,-1.1,13.9,6.0,36.4,,,,,,,,,,
15.16.10.366,19.8,5.0,0,,,91240.9,10.96,-0.4,0.63,0.56,10.7,12.5,-3.4,36.47,,,,,,,,,,
15.16.10.372,12.1,3.0,0,,,91240.9,10.96,-0.48,0.46,0.74,1.4,5.9,7.0,36.23,,,,,,,,,,
15.16.10.382,-5.7,1.4,0,,,91240.9,10.96,-0.4,0.68,0.62,-0.5,17.2,-5.9,36.14,,,,,,,,,,
15.16.10.391,-11.2,2.8,0,,,91240.9,10.96,-0.53,0.64,0.63,-8.2,15.0,5.6,36.29,,,,,,,,,,
15.16.10.402,-6.8,1.7,0,,,91240.9,10.96,-0.59,0.76,0.57,-3.9,1.0,5.5,36.38,,,,,,,,,,
15.16.10.412,-19.2,4.8,0,,,91240.9,10.96,-0.59,0.57,0.62,6.5,3.7,-2.1,36.3,,,,,,,,,,
15.16.10.422,-26.7,6.7,0,,,91240.9,10.96,-0.42,0.5,0.36,4.0,13.1,8.3,36.22,,,,,,,,,,
15.16.10.433,-29.6,7.4,1,13.0,106.4,91240.9,10.96,-0.54,0.71,0.56,-3.8,4.0,-3.4,36.33,,,,,,,,,,
15.16.10.443,-35.8,9.0,0,,,91240.9,10.96,-0.35,0.58,0.41,19.4,1.7,-7.4,36.45,,,,,,,,,,
15.16.10.453,-41.0,10.2,0,,,91240.9,10.96,-0.35,0.67,0.52,0.2,3.0,-4.5,36.24,,,,,,,,,,
15.16.10.463,-33.1,8.3,0,,,91240.9,10.96,-0.35,0.67,0.63,-6.4,2.4,-4.2,36.16,,,,,,,,,,
15.16.10.473,-50.2,12.6,0,,,91240.9,10.96,-0.42,0.58,0.6,-6.2,-1.9,-0.1,36.16,,,,,,,,,,
15.16.10.482,-50.2,12.6,0,,,91240.9,10.96,-0.41,0.57,0.64,11.5,1.1,1.2,36.33,,,,,,,,,,
15.16.10.492,-61.9,15.5,0,,,91240.9,10.96,-0.53,0.6,0.71,6.9,1.6,-1.0,36.5,,,,,,,,,,
15.16.10.502,-59.4,14.8,0,,,91240.9,10.96,-0.5,0.72,0.57,-2.9,6.2,-4.5,36.22,,,,,,,,,,
15.16.10.512,-53.9,13.5,0,,,91240.9,10.96,-0.37,0.67,0.56,2.0,3.5,0.1,36.52,,,,,,,,,,
15.16.10.521,-71.6,17.9,0,,,91240.9,10.96,-0.45,0.65,0.64,10.6,6.5,1.9,36.44,,,,,,,,,,
15.16.10.532,-89.1,22.3,0,,,91240.9,10.96,-0.58,0.65,0.58,-15.0,9.7,-4.8,36.54,,,,,,,,,,
15.16.10.540,-81.8,20.4,0,,,91240.9,10.96,-0.52,0.55,0.62,0.5,-1.8,4.4,36.26,,,,,,,,,,
15.16.10.550,-87.8,22.0,0,,,91240.9,10.96,-0.42,0.56,0.56,-4.3,7.6,-2.8,36.32,,,,,,,,,,
15.16.10.559,-88.5,22.1,0,,,91240.9,10.96,-0.37,0.57,0.52,2.8,0.1,3.6,36.31,,,,,,,,,,
15.16.10.570,-79.5,19.9,0,,,91240.9,10.96,-0.56,0.49,0.56,5.0,4.6,6.5,36.27,,,,,,,,,,
15.16.10.580,-106.0,26.5,0,,,91240.9,10.96,-0.55,0.65,0.63,-11.3,10.0,-10.8,36.13,,,,,,,,,,
15.16.10.587,-91.7,22.9,0,,,91240.9,10.96,-0.44,0.71,0.5,1.4,5.2,-2.9,36.51,,,,,,,,,,
15.16.10.598,-103.9,26.0,0,,,91240.9,10.96,-0.37,0.62,0.64,3.4,5.7,-2.9,36.04,,,,,,,,,,
15.16.10.609,-113.5,28.4,0,,,91240.9,10.96,-0.44,0.61,0.65,10.9,9.5,-5.2,36.58,,,,,,,,,,
15.16.10.619,-111.9,28.0,0,,,91240.9,10.96,-0.36,0.68,0.55,-4.4,9.6,0.6,36.07,,,,,,,,,,
15.16.10.629,-120.6,30.2,0,,,91240.9,10.96,-0.55,0.54,0.58,4.7,12.1,1.7,36.24,,,,,,,,,,
15.16.10.639,-121.1,30.3,0,,,91240.9,10.96,-0.44,0.6,0.63,8.9,7.3,0.3,36.38,,,,,,,,,,
15.16.10.648,34.3,8.6,0,,,91240.9,10.96,-0.42,0.66,0.54,-3.4,-2.2,-3.4,36.32,,,,,,,,,,
15.16.10.659,80.4,20.1,0,,,91240.9,10.96,-0.49,0.66,0.56,-4.5,-4.3,-7.1,36.44,,,,,,,,,,
15.16.10.668,126.4,31.6,0,,,91240.9,10.96,-0.53,0.78,0.62,5.8,-5.2,-8.6,36.4,,,,,,,,,,
15.16.10.677,150.4,37.6,0,,,91240.9,10.96,-0.41,0.68,0.6,-8.4,14.8,-8.0,36.06,,,,,,,,,,
15.16.10.688,198.5,49.6,0,,,91240.9,10.96,-0.51,0.48,0.53,4.0,3.6,-12.7,36.36,,,,,,,,,,
15.16.10.699,240.6,60.2,0,,,91240.9,10.96,-0.4,0.79,0.61,-2.6,2.4,1.8,36.24,,,,,,,,,,
15.16.10.709,241.6,60.4,0,,,91240.9,10.96,-0.44,0.78,0.67,-1.9,7.6,1.6,36.17,,,,,,,,,,
15.16.10.720,299.8,75.0,0,,,91240.9,10.96,-0.57,0.54,0.65,5.7,0.4,-7.6,36.38,,,,,,,,,,
15.16.10.730,290.2,72.6,0,,,91240.9,10.96,-0.38,0.41,0.69,1.0,-6.0,6.5,36.26,,,,,,,,,,
15.16.10.743,294.3,73.6,0,,,91240.9,10.96,-0.5,0.49,0.53,-7.4,-4.0,7.6,36.38,,,,,,,,,,
15.16.10.752,308.4,77.1,0,,,91240.9,10.96,-0.44,0.58,0.75,-15.1,-0.7,-6.9,36.19,,,,,,,,,,
15.16.10.764,321.1,80.3,0,,,91240.9,10.96,-0.41,0.6,0.62,-3.1,7.2,-7.4,36.3,,,,,,,,,,
15.16.10.775,260.0,65.0,0,,,91240.9,10.96,-0.43,0.65,0.54,-10.8,4.2,1.3,36.51,,,,,,,,,,
15.16.10.784,270.4,67.6,0,,,91240.9,10.96,-0.46,0.54,0.56,0.8,9.3,-6.9,36.32,,,,,,,,,,
15.16.10.793,233.5,58.4,0,,,91240.9,10.96,-0.56,0.45,0.54,7.6,7.7,7.7,36.34,,,,,,,,,,
15.16.10.803,189.2,47.3,0,,,91240.9,10.96,-0.55,0.58,0.48,14.3,1.2,-10.0,36.4,,,,,,,,,,
15.16.10.811,177.0,44.2,0,,,91240.9,10.96,-0.49,0.72,0.62,-2.0,3.9,3.1,36.31,,,,,,,,,,
15.16.10.822,108.3,27.1,0,,,91240.9,10.96,-0.51,0.53,0.63,16.9,9.7,-8.9,36.22,,,,,,,,,,
15.16.10.831,65.8,16.4,0,,,91240.9,10.96,-0.5,0.68,0.62,-10.1,-10.1,-5.1,36.42,,,,,,,,,,
15.16.10.840,31.8,8.0,0,,,91240.9,10.96,-0.57,0.64,0.52,15.7,6.1,9.3,36.34,,,,,,,,,,
15.16.10.846,4.4,1.1,0,,,91240.9,10.96,-0.4,0.68,0.58,4.8,16.0,9.0,36.09,,,,,,,,,,
15.16.10.854,10.4,2.6,0,,,91240.9,10.96,-0.49,0.55,0.73,-0.9,-4.4,-9.1,36.42,,,,,,,,,,
15.16.10.865,27.6,6.9,0,,,91240.9,10.96,-0.49,0.66,0.47,-11.5,13.4,5.4,36.44,,,,,,,,,,
15.16.10.874,41.8,10.4,0,,,91240.9,10.96,-0.37,0.62,0.43,0.5,-4.3,-0.2,36.33,,,,,,,,,,
15.16.10.882,49.4,12.4,0,,,91240.9,10.96,-0.52,0.58,0.69,-0.8,1.7,5.1,36.28,,,,,,,,,,
15.16.10.895,56.3,14.1,0,,,91240.9,10.96,-0.48,0.6,0.54,10.3,-2.6,1.4,36.39,,,,,,,,,,
15.16.10.905,70.3,17.6,0,,,91240.9,10.96,-0.51,0.76,0.57,0.8,6.8,1.5,36.38,,,,,,,,,,
15.16.10.915,59.1,14.8,0,,,91240.9,10.96,-0.5,0.57,0.59,13.6,13.7,6.2,36.21,,,,,,,,,,
15.16.10.924,53.0,13.2,0,,,91240.9,10.96,-0.64,0.65,0.51,-10.7,11.6,8.3,36.11,,,,,,,,,,
15.16.10.934,41.0,10.2,0,,,91240.9,10.96,-0.41,0.55,0.62,1.1,1.7,-6.7,36.35,,,,,,,,,,
15.16.10.945,23.6,5.9,0,,,91240.9,10.96,-0.51,0.7,0.66,-9.1,9.8,-0.3,36.42,,,,,,,,,,
15.16.10.953,21.7,5.4,0,,,91240.9,10.96,-0.5,0.4,0.53,10.0,15.4,-0.1,36.16,,,,,,,,,,
15.16.10.964,4.6,1.2,0,,,91240.9,10.96,-0.55,0.73,0.54,-5.2,-6.5,1.0,36.57,,,,,,,,,,
15.16.10.972,-6.1,1.5,0,,,91240.9,10.96,-0.57,0.68,0.79,11.3,5.9,1.4,36.47,,,,,,,,,,
15.16.10.982,-5.5,1.4,0,,,91240.9,10.96,-0.42,0.47,0.67,5.4,6.7,-3.2,36.27,,,,,,,,,,
15.16.10.989,-1.5,0.4,0,,,91240.9,10.96,-0.42,0.57,0.78,-4.6,10.7,-0.7,36.3,,,,,,,,,,
15.16.10.999,-7.8,2.0,0,,,91240.9,10.96,-0.48,0.81,0.59,-23.5,13.9,-3.4,36.32,,,,,,,,,,
15.16.11.009,-29.4,7.4,0,,,91240.9,10.96,-0.24,0.45,0.6,-0.1,-0.4,-5.4,36.26,,,,,,,,,,
15.16.11.017,-22.7,5.7,1,14.0,102.7,91240.9,10.96,-0.51,0.51,0.67,2.1,0.4,-13.1,36.39,,,,,,,,,,
15.16.11.026,-27.4,6.8,0,,,91240.9,10.96,-0.5,0.63,0.46,3.8,8.3,12.2,36.39,,,,,,,,,,
15.16.11.034,-35.4,8.8,0,,,91240.9,10.96,-0.4,0.52,0.53,5.8,6.9,1.6,36.18,,,,,,,,,,
15.16.11.042,-30.0,7.5,0,,,91240.9,10.96,-0.39,0.62,0.47,8.7,18.4,7.3,36.31,,,,,,,,,,
15.16.11.053,-47.9,12.0,0,,,91240.9,10.96,-0.38,0.56,0.52,11.2,1.1,1.4,36.44,,,,,,,,,,
15.16.11.064,-48.2,12.0,0,,,91240.9,10.96,-0.6,0.5,0.61,1.4,6.3,2.2,36.35,,,,,,,,,,
15.16.11.074,-52.9,13.2,0,,,91240.9,10.96,-0.57,0.59,0.44,-6.3,6.2,6.6,36.24,,,,,,,,,,
15.16.11.085,-54.3,13.6,0,,,91240.9,10.96,-0.51,0.71,0.54,7.0,2.9,-3.9,36.15,,,,,,,,,,
15.16.11.097,-67.6,16.9,0,,,91240.9,10.96,-0.57,0.47,0.61,2.8,-5.4,-0.1,36.31,,,,,,,,,,
15.16.11.107,-69.8,17.4,0,,,91240.9,10.96,-0.45,0.75,0.55,-19.0,6.2,-2.8,36.26,,,,,,,,,,
15.16.11.117,-68.5,17.1,0,,,91240.9,10.96,-0.37,0.52,0.42,5.6,12.5,-0.6,36.36,,,,,,,,,,
15.16.11.128,-76.2,19.0,0,,,91240.9,10.96,-0.46,0.73,0.48,-7.3,6.4,6.1,36.38,,,,,,,,,,
15.16.11.139,-93.7,23.4,0,,,91240.9,10.96,-0.39,0.68,0.51,-7.9,-0.5,5.5,36.24,,,,,,,,,,
15.16.11.149,-83.9,21.0,0,,,91240.9,10.96,-0.51,0.76,0.57,5.7,8.9,1.6,36.42,,,,,,,,,,
15.16.11.160,-84.1,21.0,0,,,91240.9,10.96,-0.26,0.55,0.58,-1.6,6.1,-9.3,36.41,,,,,,,,,,
15.16.11.171,-96.3,24.1,0,,,91240.9,10.96,-0.55,0.69,0.57,3.7,0.2,-2.4,36.19,,,,,,,,,,
15.16.11.179,-111.6,27.9,0,,,91240.9,10.96,-0.38,0.66,0.59,3.0,22.9,-1.2,36.26,,,,,,,,,,
15.16.11.190,-106.2,26.6,0,,,91240.9,10.96,-0.38,0.49,0.62,0.8,8.8,-2.9,36.43,,,,,,,,,,
15.16.11.200,-129.6,32.4,0,,,91240.9,10.96,-0.44,0.69,0.59,3.1,2.0,7.1,36.25,,,,,,,,,,
15.16.11.211,-118.2,29.6,0,,,91240.9,10.96,-0.38,0.6,0.52,-10.6,4.8,2.0,36.23,,,,,,,,,,
15.16.11.221,-136.0,34.0,0,,,91240.9,10.96,-0.46,0.78,0.51,-6.1,9.4,-0.6,36.18,,,,,,,,,,
15.16.11.231,19.7,4.9,0,,,91240.9,10.96,-0.35,0.61,0.75,-2.3,7.9,-0.3,36.43,,,,,,,,,,
15.16.11.242,65.1,16.3,0,,,91240.9,10.96,-0.39,0.72,0.63,-7.3,9.7,-14.9,36.33,,,,,,,,,,
15.16.11.249,83.1,20.8,0,,,91240.9,10.96,-0.35,0.79,0.53,5.0,2.0,2.5,36.23,,,,,,,,,,
15.16.11.260,149.5,37.4,0,,,91240.9,10.96,-0.36,0.6,0.47,14.9,2.0,-3.7,36.3,,,,,,,,,,
15.16.11.268,194.8,48.7,0,,,91240.9,10.96,-0.5,0.65,0.55,-2.4,6.1,-2.8,36.21,,,,,,,,,,
15.16.11.277,203.7,50.9,0,,,91240.9,10.96,-0.58,0.59,0.55,-2.2,1.0,-4.6,36.41,,,,,,,,,,
15.16.11.287,246.4,61.6,0,,,91240.9,10.96,-0.35,0.61,0.65,2.2,7.1,-2.9,36.36,,,,,,,,,,
15.16.11.298,275.7,68.9,0,,,91240.9,10.96,-0.44,0.74,0.54,4.9,8.5,0.9,36.32,,,,,,,,,,
15.16.11.309,309.5,77.4,0,,,91240.9,10.96,-0.53,0.65,0.69,32.3,8.8,-2.1,36.09,,,,,,,,,,
15.16.11.321,313.3,78.3,0,,,91240.9,10.96,-0.45,0.69,0.56,-6.8,10.0,-0.4,36.36,,,,,,,,,,
15.16.11.330,282.1,70.5,0,,,91240.9,10.96,-0.36,0.7,0.63,-5.5,6.2,0.1,36.5,,,,,,,,,,
15.16.11.339,294.4,73.6,0,,,91240.9,10.96,-0.54,0.52,0.5,5.7,11.7,4.8,36.25,,,,,,,,,,
15.16.11.349,307.1,76.8,0,,,91240.9,10.96,-0.58,0.62,0.67,19.5,-0.1,-3.0,36.11,,,,,,,,,,
15.16.11.358,305.2,76.3,0,,,91240.9,10.96,-0.52,0.82,0.67,1.8,8.9,-0.9,36.26,,,,,,,,,,
15.16.11.368,278.6,69.6,0,,,91240.9,10.96,-0.46,0.66,0.68,-6.1,6.3,-3.4,36.27,,,,,,,,,,
15.16.11.378,221.3,55.3,0,,,91240.9,10.96,-0.45,0.62,0.56,4.6,9.6,-4.6,36.34,,,,,,,,,,
15.16.11.388,204.1,51.0,0,,,91240.9,10.96,-0.52,0.58,0.69,-4.9,19.4,-3.7,36.3,,,,,,,,,,
15.16.11.397,177.1,44.3,0,,,91240.9,10.96,-0.5,0.63,0.58,1.9,-1.0,8.2,36.23,,,,,,,,,,
15.16.11.407,137.9,34.5,0,,,91240.9,10.96,-0.54,0.74,0.54,8.2,1.6,-2.6,36.26,,,,,,,,,,
15.16.11.419,72.7,18.2,0,,,91240.9,10.96,-0.43,0.59,0.52,-2.2,7.3,-1.7,36.56,,,,,,,,,,
15.16.11.428,25.9,6.5,0,,,91240.9,10.96,-0.37,0.6,0.59,2.1,12.9,-4.8,36.23,,,,,,,,,,
15.16.11.437,6.8,1.7,0,,,91240.9,10.96,-0.31,0.55,0.54,13.2,7.1,-5.9,36.21,,,,,,,,,,
15.16.11.448,29.4,7.4,0,,,91240.9,10.96,-0.6,0.61,0.62,0.4,0.2,-8.3,36.31,,,,,,,,,,
15.16.11.459,38.5,9.6,0,,,91240.9,10.96,-0.61,0.61,0.54,0.2,15.0,-2.6,36.27,,,,,,,,,,
15.16.11.470,51.6,12.9,0,,,91240.9,10.96,-0.34,0.62,0.47,-8.0,3.8,6.3,36.23,,,,,,,,,,
15.16.11.477,44.4,11.1,0,,,91240.9,10.96,-0.52,0.62,0.59,10.8,5.1,2.7,36.3,,,,,,,,,,
15.16.11.485,58.7,14.7,0,,,91240.9,10.96,-0.39,0.7,0.51,10.7,11.9,-5.8,36.12,,,,,,,,,,
15.16.11.493,48.9,12.2,0,,,91240.9,10.96,-0.52,0.59,0.69,-8.2,3.7,-1.6,36.6,,,,,,,,,,
15.16.11.504,67.6,16.9,0,,,91240.9,10.96,-0.41,0.58,0.65,13.8,15.9,-5.5,36.37,,,,,,,,,,
15.16.11.514,50.6,12.6,0,,,91240.9,10.96,-0.57,0.59,0.56,-0.9,6.6,-3.1,36.3,,,,,,,,,,
15.16.11.524,36.4,9.1,0,,,91240.9,10.96,-0.41,0.57,0.59,13.2,3.3,-5.0,36.28,,,,,,,,,,
15.16.11.533,26.2,6.6,0,,,91240.9,10.96,-0.45,0.51,0.59,-9.0,-1.5,-4.7,36.5,,,,,,,,,,
15.16.11.544,9.7,2.4,0,,,91240.9,10.96,-0.44,0.68,0.39,-1.6,14.0,4.1,36.15,,,,,,,,,,
15.16.11.551,-2.6,0.6,0,,,91240.9,10.96,-0.46,0.56,0.47,11.3,-1.1,5.6,36.32,,,,,,,,,,
15.16.11.561,5.8,1.4,0,,,91240.9,10.96,-0.54,0.83,0.45,-3.0,9.0,-10.9,36.28,,,,,,,,,,
15.16.11.569,-4.9,1.2,0,,,91240.9,10.96,-0.48,0.46,0.44,2.0,9.1,-8.2,36.19,,,,,,,,,,
15.16.11.579,-9.9,2.5,0,,,91240.9,10.96,-0.34,0.68,0.54,13.3,4.5,-3.9,36.34,,,,,,,,,,
15.16.11.589,-22.1,5.5,0,,,91240.9,10.96,-0.46,0.59,0.52,3.2,8.2,4.8,36.34,,,,,,,,,,
15.16.11.598,-13.8,3.4,1,15.0,103.3,91240.9,10.96,-0.44,0.61,0.66,6.0,1.9,1.6,36.0,,,,,,,,,,
15.16.11.608,-29.4,7.4,0,,,91240.9,10.96,-0.49,0.56,0.53,9.0,12.6,-3.5,36.21,,,,,,,,,,
15.16.11.619,-35.1,8.8,0,,,91240.9,10.96,-0.45,0.66,0.68,7.9,12.1,-1.2,36.33,,,,,,,,,,
15.16.11.628,-33.8,8.4,0,,,91240.9,10.96,-0.58,0.55,0.69,-0.4,0.0,-6.5,36.15,,,,,,,,,,
15.16.11.639,-40.9,10.2,0,,,91240.9,10.96,-0.54,0.6,0.62,-10.8,6.1,1.2,36.45,,,,,,,,,,
15.16.11.648,-51.9,13.0,0,,,91240.9,10.96,-0.33,0.53,0.49,4.9,7.1,0.5,36.38,,,,,,,,,,
15.16.11.657,-54.0,13.5,0,,,91240.9,10.96,-0.55,0.51,0.58,2.4,7.0,1.6,36.15,,,,,,,,,,
15.16.11.667,-47.9,12.0,0,,,91240.9,10.96,-0.59,0.43,0.6,3.0,6.9,-13.0,36.23,,,,,,,,,,
15.16.11.679,-64.1,16.0,0,,,91240.9,10.96,-0.58,0.64,0.57,24.8,-1.9,-5.7,36.41,,,,,,,,,,
15.16.11.689,-68.1,17.0,0,,,91240.9,10.96,-0.58,0.61,0.71,-18.6,9.4,-9.2,36.11,,,,,,,,,,
15.16.11.700,-64.7,16.2,0,,,91240.9,10.96,-0.51,0.48,0.67,12.9,14.1,-2.1,36.17,,,,,,,,,,
15.16.11.710,-70.2,17.6,0,,,91240.9,10.96,-0.2,0.51,0.55,5.2,10.9,1.7,36.21,,,,,,,,,,
15.16.11.719,-87.3,21.8,0,,,91240.9,10.96,-0.55,0.77,0.6,-1.1,5.2,-1.8,36.22,,,,,,,,,,
15.16.11.731,-80.0,20.0,0,,,91240.9,10.96,-0.47,0.48,0.73,0.0,3.1,-8.2,36.38,,,,,,,,,,
15.16.11.741,-88.1,22.0,0,,,91240.9,10.96,-0.51,0.75,0.58,1.9,5.7,-4.4,36.23,,,,,,,,,,
15.16.11.750,-100.0,25.0,0,,,91240.9,10.96,-0.69,0.76,0.68,-2.8,1.2,5.0,36.22,,,,,,,,,,
15.16.11.760,-94.6,23.6,0,,,91240.9,10.96,-0.41,0.83,0.56,6.6,-3.5,-6.4,36.22,,,,,,,,,,
15.16.11.769,-114.7,28.7,0,,,91240.9,10.96,-0.41,0.61,0.68,1.3,-0.2,8.6,36.26,,,,,,,,,,
15.16.11.777,-112.5,28.1,0,,,91240.9,10.96,-0.52,0.54,0.67,16.7,8.3,-5.1,36.29,,,,,,,,,,
15.16.11.785,-110.1,27.5,0,,,91240.9,10.96,-0.46,0.55,0.56,-2.1,-3.3,1.9,36.33,,,,,,,,,,
15.16.11.792,-123.8,31.0,0,,,91240.9,10.96,-0.47,0.7,0.58,-0.9,-1.0,-2.2,35.79,,,,,,,,,,
15.16.11.800,-112.4,28.1,0,,,91240.9,10.96,-0.39,0.74,0.62,-1.7,10.1,-8.3,36.37,,,,,,,,,,
15.16.11.808,-124.3,31.1,0,,,91240.9,10.96,-0.35,0.75,0.62,-8.6,6.5,-9.4,36.06,,,,,,,,,,
15.16.11.817,12.6,3.2,0,,,91240.9,10.96,-0.49,0.6,0.71,-10.6,1.1,-3.0,36.21,,,,,,,,,,
15.16.11.826,48.7,12.2,0,,,91240.9,10.96,-0.44,0.6,0.54,-3.3,-3.4,0.1,36.24,,,,,,,,,,
15.16.11.835,96.7,24.2,0,,,91240.9,10.96,-0.53,0.65,0.42,5.7,1.9,-1.3,36.37,,,,,,,,,,
15.16.11.843,125.8,31.4,0,,,91240.9,10.96,-0.41,0.61,0.59,7.2,8.1,-1.2,36.03,,,,,,,,,,
15.16.11.852,171.0,42.8,0,,,91240.9,10.96,-0.47,0.53,0.62,-4.0,7.5,-5.0,36.17,,,,,,,,,,
15.16.11.861,209.1,52.3,0,,,91240.9,10.96,-0.59,0.64,0.46,8.2,-1.4,-0.2,36.53,,,,,,,,,,
15.16.11.872,230.6,57.6,0,,,91240.9,10.96,-0.44,0.71,0.47,10.4,-0.2,-4.4,36.32,,,,,,,,,,
15.16.11.882,247.0,61.8,0,,,91240.9,10.96,-0.43,0.68,0.53,-16.1,3.0,1.3,36.1,,,,,,,,,,
15.16.11.893,305.4,76.4,0,,,91240.9,10.96,-0.48,0.63,0.64,10.6,9.2,0.4,36.5,,,,,,,,,,
15.16.11.902,314.5,78.6,0,,,91240.9,10.96,-0.39,0.65,0.68,8.4,2.2,8.0,36.31,,,,,,,,,,
15.16.11.911,320.8,80.2,0,,,91240.9,10.96,-0.53,0.66,0.63,12.7,-0.2,-7.0,36.3,,,,,,,,,,
15.16.11.922,315.1,78.8,0,,,91240.9,10.96,-0.4,0.65,0.49,-6.0,2.0,5.2,36.26,,,,,,,,,,
15.16.11.931,336.2,84.0,0,,,91240.9,10.96,-0.62,0.8,0.64,-12.6,6.4,-11.2,36.35,,,,,,,,,,
15.16.11.942,314.2,78.6,0,,,91240.9,10.96,-0.45,0.58,0.46,-6.1,6.9,-2.2,36.38,,,,,,,,,,
15.16.11.949,311.3,77.8,0,,,91240.9,10.96,-0.53,0.55,0.49,-6.3,9.4,0.1,36.23,,,,,,,,,,
15.16.11.958,257.0,64.2,0,,,91240.9,10.96,-0.47,0.59,0.71,8.8,17.8,3.4,36.34,,,,,,,,,,
15.16.11.966,263.6,65.9,0,,,91240.9,10.96,-0.55,0.45,0.52,1.9,-2.9,0.1,36.44,,36.31,,,,,,,,
15.16.11.975,216.8,54.2,0,,,91240.9,10.96,-0.45,0.66,0.44,-9.6,17.0,-14.5,36.2,,,,,,,,,,
15.16.11.986,147.6,36.9,0,,,91240.9,10.96,-0.42,0.55,0.62,-11.0,-4.0,2.7,36.32,,,,,,,,,,
15.16.11.997,115.0,28.8,0,,,91240.9,10.96,-0.56,0.46,0.51,-13.9,-1.3,4.4,36.33,,,,,,,,,,
15.16.12.006,68.5,17.1,0,,,91240.9,10.96,-0.59,0.67,0.42,0.8,6.4,-4.0,36.3,,,,,,,,,,
15.16.12.013,39.5,9.9,0,,,91240.9,10.96,-0.46,0.59,0.61,13.0,10.3,-2.3,36.14,,,,,,,,,,
15.16.12.022,1.2,0.3,0,,,91240.9,10.96,-0.42,0.6,0.54,4.4,6.9,6.4,36.67,,,,,,,,,,
15.16.12.033,21.8,5.4,0,,,91240.9,10.96,-0.62,0.83,0.69,10.5,8.0,-10.8,36.1,,,,,,,,,,
15.16.12.044,35.4,8.8,0,,,91240.9,10.96,-0.51,0.54,0.41,10.1,-0.4,-4.0,36.38,,,,,,,,,,
15.16.12.056,52.1,13.0,0,,,91240.9,10.96,-0.45,0.53,0.51,-11.0,7.2,2.0,36.37,,,,,,,,,,
15.16.12.068,55.6,13.9,0,,,91240.9,10.96,-0.62,0.7,0.66,15.5,8.2,-0.0,36.27,,,,,,,,,,
15.16.12.078,56.4,14.1,0,,,91240.9,10.96,-0.51,0.55,0.63,2.2,6.7,-0.4,36.13,,,,,,,,,,
15.16.12.088,56.5,14.1,0,,,91240.9,10.96,-0.63,0.65,0.67,-1.9,19.6,-4.0,36.38,,,,,,,,,,
15.16.12.097,46.3,11.6,0,,,91240.9,10.96,-0.47,0.63,0.58,-6.4,10.3,1.9,36.21,,,,,,,,,,
15.16.12.108,49.6,12.4,0,,,91240.9,10.96,-0.39,0.58,0.79,-1.7,-1.1,-1.4,36.28,,,,,,,,,,
15.16.12.118,23.9,6.0,0,,,91240.9,10.96,-0.39,0.63,0.47,-1.1,2.3,-2.9,36.31,,,,,,,,,,
15.16.12.128,18.1,4.5,0,,,91240.9,10.96,-0.3,0.74,0.6,6.6,9.7,-4.5,36.51,,,,,,,,,,
15.16.12.139,-7.6,1.9,0,,,91240.9,10.96,-0.47,0.52,0.5,9.7,5.1,-2.4,36.44,,,,,,,,,,
15.16.12.148,-9.7,2.4,0,,,91240.9,10.96,-0.36,0.78,0.48,4.7,0.0,-0.2,36.24,,,,,,,,,,
15.16.12.158,-12.6,3.2,0,,,91240.9,10.96,-0.57,0.71,0.54,-1.2,3.7,-6.0,36.28,,,,,,,,,,
15.16.12.168,-6.9,1.7,1,16.0,105.3,91240.9,10.96,-0.43,0.59,0.56,5.6,3.4,-11.4,36.1,,,,,,,,,,
15.16.12.178,-29.9,7.5,0,,,91240.9,10.96,-0.45,0.6,0.78,3.4,12.1,-0.2,36.4,,,,,,,,,,
15.16.12.189,-29.1,7.3,0,,,91240.9,10.96,-0.49,0.76,0.51,1.2,7.8,-2.4,36.36,,,,,,,,,,
15.16.12.197,-29.2,7.3,0,,,91240.9,10.96,-0.43,0.78,0.59,5.6,14.2,-5.0,36.19,,,,,,,,,,
15.16.12.206,-29.8,7.4,0,,,91240.9,10.96,-0.6,0.69,0.71,-5.3,2.4,-5.4,36.5,,,,,,,,,,
15.16.12.215,-35.5,8.9,0,,,91240.9,10.96,-0.54,0.56,0.56,-6.3,9.5,-0.5,36.36,,,,,,,,,,
15.16.12.224,-43.7,10.9,0,,,91240.9,10.96,-0.37,0.52,0.42,3.4,11.4,-7.3,36.29,,,,,,,,,,
15.16.12.235,-44.7,11.2,0,,,91240.9,10.96,-0.44,0.58,0.67,-7.4,6.1,-17.5,36.36,,,,,,,,,,
15.16.12.247,-54.8,13.7,0,,,91240.9,10.96,-0.53,0.65,0.55,-1.8,-1.9,-4.0,36.11,,,,,,,,,,
15.16.12.256,-52.5,13.1,0,,,91240.9,10.96,-0.42,0.69,0.56,3.3,0.5,-6.6,36.26,,,,,,,,,,
15.16.12.269,-68.7,17.2,0,,,91240.9,10.96,-0.41,0.58,0.65,5.8,-2.3,-3.3,36.2,,,,,,,,,,
15.16.12.277,-73.7,18.4,0,,,91240.9,10.96,-0.44,0.63,0.55,15.3,11.5,8.3,36.06,,,,,,,,,,
15.16.12.286,-71.3,17.8,0,,,91240.9,10.96,-0.52,0.63,0.66,1.9,5.1,6.6,36.34,,,,,,,,,,
15.16.12.296,-63.6,15.9,0,,,91240.9,10.96,-0.54,0.81,0.64,3.5,13.2,-0.5,36.29,,,,,,,,,,
15.16.12.305,-83.6,20.9,0,,,91240.9,10.96,-0.48,0.66,0.44,3.2,2.9,1.8,36.44,,,,,,,,,,
15.16.12.315,-91.4,22.8,0,,,91240.9,10.96,-0.49,0.67,0.59,-2.2,4.3,1.6,36.25,,,,,,,,,,
15.16.12.325,-88.2,22.0,0,,,91240.9,10.96,-0.46,0.53,0.62,-14.3,1.8,3.2,36.31,,,,,,,,,,
15.16.12.334,-92.9,23.2,0,,,91240.9,10.96,-0.41,0.76,0.55,18.2,14.3,-5.7,36.14,,,,,,,,,,
15.16.12.344,-101.7,25.4,0,,,91240.9,10.96,-0.4,0.53,0.48,-4.3,0.5,11.0,35.9,,,,,,,,,,
15.16.12.353,-111.4,27.8,0,,,91240.9,10.96,-0.36,0.51,0.52,6.8,8.7,7.0,36.48,,,,,,,,,,
15.16.12.364,-114.8,28.7,0,,,91240.9,10.96,-0.38,0.54,0.58,7.9,9.0,-0.8,36.37,,,,,,,,,,
15.16.12.375,-128.5,32.1,0,,,91157.7,10.97,-0.52,0.49,0.68,-0.8,2.2,-8.8,36.32,,,,,,,,,,
15.16.12.385,-121.6,30.4,0,,,91157.7,10.97,-0.32,0.63,0.64,-0.8,2.5,3.3,36.45,,,,,,,,,,
15.16.12.394,-122.1,30.5,0,,,91157.7,10.97,-0.54,0.59,0.56,3.4,-0.9,5.7,36.23,,,,,,,,,,
15.16.12.404,2.9,0.7,0,,,91157.7,10.97,-0.52,0.43,0.48,16.1,-2.5,-2.2,36.38,,,,,,,,,,
15.16.12.415,62.5,15.6,0,,,91157.7,10.97,-0.55,0.51,0.53,-0.6,-0.7,-4.6,36.38,,,,,,,,,,
15.16.12.424,107.5,26.9,0,,,91157.7,10.97,-0.4,0.49,0.61,1.8,12.8,-4.1,36.45,,,,,,,,,,
15.16.12.435,140.6,35.2,0,,,91157.7,10.97,-0.6,0.55,0.79,-1.3,2.8,-8.4,36.23,,,,,,,,,,
15.16.12.444,178.7,44.7,0,,,91157.7,10.97,-0.37,0.59,0.59,3.9,3.4,-3.8,36.27,,,,,,,,,,
15.16.12.453,226.1,56.5,0,,,91157.7,10.97,-0.48,0.57,0.6,0.7,4.3,-5.0,36.13,,,,,,,,,,
15.16.12.464,257.7,64.4,0,,,91157.7,10.97,-0.47,0.65,0.58,-10.7,9.2,3.3,36.27,,,,,,,,,,
15.16.12.475,273.0,68.2,0,,,91157.7,10.97,-0.45,0.79,0.55,-9.6,12.3,6.4,36.56,,,,,,,,,,
15.16.12.482,308.3,77.1,0,,,91157.7,10.97,-0.41,0.64,0.7,-6.5,11.7,5.5,36.38,,,,,,,,,,
15.16.12.493,313.9,78.5,0,,,91157.7,10.97,-0.6,0.62,0.51,2.4,10.5,-0.7,36.53,,,,,,,,,,
15.16.12.503,315.4,78.8,0,,,91157.7,10.97,-0.39,0.5,0.61,-10.1,2.3,-4.6,36.46,,,,,,,,,,
15.16.12.512,320.6,80.2,0,,,91157.7,10.97,-0.5,0.45,0.52,-1.3,11.3,-4.7,36.31,,,,,,,,,,
15.16.12.521,316.1,79.0,0,,,91157.7,10.97,-0.52,0.7,0.62,1.4,2.7,1.6,36.06,,,,,,,,,,
15.16.12.533,276.6,69.2,0,,,91157.7,10.97,-0.58,0.53,0.6,-11.2,15.7,-2.2,36.27,,,,,,,,,,
15.16.12.543,268.0,67.0,0,,,91157.7,10.97,-0.61,0.7,0.59,3.6,-2.9,-7.1,36.24,,,,,,,,,,
15.16.12.552,261.7,65.4,0,,,91157.7,10.97,-0.39,0.57,0.58,-7.3,-2.5,6.6,36.32,,,,,,,,,,
15.16.12.563,204.4,51.1,0,,,91157.7,10.97,-0.5,0.47,0.48,14.7,2.5,-4.4,36.43,,,,,,,,,,
15.16.12.573,163.2,40.8,0,,,91157.7,10.97,-0.36,0.6,0.56,-1.1,4.8,-6.2,36.2,,,,,,,,,,
15.16.12.581,130.9,32.7,0,,,91157.7,10.97,-0.33,0.66,0.56,-9.4,3.5,-4.5,36.53,,,,,,,,,,
15.16.12.589,90.4,22.6,0,,,91157.7,10.97,-0.57,0.35,0.47,-15.5,13.7,-11.0,36.39,,,,,,,,,,
15.16.12.600,48.0,12.0,0,,,91157.7,10.97,-0.5,0.56,0.5,-5.5,1.7,-5.3,36.23,,,,,,,,,,
15.16.12.609,7.2,1.8,0,,,91157.7,10.97,-0.23,0.69,0.52,-4.1,8.9,2.0,36.21,,,,,,,,,,
15.16.12.619,19.5,4.9,0,,,91157.7,10.97,-0.5,0.57,0.79,1.3,14.6,-3.9,36.34,,,,,,,,,,
15.16.12.629,33.5,8.4,0,,,91157.7,10.97,-0.35,0.61,0.44,2.2,11.4,3.9,36.34,,,,,,,,,,
15.16.12.638,43.3,10.8,0,,,91157.7,10.97,-0.71,0.73,0.6,-7.2,8.8,-6.7,36.11,,,,,,,,,,
15.16.12.648,43.1,10.8,0,,,91157.7,10.97,-0.56,0.66,0.58,9.6,5.2,0.1,36.35,,,,,,,,,,
15.16.12.658,57.6,14.4,0,,,91157.7,10.97,-0.42,0.52,0.68,5.6,8.4,-12.3,36.35,,,,,,,,,,
15.16.12.668,57.9,14.5,0,,,91157.7,10.97,-0.42,0.29,0.55,-12.1,5.5,-3.8,36.47,,,,,,,,,,
15.16.12.679,47.2,11.8,0,,,91157.7,10.97,-0.61,0.58,0.59,-11.2,3.7,8.5,36.41,,,,,,,,,,
15.16.12.690,53.8,13.4,0,,,91157.7,10.97,-0.6,0.61,0.66,-10.3,8.1,-10.6,36.54,,,,,,,,,,
15.16.12.699,41.8,10.4,0,,,91157.7,10.97,-0.54,0.5,0.59,15.2,5.6,-2.9,36.22,,,,,,,,,,
15.16.12.709,26.9,6.7,0,,,91157.7,10.97,-0.46,0.56,0.76,-4.4,3.3,-6.4,36.01,,,,,,,,,,
15.16.12.718,11.7,2.9,0,,,91157.7,10.97,-0.38,0.71,0.73,0.7,15.1,3.7,36.33,,,,,,,,,,
15.16.12.729,-0.8,0.2,0,,,91157.7,10.97,-0.21,0.66,0.64,-3.0,-1.0,13.7,36.23,,,,,,,,,,
15.16.12.738,-15.9,4.0,1,17.0,105.3,91157.7,10.97,-0.44,0.59,0.53,6.5,3.9,7.9,36.38,,,,,,,,,,
15.16.12.747,-6.1,1.5,0,,,91157.7,10.97,-0.64,0.6,0.42,3.1,3.5,5.2,36.24,,,,,,,,,,
15.16.12.756,-16.0,4.0,0,,,91157.7,10.97,-0.38,0.71,0.45,8.2,9.8,7.9,36.39,,,,,,,,,,
15.16.12.768,-13.1,3.3,0,,,91157.7,10.97,-0.35,0.59,0.66,-13.0,3.7,10.3,36.34,,,,,,,,,,
15.16.12.777,-28.5,7.1,0,,,91157.7,10.97,-0.53,0.61,0.73,-7.6,-5.3,-0.4,36.31,,,,,,,,,,
15.16.12.786,-22.5,5.6,0,,,91157.7,10.97,-0.42,0.56,0.63,5.2,2.5,-2.5,36.29,,,,,,,,,,
15.16.12.795,-37.2,9.3,0,,,91157.7,10.97,-0.6,0.81,0.63,-2.1,17.3,-16.7,36.41,,,,,,,,,,
15.16.12.806,-36.0,9.0,0,,,91157.7,10.97,-0.45,0.64,0.7,-19.3,-1.1,-5.8,36.35,,,,,,,,,,
15.16.12.814,-45.1,11.3,0,,,91157.7,10.97,-0.37,0.62,0.74,1.9,-2.0,-6.9,36.33,,,,,,,,,,
15.16.12.825,-56.2,14.0,0,,,91157.7,10.97,-0.5,0.59,0.69,8.1,11.2,-4.9,36.18,,,,,,,,,,
15.16.12.835,-46.2,11.6,0,,,91157.7,10.97,-0.56,0.46,0.77,-11.7,2.5,-4.5,36.5,,,,,,,,,,
15.16.12.844,-46.2,11.6,0,,,91157.7,10.97,-0.49,0.66,0.59,2.8,8.5,9.8,36.48,,,,,,,,,,
15.16.12.854,-67.1,16.8,0,,,91157.7,10.97,-0.54,0.66,0.51,-8.2,6.9,3.1,36.15,,,,,,,,,,
15.16.12.863,-74.7,18.7,0,,,91157.7,10.97,-0.5,0.46,0.6,11.4,2.8,0.2,36.29,,,,,,,,,,
15.16.12.873,-68.8,17.2,0,,,91157.7,10.97,-0.3,0.62,0.53,0.9,9.1,-9.5,36.4,,,,,,,,,,
15.16.12.883,-79.5,19.9,0,,,91157.7,10.97,-0.52,0.76,0.66,10.7,3.5,0.9,36.37,,,,,,,,,,
15.16.12.890,-77.1,19.3,0,,,91157.7,10.97,-0.56,0.58,0.61,-2.4,-0.1,-4.3,36.24,,,,,,,,,,
15.16.12.899,-84.3,21.1,0,,,91157.7,10.97,-0.45,0.61,0.52,-4.2,-8.1,-3.5,36.26,,,,,,,,,,
15.16.12.907,-84.0,21.0,0,,,91157.7,10.97,-0.51,0.71,0.62,-8.3,11.5,-5.3,36.3,,,,,,,,,,
15.16.12.915,-89.4,22.4,0,,,91157.7,10.97,-0.45,0.54,0.72,-5.8,-4.2,0.7,36.39,,,,,,,,,,
15.16.12.924,-102.4,25.6,0,,,91157.7,10.97,-0.49,0.69,0.53,11.2,11.0,-0.6,36.18,,,,,,,,,,
15.16.12.932,-105.6,26.4,0,,,91157.7,10.97,-0.43,0.81,0.54,-2.1,4.1,-4.3,35.97,,,,,,,,,,
15.16.12.942,-104.9,26.2,0,,,91157.7,10.97,-0.66,0.56,0.6,-3.1,-4.5,-7.9,36.3,,,,,,,,,,
15.16.12.952,-106.7,26.7,0,,,91157.7,10.97,-0.56,0.53,0.52,12.4,3.8,7.2,36.33,,,,,,,,,,
15.16.12.962,-100.7,25.2,0,,,91157.7,10.97,-0.34,0.52,0.52,-1.1,-4.0,-5.1,36.53,,,,,,,,,,
15.16.12.971,-125.7,31.4,0,,,91157.7,10.97,-0.59,0.73,0.55,-0.8,-1.0,-3.2,36.28,,,,,,,,,,
15.16.12.984,-129.9,32.5,0,,,91157.7,10.97,-0.37,0.84,0.57,-4.3,12.2,-8.7,36.42,,,,,,,,,,
15.16.12.995,21.0,5.2,0,,,91157.7,10.97,-0.45,0.4,0.63,-0.6,2.3,2.6,36.35,,,,,,,,,,
15.16.13.003,52.5,13.1,0,,,91157.7,10.97,-0.46,0.64,0.62,0.3,12.0,-11.5,36.34,101.5,,,,,,,,,
15.16.13.014,109.3,27.3,0,,,91157.7,10.97,-0.44,0.56,0.66,10.9,3.2,2.5,36.16,,,,,,,,,,
15.16.13.025,154.5,38.6,0,,,91157.7,10.97,-0.34,0.67,0.54,13.0,8.2,1.0,36.32,,,,,,,,,,
15.16.13.035,215.9,54.0,0,,,91157.7,10.97,-0.49,0.46,0.57,5.4,21.9,-4.2,36.29,,,,,,,,,,
15.16.13.046,249.5,62.4,0,,,91157.7,10.97,-0.54,0.52,0.44,6.2,-0.1,4.3,36.24,,,,,,,,,,
15.16.13.056,276.1,69.0,0,,,91157.7,10.97,-0.51,0.61,0.7,-1.8,3.3,-4.6,36.28,,,,,,,,,,
15.16.13.066,307.8,77.0,0,,,91157.7,10.97,-0.53,0.48,0.53,9.9,0.9,-4.7,36.11,,,,,,,,,,
15.16.13.073,299.4,74.8,0,,,91157.7,10.97,-0.5,0.57,0.64,-13.2,11.9,-1.5,36.26,,,,,,,,,,
15.16.13.082,345.7,86.4,0,,,91157.7,10.97,-0.38,0.45,0.64,2.7,4.4,-0.4,36.25,,,,,,,,,,
15.16.13.090,296.6,74.2,0,,,91157.7,10.97,-0.5,0.63,0.55,5.2,0.7,-1.7,36.37,,,,,,,,,,
15.16.13.100,337.9,84.5,0,,,91157.7,10.97,-0.51,0.63,0.72,-10.3,4.8,-3.6,36.3,,,,,,,,,,
15.16.13.111,304.8,76.2,0,,,91157.7,10.97,-0.49,0.61,0.48,-7.0,-4.9,-3.1,36.5,,,,,,,,,,
15.16.13.118,307.3,76.8,0,,,91157.7,10.97,-0.61,0.76,0.53,5.1,-1.2,-1.1,36.54,,,,,,,,,,
15.16.13.128,259.1,64.8,0,,,91157.7,10.97,-0.51,0.68,0.66,-6.0,4.6,4.4,36.54,,,,,,,,,,
15.16.13.138,245.5,61.4,0,,,91157.7,10.97,-0.62,0.56,0.54,21.0,6.9,7.8,36.36,,,,,,,,,,
15.16.13.149,199.7,49.9,0,,,91157.7,10.97,-0.56,0.69,0.49,9.3,6.5,-8.9,36.33,,,,,,,,,,
15.16.13.158,181.3,45.3,0,,,91157.7,10.97,-0.48,0.68,0.63,-12.4,-2.3,-9.8,36.3,,,,,,,,,,
15.16.13.166,155.2,38.8,0,,,91157.7,10.97,-0.52,0.61,0.75,-7.6,3.1,-1.1,36.27,,,,,,,,,,
15.16.13.175,98.5,24.6,0,,,91157.7,10.97,-0.52,0.79,0.58,-13.8,11.5,7.4,36.25,,,,,,,,,,
15.16.13.187,48.9,12.2,0,,,91157.7,10.97,-0.49,0.48,0.58,-11.9,2.8,5.6,36.48,,,,,,,,,,
15.16.13.198,-10.8,2.7,0,,,91157.7,10.97,-0.52,0.58,0.69,-2.8,7.4,-9.3,36.23,,,,,,,,,,
15.16.13.209,21.3,5.3,0,,,91157.7,10.97,-0.59,0.64,0.63,3.8,1.8,-2.1,36.06,,,,,,,,,,
15.16.13.218,37.1,9.3,0,,,91157.7,10.97,-0.4,0.45,0.56,-3.5,7.0,-2.8,36.5,,,,,,,,,,
15.16.13.229,50.8,12.7,0,,,91157.7,10.97,-0.53,0.48,0.61,-5.4,5.0,-8.7,36.32,,,,,,,,,,
15.16.13.239,54.3,13.6,0,,,91157.7,10.97,-0.55,0.65,0.46,-3.0,20.7,-1.2,36.12,,,,,,,,,,
15.16.13.250,62.9,15.7,0,,,91157.7,10.97,-0.66,0.69,0.57,3.0,1.4,-13.6,36.23,,,,,,,,,,
15.16.13.260,54.8,13.7,0,,,91157.7,10.97,-0.44,0.6,0.62,-1.1,8.2,-1.5,36.03,,,,,,,,,,
15.16.13.269,58.5,14.6,0,,,91157.7,10.97,-0.62,0.58,0.63,4.4,10.2,3.9,36.19,,,,,,,,,,
15.16.13.280,48.4,12.1,0,,,91157.7,10.97,-0.62,0.67,0.49,-3.8,6.2,1.9,36.39,,,,,,,,,,
15.16.13.291,41.0,10.2,0,,,91157.7,10.97,-0.37,0.57,0.6,-14.6,0.2,-1.1,36.37,,,,,,,,,,
15.16.13.301,20.4,5.1,1,18.0,106.6,91157.7,10.97,-0.58,0.7,0.57,-0.7,1.8,-6.6,36.39,,,,,,,,,,
15.16.13.312,5.4,1.4,0,,,91157.7,10.97,-0.59,0.52,0.67,4.7,10.0,-4.9,36.34,,,,,,,,,,
15.16.13.323,-12.0,3.0,0,,,91157.7,10.97,-0.57,0.52,0.55,4.6,5.4,-0.7,36.33,,,,,,,,,,
15.16.13.332,-13.2,3.3,0,,,91157.7,10.97,-0.54,0.65,0.58,8.8,4.5,-2.7,36.29,,,,,,,,,,
15.16.13.342,-12.7,3.2,0,,,91157.7,10.97,-0.49,0.52,0.4,2.1,11.7,-3.1,36.5,,,,,,,,,,
15.16.13.351,-22.7,5.7,0,,,91157.7,10.97,-0.51,0.68,0.69,-0.7,8.0,-3.9,36.35,,,,,,,,,,
15.16.13.361,-17.4,4.4,0,,,91157.7,10.97,-0.53,0.89,0.67,-1.0,9.0,-8.8,36.37,,,,,,,,,,
15.16.13.371,-37.5,9.4,0,,,91157.7,10.97,-0.45,0.54,0.5,1.8,10.2,-1.3,36.44,,,,,,,,,,
15.16.13.380,-35.9,9.0,0,,,91157.7,10.97,-0.54,0.53,0.46,-10.4,0.1,5.6,36.52,,,,,,,,,,
15.16.13.390,-39.8,10.0,0,,,91157.7,10.97,-0.46,0.5,0.57,3.5,-7.5,-2.6,36.29,,,,,,,,,,
15.16.13.402,-48.7,12.2,0,,,91157.7,10.97,-0.49,0.65,0.45,-4.4,13.9,0.7,36.31,,,,,,,,,,
15.16.13.411,-57.0,14.2,0,,,91157.7,10.97,-0.56,0.57,0.41,9.6,12.0,-0.9,36.14,,,,,,,,,,
15.16.13.422,-51.7,12.9,0,,,91157.7,10.97,-0.4,0.43,0.41,-11.6,9.8,5.9,36.35,,,,,,,,,,
15.16.13.433,-55.8,14.0,0,,,91157.7,10.97,-0.47,0.58,0.61,-4.4,2.7,1.4,36.25,,,,,,,,,,
15.16.13.443,-74.5,18.6,0,,,91157.7,10.97,-0.49,0.72,0.62,-12.7,6.0,-5.5,36.14,,,,,,,,,,
15.16.13.451,-69.0,17.2,0,,,91157.7,10.97,-0.65,0.84,0.64,2.2,7.3,-5.8,36.36,,,,,,,,,,
15.16.13.463,-65.6,16.4,0,,,91157.7,10.97,-0.52,0.59,0.5,-4.2,9.5,0.1,36.34,,,,,,,,,,
15.16.13.472,-80.3,20.1,0,,,91157.7,10.97,-0.47,0.51,0.76,-5.3,9.9,-1.8,36.12,,,,,,,,,,
15.16.13.481,-84.8,21.2,0,,,91157.7,10.97,-0.36,0.69,0.62,5.4,5.5,4.0,36.31,,,,,,,,,,
15.16.13.490,-74.5,18.6,0,,,91157.7,10.97,-0.73,0.57,0.61,-8.8,15.7,0.3,36.26,,,,,,,,,,
15.16.13.498,-85.0,21.2,0,,,91157.7,10.97,-0.59,0.42,0.63,4.8,0.6,-5.1,36.21,,,,,,,,,,
15.16.13.509,-87.7,21.9,0,,,91157.7,10.97,-0.46,0.53,0.62,-2.2,12.8,1.8,36.23,,,,,,,,,,
15.16.13.521,-101.3,25.3,0,,,91157.7,10.97,-0.48,0.61,0.63,-8.2,9.0,0.1,36.3,,,,,,,,,,
15.16.13.532,-103.5,25.9,0,,,91157.7,10.97,-0.6,0.55,0.59,-1.0,7.3,5.5,36.33,,,,,,,,,,
15.16.13.539,-90.9,22.7,0,,,91157.7,10.97,-0.44,0.58,0.55,2.9,3.8,0.0,36.28,,,,,,,,,,
15.16.13.549,-96.9,24.2,0,,,91157.7,10.97,-0.34,0.62,0.63,0.5,12.7,-2.8,36.52,,,,,,,,,,
15.16.13.559,-119.0,29.8,0,,,91240.9,10.96,-0.46,0.79,0.49,12.0,11.1,5.1,36.37,,,,,,,,,,
15.16.13.570,-139.0,34.8,0,,,91240.9,10.96,-0.32,0.62,0.51,-1.8,2.2,3.4,36.45,,,,,,,,,,
15.16.13.579,4.7,1.2,0,,,91240.9,10.96,-0.5,0.76,0.68,8.5,-6.0,8.6,36.35,,,,,,,,,,
15.16.13.587,51.7,12.9,0,,,91240.9,10.96,-0.49,0.46,0.68,-2.7,13.0,-5.3,36.44,,,,,,,,,,
15.16.13.598,104.8,26.2,0,,,91240.9,10.96,-0.59,0.7,0.57,9.1,1.0,3.6,36.18,,,,,,,,,,
15.16.13.607,148.8,37.2,0,,,91240.9,10.96,-0.62,0.76,0.58,3.1,3.1,-4.2,36.22,,,,,,,,,,
15.16.13.618,176.0,44.0,0,,,91240.9,10.96,-0.55,0.74,0.49,1.3,7.9,-3.4,36.53,,,,,,,,,,
15.16.13.627,209.2,52.3,0,,,91240.9,10.96,-0.53,0.57,0.58,5.2,1.8,-2.9,36.22,,,,,,,,,,
15.16.13.636,245.7,61.4,0,,,91240.9,10.96,-0.56,0.82,0.53,4.1,19.2,-11.2,36.01,,,,,,,,,,
15.16.13.645,273.1,68.3,0,,,91240.9,10.96,-0.43,0.67,0.63,4.6,2.3,4.8,36.2,,,,,,,,,,
15.16.13.655,315.5,78.9,0,,,91240.9,10.96,-0.6,0.65,0.66,-12.7,6.0,-7.1,36.35,,,,,,,,,,
15.16.13.665,294.8,73.7,0,,,91240.9,10.96,-0.56,0.58,0.67,-11.4,7.8,4.6,36.36,,,,,,,,,,
15.16.13.674,319.2,79.8,0,,,91240.9,10.96,-0.38,0.76,0.46,-4.9,5.9,-7.2,36.43,,,,,,,,,,
15.16.13.683,329.2,82.3,0,,,91240.9,10.96,-0.51,0.89,0.63,3.9,10.9,6.1,36.15,,,,,,,,,,
15.16.13.695,311.6,77.9,0,,,91240.9,10.96,-0.45,0.44,0.6,-2.1,4.1,-4.7,36.32,,,,,,,,,,
15.16.13.705,302.1,75.5,0,,,91240.9,10.96,-0.43,0.55,0.6,7.4,0.3,2.5,36.27,,,,,,,,,,
15.16.13.714,290.3,72.6,0,,,91240.9,10.96,-0.46,0.56,0.49,14.7,11.5,-12.2,36.27,,,,,,,,,,
15.16.13.721,259.9,65.0,0,,,91240.9,10.96,-0.52,0.55,0.57,0.8,3.5,4.5,36.13,,,,,,,,,,
15.16.13.734,218.5,54.6,0,,,91240.9,10.96,-0.4,0.68,0.52,-13.2,1.5,2.8,36.33,,,,,,,,,,
15.16.13.746,187.5,46.9,0,,,91240.9,10.96,-0.37,0.75,0.56,-5.0,8.6,1.0,36.29,,,,,,,,,,
15.16.13.755,135.6,33.9,0,,,91240.9,10.96,-0.61,0.85,0.59,3.8,7.1,-5.0,36.45,,,,,,,,,,
15.16.13.767,90.8,22.7,0,,,91240.9,10.96,-0.47,0.69,0.68,-0.0,6.1,-10.3,36.27,,,,,,,,,,
15.16.13.776,29.9,7.5,0,,,91240.9,10.96,-0.54,0.55,0.57,-6.6,6.4,1.8,36.57,,,,,,,,,,
15.16.13.785,1.0,0.2,0,,,91240.9,10.96,-0.46,0.44,0.51,5.3,-2.9,-10.7,36.17,,,,,,,,,,
15.16.13.795,21.6,5.4,0,,,91240.9,10.96,-0.32,0.71,0.49,-2.4,12.3,1.0,36.14,,,,,,,,,,
15.16.13.806,23.9,6.0,0,,,91240.9,10.96,-0.37,0.59,0.45,-9.4,9.6,1.5,36.37,,,,,,,,,,
15.16.13.814,42.3,10.6,0,,,91240.9,10.96,-0.58,0.71,0.58,2.8,4.7,2.8,36.29,,,,,,,,,,
15.16.13.824,55.2,13.8,0,,,91240.9,10.96,-0.53,0.54,0.7,-3.0,3.5,1.0,36.44,,,,,,,,,,
15.16.13.835,55.8,14.0,0,,,91240.9,10.96,-0.5,0.65,0.58,3.0,9.4,-5.5,36.28,,,,,,,,,,
15.16.13.843,63.5,15.9,0,,,91240.9,10.96,-0.42,0.74,0.42,0.1,3.9,-13.1,36.25,,,,,,,,,,
15.16.13.851,59.0,14.8,0,,,91240.9,10.96,-0.45,0.62,0.74,-5.5,9.5,6.5,36.45,,,,,,,,,,
15.16.13.859,53.5,13.4,0,,,91240.9,10.96,-0.43,0.61,0.56,-4.6,-4.0,-9.7,36.21,,,,,,,,,,
15.16.13.869,38.2,9.6,0,,,91240.9,10.96,-0.44,0.72,0.57,11.0,8.8,-5.9,36.33,,,,,,,,,,
15.16.13.877,35.1,8.8,1,19.0,104.2,91240.9,10.96,-0.41,0.75,0.6,-1.4,-3.8,3.5,36.29,,,,,,,,,,
15.16.13.887,28.2,7.0,0,,,91240.9,10.96,-0.63,0.83,0.66,10.5,16.8,7.5,36.34,,,,,,,,,,
15.16.13.895,9.4,2.4,0,,,91240.9,10.96,-0.44,0.62,0.5,7.5,8.8,3.7,36.28,,,,,,,,,,
15.16.13.904,0.5,0.1,0,,,91240.9,10.96,-0.49,0.57,0.6,11.9,11.3,0.6,36.29,,,,,,,,,,
15.16.13.916,-6.6,1.6,0,,,91240.9,10.96,-0.48,0.51,0.51,-3.4,7.9,-3.0,36.16,,,,,,,,,,
15.16.13.926,-14.2,3.6,0,,,91240.9,10.96,-0.41,0.72,0.63,11.5,-5.0,3.3,36.32,,,,,,,,,,
15.16.13.935,-26.5,6.6,0,,,91240.9,10.96,-0.46,0.59,0.62,3.7,1.7,-7.7,36.32,,,,,,,,,,
15.16.13.947,-25.4,6.4,0,,,91240.9,10.96,-0.49,0.64,0.53,3.3,1.1,2.8,36.51,,,,,,,,,,
15.16.13.957,-22.3,5.6,0,,,91240.9,10.96,-0.57,0.64,0.49,-2.1,4.1,-0.1,36.47,,,,,,,,,,
15.16.13.965,-29.5,7.4,0,,,91240.9,10.96,-0.5,0.65,0.55,-2.2,9.3,-1.1,36.21,,,,,,,,,,
15.16.13.976,-37.4,9.4,0,,,91240.9,10.96,-0.4,0.54,0.58,-11.5,16.9,-0.7,36.51,,,,,,,,,,
15.16.13.987,-49.0,12.2,0,,,91240.9,10.96,-0.46,0.48,0.61,6.3,15.4,-1.0,36.19,,,,,,,,,,
15.16.13.995,-43.9,11.0,0,,,91240.9,10.96,-0.41,0.72,0.61,-1.9,3.3,1.0,36.26,,,,,,,,,,
15.16.14.006,-56.3,14.1,0,,,91240.9,10.96,-0.35,0.63,0.47,-6.9,18.1,1.8,36.23,,,,,,,,,,
15.16.14.015,-61.9,15.5,0,,,91240.9,10.96,-0.47,0.66,0.69,4.0,15.1,-2.0,36.29,,,,,,,,,,
15.16.14.024,-64.8,16.2,0,,,91240.9,10.96,-0.53,0.61,0.69,0.2,18.2,-6.0,36.4,,,,,,,,,,
15.16.14.032,-63.1,15.8,0,,,91240.9,10.96,-0.38,0.56,0.62,-10.6,-0.5,5.7,36.26,,,,,,,,,,
15.16.14.041,-72.0,18.0,0,,,91240.9,10.96,-0.48,0.72,0.48,3.0,4.8,1.0,35.94,,,,,,,,,,
15.16.14.052,-70.3,17.6,0,,,91240.9,10.96,-0.6,0.63,0.7,0.4,4.9,-5.3,36.25,,,,,,,,,,
15.16.14.062,-75.9,19.0,0,,,91240.9,10.96,-0.33,0.62,0.57,-5.4,7.0,-6.2,36.39,,,,,,,,,,
15.16.14.073,-93.1,23.3,0,,,91240.9,10.96,-0.51,0.54,0.59,1.6,4.8,-2.4,36.3,,,,,,,,,,
15.16.14.084,-85.3,21.3,0,,,91240.9,10.96,-0.59,0.78,0.64,11.9,6.2,-2.8,36.34,,,,,,,,,,
15.16.14.094,-92.7,23.2,0,,,91240.9,10.96,-0.48,0.51,0.68,1.2,4.7,-1.9,36.32,,,,,,,,,,
15.16.14.103,-85.3,21.3,0,,,91240.9,10.96,-0.44,0.63,0.74,8.8,5.0,-1.1,36.35,,,,,,,,,,
15.16.14.114,-94.1,23.5,0,,,91240.9,10.96,-0.46,0.45,0.4,-14.1,15.2,-3.5,36.18,,,,,,,,,,
15.16.14.123,-95.3,23.8,0,,,91240.9,10.96,-0.46,0.56,0.57,-0.3,4.3,-5.3,36.39,,,,,,,,,,
15.16.14.134,-115.6,28.9,0,,,91240.9,10.96,-0.41,0.64,0.62,4.7,2.3,-5.6,36.32,,,,,,,,,,
15.16.14.141,-117.8,29.4,0,,,91240.9,10.96,-0.62,0.42,0.71,1.4,5.7,-0.2,36.29,,,,,,,,,,
15.16.14.152,-118.5,29.6,0,,,91240.9,10.96,-0.54,0.61,0.42,-2.5,-4.4,-11.1,36.36,,,,,,,,,,
15.16.14.163,-112.3,28.1,0,,,91240.9,10.96,-0.24,0.62,0.56,-5.9,4.2,-5.5,36.38,,,,,,,,,,
15.16.14.174,48.0,12.0,0,,,91240.9,10.96,-0.36,0.56,0.51,-15.3,3.1,-12.8,36.33,,,,,,,,,,
15.16.14.183,88.9,22.2,0,,,91240.9,10.96,-0.44,0.73,0.5,-2.4,0.7,1.8,36.36,,,,,,,,,,
15.16.14.193,140.0,35.0,0,,,91240.9,10.96,-0.43,0.42,0.73,-10.3,6.4,-6.9,36.48,,,,,,,,,,
15.16.14.202,166.5,41.6,0,,,91240.9,10.96,-0.57,0.66,0.58,-6.8,6.9,1.6,36.49,,,,,,,,,,
15.16.14.213,227.0,56.8,0,,,91240.9,10.96,-0.42,0.81,0.65,12.1,-4.4,-9.1,36.36,,,,,,,,,,
15.16.14.223,266.5,66.6,0,,,91240.9,10.96,-0.36,0.67,0.49,4.7,9.5,-1.4,36.4,,,,,,,,,,
15.16.14.234,305.3,76.3,0,,,91240.9,10.96,-0.38,0.67,0.48,3.8,-3.3,2.5,36.11,,,,,,,,,,
15.16.14.245,291.9,73.0,0,,,91240.9,10.96,-0.51,0.69,0.62,-8.7,9.5,1.3,36.39,,,,,,,,,,
15.16.14.254,314.1,78.5,0,,,91240.9,10.96,-0.61,0.71,0.58,0.4,0.1,-5.6,36.44,,,,,,,,,,
15.16.14.265,312.0,78.0,0,,,91240.9,10.96,-0.44,0.8,0.6,-0.6,15.3,1.4,36.37,,,,,,,,,,
15.16.14.275,318.4,79.6,0,,,91240.9,10.96,-0.48,0.62,0.53,-4.1,1.5,6.1,36.19,,,,,,,,,,
15.16.14.285,307.5,76.9,0,,,91240.9,10.96,-0.5,0.74,0.55,-0.2,2.1,0.2,36.15,,,,,,,,,,
15.16.14.297,326.0,81.5,0,,,91240.9,10.96,-0.58,0.58,0.74,5.7,3.0,-1.5,36.27,,,,,,,,,,
15.16.14.306,259.0,64.8,0,,,91240.9,10.96,-0.53,0.61,0.71,-3.2,11.8,-4.7,36.4,,,,,,,,,,
15.16.14.316,247.9,62.0,0,,,91240.9,10.96,-0.46,0.61,0.56,-8.9,11.6,4.6,36.2,,,,,,,,,,
15.16.14.323,206.4,51.6,0,,,91240.9,10.96,-0.56,0.5,0.66,3.1,2.4,-6.8,36.17,,,,,,,,,,
15.16.14.331,181.5,45.4,0,,,91240.9,10.96,-0.4,0.66,0.51,5.9,-3.0,8.4,36.56,,,,,,,,,,
15.16.14.340,154.7,38.7,0,,,91240.9,10.96,-0.47,0.55,0.47,1.0,3.9,-2.8,36.28,,,,,,,,,,
15.16.14.347,115.2,28.8,0,,,91240.9,10.96,-0.53,0.58,0.71,16.5,8.1,7.7,36.4,,,,,,,,,,
15.16.14.355,76.1,19.0,0,,,91240.9,10.96,-0.58,0.59,0.66,-4.2,7.1,2.0,36.22,,,,,,,,,,
15.16.14.364,31.8,8.0,0,,,91240.9,10.96,-0.57,0.58,0.78,-12.5,0.6,3.7,36.3,,,,,,,,,,
15.16.14.374,4.9,1.2,0,,,91240.9,10.96,-0.36,0.6,0.63,15.4,7.7,0.3,36.11,,,,,,,,,,
15.16.14.384,12.8,3.2,0,,,91240.9,10.96,-0.41,0.58,0.56,15.1,1.9,-1.3,36.37,,,,,,,,,,
15.16.14.394,37.7,9.4,0,,,91240.9,10.96,-0.55,0.57,0.56,10.2,8.2,-8.1,36.16,,,,,,,,,,
15.16.14.404,37.1,9.3,0,,,91240.9,10.96,-0.27,0.66,0.71,14.3,15.9,-2.6,36.51,,,,,,,,,,
15.16.14.413,48.6,12.2,0,,,91240.9,10.96,-0.46,0.56,0.68,0.1,-3.9,-10.2,36.29,,,,,,,,,,
15.16.14.422,56.3,14.1,0,,,91240.9,10.96,-0.5,0.6,0.7,5.0,9.1,4.3,36.38,,,,,,,,,,
15.16.14.430,58.6,14.6,0,,,91240.9,10.96,-0.44,0.63,0.49,2.6,1.4,1.9,36.36,,,,,,,,,,
15.16.14.438,45.1,11.3,0,,,91240.9,10.96,-0.63,0.59,0.64,-0.5,5.7,-3.2,36.12,,,,,,,,,,
15.16.14.449,48.9,12.2,1,20.0,104.9,91240.9,10.96,-0.49,0.66,0.7,4.9,9.4,-0.7,36.16,,,,,,,,,,
15.16.14.460,36.9,9.2,0,,,91240.9,10.96,-0.56,0.53,0.54,-2.6,13.1,-5.0,36.23,,,,,,,,,,
15.16.14.470,17.2,4.3,0,,,91240.9,10.96,-0.61,0.59,0.64,6.1,7.0,-1.4,36.03,,,,,,,,,,
15.16.14.480,9.6,2.4,0,,,91240.9,10.96,-0.45,0.72,0.6,7.2,0.8,6.2,36.35,,,,,,,,,,
15.16.14.491,8.0,2.0,0,,,91240.9,10.96,-0.64,0.62,0.51,-0.6,10.5,-7.7,36.45,,,,,,,,,,
15.16.14.500,-5.1,1.3,0,,,91240.9,10.96,-0.44,0.7,0.43,-8.6,6.9,-3.8,36.35,,,,,,,,,,
15.16.14.509,-10.5,2.6,0,,,91240.9,10.96,-0.57,0.64,0.62,0.4,10.9,1.4,36.42,,,,,,,,,,
15.16.14.521,-8.9,2.2,0,,,91240.9,10.96,-0.57,0.53,0.58,1.3,8.0,-2.9,36.2,,,,,,,,,,
15.16.14.533,-15.4,3.8,0,,,91240.9,10.96,-0.47,0.61,0.66,-6.9,14.2,-2.6,36.26,,,,,,,,,,
15.16.14.544,-23.0,5.8,0,,,91240.9,10.96,-0.55,0.54,0.51,-5.2,16.3,-4.0,36.41,,,,,,,,,,
15.16.14.551,-39.9,10.0,0,,,91240.9,10.96,-0.54,0.62,0.74,15.1,4.6,-7.1,36.17,,,,,,,,,,
15.16.14.561,-30.4,7.6,0,,,91240.9,10.96,-0.43,0.43,0.58,-4.6,6.9,-5.4,36.23,,,,,,,,,,
15.16.14.571,-43.4,10.8,0,,,91240.9,10.96,-0.5,0.65,0.7,-9.9,8.8,-0.4,36.36,,,,,,,,,,
15.16.14.581,-42.5,10.6,0,,,91240.9,10.96,-0.39,0.62,0.74,-6.0,-2.3,-1.9,36.43,,,,,,,,,,
15.16.14.592,-45.4,11.4,0,,,91240.9,10.96,-0.49,0.6,0.69,10.8,8.6,-6.6,36.36,,,,,,,,,,
15.16.14.603,-62.5,15.6,0,,,91240.9,10.96,-0.34,0.55,0.42,-12.1,7.8,-6.6,36.31,,,,,,,,,,
15.16.14.613,-53.3,13.3,0,,,91240.9,10.96,-0.5,0.64,0.67,-6.3,8.8,5.1,36.17,,,,,,,,,,
15.16.14.623,-61.2,15.3,0,,,91240.9,10.96,-0.6,0.47,0.55,-0.1,1.5,-1.9,36.31,,,,,,,,,,
15.16.14.634,-70.1,17.5,0,,,91240.9,10.96,-0.38,0.63,0.54,2.4,7.4,-2.5,36.14,,,,,,,,,,
15.16.14.642,-82.6,20.6,0,,,91240.9,10.96,-0.52,0.61,0.55,-1.9,-1.7,-3.9,36.11,,,,,,,,,,
15.16.14.652,-87.8,22.0,0,,,91240.9,10.96,-0.4,0.73,0.68,-4.0,1.5,0.3,36.37,,,,,,,,,,
15.16.14.661,-78.5,19.6,0,,,91240.9,10.96,-0.44,0.58,0.5,1.6,9.2,-6.7,36.09,,,,,,,,,,
15.16.14.670,-89.2,22.3,0,,,91240.9,10.96,-0.48,0.61,0.61,-11.1,7.9,-0.5,36.35,,,,,,,,,,
15.16.14.678,-97.3,24.3,0,,,91240.9,10.96,-0.53,0.53,0.7,-4.8,0.1,3.6,36.36,,,,,,,,,,
15.16.14.687,-96.6,24.2,0,,,91240.9,10.96,-0.32,0.64,0.63,-6.7,7.0,-1.3,36.26,,,,,,,,,,
15.16.14.696,-90.3,22.6,0,,,91240.9,10.96,-0.58,0.62,0.53,-11.5,6.5,-0.8,36.32,,,,,,,,,,
15.16.14.707,-116.4,29.1,0,,,91240.9,10.96,-0.41,0.71,0.62,6.4,15.5,-2.2,36.13,,,,,,,,,,
15.16.14.717,-108.3,27.1,0,,,91240.9,10.96,-0.34,0.52,0.56,-3.8,7.7,7.4,36.05,,,,,,,,,,
15.16.14.727,-121.8,30.4,0,,,91240.9,10.96,-0.43,0.72,0.72,-5.3,6.0,3.6,36.32,,,,,,,,,,
15.16.14.738,-132.6,33.2,0,,,91240.9,10.96,-0.42,0.59,0.62,6.2,6.1,4.0,36.19,,,,,,,,,,
15.16.14.746,-115.8,29.0,0,,,91240.9,10.96,-0.44,0.73,0.65,13.2,15.5,8.2,36.27,,,,,,,,,,
15.16.14.756,18.3,4.6,0,,,91240.9,10.96,-0.49,0.72,0.71,6.3,3.7,-4.7,36.5,,,,,,,,,,
15.16.14.766,75.1,18.8,0,,,91240.9,10.96,-0.5,0.62,0.48,1.5,1.6,-3.8,36.29,,,,,,,,,,
15.16.14.774,108.4,27.1,0,,,91240.9,10.96,-0.54,0.6,0.61,10.6,12.7,-2.9,36.2,,,,,,,,,,
15.16.14.783,152.4,38.1,0,,,91240.9,10.96,-0.54,0.62,0.59,-1.1,13.3,4.9,36.15,,,,,,,,,,
15.16.14.793,169.4,42.4,0,,,91240.9,10.96,-0.54,0.59,0.53,-13.6,7.8,-3.0,35.98,,,,,,,,,,
15.16.14.802,217.8,54.4,0,,,91240.9,10.96,-0.49,0.59,0.58,-7.2,9.5,2.3,36.29,,,,,,,,,,
15.16.14.812,248.1,62.0,0,,,91240.9,10.96,-0.18,0.55,0.63,3.9,5.7,2.8,36.18,,,,,,,,,,
15.16.14.820,261.2,65.3,0,,,91240.9,10.96,-0.54,0.62,0.5,3.0,5.5,-0.3,36.05,,,,,,,,,,
15.16.14.830,287.3,71.8,0,,,91240.9,10.96,-0.45,0.61,0.66,0.3,4.4,1.5,36.0,,,,,,,,,,
15.16.14.840,324.7,81.2,0,,,91240.9,10.96,-0.5,0.61,0.64,-2.5,0.8,-9.4,36.43,,,,,,,,,,
15.16.14.848,311.1,77.8,0,,,91240.9,10.96,-0.41,0.51,0.58,-3.5,15.6,3.0,36.23,,,,,,,,,,
15.16.14.857,317.3,79.3,0,,,91240.9,10.96,-0.46,0.6,0.66,17.9,-6.0,-2.5,36.24,,,,,,,,,,
15.16.14.866,319.2,79.8,0,,,91240.9,10.96,-0.43,0.72,0.71,1.6,4.6,-5.1,36.33,,,,,,,,,,
15.16.14.875,304.8,76.2,0,,,91240.9,10.96,-0.55,0.58,0.61,3.9,2.0,-0.9,36.37,,,,,,,,,,
15.16.14.885,290.6,72.6,0,,,91240.9,10.96,-0.49,0.49,0.63,2.5,8.5,-5.4,36.36,,,,,,,,,,
15.16.14.893,263.1,65.8,0,,,91240.9,10.96,-0.48,0.65,0.47,-1.4,5.4,-1.6,36.14,,,,,,,,,,
15.16.14.903,238.1,59.5,0,,,91240.9,10.96,-0.53,0.71,0.62,2.2,4.3,3.7,36.43,,,,,,,,,,
15.16.14.913,195.7,48.9,0,,,91240.9,10.96,-0.45,0.7,0.61,-4.3,11.0,-4.3,36.55,,,,,,,,,,
15.16.14.922,171.4,42.8,0,,,91240.9,10.96,-0.41,0.46,0.61,-3.1,4.5,1.0,36.46,,,,,,,,,,
15.16.14.932,98.9,24.7,0,,,91240.9,10.96,-0.51,0.5,0.78,-12.3,-2.9,5.2,36.36,,,,,,,,,,
15.16.14.943,68.9,17.2,0,,,91240.9,10.96,-0.52,0.46,0.52,-2.4,7.8,-6.8,36.47,,,,,,,,,,
15.16.14.951,36.1,9.0,0,,,91240.9,10.96,-0.41,0.71,0.56,-8.6,3.5,-5.7,36.2,,,,,,,,,,
15.16.14.961,7.5,1.9,0,,,91240.9,10.96,-0.48,0.76,0.67,-5.5,8.2,-1.1,36.41,,,,,,,,,,
15.16.14.969,18.6,4.6,0,,,91240.9,10.96,-0.65,0.54,0.63,3.1,6.9,-6.1,36.42,,,,,,,,,,
15.16.14.979,40.4,10.1,0,,,91240.9,10.96,-0.53,0.7,0.26,-2.8,5.7,3.8,36.24,,,,,,,,,,
15.16.14.989,51.7,12.9,0,,,91240.9,10.96,-0.44,0.6,0.69,9.1,0.3,-3.8,36.39,,,,,,,,,,
15.16.14.999,45.3,11.3,0,,,91240.9,10.96,-0.44,0.51,0.59,-9.2,-5.2,-1.9,36.29,,,,,,,,,,
15.16.15.009,70.9,17.7,1,21.0,107.1,91240.9,10.96,-0.51,0.6,0.55,16.7,-3.6,-3.1,36.31,,,,,,,,,,
15.16.15.020,47.5,11.9,0,,,91240.9,10.96,-0.56,0.61,0.52,-9.9,7.9,5.2,36.23,,,,,,,,,,
15.16.15.031,51.0,12.8,0,,,91240.9,10.96,-0.56,0.62,0.55,7.4,13.6,7.0,36.37,,,,,,,,,,
15.16.15.040,37.9,9.5,0,,,91240.9,10.96,-0.48,0.67,0.64,-5.5,5.9,-7.7,36.48,,,,,,,,,,
15.16.15.050,38.5,9.6,0,,,91240.9,10.96,-0.5,0.6,0.6,-7.0,1.7,-1.2,36.28,,,,,,,,,,
15.16.15.063,17.5,4.4,0,,,91240.9,10.96,-0.36,0.54,0.54,14.6,11.3,-7.6,36.26,,,,,,,,,,
15.16.15.075,0.3,0.1,0,,,91240.9,10.96,-0.33,0.48,0.71,11.0,0.5,-6.0,36.23,,,,,,,,,,
15.16.15.087,-16.5,4.1,0,,,91240.9,10.96,-0.57,0.56,0.68,14.5,-3.0,0.0,36.34,,,,,,,,,,
15.16.15.098,-9.6,2.4,0,,,91240.9,10.96,-0.31,0.45,0.57,3.8,8.6,-7.6,36.04,,,,,,,,,,
15.16.15.107,-9.8,2.4,0,,,91240.9,10.96,-0.42,0.69,0.54,7.4,4.4,-1.6,36.49,,,,,,,,,,
15.16.15.117,-15.7,3.9,0,,,91240.9,10.96,-0.48,0.67,0.64,-11.6,0.7,-3.1,36.26,,,,,,,,,,
15.16.15.125,-19.2,4.8,0,,,91240.9,10.96,-0.55,0.73,0.62,-5.4,7.6,2.5,36.26,,,,,,,,,,
15.16.15.134,-16.2,4.0,0,,,91240.9,10.96,-0.56,0.63,0.55,-11.7,0.5,4.8,36.19,,,,,,,,,,
15.16.15.143,-40.7,10.2,0,,,91240.9,10.96,-0.6,0.84,0.59,7.5,5.2,4.7,36.12,,,,,,,,,,
15.16.15.154,-42.4,10.6,0,,,91240.9,10.96,-0.54,0.66,0.56,-3.3,-5.5,3.6,36.41,,,,,,,,,,
15.16.15.162,-40.8,10.2,0,,,91240.9,10.96,-0.58,0.73,0.62,0.8,2.2,-1.3,36.18,,,,,,,,,,
15.16.15.171,-39.7,9.9,0,,,91240.9,10.96,-0.55,0.45,0.64,9.9,7.7,2.7,36.32,,,,,,,,,,
15.16.15.184,-56.2,14.0,0,,,91240.9,10.96,-0.52,0.64,0.53,8.8,13.4,-2.0,36.58,,,,,,,,,,
15.16.15.192,-63.9,16.0,0,,,91240.9,10.96,-0.39,0.54,0.57,3.7,3.3,-4.3,36.41,,,,,,,,,,
15.16.15.201,-69.2,17.3,0,,,91240.9,10.96,-0.61,0.55,0.49,5.1,-1.1,-0.0,36.16,,,,,,,,,,
15.16.15.211,-74.4,18.6,0,,,91240.9,10.96,-0.53,0.77,0.62,9.1,8.5,-1.5,36.38,,,,,,,,,,
15.16.15.222,-65.4,16.4,0,,,91240.9,10.96,-0.6,0.69,0.52,-20.0,12.5,-2.9,36.39,,,,,,,,,,
15.16.15.233,-81.8,20.4,0,,,91240.9,10.96,-0.32,0.39,0.53,0.9,6.1,3.3,36.27,,,,,,,,,,
15.16.15.241,-78.1,19.5,0,,,91240.9,10.96,-0.35,0.56,0.73,-3.1,1.1,-5.8,36.17,,,,,,,,,,
15.16.15.250,-81.6,20.4,0,,,91240.9,10.96,-0.42,0.68,0.79,18.4,10.6,-2.3,36.09,,,,,,,,,,
15.16.15.259,-93.7,23.4,0,,,91240.9,10.96,-0.57,0.71,0.55,-6.2,7.0,5.3,36.14,,,,,,,,,,
15.16.15.269,-96.4,24.1,0,,,91240.9,10.96,-0.45,0.43,0.63,-3.2,3.5,-4.2,36.41,,,,,,,,,,
15.16.15.278,-106.4,26.6,0,,,91240.9,10.96,-0.44,0.73,0.65,-1.2,-3.8,3.2,36.5,,,,,,,,,,
15.16.15.285,-105.5,26.4,0,,,91240.9,10.96,-0.53,0.5,0.56,3.1,4.0,8.1,36.3,,,,,,,,,,
15.16.15.295,-115.0,28.8,0,,,91240.9,10.96,-0.5,0.51,0.67,-12.2,4.8,1.8,36.43,,,,,,,,,,
15.16.15.304,-112.2,28.0,0,,,91240.9,10.96,-0.47,0.65,0.66,-2.5,11.1,3.6,36.32,,,,,,,,,,
15.16.15.313,-120.0,30.0,0,,,91240.9,10.96,-0.37,0.5,0.56,5.4,11.8,2.3,36.31,,,,,,,,,,
15.16.15.324,-112.4,28.1,0,,,91240.9,10.96,-0.39,0.72,0.46,-2.0,8.3,-6.8,36.23,,,,,,,,,,
15.16.15.333,-122.8,30.7,0,,,91240.9,10.96,-0.39,0.56,0.75,-8.4,9.5,-4.8,36.23,,,,,,,,,,
15.16.15.343,11.0,2.8,0,,,91240.9,10.96,-0.61,0.63,0.61,-4.8,4.6,-8.1,36.31,,,,,,,,,,
15.16.15.354,73.9,18.5,0,,,91240.9,10.96,-0.45,0.49,0.46,-1.9,11.5,-5.6,36.05,,,,,,,,,,
15.16.15.363,105.0,26.2,0,,,91240.9,10.96,-0.63,0.7,0.6,14.2,-4.1,-7.5,36.3,,,,,,,,,,
15.16.15.373,158.6,39.6,0,,,91240.9,10.96,-0.48,0.61,0.55,-0.1,13.3,-0.2,36.5,,,,,,,,,,
15.16.15.381,195.7,48.9,0,,,91240.9,10.96,-0.41,0.45,0.54,16.2,8.2,3.0,35.99,,,,,,,,,,
15.16.15.390,228.2,57.0,0,,,91240.9,10.96,-0.69,0.64,0.67,-1.8,4.1,-15.3,36.27,,,,,,,,,,
15.16.15.400,277.1,69.3,0,,,91240.9,10.96,-0.43,0.46,0.52,7.1,27.4,5.3,36.66,,,,,,,,,,
15.16.15.409,289.0,72.2,0,,,91240.9,10.96,-0.49,0.64,0.71,-6.6,9.8,-4.8,36.06,,,,,,,,,,
15.16.15.419,274.7,68.7,0,,,91240.9,10.96,-0.45,0.56,0.55,17.3,6.1,-1.8,36.26,,,,,,,,,,
15.16.15.428,331.9,83.0,0,,,91240.9,10.96,-0.47,0.48,0.51,10.6,-1.3,14.0,36.3,,,,,,,,,,
15.16.15.438,326.6,81.6,0,,,91240.9,10.96,-0.37,0.6,0.56,2.2,3.3,2.4,36.32,,,,,,,,,,
15.16.15.448,331.3,82.8,0,,,91240.9,10.96,-0.51,0.73,0.68,5.1,3.7,-2.7,36.14,,,,,,,,,,
15.16.15.459,287.5,71.9,0,,,91240.9,10.96,-0.66,0.67,0.61,-7.3,3.3,2.5,36.22,,,,,,,,,,
15.16.15.467,330.1,82.5,0,,,91240.9,10.96,-0.52,0.6,0.53,5.6,10.5,1.3,36.39,,,,,,,,,,
15.16.15.476,280.1,70.0,0,,,91240.9,10.96,-0.57,0.69,0.48,-3.1,11.7,3.9,36.33,,,,,,,,,,
15.16.15.484,243.7,60.9,0,,,91240.9,10.96,-0.38,0.46,0.44,-6.4,0.8,6.2,36.01,,,,,,,,,,
15.16.15.493,226.4,56.6,0,,,91240.9,10.96,-0.43,0.55,0.63,1.9,8.1,-0.7,36.55,,,,,,,,,,
15.16.15.500,196.2,49.0,0,,,91240.9,10.96,-0.48,0.64,0.62,13.3,6.2,-0.9,36.07,,,,,,,,,,
15.16.15.508,179.1,44.8,0,,,91240.9,10.96,-0.44,0.71,0.48,-0.7,5.1,14.9,36.35,,,,,,,,,,
15.16.15.516,132.7,33.2,0,,,91240.9,10.96,-0.52,0.57,0.53,4.8,12.6,-2.8,36.37,,,,,,,,,,
15.16.15.527,90.2,22.6,0,,,91240.9,10.96,-0.44,0.79,0.63,0.2,-4.5,-3.6,36.32,,,,,,,,,,
15.16.15.536,41.7,10.4,0,,,91240.9,10.96,-0.46,0.63,0.5,12.9,12.5,-0.3,36.2,,,,,,,,,,
15.16.15.547,4.5,1.1,0,,,91240.9,10.96,-0.41,0.53,0.59,12.0,2.2,-1.9,36.08,,,,,,,,,,
15.16.15.558,23.4,5.8,0,,,91240.9,10.96,-0.36,0.6,0.61,1.4,-2.2,-6.3,36.36,,,,,,,,,,
15.16.15.568,28.1,7.0,0,,,91240.9,10.96,-0.57,0.7,0.55,-4.5,2.2,1.2,36.33,,,,,,,,,,
15.16.15.579,39.6,9.9,0,,,91240.9,10.96,-0.52,0.61,0.61,-7.3,12.2,-4.6,36.44,,,,,,,,,,
15.16.15.587,51.1,12.8,0,,,91240.9,10.96,-0.54,0.63,0.47,-4.7,2.9,-4.7,36.39,,,,,,,,,,
15.16.15.594,56.4,14.1,0,,,91240.9,10.96,-0.41,0.67,0.56,-9.3,9.0,0.1,36.28,,,,,,,,,,
15.16.15.602,55.4,13.8,1,22.0,101.2,91240.9,10.96,-0.3,0.56,0.58,1.2,11.4,-1.7,36.32,,,,,,,,,,
15.16.15.609,54.5,13.6,0,,,91240.9,10.96,-0.52,0.58,0.66,3.2,14.5,4.1,36.05,,,,,,,,,,
15.16.15.621,46.4,11.6,0,,,91240.9,10.96,-0.47,0.65,0.6,-2.6,5.1,-9.0,36.28,,,,,,,,,,
15.16.15.631,30.8,7.7,0,,,91240.9,10.96,-0.45,0.62,0.71,1.5,8.0,1.1,36.12,,,,,,,,,,
15.16.15.640,38.1,9.5,0,,,91240.9,10.96,-0.47,0.62,0.46,15.5,7.4,-3.5,36.35,,,,,,,,,,
15.16.15.650,13.0,3.2,0,,,91240.9,10.96,-0.51,0.81,0.46,7.1,12.9,-1.9,36.41,,,,,,,,,,
15.16.15.659,1.3,0.3,0,,,91240.9,10.96,-0.56,0.84,0.54,0.9,6.6,-6.5,36.38,,,,,,,,,,
15.16.15.670,-7.8,2.0,0,,,91240.9,10.96,-0.44,0.7,0.61,3.4,7.4,-5.3,36.22,,,,,,,,,,
15.16.15.679,-15.5,3.9,0,,,91240.9,10.96,-0.41,0.53,0.55,-1.9,7.9,-3.4,36.32,,,,,,,,,,
15.16.15.690,-17.2,4.3,0,,,91240.9,10.96,-0.56,0.56,0.7,-17.7,6.2,-5.9,36.27,,,,,,,,,,
15.16.15.701,-17.5,4.4,0,,,91240.9,10.96,-0.41,0.77,0.59,-3.7,4.7,13.9,36.26,,,,,,,,,,
15.16.15.708,-26.2,6.6,0,,,91240.9,10.96,-0.47,0.63,0.62,8.8,-1.4,-4.3,36.28,,,,,,,,,,
15.16.15.718,-26.7,6.7,0,,,91240.9,10.96,-0.51,0.64,0.69,5.6,13.1,1.8,36.1,,,,,,,,,,
15.16.15.725,-33.5,8.4,0,,,91240.9,10.96,-0.39,0.65,0.66,-2.4,8.6,-11.3,36.35,,,,,,,,,,
15.16.15.735,-33.8,8.4,0,,,91240.9,10.96,-0.42,0.54,0.65,13.0,11.9,-4.3,36.4,,,,,,,,,,
15.16.15.744,-31.2,7.8,0,,,91240.9,10.96,-0.43,0.75,0.47,-3.8,17.1,3.2,36.24,,,,,,,,,,
15.16.15.754,-38.4,9.6,0,,,91240.9,10.96,-0.49,0.53,0.54,-0.3,10.1,-2.4,36.18,,,,,,,,,,
15.16.15.764,-44.8,11.2,0,,,91240.9,10.96,-0.61,0.68,0.52,5.2,7.8,-4.1,36.64,,,,,,,,,,
15.16.15.772,-45.6,11.4,0,,,91240.9,10.96,-0.5,0.71,0.5,2.7,9.3,2.1,36.18,,,,,,,,,,
15.16.15.782,-63.9,16.0,0,,,91240.9,10.96,-0.48,0.64,0.71,10.6,4.2,-3.8,36.03,,,,,,,,,,
15.16.15.791,-67.7,16.9,0,,,91240.9,10.96,-0.58,0.57,0.67,-0.4,11.2,8.8,36.13,,,,,,,,,,
15.16.15.801,-69.3,17.3,0,,,91240.9,10.96,-0.51,0.65,0.64,2.6,10.5,3.1,36.31,,,,,,,,,,
15.16.15.809,-75.8,19.0,0,,,91240.9,10.96,-0.43,0.55,0.46,2.4,7.6,5.3,36.22,,,,,,,,,,
15.16.15.818,-61.4,15.4,0,,,91240.9,10.96,-0.7,0.69,0.6,11.3,-3.7,-0.9,36.32,,,,,,,,,,
15.16.15.828,-68.6,17.2,0,,,91240.9,10.96,-0.38,0.54,0.6,2.8,12.2,9.8,36.28,,,,,,,,,,
15.16.15.836,-73.5,18.4,0,,,91240.9,10.96,-0.4,0.53,0.48,-0.1,10.1,2.0,36.24,,,,,,,,,,
15.16.15.844,-95.2,23.8,0,,,91240.9,10.96,-0.37,0.59,0.53,4.4,11.9,7.2,36.07,,,,,,,,,,
15.16.15.853,-106.4,26.6,0,,,91240.9,10.96,-0.37,0.83,0.6,7.3,9.9,1.7,36.24,,,,,,,,,,
15.16.15.862,-92.5,23.1,0,,,91240.9,10.96,-0.56,0.68,0.32,-1.2,10.7,-4.4,36.41,,,,,,,,,,
15.16.15.872,-100.2,25.0,0,,,91240.9,10.96,-0.4,0.51,0.53,0.8,4.3,-4.8,36.4,,,,,,,,,,
15.16.15.884,-106.3,26.6,0,,,91240.9,10.96,-0.43,0.62,0.38,-0.9,1.8,-2.6,36.28,,,,,,,,,,
15.16.15.891,-115.0,28.8,0,,,91240.9,10.96,-0.54,0.56,0.55,-2.6,3.8,10.1,36.05,,,,,,,,,,
15.16.15.903,-109.9,27.5,0,,,91240.9,10.96,-0.52,0.57,0.43,-8.5,5.5,-3.4,36.2,,,,,,,,,,
15.16.15.911,-133.9,33.5,0,,,91240.9,10.96,-0.37,0.62,0.47,7.4,9.2,4.8,36.44,,,,,,,,,,
15.16.15.923,-136.5,34.1,0,,,91240.9,10.96,-0.54,0.72,0.47,-4.7,5.5,-9.4,36.36,,,,,,,,,,
15.16.15.933,36.0,9.0,0,,,91240.9,10.96,-0.53,0.54,0.59,-15.7,9.3,4.2,36.33,,,,,,,,,,
15.16.15.944,77.6,19.4,0,,,91240.9,10.96,-0.37,0.61,0.58,-6.0,0.7,1.6,36.39,,,,,,,,,,
15.16.15.954,134.4,33.6,0,,,91240.9,10.96,-0.46,0.42,0.5,0.9,6.1,-0.9,36.31,,,,,,,,,,
15.16.15.964,184.6,46.2,0,,,91240.9,10.96,-0.44,0.66,0.55,0.5,11.2,-2.0,36.38,,,,,,,,,,
15.16.15.975,215.2,53.8,0,,,91240.9,10.96,-0.4,0.75,0.49,18.3,2.8,-0.7,36.41,,,,,,,,,,
15.16.15.984,253.8,63.4,0,,,91240.9,10.96,-0.44,0.75,0.69,5.3,9.3,2.7,36.3,,,,,,,,,,
15.16.15.994,293.0,73.2,0,,,91240.9,10.96,-0.3,0.48,0.55,8.5,2.2,-3.0,36.38,,,,,,,,,,
15.16.16.005,296.7,74.2,0,,,91240.9,10.96,-0.54,0.67,0.7,3.5,5.7,-10.4,36.06,,,,,,,,,,
15.16.16.013,337.9,84.5,0,,,91240.9,10.96,-0.4,0.72,0.64,-9.0,0.3,-8.2,36.46,,,,,,,,,,
15.16.16.024,339.9,85.0,0,,,91240.9,10.96,-0.35,0.64,0.68,11.2,3.2,-5.1,36.35,,,,,,,,,,
15.16.16.035,339.2,84.8,0,,,91240.9,10.96,-0.44,0.7,0.59,5.7,6.0,0.8,36.41,,,,,,,,,,
15.16.16.047,318.5,79.6,0,,,91240.9,10.96,-0.44,0.73,0.53,12.8,1.6,-5.1,36.29,,,,,,,,,,
15.16.16.056,282.3,70.6,0,,,91240.9,10.96,-0.46,0.54,0.61,-4.9,3.2,-3.3,36.05,,,,,,,,,,
15.16.16.068,278.4,69.6,0,,,91240.9,10.96,-0.45,0.54,0.6,8.1,-2.8,1.2,36.33,,,,,,,,,,
15.16.16.079,222.6,55.6,0,,,91240.9,10.96,-0.48,0.46,0.58,-5.3,5.9,-0.5,36.15,,,,,,,,,,
15.16.16.090,186.8,46.7,0,,,91240.9,10.96,-0.56,0.73,0.72,-10.6,2.9,-6.6,36.23,,,,,,,,,,
15.16.16.100,157.3,39.3,0,,,91240.9,10.96,-0.47,0.41,0.51,-1.4,11.4,2.5,36.61,,,,,,,,,,
15.16.16.109,114.0,28.5,0,,,91240.9,10.96,-0.36,0.52,0.32,-0.7,4.1,2.3,36.3,,,,,,,,,,
15.16.16.119,69.0,17.2,0,,,91240.9,10.96,-0.43,0.6,0.5,2.7,2.5,4.9,36.36,,,,,,,,,,
15.16.16.129,17.6,4.4,0,,,91240.9,10.96,-0.5,0.7,0.69,-5.6,9.0,0.6,36.28,,,,,,,,,,
15.16.16.138,3.6,0.9,0,,,91240.9,10.96,-0.6,0.74,0.63,-6.3,8.2,-3.0,36.53,,,,,,,,,,
15.16.16.147,19.4,4.8,0,,,91240.9,10.96,-0.5,0.67,0.48,2.4,1.8,5.0,35.98,,,,,,,,,,
15.16.16.158,40.5,10.1,0,,,91240.9,10.96,-0.55,0.72,0.54,-9.8,4.0,3.1,36.28,,,,,,,,,,
15.16.16.168,47.7,11.9,1,23.0,106.0,91240.9,10.96,-0.54,0.61,0.5,1.6,11.2,2.6,36.34,,,,,,,,,,
15.16.16.180,54.8,13.7,0,,,91240.9,10.96,-0.37,0.46,0.52,11.8,10.7,-0.0,36.62,,,,,,,,,,
15.16.16.191,56.2,14.0,0,,,91240.9,10.96,-0.59,0.59,0.64,-4.2,9.7,-5.1,36.34,,,,,,,,,,
15.16.16.200,59.3,14.8,0,,,91240.9,10.96,-0.41,0.72,0.67,-2.0,-7.8,-0.5,36.27,,,,,,,,,,
15.16.16.208,47.2,11.8,0,,,91240.9,10.96,-0.52,0.61,0.64,-9.4,2.9,0.1,36.47,,,,,,,,,,
15.16.16.218,38.4,9.6,0,,,91240.9,10.96,-0.4,0.48,0.5,0.2,12.3,-3.3,36.21,,,,,,,,,,
15.16.16.227,28.2,7.0,0,,,91240.9,10.96,-0.48,0.64,0.49,-1.1,2.8,-5.3,36.32,,,,,,,,,,
15.16.16.235,32.0,8.0,0,,,91240.9,10.96,-0.49,0.6,0.58,4.0,10.0,0.8,36.47,,,,,,,,,,
15.16.16.244,5.4,1.4,0,,,91240.9,10.96,-0.36,0.71,0.64,-13.6,14.3,5.3,36.36,,,,,,,,,,
15.16.16.252,6.7,1.7,0,,,91240.9,10.96,-0.33,0.67,0.65,-11.2,5.2,-1.0,36.51,,,,,,,,,,
15.16.16.262,-10.0,2.5,0,,,91240.9,10.96,-0.5,0.6,0.59,-0.4,4.5,-1.0,36.31,,,,,,,,,,
15.16.16.273,-16.8,4.2,0,,,91240.9,10.96,-0.48,0.81,0.33,13.3,-1.5,3.8,36.32,,,,,,,,,,
15.16.16.285,-11.0,2.8,0,,,91240.9,10.96,-0.39,0.54,0.7,-1.7,8.4,-2.6,36.06,,,,,,,,,,
15.16.16.294,-23.2,5.8,0,,,91240.9,10.96,-0.42,0.66,0.59,-5.8,6.6,1.4,36.0,,,,,,,,,,
15.16.16.302,-28.2,7.0,0,,,91240.9,10.96,-0.47,0.69,0.61,-6.4,3.0,-2.6,36.15,,,,,,,,,,
15.16.16.310,-30.7,7.7,0,,,91240.9,10.96,-0.51,0.67,0.54,4.5,11.2,-3.7,36.33,,,,,,,,,,
15.16.16.319,-18.2,4.6,0,,,91240.9,10.96,-0.43,0.61,0.64,0.5,11.0,-1.7,36.38,,,,,,,,,,
15.16.16.330,-37.3,9.3,0,,,91240.9,10.96,-0.5,0.75,0.65,-1.5,5.4,3.8,36.27,,,,,,,,,,
15.16.16.342,-36.1,9.0,0,,,91240.9,10.96,-0.55,0.83,0.58,4.0,14.6,1.1,36.12,,,,,,,,,,
15.16.16.351,-49.2,12.3,0,,,91240.9,10.96,-0.57,0.65,0.59,7.6,5.4,3.0,36.19,,,,,,,,,,
15.16.16.361,-52.1,13.0,0,,,91240.9,10.96,-0.45,0.73,0.42,-6.7,18.3,-1.4,36.28,,,,,,,,,,
15.16.16.369,-59.1,14.8,0,,,91240.9,10.96,-0.53,0.67,0.57,-14.3,-0.8,-5.7,36.19,,,,,,,,,,
15.16.16.379,-72.8,18.2,0,,,91240.9,10.96,-0.49,0.66,0.43,-10.3,2.6,2.3,36.39,,,,,,,,,,
15.16.16.388,-66.3,16.6,0,,,91240.9,10.96,-0.47,0.77,0.57,4.9,5.5,-6.5,36.48,,,,,,,,,,
15.16.16.400,-67.4,16.8,0,,,91240.9,10.96,-0.48,0.54,0.61,-1.5,21.6,-5.2,36.06,,,,,,,,,,
