timestamp,ppg,threshold,beat,beat_count,inst_bpm,gsr_resistance_ohm,gsr_conductance_us,accel_x,accel_y,accel_z,gyro_x,gyro_y,gyro_z,temp_c,window_bpm,window_temp_c,status_message,SpO2,bmi,age,height,weight,env_temp_c,env_humidity_pct
13.47.00.000,0.0,0.0,0,,,17262.2,57.93,-0.63,0.61,0.24,-7.5,-3.1,3.3,36.35,133.9,,,,19.6,19.0,167.64,55.0,31.44,45.0
13.47.00.009,79.2,19.8,0,,,17265.2,57.92,-0.45,0.3,-0.22,-0.9,24.2,7.2,36.36,,,,,,,,,,
13.47.00.019,144.4,36.1,0,,,17265.2,57.92,-0.99,0.42,0.89,-12.7,9.4,-2.4,36.36,,,,,,,,,,
13.47.00.027,248.5,62.1,0,,,17265.2,57.92,-0.65,0.35,0.3,11.3,29.1,-2.1,36.39,,,,,,,,,,
13.47.00.036,341.3,85.3,0,,,17265.2,57.92,-0.34,0.63,0.91,11.9,14.6,-6.3,36.47,,,,,,,,,,
13.47.00.044,412.7,103.2,0,,,17268.2,57.91,-0.25,0.78,-0.25,-26.5,15.4,-4.4,36.11,,,,,,,,,,
13.47.00.053,418.1,104.5,0,,,17268.2,57.91,-0.35,1.11,0.01,-8.4,2.4,-14.3,36.12,,,,,,,,,,
13.47.00.063,495.5,123.9,0,,,17268.2,57.91,-0.29,0.21,1.06,-8.9,17.8,-25.1,36.26,,,,,,,,,,
13.47.00.072,473.8,118.4,0,,,17271.2,57.9,-0.07,0.98,0.51,15.2,-16.3,-8.5,36.44,,,,,,,,,,
13.47.00.081,522.8,130.7,0,,,17271.2,57.9,-0.34,0.37,-0.26,-4.7,18.9,13.1,36.26,,,,,,,,,,
13.47.00.092,,,0,,,,,,,,,,,,,,,,,,,,,
13.47.00.103,462.6,115.6,0,,,17274.1,57.89,-0.79,0.29,1.5,-7.2,-9.3,-18.8,36.37,,,,,,,,,,
13.47.00.112,423.5,105.9,0,,,17274.1,57.89,-0.52,-0.11,0.44,-28.5,-0.8,8.4,36.38,,,,,,,,,,
13.47.00.121,357.0,89.2,0,,,17274.1,57.89,-0.27,0.19,1.09,6.6,7.9,-7.4,36.46,,,,,,,,,,
13.47.00.131,263.8,66.0,0,,,17277.1,57.88,-0.25,0.52,0.52,11.6,31.3,-2.2,35.92,,,,,,,,,,
13.47.00.142,213.3,53.3,0,,,17277.1,57.88,-0.18,-0.34,0.05,28.6,15.3,-8.5,36.42,,,,,,,,,,
13.47.00.153,14.2,3.6,0,,,17277.1,57.88,-0.13,0.36,-0.2,7.2,7.0,-8.9,36.38,,,,,,,,,,
13.47.00.163,0.0,0.0,0,,,17280.1,57.87,-0.52,0.28,0.54,-17.9,26.5,-12.2,36.37,,,,,,,,,,
13.47.00.172,37.3,9.3,0,,,17280.1,57.87,-0.4,-0.13,0.61,11.6,0.2,-22.0,36.39,,,,,,,,,,
13.47.00.182,66.1,16.5,0,,,17280.1,57.87,-0.11,-0.4,1.38,4.0,1.1,14.3,36.28,,,,,,,,,,
13.47.00.188,95.3,23.8,0,,,17280.1,57.87,-1.09,0.24,-0.25,-7.0,-11.5,8.9,36.26,,,,,,,,,,
13.47.00.198,85.5,21.4,0,,,17283.1,57.86,-0.87,0.36,0.11,-4.1,-1.8,6.9,36.28,,,,,,,,,,
13.47.00.208,38.8,9.7,0,,,17283.1,57.86,-0.23,-0.21,-0.28,17.7,5.0,-17.6,36.4,,,,,,,,,,
13.47.00.217,28.0,7.0,0,,,17283.1,57.86,-0.89,0.47,-0.54,3.9,12.0,-14.1,36.3,,,,,,,,,,
13.47.00.227,33.5,8.4,0,,,17286.1,57.85,-0.78,-0.39,-0.83,-5.7,1.5,11.7,36.21,,,,,,,,,,
13.47.00.236,102.4,25.6,0,,,17286.1,57.85,-0.61,-0.09,0.03,3.2,18.6,-0.1,36.49,,,,,,,,,,
13.47.00.244,42.8,10.7,0,,,17286.1,57.85,-0.58,0.14,-0.58,0.4,-23.4,11.0,36.43,,,,,,,,,,
13.47.00.253,-22.1,5.5,0,,,17289.1,57.84,-1.24,0.1,-0.38,-1.9,-15.5,-7.6,36.27,,,,,,,,,,
13.47.00.264,-33.9,8.5,0,,,17289.1,57.84,-0.78,1.03,0.16,2.1,15.8,0.4,36.59,,,,,,,,,,
13.47.00.272,-27.4,6.8,0,,,17289.1,57.84,-1.07,0.16,0.06,-16.4,-7.4,-6.3,36.52,,,,,,,,,,
13.47.00.279,10.0,2.5,0,,,17289.1,57.84,-1.14,0.45,-0.41,21.4,13.1,14.3,36.37,,,,,,,,,,
13.47.00.290,-8.5,2.1,0,,,17292.1,57.83,-0.85,0.95,-0.15,-32.6,-10.8,-13.2,36.17,,,,,,,,,,
13.47.00.298,-59.8,15.0,0,,,17292.1,57.83,-0.55,0.32,-0.11,4.7,5.1,-1.7,36.31,,,,,,,,,,
13.47.00.309,-38.3,9.6,0,,,17292.1,57.83,-0.44,0.64,0.17,25.0,-1.7,-16.7,36.17,,,,,,,,,,
13.47.00.318,-53.2,13.3,0,,,17295.1,57.82,-1.04,0.73,-0.42,2.3,33.5,6.4,36.57,,,,,,,,,,
13.47.00.327,-69.6,17.4,0,,,17295.1,57.82,-0.27,-0.06,-0.47,-10.7,3.8,4.6,36.37,,,,,,,,,,
13.47.00.338,-62.0,15.5,0,,,17295.1,57.82,-0.47,0.78,0.03,38.5,-17.0,-17.2,36.25,,,,,,,,,,
13.47.00.347,-46.6,11.6,0,,,17298.0,57.81,-0.24,0.83,-0.3,-17.0,0.4,-2.7,36.28,,,,,,,,,,
13.47.00.357,-85.2,21.3,0,,,17298.0,57.81,-0.31,1.48,-0.37,8.8,-8.2,7.9,36.35,,,,,,,,,,
13.47.00.367,-130.3,32.6,0,,,17298.0,57.81,-0.38,1.07,0.77,1.7,8.5,0.9,36.5,,,,,,,,,,
13.47.00.377,-174.5,43.6,0,,,17301.0,57.8,-0.24,1.06,0.44,-7.0,26.0,10.5,36.19,,,,,,,,,,
13.47.00.388,-64.6,16.2,0,,,17301.0,57.8,-0.39,-0.21,1.2,-15.9,4.6,14.6,36.53,,,,,,,,,,
13.47.00.397,-129.4,32.4,0,,,17301.0,57.8,-0.5,0.89,0.17,4.9,3.3,6.8,36.35,,,,,,,,,,
13.47.00.408,-139.8,35.0,0,,,17304.0,57.79,-0.47,0.37,1.76,-4.0,-5.5,7.0,36.42,,,,,,,,,,
13.47.00.415,-159.3,39.8,0,,,17304.0,57.79,-0.08,0.2,0.88,-4.4,5.7,5.0,36.23,,,,,,,,,,
13.47.00.426,-143.9,36.0,0,,,17304.0,57.79,-0.43,0.59,0.66,12.5,-2.1,-10.5,36.39,,,,,,,,,,
13.47.00.435,-154.3,38.6,0,,,17307.0,57.78,-0.35,-0.01,0.81,-0.2,2.3,14.9,36.27,,,,,,,,,,
13.47.00.444,-108.2,27.0,0,,,17307.0,57.78,-0.29,0.38,1.86,5.7,-1.5,21.9,36.25,,,,,,,,,,
13.47.00.454,-206.1,51.5,0,,,17307.0,57.78,-0.23,0.21,0.52,20.4,4.9,-16.3,36.26,,,,,,,,,,
13.47.00.462,35.5,8.9,1,1.0,,17307.0,57.78,-0.06,0.28,0.05,17.7,16.5,-10.5,36.42,,,,,,,,,,
13.47.00.473,75.8,19.0,0,,,17310.0,57.77,-0.44,0.32,1.34,12.7,3.3,16.1,36.31,,,,,,,,,,
13.47.00.480,133.7,33.4,0,,,17310.0,57.77,-0.17,0.05,0.5,36.0,-6.0,5.8,36.11,,,,,,,,,,
13.47.00.491,289.9,72.5,0,,,17310.0,57.77,-0.4,-0.07,0.4,27.8,-2.6,-4.9,36.28,,,,,,,,,,
13.47.00.501,361.0,90.2,0,,,17313.0,57.76,-0.77,0.17,0.6,-6.9,-8.1,2.3,36.31,,,,,,,,,,
13.47.00.509,461.5,115.4,0,,,17313.0,57.76,-0.6,-0.26,0.08,-7.5,12.4,15.8,36.34,,,,,,,,,,
13.47.00.520,456.7,114.2,0,,,17313.0,57.76,-0.88,0.12,-0.56,0.8,1.9,-0.3,36.15,,,,,,,,,,
13.47.00.532,465.4,116.4,0,,,17316.0,57.75,-0.58,0.12,0.2,-4.3,22.3,12.4,36.21,,,,,,,,,,
13.47.00.539,534.8,133.7,0,,,17316.0,57.75,-0.59,0.09,-0.54,12.8,11.2,4.5,36.31,,,,,,,,,,
13.47.00.549,480.1,120.0,0,,,17316.0,57.75,-0.8,0.28,-0.44,2.4,-22.4,-9.3,36.43,,,,,,,,,,
13.47.00.558,483.0,120.8,0,,,17319.0,57.74,-0.64,0.09,-0.39,19.4,2.6,14.0,36.41,,,,,,,,,,
13.47.00.566,430.5,107.6,0,,,17319.0,57.74,-0.93,0.43,-0.0,1.7,-6.5,19.6,36.22,,,,,,,,,,
13.47.00.577,392.2,98.0,0,,,17319.0,57.74,-0.64,0.94,-0.17,10.6,27.6,-7.6,36.64,,,,,,,,,,
13.47.00.587,373.0,93.2,0,,,17319.0,57.74,-1.05,-0.1,-0.0,-13.9,14.9,0.0,36.4,,,,,,,,,,
13.47.00.598,215.3,53.8,0,,,17322.0,57.73,-1.28,0.6,-0.28,-6.7,-6.5,-10.6,36.23,,,,,,,,,,
13.47.00.608,117.0,29.2,0,,,17322.0,57.73,-0.54,0.33,0.32,-17.6,5.2,-3.0,36.34,,,,,,,,,,
13.47.00.618,19.8,5.0,0,,,17322.0,57.73,-0.53,0.6,0.06,8.5,0.1,-11.7,36.32,,,,,,,,,,
13.47.00.629,22.9,5.7,0,,,17325.0,57.72,-1.02,0.53,0.56,-21.5,9.1,-1.6,36.18,,,,,,,,,,
13.47.00.638,30.3,7.6,0,,,17325.0,57.72,-0.67,0.76,-0.19,-36.7,26.0,-14.3,36.26,,,,,,,,,,
13.47.00.646,88.6,22.2,0,,,17325.0,57.72,-0.46,0.57,1.01,-4.4,17.8,0.6,36.38,,,,,,,,,,
13.47.00.654,55.0,13.8,0,,,17328.0,57.71,-0.87,0.78,0.49,0.8,3.7,-7.9,36.4,,,,,,,,,,
13.47.00.664,119.0,29.8,0,,,17328.0,57.71,-0.71,0.85,-0.29,-9.5,11.4,-4.3,36.23,,,,,,,,,,
13.47.00.674,99.6,24.9,0,,,17328.0,57.71,-0.88,0.17,0.88,3.5,7.1,-6.9,36.44,,,,,,,,,,
13.47.00.684,75.9,19.0,0,,,17331.0,57.7,-0.85,0.42,0.56,-8.7,1.3,8.9,36.26,,,,,,,,,,
13.47.00.695,33.1,8.3,0,,,17331.0,57.7,-0.69,0.36,-0.11,10.9,25.4,-20.2,36.19,,,,,,,,,,
13.47.00.705,25.2,6.3,0,,,17331.0,57.7,-0.57,0.15,1.34,19.8,6.6,21.3,36.17,,,,,,,,,,
13.47.00.714,-25.5,6.4,0,,,17334.0,57.69,-0.31,0.4,0.89,-18.9,-2.8,13.6,36.25,,,,,,,,,,
13.47.00.724,-64.3,16.1,0,,,17334.0,57.69,-0.34,0.86,0.94,0.3,3.9,-21.4,36.3,,,,,,,,,,
13.47.00.733,-58.1,14.5,0,,,17334.0,57.69,-0.45,0.78,1.44,10.3,-29.8,7.8,36.37,,,,,,,,,,
13.47.00.742,-42.7,10.7,0,,,17337.0,57.68,-0.46,-0.15,0.77,-16.3,48.5,14.1,36.3,,,,,,,,,,
13.47.00.750,-63.1,15.8,0,,,17337.0,57.68,-0.09,0.81,0.95,29.7,30.0,-6.8,36.21,,,,,,,,,,
13.47.00.757,-25.7,6.4,0,,,17337.0,57.68,-0.27,0.12,1.21,-3.1,-20.9,-9.6,36.26,,,,,,,,,,
13.47.00.766,-110.8,27.7,0,,,17337.0,57.68,-0.08,0.62,1.06,-3.4,4.6,10.5,36.17,,,,,,,,,,
13.47.00.774,-38.9,9.7,0,,,17340.0,57.67,-0.18,-0.31,0.9,15.1,-0.3,0.4,36.18,,,,,,,,,,
13.47.00.784,-88.8,22.2,0,,,17340.0,57.67,-0.43,0.64,1.44,-21.0,30.8,-22.6,36.32,,,,,,,,,,
13.47.00.794,-102.5,25.6,0,,,17340.0,57.67,-0.51,0.29,0.65,-3.8,16.0,-8.6,36.33,,,,,,,,,,
13.47.00.805,-87.1,21.8,0,,,17343.0,57.66,-0.36,-0.07,0.04,13.8,2.2,-4.8,36.28,,,,,,,,,,
13.47.00.813,-71.9,18.0,0,,,17343.0,57.66,-0.69,-0.31,0.8,-3.8,9.1,5.8,36.43,,,,,,,,,,
13.47.00.826,-40.1,10.0,1,2.0,164.8,17343.0,57.66,-0.77,-0.96,1.26,32.5,-2.9,5.3,36.34,,,,,,,,,,
13.47.00.834,-117.3,29.3,0,,,17346.1,57.65,-0.83,0.45,-0.21,-1.9,14.7,-21.1,36.39,,,,,,,,,,
13.47.00.844,-134.5,33.6,0,,,17346.1,57.65,-0.12,-0.03,-0.0,1.7,8.6,-16.9,36.19,,,,,,,,,,
13.47.00.852,-202.6,50.6,0,,,17346.1,57.65,-0.44,0.02,0.49,-2.9,16.3,-0.2,36.34,,,,,,,,,,
13.47.00.863,-131.1,32.8,0,,,17346.1,57.65,-0.87,0.67,0.37,-8.6,2.0,-6.7,36.21,,,,,,,,,,
13.47.00.873,-124.4,31.1,0,,,17349.1,57.64,-0.56,0.14,-0.07,20.5,1.2,19.5,36.27,,,,,,,,,,
13.47.00.882,-150.6,37.6,0,,,17349.1,57.64,-0.58,0.13,0.31,15.8,13.8,-11.3,35.96,,,,,,,,,,
13.47.00.890,-177.8,44.4,0,,,17349.1,57.64,-0.38,0.69,1.09,-1.6,-8.9,12.7,36.32,,,,,,,,,,
13.47.00.900,-154.4,38.6,0,,,17352.1,57.63,-0.82,0.73,-0.2,5.6,20.9,12.0,36.19,,,,,,,,,,
13.47.00.908,-226.7,56.7,0,,,17352.1,57.63,-0.86,0.19,-0.53,11.7,19.6,5.6,36.39,,,,,,,,,,
13.47.00.919,-218.7,54.7,0,,,17352.1,57.63,-1.45,0.3,0.18,3.7,3.5,-12.7,36.41,,,,,,,,,,
13.47.00.928,100.6,25.2,0,,,17355.1,57.62,-1.05,0.84,0.42,-5.8,18.3,-6.8,36.62,,,,,,,,,,
13.47.00.936,204.8,51.2,0,,,17355.1,57.62,-0.78,0.64,-0.16,19.7,13.5,-3.5,36.2,,,,,,,,,,
13.47.00.945,209.9,52.5,0,,,17355.1,57.62,-0.87,0.33,-0.03,-1.1,18.6,-10.8,36.14,,,,,,,,,,
13.47.00.955,289.6,72.4,0,,,17355.1,57.62,-0.81,0.11,0.3,23.6,-11.4,4.2,36.6,,,,,,,,,,
13.47.00.965,401.7,100.4,0,,,17358.1,57.61,-0.3,0.37,0.3,-19.9,9.2,-20.4,36.36,,,,,,,,,,
13.47.00.975,443.7,110.9,0,,,17358.1,57.61,-0.44,0.55,0.67,-8.3,16.1,13.6,36.23,,,,,,,,,,
13.47.00.984,468.2,117.0,0,,,17358.1,57.61,-0.63,0.1,0.39,34.4,8.6,6.0,36.24,,,,,,,,,,
13.47.00.994,543.3,135.8,0,,,17361.1,57.6,-0.82,0.52,0.0,-18.5,10.3,6.2,36.09,,,,,,,,,,
13.47.01.007,514.4,128.6,0,,,17361.1,57.6,-0.19,1.15,0.56,-6.6,-9.2,15.3,36.29,,,,,,,,,,
13.47.01.018,404.1,101.0,0,,,17361.1,57.6,-0.29,0.89,0.57,13.8,-6.8,7.5,36.28,,,,,,,,,,
13.47.01.031,444.2,111.0,0,,,17361.1,57.6,-0.63,0.11,0.37,4.2,11.0,-4.6,36.45,,,,,,,,,,
13.47.01.039,377.4,94.4,0,,,17364.1,57.59,-0.64,0.83,0.45,2.4,3.5,3.0,36.45,,,,,,,,,,
13.47.01.048,287.7,71.9,0,,,17364.1,57.59,0.06,0.98,0.33,22.0,40.8,7.9,36.23,,,,,,,,,,
13.47.01.058,182.7,45.7,0,,,17364.1,57.59,-0.52,1.0,0.27,13.3,20.7,-4.6,36.11,,,,,,,,,,
13.47.01.065,68.7,17.2,0,,,17364.1,57.59,-0.51,0.65,0.17,-4.4,15.6,-3.8,36.24,,,,,,,,,,
13.47.01.075,67.4,16.8,0,,,17364.1,57.59,-0.53,1.03,1.36,-14.4,7.0,3.6,36.5,,,,,,,,,,
13.47.01.086,6.4,1.6,0,,,17364.1,57.59,-0.33,0.61,0.87,-16.8,0.9,-11.0,36.43,,,,,,,,,,
13.47.01.094,35.9,9.0,0,,,17364.1,57.59,-0.25,0.7,0.75,-12.3,1.0,-13.2,36.17,,,,,,,,,,
13.47.01.103,-1.0,0.2,0,,,17367.1,57.58,-0.11,0.51,0.58,-2.7,3.7,-5.0,36.19,,,,,,,,,,
13.47.01.112,68.7,17.2,0,,,17367.1,57.58,-0.41,0.43,0.59,-9.3,-3.0,-8.8,36.31,,,,,,,,,,
13.47.01.122,61.4,15.4,0,,,17367.1,57.58,-0.4,-0.15,1.06,13.2,-1.2,-1.8,36.25,,,,,,,,,,
13.47.01.131,95.2,23.8,0,,,17367.1,57.58,-0.93,0.54,0.52,28.5,8.5,2.6,36.22,,,,,,,,,,
13.47.01.140,61.2,15.3,0,,,17367.1,57.58,-0.46,0.21,0.77,-6.1,-0.6,6.0,36.3,,,,,,,,,,
13.47.01.149,77.1,19.3,0,,,17367.1,57.58,-0.15,-0.33,1.41,-25.4,10.5,10.3,36.29,,,,,,,,,,
13.47.01.159,63.7,15.9,0,,,17367.1,57.58,-0.24,-0.17,1.67,-13.0,3.0,-13.5,35.93,,,,,,,,,,
13.47.01.167,51.4,12.8,1,3.0,176.0,17370.2,57.57,-0.27,-0.17,0.5,19.9,24.3,-5.3,36.43,,,,,,,,,,
13.47.01.176,30.8,7.7,0,,,17370.2,57.57,-0.74,0.27,0.38,34.2,13.6,17.0,36.37,,,,,,,,,,
13.47.01.187,-60.2,15.0,0,,,17370.2,57.57,-0.64,0.28,-0.69,-5.2,-6.8,-20.7,36.22,,,,,,,,,,
13.47.01.196,41.9,10.5,0,,,17370.2,57.57,-0.22,-0.08,0.41,49.9,20.5,8.9,36.48,,,,,,,,,,
13.47.01.204,-32.3,8.1,0,,,17370.2,57.57,-0.46,0.07,0.1,-20.4,-12.8,-5.9,36.3,,,,,,,,,,
13.47.01.215,-40.0,10.0,0,,,17370.2,57.57,-0.67,-0.06,1.07,-8.8,5.9,-7.7,36.45,,,,,,,,,,
13.47.01.222,-69.3,17.3,0,,,17370.2,57.57,-0.6,0.56,-0.07,-1.1,4.4,11.3,36.43,,,,,,,,,,
13.47.01.232,7.4,1.8,0,,,17373.2,57.56,-0.72,0.2,-0.64,-30.8,9.2,3.2,36.18,,,,,,,,,,
13.47.01.241,-67.7,16.9,0,,,17373.2,57.56,-0.64,0.51,-0.6,6.3,2.7,-3.1,36.54,,,,,,,,,,
13.47.01.251,-85.6,21.4,0,,,17373.2,57.56,-0.65,0.04,-0.3,1.1,-16.0,31.3,36.39,,,,,,,,,,
13.47.01.261,-51.0,12.8,0,,,17373.2,57.56,-0.67,-0.05,-0.44,-0.9,13.5,15.0,36.39,,,,,,,,,,
13.47.01.271,-102.2,25.6,0,,,17373.2,57.56,-1.0,0.1,0.13,-3.1,15.9,8.2,36.48,,,,,,,,,,
13.47.01.281,-92.1,23.0,0,,,17373.2,57.56,-0.53,0.22,0.96,11.2,-4.5,-8.2,36.6,,,,,,,,,,
13.47.01.289,-96.6,24.2,0,,,17376.2,57.55,-0.76,0.12,0.44,-1.7,9.3,-6.3,36.36,,,,,,,,,,
13.47.01.298,-134.6,33.6,0,,,17376.2,57.55,0.05,-0.06,-0.15,-14.3,9.1,-27.2,36.32,,,,,,,,,,
13.47.01.309,-130.1,32.5,0,,,17376.2,57.55,-0.5,0.53,-0.46,-7.9,9.0,-24.4,36.35,,,,,,,,,,
13.47.01.322,-84.2,21.0,0,,,17376.2,57.55,-0.63,0.77,-0.03,-14.0,10.5,0.3,36.26,,,,,,,,,,
13.47.01.331,-127.0,31.8,0,,,17376.2,57.55,-0.25,0.63,-0.21,5.3,24.1,-12.2,36.18,,,,,,,,,,
13.47.01.342,-134.9,33.7,0,,,17376.2,57.55,-0.9,0.75,0.0,-40.7,8.7,-17.8,36.14,,,,,,,,,,
13.47.01.349,-131.3,32.8,0,,,17376.2,57.55,-0.17,1.03,-0.03,34.6,5.4,6.3,36.25,,,,,,,,,,
13.47.01.358,-183.7,45.9,0,,,17379.2,57.54,-0.19,0.7,0.02,18.5,16.5,-13.3,36.63,,,,,,,,,,
13.47.01.368,-209.7,52.4,0,,,17379.2,57.54,-0.7,0.04,0.23,0.0,17.5,-8.0,36.35,,,,,,,,,,
13.47.01.377,-208.0,52.0,0,,,17379.2,57.54,0.23,0.56,0.71,28.6,11.4,11.6,36.25,,,,,,,,,,
13.47.01.387,50.0,12.5,0,,,17379.2,57.54,-0.3,0.53,0.23,-8.0,12.3,-0.2,36.39,,,,,,,,,,
13.47.01.395,120.5,30.1,0,,,17379.2,57.54,-0.34,0.5,0.04,10.0,5.2,-14.0,36.48,,,,,,,,,,
13.47.01.402,212.5,53.1,0,,,17379.2,57.54,-0.14,0.71,0.95,-6.2,11.6,14.0,36.52,,,,,,,,,,
13.47.01.412,240.1,60.0,0,,,17379.2,57.54,-0.75,0.34,0.75,-17.5,-7.0,-9.8,36.15,,,,,,,,,,
13.47.01.423,357.3,89.3,0,,,17382.2,57.53,-0.05,0.69,0.58,-12.2,-2.3,16.0,36.22,,,,,,,,,,
13.47.01.432,426.8,106.7,0,,,17382.2,57.53,-0.43,0.13,-0.19,40.2,37.4,-0.7,36.7,,,,,,,,,,
13.47.01.442,564.7,141.2,0,,,17382.2,57.53,-0.2,0.63,1.02,9.9,-13.9,-10.9,36.21,,,,,,,,,,
13.47.01.450,495.7,123.9,0,,,17382.2,57.53,-0.27,-0.26,1.43,15.8,6.6,12.2,36.28,,,,,,,,,,
13.47.01.461,480.7,120.2,0,,,17382.2,57.53,-0.11,-0.3,0.27,13.1,18.3,-0.6,36.62,,,,,,,,,,
13.47.01.471,513.1,128.3,0,,,17382.2,57.53,-0.19,0.05,0.77,-4.2,17.9,1.7,36.29,,,,,,,,,,
13.47.01.481,444.0,111.0,0,,,17385.3,57.52,-0.01,-0.15,1.22,-31.8,-2.4,-5.6,36.25,,,,,,,,,,
13.47.01.493,393.8,98.4,0,,,17385.3,57.52,0.07,0.43,0.35,4.9,1.4,-15.7,36.42,,,,,,,,,,
13.47.01.503,322.0,80.5,0,,,17385.3,57.52,-0.95,-0.08,-0.06,28.9,17.9,1.5,36.23,,,,,,,,,,
13.47.01.512,266.3,66.6,0,,,17385.3,57.52,-0.7,0.2,0.41,-43.1,-4.8,-1.0,36.29,,,,,,,,,,
13.47.01.522,165.7,41.4,0,,,17385.3,57.52,-0.67,0.65,0.56,2.0,-8.5,17.7,36.28,,,,,,,,,,
13.47.01.532,85.1,21.3,1,4.0,164.4,17385.3,57.52,-0.21,0.07,-0.52,8.7,9.0,16.9,35.95,,,,,,,,,,
13.47.01.545,27.6,6.9,0,,,17388.3,57.51,-0.63,-0.19,-0.06,-22.0,5.1,-1.9,36.28,,,,,,,,,,
13.47.01.556,90.0,22.5,0,,,17388.3,57.51,-0.8,-0.01,0.68,0.6,18.8,1.1,36.19,,,,,,,,,,
13.47.01.566,39.2,9.8,0,,,17388.3,57.51,-0.85,0.23,-0.15,-15.0,-17.9,4.3,36.35,,,,,,,,,,
13.47.01.576,137.7,34.4,0,,,17388.3,57.51,-0.63,-0.2,0.31,6.8,-0.3,-8.4,36.26,,,,,,,,,,
13.47.01.585,67.2,16.8,0,,,17388.3,57.51,-0.75,-0.59,-0.2,0.8,5.9,-15.3,36.36,,,,,,,,,,
13.47.01.595,104.5,26.1,0,,,17388.3,57.51,-0.61,0.32,-0.02,4.3,11.9,-5.6,36.11,,,,,,,,,,
13.47.01.604,32.0,8.0,0,,,17388.3,57.51,-1.24,1.04,0.35,-1.8,12.7,-7.4,36.25,,,,,,,,,,
13.47.01.614,47.5,11.9,0,,,17391.3,57.5,-0.92,0.5,-0.16,-21.0,-7.8,7.7,36.44,,,,,,,,,,
13.47.01.624,58.0,14.5,0,,,17391.3,57.5,-1.01,0.17,-0.14,-22.2,19.5,-15.0,36.12,,,,,,,,,,
13.47.01.636,-2.2,0.6,0,,,17391.3,57.5,-1.26,0.58,0.49,-23.2,11.7,-8.0,36.38,,,,,,,,,,
13.47.01.646,-26.8,6.7,0,,,17391.3,57.5,-1.12,1.24,-0.53,17.5,-9.2,10.3,36.34,,,,,,,,,,
13.47.01.655,13.4,3.4,0,,,17391.3,57.5,-0.81,0.61,0.43,-12.7,15.5,11.2,36.52,,,,,,,,,,
13.47.01.663,-25.3,6.3,0,,,17391.3,57.5,-0.65,0.53,-0.44,3.5,0.5,6.5,36.23,,,,,,,,,,
13.47.01.674,-5.2,1.3,0,,,17394.3,57.49,-0.77,0.46,0.72,-9.6,23.2,5.1,36.18,,,,,,,,,,
13.47.01.683,-36.2,9.0,0,,,17394.3,57.49,-0.92,0.79,-0.09,-12.7,9.1,-17.3,36.45,,,,,,,,,,
13.47.01.694,-79.2,19.8,0,,,17394.3,57.49,-0.24,-0.03,0.08,40.4,-4.8,-5.1,36.23,,,,,,,,,,
13.47.01.706,-5.7,1.4,0,,,17394.3,57.49,-0.71,0.65,0.19,-10.0,-7.3,-5.9,36.34,,,,,,,,,,
13.47.01.716,-77.7,19.4,0,,,17394.3,57.49,-0.92,0.1,0.41,1.2,-18.0,18.6,36.31,,,,,,,,,,
13.47.01.724,-53.3,13.3,0,,,17394.3,57.49,-0.45,0.99,0.49,-5.7,-4.1,0.3,36.16,,,,,,,,,,
13.47.01.733,-112.5,28.1,0,,,17397.4,57.48,-0.24,0.76,0.84,20.0,-3.2,-4.1,36.35,,,,,,,,,,
13.47.01.742,-130.2,32.6,0,,,17397.4,57.48,-0.71,0.12,0.3,-10.2,13.2,-4.1,36.22,,,,,,,,,,
13.47.01.751,-84.3,21.1,0,,,17397.4,57.48,-0.27,0.97,0.97,11.9,6.2,-16.4,36.06,,,,,,,,,,
13.47.01.761,-91.8,23.0,0,,,17397.4,57.48,-0.47,0.52,1.2,-23.8,4.7,3.1,36.29,,,,,,,,,,
13.47.01.771,-112.3,28.1,0,,,17397.4,57.48,0.04,0.5,1.32,-15.7,5.8,-5.9,36.23,,,,,,,,,,
13.47.01.778,-135.6,33.9,0,,,17397.4,57.48,-0.57,1.11,0.6,-6.5,-17.1,-14.9,36.14,,,,,,,,,,
13.47.01.789,-116.1,29.0,0,,,17397.4,57.48,-0.68,0.53,0.74,14.8,6.2,-14.3,36.38,,,,,,,,,,
13.47.01.801,-156.6,39.2,0,,,17400.4,57.47,-0.4,0.64,-0.15,23.5,11.7,-3.6,36.34,,,,,,,,,,
13.47.01.811,-165.8,41.4,0,,,17400.4,57.47,-0.55,0.26,0.54,16.8,-9.2,15.1,36.38,,,,,,,,,,
13.47.01.822,-202.2,50.6,0,,,17400.4,57.47,-0.47,-0.37,0.64,19.1,0.3,-10.2,36.4,,,,,,,,,,
13.47.01.832,-156.1,39.0,0,,,17400.4,57.47,-0.59,-0.05,0.7,10.8,1.4,-1.9,36.36,,,,,,,,,,
13.47.01.841,10.7,2.7,0,,,17400.4,57.47,-0.4,0.04,0.22,9.2,15.9,-9.4,36.58,,,,,,,,,,
13.47.01.851,133.7,33.4,0,,,17400.4,57.47,0.01,-0.29,1.04,34.1,-17.3,6.2,36.3,,,,,,,,,,
13.47.01.861,201.7,50.4,0,,,17403.4,57.46,-0.29,0.12,1.33,5.6,18.1,0.9,36.33,,,,,,,,,,
13.47.01.870,266.8,66.7,0,,,17403.4,57.46,-0.5,0.38,-0.17,1.2,1.2,-4.3,36.28,,,,,,,,,,
13.47.01.879,356.8,89.2,1,5.0,172.9,17403.4,57.46,-0.93,-0.2,0.46,-15.2,29.1,-7.1,36.39,,,,,,,,,,
13.47.01.890,362.3,90.6,0,,,17403.4,57.46,-0.22,0.09,0.76,-22.3,12.5,-7.4,36.3,,,,,,,,,,
13.47.01.898,426.4,106.6,0,,,17403.4,57.46,-0.57,0.55,0.52,20.2,6.7,-1.6,36.5,,,,,,,,,,
13.47.01.907,513.2,128.3,0,,,17403.4,57.46,-0.87,-0.24,0.47,0.4,5.9,-14.7,36.39,,,,,,,,,,
13.47.01.916,471.8,118.0,0,,,17403.4,57.46,-0.76,0.03,0.15,-31.7,31.1,-4.6,36.09,,,,,,,,,,
13.47.01.926,490.0,122.5,0,,,17406.4,57.45,-0.53,-0.2,0.35,4.0,18.6,4.3,36.32,,,,,,,,,,
13.47.01.936,480.4,120.1,0,,,17406.4,57.45,-0.84,0.18,-0.4,29.7,14.9,-8.5,36.56,,,,,,,,,,
13.47.01.947,445.8,111.4,0,,,17406.4,57.45,-0.75,-0.14,0.34,9.9,-3.0,-5.2,36.27,,,,,,,,,,
13.47.01.957,348.3,87.1,0,,,17406.4,57.45,-0.94,-0.69,-0.0,-7.5,6.9,-2.4,36.38,,,,,,,,,,
13.47.01.967,220.3,55.1,0,,,17406.4,57.45,-0.54,0.16,-0.22,-8.9,24.2,-13.3,36.26,,,,,,,,,,
13.47.01.977,156.4,39.1,0,,,17406.4,57.45,-0.79,0.99,0.3,-30.8,0.3,-27.2,36.18,,,,,,,,,,
13.47.01.985,172.3,43.1,0,,,17409.5,57.44,-0.59,0.39,0.0,-19.0,24.0,-0.7,36.23,,,,,,,,,,
13.47.01.995,92.8,23.2,0,,,17409.5,57.44,-0.85,0.68,-0.16,27.0,9.9,-19.9,36.26,,,,,,,,,,
13.47.02.005,2.9,0.7,0,,,17409.5,57.44,-0.38,0.37,0.57,7.3,0.1,-12.3,36.38,,,,,,,,,,
13.47.02.015,60.2,15.0,0,,,17409.5,57.44,-0.63,1.01,-0.08,-4.2,17.0,-5.0,36.36,,,,,,,,,,
13.47.02.026,-17.6,4.4,0,,,17409.5,57.44,-0.44,1.01,-0.49,-12.3,23.5,10.9,36.18,,,,,,,,,,
13.47.02.034,91.1,22.8,0,,,17409.5,57.44,-0.8,-0.33,-0.27,3.9,19.6,13.5,36.42,,,,,,,,,,
13.47.02.043,58.6,14.6,0,,,17409.5,57.44,-0.34,0.3,0.14,16.8,14.4,-2.1,36.24,,,,,,,,,,
13.47.02.052,58.7,14.7,0,,,17409.5,57.44,-0.67,1.6,0.49,-9.3,11.3,-15.0,36.26,,,,,,,,,,
13.47.02.063,67.9,17.0,0,,,17412.5,57.43,-0.59,0.9,-0.14,1.2,0.0,11.5,36.36,,,,,,,,,,
13.47.02.072,15.1,3.8,0,,,17412.5,57.43,-0.11,0.55,1.37,-51.0,-17.5,10.4,36.46,,,,,,,,,,
13.47.02.081,64.6,16.2,0,,,17412.5,57.43,-0.39,0.84,-0.04,-22.4,4.3,-15.0,36.27,,,,,,,,,,
13.47.02.091,-6.9,1.7,0,,,17412.5,57.43,-0.31,0.64,0.64,5.8,-2.2,7.7,36.05,,,,,,,,,,
13.47.02.099,16.2,4.0,0,,,17412.5,57.43,-0.33,0.46,1.23,-5.7,-3.0,-9.0,36.11,,,,,,,,,,
13.47.02.106,-34.6,8.6,0,,,17412.5,57.43,-0.31,-0.25,-0.08,-26.0,11.7,4.3,36.3,,,,,,,,,,
13.47.02.117,-105.4,26.4,0,,,17412.5,57.43,-0.77,0.2,1.07,-6.9,6.1,-8.7,36.22,,,,,,,,,,
13.47.02.127,-19.4,4.8,0,,,17412.5,57.43,-0.29,0.28,1.72,-2.2,16.3,2.2,36.35,,,,,,,,,,
13.47.02.139,-126.7,31.7,0,,,17415.5,57.42,0.14,0.5,0.63,-20.1,-3.0,-6.7,36.35,,,,,,,,,,
13.47.02.149,-40.3,10.1,0,,,17415.5,57.42,-0.15,0.08,1.99,9.5,18.9,12.2,36.51,,,,,,,,,,
13.47.02.157,-64.6,16.2,0,,,17415.5,57.42,-0.17,0.19,1.09,8.7,11.3,-21.0,36.23,,,,,,,,,,
13.47.02.166,-75.1,18.8,0,,,17415.5,57.42,-0.44,0.38,1.02,3.1,1.2,-9.8,36.54,,,,,,,,,,
13.47.02.176,-80.9,20.2,0,,,17415.5,57.42,0.2,0.28,1.03,13.3,6.7,-9.9,36.04,,,,,,,,,,
13.47.02.187,-82.8,20.7,0,,,17415.5,57.42,-0.29,0.07,1.17,5.1,13.8,0.8,36.56,,,,,,,,,,
13.47.02.197,-89.1,22.3,0,,,17415.5,57.42,-0.88,-0.02,-0.07,-8.5,2.4,-9.0,36.32,,,,,,,,,,
13.47.02.206,-81.3,20.3,0,,,17415.5,57.42,-0.72,0.53,0.42,18.3,4.9,-3.9,36.3,,,,,,,,,,
13.47.02.212,-127.8,32.0,0,,,17415.5,57.42,-0.51,0.02,-0.28,-5.1,-1.8,-4.1,36.53,,,,,,,,,,
13.47.02.222,-153.3,38.3,0,,,17418.6,57.41,-0.16,-0.18,0.38,-23.5,19.1,-4.1,36.28,,,,,,,,,,
13.47.02.233,-124.5,31.1,0,,,17418.6,57.41,-0.22,-0.13,0.99,1.0,3.3,-18.6,36.38,,,,,,,,,,
13.47.02.243,-175.8,44.0,0,,,17418.6,57.41,-0.14,-0.04,0.86,-5.2,-8.3,1.4,36.44,,,,,,,,,,
13.47.02.253,-170.5,42.6,0,,,17418.6,57.41,-0.62,0.06,-1.04,-42.6,0.9,22.3,36.23,,,,,,,,,,
13.47.02.262,-167.0,41.8,1,6.0,156.7,17418.6,57.41,-0.39,0.06,0.19,15.3,26.8,6.9,36.21,,,,,,,,,,
13.47.02.270,-144.5,36.1,0,,,17418.6,57.41,-0.4,0.93,0.29,29.3,7.6,-0.3,36.17,,,,,,,,,,
13.47.02.279,-191.4,47.8,0,,,17418.6,57.41,-1.39,-0.23,-0.94,3.1,22.5,-4.8,36.15,,,,,,,,,,
13.47.02.290,-193.2,48.3,0,,,17418.6,57.41,-0.88,0.28,-0.62,17.2,17.7,6.9,36.32,,,,,,,,,,
13.47.02.301,45.5,11.4,0,,,17421.6,57.4,-0.46,0.85,-0.57,-33.8,19.7,12.4,36.47,,,,,,,,,,
13.47.02.311,202.2,50.6,0,,,17421.6,57.4,-1.08,0.39,-0.64,16.4,18.8,0.5,36.31,,,,,,,,,,
13.47.02.321,227.5,56.9,0,,,17421.6,57.4,-0.87,-0.15,0.65,-1.2,16.3,-1.7,36.24,,,,,,,,,,
13.47.02.329,249.6,62.4,0,,,17421.6,57.4,-0.73,0.79,0.47,12.2,7.7,2.6,36.19,,,,,,,,,,
13.47.02.339,356.5,89.1,0,,,17421.6,57.4,-0.75,0.9,-0.53,6.0,3.9,-2.8,36.06,,,,,,,,,,
13.47.02.350,436.1,109.0,0,,,17421.6,57.4,-0.47,0.45,-0.94,-14.7,-18.2,1.6,36.32,,,,,,,,,,
13.47.02.360,451.3,112.8,0,,,17421.6,57.4,-0.41,0.86,-0.34,11.7,23.5,-2.5,36.1,,,,,,,,,,
13.47.02.370,485.8,121.4,0,,,17421.6,57.4,-0.98,0.51,-0.21,-1.9,3.9,-4.4,36.23,,,,,,,,,,
13.47.02.380,528.8,132.2,0,,,17424.6,57.39,-0.74,0.65,-0.04,-1.9,30.3,-17.3,36.24,,,,,,,,,,
13.47.02.392,410.7,102.7,0,,,17424.6,57.39,-0.38,0.48,0.38,-10.9,15.1,-12.7,36.28,,,,,,,,,,
13.47.02.403,443.1,110.8,0,,,17424.6,57.39,-0.27,0.45,0.82,2.6,27.8,-16.2,36.21,,,,,,,,,,
13.47.02.413,316.2,79.0,0,,,17424.6,57.39,-0.49,0.33,0.68,-2.9,12.2,9.0,36.26,,,,,,,,,,
13.47.02.424,279.7,69.9,0,,,17424.6,57.39,-0.34,0.58,0.54,-22.4,2.7,8.8,36.32,,,,,,,,,,
13.47.02.435,198.1,49.5,0,,,17424.6,57.39,-0.33,0.81,0.66,-5.3,10.8,-24.5,36.04,,,,,,,,,,
13.47.02.446,59.9,15.0,0,,,17424.6,57.39,-0.49,0.71,0.51,-14.1,14.2,5.0,36.43,,,,,,,,,,
13.47.02.456,-14.2,3.6,0,,,17427.7,57.38,-0.5,0.66,1.02,4.9,5.6,-11.0,36.41,,,,,,,,,,
13.47.02.466,37.7,9.4,0,,,17427.7,57.38,-0.45,0.83,-0.11,-18.8,-0.8,-4.7,36.06,,,,,,,,,,
13.47.02.476,1.8,0.4,0,,,17427.7,57.38,-0.45,0.27,0.79,11.1,11.8,12.4,36.18,,,,,,,,,,
13.47.02.485,54.8,13.7,0,,,17427.7,57.38,-0.25,0.28,0.67,-8.4,15.5,-10.8,36.24,,,,,,,,,,
13.47.02.497,75.4,18.8,0,,,17427.7,57.38,-0.52,0.4,0.87,-6.7,7.2,7.1,36.38,,,,,,,,,,
13.47.02.507,146.9,36.7,0,,,17427.7,57.38,-0.4,0.22,0.81,8.8,9.4,-16.2,36.2,,,,,,,,,,
13.47.02.516,91.8,23.0,0,,,17427.7,57.38,-0.12,0.68,0.45,-24.0,4.8,-24.3,36.49,,,,,,,,,,
13.47.02.527,-2.2,0.6,0,,,17427.7,57.38,-0.6,0.09,0.93,41.0,-8.6,2.7,36.35,,,,,,,,,,
13.47.02.535,82.4,20.6,0,,,17430.7,57.37,-0.09,0.47,1.04,6.4,18.9,-5.0,36.41,,,,,,,,,,
13.47.02.545,22.9,5.7,0,,,17430.7,57.37,-0.13,-0.38,0.4,-0.0,-10.7,-5.7,36.27,,,,,,,,,,
13.47.02.555,-41.4,10.4,0,,,17430.7,57.37,-0.1,0.33,0.34,7.8,-0.2,0.3,36.21,,,,,,,,,,
13.47.02.565,-14.0,3.5,0,,,17430.7,57.37,-0.5,-0.09,0.95,16.6,-4.8,-8.7,36.07,,,,,,,,,,
13.47.02.573,9.2,2.3,0,,,17430.7,57.37,-0.35,-0.77,0.15,-8.6,-2.9,-18.8,36.24,,,,,,,,,,
13.47.02.582,-21.1,5.3,0,,,17430.7,57.37,-0.41,0.1,0.36,-0.9,4.0,0.6,36.33,,,,,,,,,,
13.47.02.593,-49.9,12.5,1,7.0,181.3,17430.7,57.37,-0.95,0.19,-1.25,-10.7,1.1,-13.9,36.16,,,,,,,,,,
13.47.02.602,-28.4,7.1,0,,,17430.7,57.37,-0.94,0.31,-0.05,-32.0,-7.6,-7.5,36.42,,,,,,,,,,
13.47.02.612,-63.5,15.9,0,,,17433.8,57.36,-0.47,-0.54,-0.08,4.2,15.6,9.1,36.56,,,,,,,,,,
13.47.02.621,-131.2,32.8,0,,,17433.8,57.36,-0.46,-0.28,0.63,-7.9,-13.2,10.7,36.29,,,,,,,,,,
13.47.02.631,-28.8,7.2,0,,,17433.8,57.36,-0.58,0.05,0.14,-27.6,-19.6,4.7,36.33,,,,,,,,,,
13.47.02.641,-115.8,29.0,0,,,17433.8,57.36,-0.94,0.37,-0.51,0.3,-8.7,-1.7,36.37,,,,,,,,,,
13.47.02.652,-33.5,8.4,0,,,17433.8,57.36,-0.97,0.31,-0.52,-12.7,11.4,15.5,36.03,,,,,,,,,,
13.47.02.660,-119.4,29.8,0,,,17433.8,57.36,-0.66,0.76,-0.23,12.0,6.2,5.4,36.41,,,,,,,,,,
13.47.02.670,-100.1,25.0,0,,,17433.8,57.36,-1.17,-0.01,0.89,9.1,-16.9,1.0,36.4,,,,,,,,,,
13.47.02.682,-150.1,37.5,0,,,17433.8,57.36,-1.04,0.49,0.37,9.6,-5.2,5.5,36.69,,,,,,,,,,
13.47.02.691,-135.5,33.9,0,,,17436.8,57.35,-0.9,0.07,1.05,-28.7,-16.5,-10.4,36.48,,,,,,,,,,
13.47.02.701,-185.3,46.3,0,,,17436.8,57.35,-0.71,0.46,0.4,-17.9,2.1,-18.7,36.32,,,,,,,,,,
13.47.02.711,-151.4,37.8,0,,,17436.8,57.35,-0.7,0.43,0.38,-2.5,-20.9,-10.2,36.45,,,,,,,,,,
13.47.02.721,-143.8,36.0,0,,,17436.8,57.35,-0.79,0.91,0.21,-18.8,-1.0,3.7,36.3,,,,,,,,,,
13.47.02.731,-114.1,28.5,0,,,17436.8,57.35,-0.63,0.7,0.38,2.8,-5.1,-5.2,36.23,,,,,,,,,,
13.47.02.741,-158.3,39.6,0,,,17436.8,57.35,-0.63,0.67,-0.55,5.2,10.1,-5.8,36.26,,,,,,,,,,
13.47.02.751,44.1,11.0,0,,,17436.8,57.35,-0.51,0.23,0.73,13.3,7.1,4.2,36.39,,,,,,,,,,
13.47.02.758,47.1,11.8,0,,,17436.8,57.35,-0.34,0.84,-0.17,3.5,-1.3,-12.4,36.36,,,,,,,,,,
13.47.02.769,191.2,47.8,0,,,17439.8,57.34,-0.39,0.23,-0.13,7.6,-26.9,-7.7,36.38,,,,,,,,,,
13.47.02.776,285.7,71.4,0,,,17439.8,57.34,-0.18,0.92,0.73,25.6,3.0,22.9,36.28,,,,,,,,,,
13.47.02.785,313.4,78.4,0,,,17439.8,57.34,-0.44,0.16,0.92,13.8,-22.3,-5.3,36.2,,,,,,,,,,
13.47.02.794,397.6,99.4,0,,,17439.8,57.34,-0.28,0.07,0.48,-26.6,-8.3,6.7,36.38,,,,,,,,,,
13.47.02.805,520.6,130.2,0,,,17439.8,57.34,-0.19,0.86,0.26,-8.3,-11.4,-2.9,36.24,,,,,,,,,,
13.47.02.815,526.9,131.7,0,,,17439.8,57.34,-0.26,0.38,1.7,-9.6,-16.1,9.0,36.08,,,,,,,,,,
13.47.02.823,432.8,108.2,0,,,17439.8,57.34,-0.52,0.37,1.18,-1.0,3.2,-19.5,36.27,,,,,,,,,,
13.47.02.833,533.0,133.2,0,,,17439.8,57.34,0.1,0.38,0.8,25.4,5.5,-1.5,36.78,,,,,,,,,,
13.47.02.842,480.7,120.2,0,,,17439.8,57.34,-0.3,0.97,0.97,3.7,16.3,-14.5,36.47,,,,,,,,,,
13.47.02.853,510.9,127.7,0,,,17442.9,57.33,-0.43,0.24,0.62,-37.0,5.9,-5.8,36.47,,,,,,,,,,
13.47.02.862,451.1,112.8,0,,,17442.9,57.33,-0.2,0.73,1.94,5.4,15.6,-5.8,36.26,,,,,,,,,,
13.47.02.869,376.9,94.2,0,,,17442.9,57.33,-0.45,0.52,0.02,1.6,-6.3,-13.1,36.42,,,,,,,,,,
13.47.02.879,277.3,69.3,0,,,17442.9,57.33,-0.39,0.41,1.06,3.9,4.9,9.0,36.3,,,,,,,,,,
13.47.02.886,271.8,68.0,1,8.0,204.8,17442.9,57.33,-0.03,-0.12,1.09,31.1,20.2,3.6,36.15,,,,,,,,,,
13.47.02.894,162.7,40.7,0,,,17442.9,57.33,-0.55,0.06,0.38,-14.0,-1.6,1.1,36.31,,,,,,,,,,
13.47.02.905,71.0,17.8,0,,,17442.9,57.33,-0.87,-0.26,0.81,0.7,3.8,-5.2,36.47,,,,,,,,,,
13.47.02.914,-6.2,1.6,0,,,17442.9,57.33,-0.41,-0.07,0.43,-9.2,-1.8,-12.9,36.25,,,,,,,,,,
13.47.02.923,2.7,0.7,0,,,17442.9,57.33,-0.33,0.07,1.76,-3.1,-6.6,-4.7,36.27,,,,,,,,,,
13.47.02.932,140.2,35.0,0,,,17445.9,57.32,-0.56,-0.73,0.39,-8.8,2.9,-12.1,36.24,,,,,,,,,,
13.47.02.938,33.7,8.4,0,,,17445.9,57.32,-0.63,0.05,-0.27,-1.1,35.3,13.5,36.13,,,,,,,,,,
13.47.02.946,73.5,18.4,0,,,17445.9,57.32,-0.28,0.39,-0.92,-2.3,-5.6,-8.4,36.04,,,,,,,,,,
13.47.02.956,123.8,31.0,0,,,17445.9,57.32,-0.83,0.31,0.0,2.0,-0.5,17.3,36.25,,,,,,,,,,
13.47.02.966,69.8,17.4,0,,,17445.9,57.32,-0.86,-0.31,-0.02,-8.1,-7.2,-18.0,36.34,,,,,,,,,,
13.47.02.974,127.7,31.9,0,,,17445.9,57.32,-0.7,0.47,-0.56,-3.9,25.8,-8.8,36.25,,,,,,,,,,
13.47.02.985,43.6,10.9,0,,,17445.9,57.32,-0.61,0.75,0.29,-10.4,-4.0,13.0,36.54,,,,,,,,,,
13.47.02.996,94.2,23.6,0,,,17445.9,57.32,-0.42,0.69,0.12,-6.1,4.4,5.2,36.3,,,,,,,,,,
13.47.03.004,29.5,7.4,0,,,17449.0,57.31,-0.54,0.55,-1.21,28.2,-1.7,-2.1,36.59,,,,,,,,,,
13.47.03.014,-6.8,1.7,0,,,17449.0,57.31,-0.99,0.15,0.06,-12.1,10.9,-5.7,36.24,,,,,,,,,,
13.47.03.024,-23.9,6.0,0,,,17449.0,57.31,-0.65,0.97,-0.13,-4.9,18.5,-25.9,36.36,,,,,,,,,,
13.47.03.033,0.1,0.0,0,,,17449.0,57.31,-0.5,1.05,-0.04,-37.7,12.1,2.4,36.52,,,,,,,,,,
13.47.03.044,-58.3,14.6,0,,,17449.0,57.31,-0.31,0.73,0.33,-5.4,-8.8,-5.4,36.4,,,,,,,,,,
13.47.03.055,-61.1,15.3,0,,,17449.0,57.31,-1.07,0.38,0.6,-8.8,17.2,-8.6,36.42,,,,,,,,,,
13.47.03.065,-41.7,10.4,0,,,17452.0,57.3,-0.67,0.41,0.23,-16.0,6.9,-24.5,36.24,,,,,,,,,,
13.47.03.074,-39.1,9.8,0,,,17452.0,57.3,0.06,0.23,0.49,-24.2,-1.2,-1.9,36.37,,,,,,,,,,
13.47.03.086,-145.2,36.3,0,,,17452.0,57.3,-0.93,0.76,0.59,-12.7,7.0,0.3,36.39,,,,,,,,,,
13.47.03.097,-103.0,25.8,0,,,17452.0,57.3,-0.72,0.95,0.37,-20.2,-14.2,21.1,36.23,,,,,,,,,,
13.47.03.106,-125.7,31.4,0,,,17452.0,57.3,-0.62,0.49,0.55,3.8,16.4,13.9,36.31,,,,,,,,,,
13.47.03.117,-135.8,34.0,0,,,17455.1,57.29,-0.65,0.43,1.01,-40.9,-0.5,-2.1,36.21,,,,,,,,,,
13.47.03.128,-140.5,35.1,0,,,17455.1,57.29,-0.15,0.83,0.47,-18.3,14.1,-14.3,36.24,,,,,,,,,,
13.47.03.137,-151.6,37.9,0,,,17455.1,57.29,-0.13,0.56,1.51,17.1,21.1,-1.7,36.39,,,,,,,,,,
13.47.03.146,-144.4,36.1,0,,,17455.1,57.29,-0.2,0.91,0.97,5.6,-17.4,3.9,36.34,,,,,,,,,,
13.47.03.155,-163.0,40.8,0,,,17455.1,57.29,-0.44,0.41,1.81,9.8,18.5,-3.2,36.21,,,,,,,,,,
13.47.03.164,-146.8,36.7,0,,,17455.1,57.29,-0.29,0.37,0.67,24.3,14.6,10.0,36.19,,,,,,,,,,
13.47.03.174,-194.0,48.5,0,,,17458.1,57.28,-0.38,0.29,-0.02,14.2,13.4,-17.2,36.28,,,,,,,,,,
13.47.03.183,-189.1,47.3,0,,,17458.1,57.28,-0.31,-0.07,1.04,-0.7,1.4,-8.9,36.15,,,,,,,,,,
13.47.03.190,-170.9,42.7,0,,,17458.1,57.28,-0.09,0.18,0.86,10.1,-18.5,-14.3,36.02,,,,,,,,,,
13.47.03.201,-224.8,56.2,0,,,17458.1,57.28,-0.01,0.4,0.84,2.5,-1.6,-3.2,36.36,,,,,,,,,,
13.47.03.210,37.2,9.3,0,,,17458.1,57.28,-0.48,-0.06,1.05,4.6,-10.7,-2.5,35.99,,,,,,,,,,
13.47.03.220,134.2,33.6,0,,,17458.1,57.28,-0.56,-0.06,0.85,5.8,-2.1,-3.2,36.29,,,,,,,,,,
13.47.03.232,241.9,60.5,0,,,17461.1,57.27,-0.83,0.44,-0.39,8.3,17.9,7.4,36.41,,,,,,,,,,
13.47.03.242,397.5,99.4,0,,,17461.1,57.27,-0.96,0.16,0.71,4.6,-7.8,6.1,36.18,,,,,,,,,,
13.47.03.251,455.6,113.9,0,,,17461.1,57.27,-0.51,-0.89,0.51,0.5,22.4,-14.4,36.18,,,,,,,,,,
13.47.03.261,451.1,112.8,1,9.0,160.0,17461.1,57.27,-0.25,0.25,0.64,26.0,2.1,17.1,36.47,,,,,,,,,,
13.47.03.271,482.1,120.5,0,,,17461.1,57.27,-0.51,-0.01,0.34,10.4,8.1,-9.3,36.27,,,,,,,,,,
13.47.03.276,440.2,110.0,0,,,17461.1,57.27,-0.69,0.04,0.37,1.6,-3.0,-6.4,36.32,,,,,,,,,,
13.47.03.284,441.4,110.4,0,,,17464.2,57.26,-0.51,-0.24,0.18,-30.3,10.2,5.7,36.23,,,,,,,,,,
13.47.03.294,559.6,139.9,0,,,17464.2,57.26,-0.8,0.06,-0.47,-10.6,12.6,3.3,36.46,,,,,,,,,,
13.47.03.302,462.6,115.6,0,,,17464.2,57.26,-1.08,-0.09,0.18,-7.3,19.1,-2.6,36.23,,,,,,,,,,
13.47.03.314,442.2,110.6,0,,,17464.2,57.26,-0.98,-0.1,0.25,35.0,6.8,-7.5,36.27,,,,,,,,,,
13.47.03.324,346.9,86.7,0,,,17464.2,57.26,-0.65,0.49,-0.4,0.6,26.2,-6.9,36.4,,,,,,,,,,
13.47.03.334,207.5,51.9,0,,,17464.2,57.26,-0.86,0.93,-0.46,-18.8,21.1,7.7,36.34,,,,,,,,,,
13.47.03.343,178.6,44.6,0,,,17467.2,57.25,-0.89,-0.17,0.48,-10.4,7.5,-0.6,36.16,,,,,,,,,,
13.47.03.351,145.3,36.3,0,,,17467.2,57.25,-0.59,0.16,-0.71,-1.0,-2.6,-5.6,36.49,,,,,,,,,,
13.47.03.360,28.1,7.0,0,,,17467.2,57.25,-0.83,1.3,-0.42,-8.8,15.4,6.2,36.31,,,,,,,,,,
13.47.03.369,50.0,12.5,0,,,17467.2,57.25,-0.51,-0.23,-0.19,-0.4,19.6,8.8,36.45,,,,,,,,,,
13.47.03.379,38.8,9.7,0,,,17467.2,57.25,-0.36,1.21,-0.13,17.7,29.6,-6.0,36.36,,,,,,,,,,
13.47.03.388,37.3,9.3,0,,,17467.2,57.25,-0.49,0.07,-1.5,26.7,21.2,-2.5,36.19,,,,,,,,,,
13.47.03.398,56.3,14.1,0,,,17470.3,57.24,-0.36,0.7,-0.79,-20.1,-14.1,-20.0,36.69,,,,,,,,,,
13.47.03.409,39.1,9.8,0,,,17470.3,57.24,-0.62,0.52,1.57,10.4,22.6,17.1,36.59,,,,,,,,,,
13.47.03.419,137.0,34.2,0,,,17470.3,57.24,-0.39,1.2,0.31,-28.1,9.9,-12.5,36.32,,,,,,,,,,
13.47.03.431,48.2,12.0,0,,,17470.3,57.24,-0.12,0.28,0.72,-9.5,15.8,0.8,36.45,,,,,,,,,,
13.47.03.442,17.3,4.3,0,,,17470.3,57.24,-0.6,1.19,-0.3,-26.6,-7.6,-3.7,36.54,,,,,,,,,,
13.47.03.453,8.4,2.1,0,,,17473.4,57.23,-0.77,0.35,0.47,20.9,5.3,-12.8,36.21,,,,,,,,,,
13.47.03.463,-21.2,5.3,0,,,17473.4,57.23,-0.36,0.8,0.41,22.3,-10.6,-1.7,36.21,,,,,,,,,,
13.47.03.470,-62.0,15.5,0,,,17473.4,57.23,-0.64,1.08,1.13,21.5,-5.2,-21.4,36.31,,,,,,,,,,
13.47.03.480,-9.2,2.3,0,,,17473.4,57.23,-0.19,0.11,0.55,7.0,0.1,7.3,36.32,,,,,,,,,,
13.47.03.490,-20.5,5.1,0,,,17473.4,57.23,-0.35,0.68,1.49,22.1,8.2,2.0,36.23,,,,,,,,,,
13.47.03.500,-9.2,2.3,0,,,17473.4,57.23,-0.2,0.33,1.0,28.3,5.6,-7.1,36.32,,,,,,,,,,
13.47.03.510,-63.9,16.0,0,,,17476.4,57.22,-0.22,0.88,1.8,29.4,-24.2,6.3,36.35,,,,,,,,,,
13.47.03.520,-142.1,35.5,0,,,17476.4,57.22,-0.45,0.31,1.62,16.1,20.2,-8.7,36.19,,,,,,,,,,
13.47.03.530,-46.3,11.6,0,,,17476.4,57.22,-0.32,0.16,1.14,16.5,21.0,5.5,36.37,,,,,,,,,,
13.47.03.539,-81.1,20.3,0,,,17476.4,57.22,-0.45,0.24,0.86,4.2,1.4,6.3,36.23,,,,,,,,,,
13.47.03.551,-141.1,35.3,0,,,17476.4,57.22,-0.53,0.25,0.96,-4.4,3.0,-7.5,36.31,,,,,,,,,,
13.47.03.561,-102.7,25.7,0,,,17479.5,57.21,-0.07,-0.07,-0.0,-4.4,9.4,14.9,36.35,,,,,,,,,,
13.47.03.572,-58.6,14.6,0,,,17479.5,57.21,-0.14,0.25,1.34,33.4,7.6,-5.6,36.34,,,,,,,,,,
13.47.03.580,-145.7,36.4,0,,,17479.5,57.21,-0.25,-0.78,0.47,2.8,-6.2,-22.0,36.28,,,,,,,,,,
13.47.03.591,-163.8,41.0,0,,,17479.5,57.21,-0.28,0.1,0.41,-5.1,-25.0,-8.2,36.35,,,,,,,,,,
13.47.03.601,-115.9,29.0,0,,,17479.5,57.21,-0.42,0.16,0.14,3.8,3.0,-7.4,36.43,,,,,,,,,,
13.47.03.610,-112.5,28.1,0,,,17479.5,57.21,-0.62,-0.02,0.12,-1.7,9.8,-4.2,36.7,,,,,,,,,,
13.47.03.621,-176.3,44.1,0,,,17482.5,57.2,-0.89,0.27,0.44,-9.0,-0.3,13.3,36.46,,,,,,,,,,
13.47.03.629,-186.0,46.5,0,,,17482.5,57.2,-0.74,0.2,-0.51,-13.1,24.0,9.2,36.37,,,,,,,,,,
13.47.03.638,-186.7,46.7,0,,,17482.5,57.2,-0.7,0.31,0.27,-5.5,3.5,-9.3,36.31,,,,,,,,,,
13.47.03.648,-192.3,48.1,1,10.0,155.0,17482.5,57.2,-0.3,-0.08,-0.42,-14.9,13.4,-9.0,36.04,,,,,,,,,,
13.47.03.658,-180.7,45.2,0,,,17482.5,57.2,-0.83,-0.46,-0.23,1.3,-9.5,-1.6,36.68,,,,,,,,,,
13.47.03.666,68.5,17.1,0,,,17482.5,57.2,-0.82,-0.21,-0.41,23.9,-5.3,-21.0,36.43,,,,,,,,,,
13.47.03.676,150.1,37.5,0,,,17485.6,57.19,-0.59,0.59,-0.43,-11.3,2.1,-13.2,36.13,,,,,,,,,,
13.47.03.686,294.5,73.6,0,,,17485.6,57.19,-0.47,0.28,-0.56,-20.2,0.3,-5.4,36.23,,,,,,,,,,
13.47.03.697,330.8,82.7,0,,,17485.6,57.19,-0.76,0.08,-0.01,20.0,2.4,8.9,36.45,,,,,,,,,,
13.47.03.709,464.8,116.2,0,,,17485.6,57.19,-0.57,0.8,-0.36,-18.6,23.0,2.7,36.44,,,,,,,,,,
13.47.03.720,498.1,124.5,0,,,17485.6,57.19,-0.61,0.53,0.14,5.1,-10.6,-4.9,36.54,,,,,,,,,,
13.47.03.729,548.3,137.1,0,,,17488.6,57.18,-0.37,-0.08,-0.75,5.4,-16.7,7.8,36.16,,,,,,,,,,
13.47.03.737,461.2,115.3,0,,,17488.6,57.18,-0.67,0.48,0.29,-1.6,21.4,9.2,36.2,,,,,,,,,,
13.47.03.747,496.5,124.1,0,,,17488.6,57.18,-0.99,0.43,0.28,-1.7,18.5,-18.1,36.57,,,,,,,,,,
13.47.03.757,479.8,120.0,0,,,17488.6,57.18,-0.27,0.95,-0.08,39.2,11.2,-9.5,36.27,,,,,,,,,,
13.47.03.767,412.4,103.1,0,,,17488.6,57.18,-0.75,0.87,-0.95,-25.5,17.4,-1.6,36.43,,,,,,,,,,
13.47.03.776,436.6,109.2,0,,,17488.6,57.18,-0.75,0.78,0.77,12.7,-7.3,-21.6,36.35,,,,,,,,,,
13.47.03.785,304.7,76.2,0,,,17491.7,57.17,-0.03,0.5,0.92,7.9,7.1,-18.6,36.3,,,,,,,,,,
13.47.03.797,188.3,47.1,0,,,17491.7,57.17,-0.23,0.1,-0.03,-25.7,14.3,2.1,36.56,,,,,,,,,,
13.47.03.809,91.1,22.8,0,,,17491.7,57.17,-0.32,0.75,0.58,32.8,-3.0,-0.7,36.47,,,,,,,,,,
13.47.03.817,35.4,8.8,0,,,17491.7,57.17,-0.67,0.66,0.33,5.8,4.0,1.4,36.15,,,,,,,,,,
13.47.03.825,-44.0,11.0,0,,,17491.7,57.17,-0.29,0.77,-0.16,-5.1,6.9,-1.1,36.3,,,,,,,,,,
13.47.03.835,47.1,11.8,0,,,17494.8,57.16,-0.5,0.24,0.34,8.3,23.6,-6.9,36.08,,,,,,,,,,
13.47.03.848,65.2,16.3,0,,,17494.8,57.16,-0.54,0.75,1.31,28.2,6.5,-1.5,36.51,,,,,,,,,,
13.47.03.858,159.8,40.0,0,,,17494.8,57.16,-0.51,0.44,0.27,16.7,-3.9,-3.5,36.45,,,,,,,,,,
13.47.03.867,71.8,18.0,0,,,17494.8,57.16,-0.79,1.22,0.8,3.8,4.5,-0.9,36.4,,,,,,,,,,
13.47.03.874,73.8,18.4,0,,,17494.8,57.16,-0.59,0.34,0.66,-2.9,20.2,-3.8,36.2,,,,,,,,,,
13.47.03.884,103.8,26.0,0,,,17494.8,57.16,-0.21,0.35,1.9,25.4,18.2,-8.6,36.16,,,,,,,,,,
13.47.03.894,59.1,14.8,0,,,17497.8,57.15,-0.45,0.52,0.99,-2.4,2.8,6.3,36.17,,,,,,,,,,
13.47.03.904,-0.1,0.0,0,,,17497.8,57.15,-0.99,-0.05,0.52,-4.9,2.2,-13.1,36.29,,,,,,,,,,
13.47.03.916,24.0,6.0,0,,,17497.8,57.15,-0.58,0.0,0.84,5.7,16.6,7.5,36.48,,,,,,,,,,
13.47.03.928,-6.7,1.7,0,,,17497.8,57.15,-0.05,-0.67,1.08,-10.1,26.2,13.3,36.26,,,,,,,,,,
13.47.03.938,-78.5,19.6,0,,,17497.8,57.15,-0.16,-0.04,0.02,12.5,14.6,-9.2,36.1,,,,,,,,,,
13.47.03.950,-28.6,7.2,0,,,17500.9,57.14,-0.55,-0.02,-0.33,-1.2,8.8,-6.3,36.25,,,,,,,,,,
13.47.03.960,-29.4,7.4,0,,,17500.9,57.14,-0.52,0.71,0.72,-1.2,-14.1,19.5,36.37,,,,,,,,,,
13.47.03.969,-22.2,5.6,0,,,17500.9,57.14,-0.27,-0.09,0.09,2.2,14.5,-10.5,36.36,,,,,,,,,,
13.47.03.981,-14.0,3.5,0,,,17500.9,57.14,-0.82,0.23,-0.66,-29.8,-5.4,-5.3,36.58,,,,,,,,,,
13.47.03.988,-151.5,37.9,0,,,17500.9,57.14,-0.68,-0.11,0.3,-5.3,13.8,-1.8,36.29,,,,,,,,,,
13.47.03.997,-148.6,37.2,0,,,17500.9,57.14,-1.18,-0.1,-0.38,6.3,-4.3,5.7,36.3,,,,,,,,,,
13.47.04.007,-119.6,29.9,0,,,17503.9,57.13,-0.57,-0.13,-0.29,27.4,3.7,3.1,36.2,,,,,,,,,,
13.47.04.016,-127.7,31.9,0,,,17503.9,57.13,-0.66,0.76,0.13,5.5,6.2,-0.6,36.23,,,,,,,,,,
13.47.04.026,-87.2,21.8,0,,,17503.9,57.13,-0.47,-0.18,-0.37,-5.1,-2.7,3.5,36.36,,,,,,,,,,
13.47.04.036,-154.9,38.7,0,,,17503.9,57.13,-0.5,0.11,-0.24,-11.5,-6.6,0.2,36.36,,,,,,,,,,
13.47.04.047,-89.5,22.4,1,11.0,150.4,17503.9,57.13,-0.57,0.46,0.48,13.7,13.3,16.5,36.46,,,,,,,,,,
13.47.04.057,-175.9,44.0,0,,,17503.9,57.13,-0.72,0.82,-0.97,-5.3,-0.8,-15.0,36.4,,,,,,,,,,
13.47.04.065,-166.5,41.6,0,,,17503.9,57.13,-0.79,0.87,-0.88,5.0,22.9,0.3,36.36,,,,,,,,,,
13.47.04.075,-148.9,37.2,0,,,17503.9,57.13,-1.0,0.51,-0.27,-4.5,5.4,6.5,36.5,,,,,,,,,,
13.47.04.084,-253.7,63.4,0,,,17507.0,57.12,-1.07,0.15,0.18,3.9,14.5,-21.0,36.23,,,,,,,,,,
13.47.04.093,-171.6,42.9,0,,,17507.0,57.12,-0.51,1.07,-0.09,-17.3,13.4,-1.3,36.31,,,,,,,,,,
13.47.04.103,-133.0,33.2,0,,,17507.0,57.12,-0.65,0.97,0.3,24.4,2.2,-23.7,36.41,,,,,,,,,,
13.47.04.113,-10.8,2.7,0,,,17507.0,57.12,-0.54,0.92,0.28,11.8,8.7,6.3,36.45,,,,,,,,,,
13.47.04.124,59.6,14.9,0,,,17507.0,57.12,-0.53,0.72,0.22,29.9,13.6,-3.6,36.36,,,,,,,,,,
13.47.04.131,172.2,43.0,0,,,17507.0,57.12,-0.75,0.94,0.1,-19.1,11.8,-3.5,36.5,,,,,,,,,,
13.47.04.141,267.0,66.8,0,,,17507.0,57.12,-0.76,0.65,1.32,-20.9,-0.8,3.5,36.37,,,,,,,,,,
13.47.04.151,326.2,81.6,0,,,17507.0,57.12,-0.68,0.95,1.43,-11.3,-3.2,-15.9,36.21,,,,,,,,,,
13.47.04.161,400.2,100.0,0,,,17510.1,57.11,-0.67,0.54,0.56,-26.9,9.6,-5.8,36.46,,,,,,,,,,
13.47.04.171,422.3,105.6,0,,,17510.1,57.11,-0.36,0.62,0.46,-16.2,-12.3,-2.2,36.38,,,,,,,,,,
13.47.04.181,476.2,119.0,0,,,17510.1,57.11,-0.73,0.9,0.4,-22.1,2.9,-9.9,36.23,,,,,,,,,,
13.47.04.190,460.1,115.0,0,,,17510.1,57.11,-0.35,0.1,0.63,9.3,16.5,-1.5,36.5,,,,,,,,,,
13.47.04.200,459.7,114.9,0,,,17510.1,57.11,-0.86,0.68,1.3,16.5,3.5,-6.7,36.56,,,,,,,,,,
13.47.04.211,431.3,107.8,0,,,17510.1,57.11,0.24,0.03,0.37,11.6,4.2,0.7,36.36,,,,,,,,,,
13.47.04.219,414.5,103.6,0,,,17510.1,57.11,-0.07,0.4,1.37,10.0,2.8,8.6,36.23,,,,,,,,,,
13.47.04.232,418.3,104.6,0,,,17510.1,57.11,0.04,0.31,1.07,-13.3,0.9,-15.1,36.31,,,,,,,,,,
13.47.04.240,,,0,,,,,,,,,,,,,,,,,,,,,
13.47.04.250,154.4,38.6,0,,,17513.1,57.1,-0.11,0.08,0.73,6.1,9.2,-10.1,36.39,,,,,,,,,,
13.47.04.260,100.3,25.1,0,,,17513.1,57.1,-0.3,0.08,0.53,-10.0,6.1,-15.5,36.35,,,,,,,,,,
13.47.04.271,37.3,9.3,0,,,17513.1,57.1,-0.31,-0.15,0.51,-4.7,-3.8,-19.4,36.08,,,,,,,,,,
13.47.04.282,80.6,20.2,0,,,17513.1,57.1,-0.34,-0.4,0.79,-16.3,12.6,0.6,36.39,,,,,,,,,,
13.47.04.292,21.7,5.4,0,,,17513.1,57.1,-0.32,0.54,0.14,14.3,-2.8,2.7,36.54,,,,,,,,,,
13.47.04.302,96.2,24.0,0,,,17513.1,57.1,-0.7,-0.13,0.32,-20.9,6.6,9.5,36.38,,,,,,,,,,
13.47.04.313,69.3,17.3,0,,,17516.2,57.09,-0.9,-0.4,0.14,6.7,-3.6,-2.9,36.34,,,,,,,,,,
13.47.04.321,104.8,26.2,0,,,17516.2,57.09,-0.78,0.14,0.9,1.7,-28.7,2.7,36.26,,,,,,,,,,
13.47.04.332,100.3,25.1,0,,,17516.2,57.09,-0.39,0.16,0.42,-10.4,-9.7,9.7,36.34,,,,,,,,,,
13.47.04.341,29.3,7.3,0,,,17516.2,57.09,-0.88,0.08,-0.27,-18.2,9.7,3.1,36.45,,,,,,,,,,
13.47.04.351,36.1,9.0,0,,,17516.2,57.09,-0.95,0.0,0.04,-25.7,10.2,-12.8,36.27,,,,,,,,,,
13.47.04.361,12.7,3.2,0,,,17516.2,57.09,-0.47,-0.24,0.58,-10.3,21.6,13.0,36.26,,,,,,,,,,
13.47.04.371,-3.5,0.9,0,,,17516.2,57.09,-0.63,0.59,-0.03,11.4,7.7,9.5,36.29,,,,,,,,,,
13.47.04.379,-20.3,5.1,0,,,17516.2,57.09,-0.58,0.09,-0.01,25.3,16.6,-10.0,36.18,,,,,,,,,,
13.47.04.389,-18.1,4.5,0,,,17519.3,57.08,-0.48,0.41,0.38,-28.0,7.8,-6.5,36.65,,,,,,,,,,
13.47.04.399,-38.7,9.7,1,12.0,170.5,17519.3,57.08,-1.04,-0.29,-0.44,26.7,3.1,7.3,36.18,,,,,,,,,,
13.47.04.405,-103.2,25.8,0,,,17519.3,57.08,-0.83,0.37,-0.69,-2.3,18.6,-17.2,36.48,,,,,,,,,,
13.47.04.417,-59.0,14.8,0,,,17519.3,57.08,-1.07,0.75,-0.14,3.9,13.5,-3.7,36.27,,,,,,,,,,
13.47.04.426,-71.7,17.9,0,,,17519.3,57.08,-0.69,-0.08,-0.0,-9.3,-5.8,2.4,36.19,,,,,,,,,,
13.47.04.436,-64.8,16.2,0,,,17519.3,57.08,-0.98,0.5,0.28,-13.3,0.8,-14.2,36.23,,,,,,,,,,
13.47.04.445,-96.6,24.2,0,,,17519.3,57.08,-0.88,0.94,0.22,23.4,16.7,1.9,36.33,,,,,,,,,,
13.47.04.455,-58.1,14.5,0,,,17519.3,57.08,-0.81,0.1,0.3,7.7,12.2,-8.7,36.4,,,,,,,,,,
13.47.04.465,-104.9,26.2,0,,,17522.3,57.07,-0.59,0.02,-0.17,3.9,4.7,1.0,36.29,,,,,,,,,,
13.47.04.475,-90.1,22.5,0,,,17522.3,57.07,-0.7,0.82,-0.36,-11.7,25.7,-12.0,36.45,,,,,,,,,,
13.47.04.483,-73.6,18.4,0,,,17522.3,57.07,-0.46,0.83,1.75,21.1,1.7,14.7,36.3,,,,,,,,,,
13.47.04.493,-136.5,34.1,0,,,17522.3,57.07,-0.87,1.14,1.1,-15.8,-1.5,-12.4,36.23,,,,,,,,,,
13.47.04.503,-79.6,19.9,0,,,17522.3,57.07,-0.56,0.87,0.45,-10.4,7.3,-0.0,36.34,,,,,,,,,,
13.47.04.512,-107.7,26.9,0,,,17522.3,57.07,-0.4,1.43,0.21,-9.4,26.3,3.8,36.3,,,,,,,,,,
13.47.04.521,-98.7,24.7,0,,,17522.3,57.07,-0.12,0.7,1.03,-1.9,9.0,-13.0,36.38,,,,,,,,,,
13.47.04.530,-181.2,45.3,0,,,17522.3,57.07,-0.38,0.4,0.85,14.2,5.7,-28.3,36.13,,,,,,,,,,
13.47.04.539,-182.4,45.6,0,,,17522.3,57.07,-0.39,0.18,0.99,11.3,-14.6,6.2,36.05,,,,,,,,,,
13.47.04.551,-189.2,47.3,0,,,17525.4,57.06,0.12,0.94,0.61,23.3,15.3,23.5,36.57,,,,,,,,,,
13.47.04.559,-216.2,54.0,0,,,17525.4,57.06,-0.11,0.58,0.08,-26.0,-8.8,-20.3,36.55,,,,,,,,,,
13.47.04.567,-15.6,3.9,0,,,17525.4,57.06,-0.48,0.61,1.62,-6.9,6.2,-10.0,36.45,,,,,,,,,,
13.47.04.577,158.3,39.6,0,,,17525.4,57.06,-0.2,0.54,1.15,4.3,27.6,-1.8,36.16,,,,,,,,,,
13.47.04.586,204.3,51.1,0,,,17525.4,57.06,-0.48,0.73,-0.01,-29.9,-7.4,1.0,36.4,,,,,,,,,,
13.47.04.598,311.8,78.0,0,,,17525.4,57.06,-0.2,0.26,0.79,-21.6,-3.0,3.9,36.27,,,,,,,,,,
13.47.04.606,414.0,103.5,0,,,17525.4,57.06,-0.36,0.11,0.51,-11.9,-5.4,16.4,36.33,,,,,,,,,,
13.47.04.615,421.5,105.4,0,,,17525.4,57.06,-0.46,0.17,0.92,-0.3,11.0,16.2,36.17,,,,,,,,,,
13.47.04.625,500.7,125.2,0,,,17528.5,57.05,-0.5,-0.08,0.28,2.2,28.8,-24.1,36.27,,,,,,,,,,
13.47.04.632,481.4,120.4,0,,,17528.5,57.05,-0.82,-0.23,0.28,-3.8,-20.4,2.0,36.09,,,,,,,,,,
13.47.04.640,515.5,128.9,0,,,17528.5,57.05,-0.46,0.31,1.01,15.3,-4.3,2.4,36.24,,,,,,,,,,
13.47.04.650,477.7,119.4,0,,,17528.5,57.05,-0.81,-0.27,1.1,-16.8,23.2,-3.6,36.48,,,,,,,,,,
13.47.04.660,459.5,114.9,0,,,17528.5,57.05,-0.41,0.41,-0.22,-17.2,14.4,-8.1,36.27,,,,,,,,,,
13.47.04.670,429.8,107.4,0,,,17528.5,57.05,-0.59,0.18,-0.96,3.2,-6.4,-13.5,36.2,,,,,,,,,,
13.47.04.679,400.0,100.0,0,,,17528.5,57.05,-0.21,-0.02,0.15,4.3,9.4,-0.7,36.12,,,,,,,,,,
13.47.04.690,340.0,85.0,0,,,17528.5,57.05,-0.47,0.17,-0.25,-8.9,17.3,4.0,36.44,,,,,,,,,,
13.47.04.701,191.5,47.9,0,,,17531.6,57.04,-1.05,0.21,-0.34,-17.0,11.6,14.5,36.29,,,,,,,,,,
13.47.04.709,138.2,34.6,0,,,17531.6,57.04,-0.83,0.31,0.26,-12.2,18.2,-1.6,36.5,,,,,,,,,,
13.47.04.717,37.0,9.2,0,,,17531.6,57.04,-0.72,0.35,0.34,12.1,17.1,2.2,36.21,,,,,,,,,,
13.47.04.725,-13.5,3.4,0,,,17531.6,57.04,-0.68,0.45,-0.91,-16.6,21.8,16.1,36.21,,,,,,,,,,
13.47.04.735,41.0,10.2,0,,,17531.6,57.04,-0.51,0.82,-0.14,-7.6,6.4,11.2,36.33,,,,,,,,,,
13.47.04.745,106.8,26.7,0,,,17531.6,57.04,-0.91,0.01,-0.64,7.9,13.1,-0.0,36.26,,,,,,,,,,
13.47.04.754,66.1,16.5,0,,,17531.6,57.04,-1.03,0.37,0.08,-5.6,11.2,-5.8,36.37,,,,,,,,,,
13.47.04.764,145.9,36.5,1,13.0,164.4,17531.6,57.04,-1.0,0.4,-0.2,-3.4,-9.3,-2.6,36.19,,,,,,,,,,
13.47.04.773,80.5,20.1,0,,,17531.6,57.04,-0.66,0.42,-0.15,-22.4,8.0,2.5,36.37,,,,,,,,,,
13.47.04.783,74.0,18.5,0,,,17534.6,57.03,-0.74,0.75,-0.24,-5.4,-8.1,-14.1,36.42,,,,,,,,,,
13.47.04.792,50.4,12.6,0,,,17534.6,57.03,-0.74,-0.02,0.02,-8.5,30.5,-11.6,36.3,,,,,,,,,,
13.47.04.802,63.4,15.8,0,,,17534.6,57.03,-0.57,0.6,0.06,-4.5,18.9,3.2,36.52,,,,,,,,,,
13.47.04.811,3.9,1.0,0,,,17534.6,57.03,-0.12,0.65,0.95,-20.4,7.7,-7.5,36.32,,,,,,,,,,
13.47.04.819,28.4,7.1,0,,,17534.6,57.03,-0.7,0.76,-0.44,21.4,-3.4,13.3,36.43,,,,,,,,,,
13.47.04.828,-9.5,2.4,0,,,17534.6,57.03,-0.56,0.43,1.06,18.2,10.7,0.0,36.34,,,,,,,,,,
13.47.04.836,17.6,4.4,0,,,17534.6,57.03,-0.37,0.62,0.8,-2.9,10.0,-9.7,36.36,,,,,,,,,,
13.47.04.846,-62.7,15.7,0,,,17534.6,57.03,-0.32,0.89,0.92,6.2,15.8,-2.8,36.52,,,,,,,,,,
13.47.04.856,-37.3,9.3,0,,,17537.7,57.02,0.04,0.86,0.19,10.3,9.8,-2.8,36.32,,,,,,,,,,
13.47.04.864,-67.5,16.9,0,,,17537.7,57.02,-0.41,0.53,1.0,-21.4,-0.6,8.5,36.6,,,,,,,,,,
13.47.04.874,-75.9,19.0,0,,,17537.7,57.02,-0.12,-0.09,0.92,10.6,-2.5,-2.3,36.36,,,,,,,,,,
13.47.04.883,-111.1,27.8,0,,,17537.7,57.02,-0.24,0.9,0.76,8.6,-17.7,-0.8,36.48,,,,,,,,,,
13.47.04.894,-76.4,19.1,0,,,17537.7,57.02,-0.28,0.84,0.48,2.8,-2.6,-1.7,36.4,,,,,,,,,,
13.47.04.904,-127.2,31.8,0,,,17537.7,57.02,-0.3,0.65,0.73,-12.3,13.1,19.1,36.33,,,,,,,,,,
13.47.04.916,-116.5,29.1,0,,,17537.7,57.02,-0.51,0.21,1.38,-3.7,-7.3,-19.1,36.33,,,,,,,,,,
13.47.04.925,-99.4,24.8,0,,,17537.7,57.02,-0.29,0.35,0.56,10.0,-10.2,4.9,36.66,,,,,,,,,,
13.47.04.933,-114.5,28.6,0,,,17540.8,57.01,-0.37,-0.73,1.68,-3.0,-6.4,-6.1,36.38,,,,,,,,,,
13.47.04.942,-135.2,33.8,0,,,17540.8,57.01,-0.28,0.24,1.45,-17.8,7.3,0.8,36.25,,,,,,,,,,
13.47.04.952,-136.4,34.1,0,,,17540.8,57.01,-0.68,-0.49,0.6,7.6,3.2,21.4,36.41,,,,,,,,,,
13.47.04.964,-181.7,45.4,0,,,17540.8,57.01,-0.24,0.21,1.31,-29.6,12.5,-4.8,36.11,,,,,,,,,,
13.47.04.976,-147.7,36.9,0,,,17540.8,57.01,-0.7,0.32,0.93,16.2,-3.2,-6.6,36.11,,,,,,,,,,
13.47.04.985,-166.6,41.6,0,,,17540.8,57.01,-0.37,-0.1,0.25,-8.1,21.5,-2.9,36.31,,,,,,,,,,
13.47.04.993,-154.8,38.7,0,,,17540.8,57.01,-0.91,0.69,-0.35,0.1,6.2,-5.6,36.42,,,,,,,,,,
13.47.05.003,-166.8,41.7,0,,,17540.8,57.01,-0.94,0.73,0.31,-32.5,16.3,1.1,36.39,133.3,,,,,,,,,
13.47.05.014,-180.9,45.2,0,,,17543.9,57.0,-0.6,0.02,0.26,11.7,22.3,-4.8,36.48,,,,,,,,,,
13.47.05.023,79.3,19.8,0,,,17543.9,57.0,-0.7,0.24,0.03,18.6,-7.7,18.1,36.37,,,,,,,,,,
13.47.05.034,170.0,42.5,0,,,17543.9,57.0,-0.41,-0.29,0.28,-8.7,26.4,1.7,36.31,,,,,,,,,,
13.47.05.044,225.6,56.4,0,,,17543.9,57.0,-0.56,0.54,-0.69,8.3,-6.2,3.7,36.42,,,,,,,,,,
13.47.05.056,351.4,87.8,0,,,17543.9,57.0,-0.82,0.21,0.06,14.5,-5.7,7.4,36.21,,,,,,,,,,
13.47.05.065,396.4,99.1,0,,,17543.9,57.0,-0.34,0.34,-0.12,-15.7,7.5,-6.1,36.33,,,,,,,,,,
13.47.05.074,501.4,125.4,0,,,17543.9,57.0,-0.73,0.08,-0.76,-7.6,-1.7,15.5,36.19,,,,,,,,,,
13.47.05.083,490.6,122.6,0,,,17543.9,57.0,-0.84,0.39,-0.14,-48.3,27.0,-7.0,36.24,,,,,,,,,,
13.47.05.094,503.6,125.9,0,,,17543.9,57.0,-0.6,0.57,-0.74,16.7,-10.0,1.2,36.13,,,,,,,,,,
13.47.05.104,394.9,98.7,0,,,17543.9,57.0,-0.86,0.32,-0.03,9.3,8.6,-5.6,36.23,,,,,,,,,,
13.47.05.112,438.8,109.7,0,,,17543.9,57.0,-0.87,1.08,0.24,5.4,4.1,-1.7,36.3,,,,,,,,,,
13.47.05.124,396.5,99.1,0,,,17543.9,57.0,-0.77,1.32,-0.06,3.8,33.4,-6.7,36.28,,,,,,,,,,
13.47.05.132,371.5,92.9,0,,,17543.9,57.0,-0.9,0.49,0.74,-3.8,13.6,-5.6,36.44,,,,,,,,,,
13.47.05.143,280.2,70.0,0,,,17543.9,57.0,-0.67,0.51,0.27,17.6,10.3,-28.1,36.5,,,,,,,,,,
13.47.05.152,155.5,38.9,1,14.0,154.6,17543.9,57.0,-0.26,0.45,0.38,-9.9,12.9,-18.9,36.64,,,,,,,,,,
13.47.05.161,106.9,26.7,0,,,17543.9,57.0,-0.98,0.18,0.17,-12.4,-18.8,15.6,36.39,,,,,,,,,,
13.47.05.171,43.7,10.9,0,,,17543.9,57.0,-0.54,0.56,-0.29,31.5,-1.8,13.6,36.31,,,,,,,,,,
13.47.05.182,100.9,25.2,0,,,17543.9,57.0,-0.8,0.55,0.17,-18.1,-1.7,-6.5,36.07,,,,,,,,,,
13.47.05.193,-38.8,9.7,0,,,17543.9,57.0,-0.34,0.44,0.96,-7.0,19.2,-3.8,36.29,,,,,,,,,,
13.47.05.205,108.7,27.2,0,,,17546.9,56.99,-0.58,0.72,0.71,13.8,-9.1,-7.7,36.54,,,,,,,,,,
13.47.05.215,93.2,23.3,0,,,17546.9,56.99,-0.07,0.67,0.56,24.8,-4.2,7.7,36.3,,,,,,,,,,
13.47.05.226,141.6,35.4,0,,,17546.9,56.99,-0.48,0.49,0.41,20.4,-9.8,-3.0,36.23,,,,,,,,,,
13.47.05.233,58.4,14.6,0,,,17546.9,56.99,-0.3,0.4,1.16,-4.0,11.5,-10.8,36.4,,,,,,,,,,
13.47.05.243,133.9,33.5,0,,,17546.9,56.99,-0.21,1.12,1.94,16.6,-1.5,-4.1,36.28,,,,,,,,,,
13.47.05.253,8.9,2.2,0,,,17546.9,56.99,-0.4,0.17,0.6,-10.9,22.2,-9.2,36.44,,,,,,,,,,
13.47.05.263,-14.3,3.6,0,,,17546.9,56.99,-0.25,0.76,0.06,-19.7,-5.8,-3.5,36.27,,,,,,,,,,
13.47.05.274,-37.5,9.4,0,,,17546.9,56.99,-0.38,0.35,1.8,6.7,22.1,1.8,36.28,,,,,,,,,,
13.47.05.281,-73.3,18.3,0,,,17546.9,56.99,-0.67,0.36,1.07,-5.1,21.7,-22.5,36.33,,,,,,,,,,
13.47.05.291,37.9,9.5,0,,,17546.9,56.99,-0.69,0.22,0.68,-0.3,7.6,5.4,36.38,,,,,,,,,,
13.47.05.301,-7.2,1.8,0,,,17546.9,56.99,-0.29,-0.39,1.23,-8.3,9.7,3.1,36.3,,,,,,,,,,
13.47.05.311,1.1,0.3,0,,,17546.9,56.99,-0.65,0.12,1.04,-2.2,16.6,-7.1,36.4,,,,,,,,,,
13.47.05.321,-64.9,16.2,0,,,17546.9,56.99,0.04,0.01,0.7,11.2,-0.6,-12.5,36.41,,,,,,,,,,
13.47.05.329,-50.9,12.7,0,,,17546.9,56.99,-0.6,-0.18,0.78,-0.2,19.5,-7.8,36.53,,,,,,,,,,
13.47.05.340,-74.7,18.7,0,,,17546.9,56.99,-0.32,0.01,0.28,1.7,10.8,13.5,36.58,,,,,,,,,,
13.47.05.351,-115.0,28.8,0,,,17546.9,56.99,-0.07,0.39,0.61,20.0,19.1,22.7,36.36,,,,,,,,,,
13.47.05.361,-89.2,22.3,0,,,17546.9,56.99,-0.74,-0.2,0.17,-4.5,28.3,-11.6,36.48,,,,,,,,,,
13.47.05.372,-101.6,25.4,0,,,17546.9,56.99,-0.94,0.62,0.47,-23.9,-9.9,18.2,36.26,,,,,,,,,,
13.47.05.380,-111.1,27.8,0,,,17546.9,56.99,-0.69,0.15,0.67,11.5,4.9,-11.1,36.2,,,,,,,,,,
13.47.05.390,-158.3,39.6,0,,,17550.0,56.98,-0.74,0.45,-0.44,-27.2,4.4,-4.2,36.2,,,,,,,,,,
13.47.05.400,-173.4,43.4,0,,,17550.0,56.98,-0.31,-0.14,0.69,-18.1,6.9,2.7,36.34,,,,,,,,,,
13.47.05.410,-160.3,40.1,0,,,17550.0,56.98,-0.49,0.43,0.16,-6.8,24.3,-17.0,36.45,,,,,,,,,,
13.47.05.418,-127.6,31.9,0,,,17550.0,56.98,-0.91,0.16,0.83,13.1,-17.8,-10.6,36.67,,,,,,,,,,
13.47.05.426,-179.6,44.9,0,,,17550.0,56.98,-0.84,0.62,0.18,3.4,18.8,15.3,36.28,,,,,,,,,,
13.47.05.436,-237.1,59.3,0,,,17550.0,56.98,-0.72,0.9,-0.24,-8.0,-9.1,0.6,36.23,,,,,,,,,,
13.47.05.445,-118.5,29.6,0,,,17550.0,56.98,-0.48,0.22,0.15,-13.4,-2.3,5.1,36.46,,,,,,,,,,
13.47.05.455,-176.0,44.0,0,,,17550.0,56.98,-0.71,0.9,-0.63,13.8,-20.3,1.5,36.25,,,,,,,,,,
13.47.05.463,-136.2,34.0,0,,,17550.0,56.98,-0.35,0.52,0.84,-3.1,7.2,7.4,36.51,,,,,,,,,,
13.47.05.474,67.4,16.8,0,,,17550.0,56.98,-1.11,0.7,-0.03,21.7,9.8,0.1,36.17,,,,,,,,,,
13.47.05.484,150.9,37.7,0,,,17550.0,56.98,-0.88,1.01,-0.17,13.9,14.7,-2.7,36.33,,,,,,,,,,
13.47.05.494,260.1,65.0,0,,,17550.0,56.98,-0.64,0.85,-0.65,38.2,15.1,-23.1,36.3,,,,,,,,,,
13.47.05.504,366.4,91.6,0,,,17550.0,56.98,-0.56,0.74,-0.18,8.4,-11.2,-9.5,36.4,,,,,,,,,,
13.47.05.514,442.1,110.5,0,,,17550.0,56.98,-0.57,0.78,-0.29,15.2,-2.1,-8.4,36.13,,,,,,,,,,
13.47.05.525,461.0,115.2,0,,,17550.0,56.98,-0.56,0.83,0.21,3.2,-3.4,-6.3,36.54,,,,,,,,,,
13.47.05.534,533.4,133.4,1,15.0,157.1,17550.0,56.98,-0.46,0.5,0.69,-5.7,8.5,4.2,36.22,,,,,,,,,,
13.47.05.546,478.7,119.7,0,,,17550.0,56.98,-0.14,0.53,0.53,17.1,11.7,0.2,36.41,,,,,,,,,,
13.47.05.556,386.6,96.6,0,,,17550.0,56.98,-0.57,0.82,0.24,-5.5,10.4,-3.3,36.44,,,,,,,,,,
13.47.05.565,488.9,122.2,0,,,17550.0,56.98,-0.63,0.33,0.91,4.4,8.1,-14.8,36.28,,,,,,,,,,
13.47.05.575,324.9,81.2,0,,,17553.1,56.97,-0.23,0.5,0.48,16.9,-10.1,-8.5,36.3,,,,,,,,,,
13.47.05.584,345.6,86.4,0,,,17553.1,56.97,-0.16,0.37,1.57,1.7,16.0,20.8,36.37,,,,,,,,,,
13.47.05.593,210.9,52.7,0,,,17553.1,56.97,-0.17,0.2,0.22,3.6,23.9,1.4,36.34,,,,,,,,,,
13.47.05.604,162.4,40.6,0,,,17553.1,56.97,-0.29,0.72,1.11,-29.9,15.4,-22.9,36.3,,,,,,,,,,
13.47.05.613,73.5,18.4,0,,,17553.1,56.97,-0.45,0.28,0.87,-13.3,13.2,1.3,36.31,,,,,,,,,,
13.47.05.623,55.6,13.9,0,,,17553.1,56.97,-0.42,0.05,0.66,8.4,26.1,12.9,36.28,,,,,,,,,,
13.47.05.633,12.1,3.0,0,,,17553.1,56.97,-0.02,0.08,0.52,-5.1,14.6,3.8,36.43,,,,,,,,,,
13.47.05.642,35.5,8.9,0,,,17553.1,56.97,-0.61,0.52,0.45,2.3,9.4,14.2,36.5,,,,,,,,,,
13.47.05.652,55.2,13.8,0,,,17553.1,56.97,-0.52,0.05,0.23,-7.4,18.9,-24.9,36.23,,,,,,,,,,
13.47.05.662,78.9,19.7,0,,,17553.1,56.97,-0.54,-0.01,0.35,-3.3,-0.1,9.6,36.27,,,,,,,,,,
13.47.05.672,24.6,6.2,0,,,17553.1,56.97,-0.47,0.4,0.45,8.5,-3.2,-11.1,36.2,,,,,,,,,,
13.47.05.682,75.9,19.0,0,,,17553.1,56.97,-0.7,-0.01,0.5,14.8,13.7,13.5,36.29,,,,,,,,,,
13.47.05.691,33.1,8.3,0,,,17553.1,56.97,-0.59,0.18,0.55,4.0,-7.9,20.5,36.38,,,,,,,,,,
13.47.05.701,67.3,16.8,0,,,17553.1,56.97,-0.91,-0.01,0.48,-1.3,25.5,-20.8,36.3,,,,,,,,,,
13.47.05.711,-72.1,18.0,0,,,17553.1,56.97,-0.29,0.01,-0.12,13.5,13.0,-18.9,36.23,,,,,,,,,,
13.47.05.720,-18.2,4.6,0,,,17553.1,56.97,-0.84,0.8,-0.27,-20.9,-3.2,2.6,36.4,,,,,,,,,,
13.47.05.730,-16.3,4.1,0,,,17553.1,56.97,-0.84,-0.23,0.16,22.8,4.4,-1.0,36.35,,,,,,,,,,
13.47.05.741,-8.8,2.2,0,,,17553.1,56.97,-0.96,0.34,-0.29,1.6,-6.8,-13.9,36.48,,,,,,,,,,
13.47.05.751,-34.4,8.6,0,,,17556.2,56.96,-0.96,0.72,0.65,5.4,5.6,-0.7,36.26,,,,,,,,,,
13.47.05.760,-56.8,14.2,0,,,17556.2,56.96,-0.77,0.18,-0.82,-14.5,14.1,8.7,36.53,,,,,,,,,,
13.47.05.769,14.6,3.6,0,,,17556.2,56.96,-1.06,0.41,0.71,-10.8,3.7,4.8,36.22,,,,,,,,,,
13.47.05.781,-37.3,9.3,0,,,17556.2,56.96,-0.19,0.39,0.16,-17.2,2.3,-1.9,36.44,,,,,,,,,,
13.47.05.791,-42.4,10.6,0,,,17556.2,56.96,-0.68,0.54,0.4,4.0,8.5,9.4,36.55,,,,,,,,,,
13.47.05.800,-77.8,19.4,0,,,17556.2,56.96,-0.66,0.17,0.44,6.0,10.2,2.2,36.35,,,,,,,,,,
13.47.05.809,-136.1,34.0,0,,,17556.2,56.96,-0.74,0.01,-0.13,-2.2,14.0,6.3,36.24,,,,,,,,,,
13.47.05.818,-93.4,23.4,0,,,17556.2,56.96,-0.63,0.64,0.26,-6.5,19.7,14.8,36.16,,,,,,,,,,
13.47.05.828,-94.1,23.5,0,,,17556.2,56.96,-0.86,0.25,0.47,12.3,14.3,-7.4,36.32,,,,,,,,,,
13.47.05.838,-45.3,11.3,0,,,17556.2,56.96,-0.77,1.31,-0.12,-32.9,14.1,-5.2,36.39,,,,,,,,,,
13.47.05.849,-138.8,34.7,0,,,17556.2,56.96,-0.58,1.14,0.39,13.2,32.1,11.7,36.47,,,,,,,,,,
13.47.05.860,-122.6,30.6,0,,,17556.2,56.96,-0.17,0.62,-0.07,-34.5,16.6,-2.2,36.37,,,,,,,,,,
13.47.05.870,-114.9,28.7,0,,,17556.2,56.96,-0.37,0.81,0.06,-11.3,20.0,3.2,36.41,,,,,,,,,,
13.47.05.881,-102.0,25.5,1,16.0,172.9,17556.2,56.96,-0.45,1.22,0.77,-8.2,12.3,4.3,36.45,,,,,,,,,,
13.47.05.891,-167.4,41.8,0,,,17556.2,56.96,-0.52,0.77,-0.34,49.4,-16.1,-11.5,36.38,,,,,,,,,,
13.47.05.901,-204.8,51.2,0,,,17556.2,56.96,-0.66,0.42,0.77,-0.1,14.1,-10.0,36.25,,,,,,,,,,
13.47.05.911,-224.1,56.0,0,,,17556.2,56.96,-0.36,0.1,0.21,-33.8,-11.3,-6.8,36.34,,,,,,,,,,
13.47.05.920,-19.4,4.8,0,,,17556.2,56.96,0.02,0.58,0.43,-3.0,-12.4,-19.9,36.09,,,,,,,,,,
13.47.05.929,117.0,29.2,0,,,17556.2,56.96,-0.4,1.43,0.81,26.3,8.1,-1.4,36.42,,,,,,,,,,
13.47.05.940,275.7,68.9,0,,,17559.3,56.95,0.13,0.18,1.45,19.8,-1.0,-0.0,36.28,,,,,,,,,,
13.47.05.950,325.3,81.3,0,,,17559.3,56.95,-0.38,0.4,0.26,0.3,7.6,17.2,36.37,,,,,,,,,,
13.47.05.959,346.4,86.6,0,,,17559.3,56.95,-0.62,0.48,1.45,25.2,-7.2,4.2,36.07,,,,,,,,,,
13.47.05.969,486.5,121.6,0,,,17559.3,56.95,0.28,0.49,0.73,22.5,20.9,19.0,36.3,,,,,,,,,,
13.47.05.979,437.8,109.4,0,,,17559.3,56.95,-0.11,0.34,0.34,18.0,15.8,-8.9,36.33,,,,,,,,,,
13.47.05.988,565.4,141.4,0,,,17559.3,56.95,-0.23,-0.02,0.42,6.4,28.3,-5.7,36.43,,,,,,,,,,
13.47.05.999,592.4,148.1,0,,,17559.3,56.95,-0.52,-0.52,0.03,6.7,22.6,-15.6,36.37,,,,,,,,,,
13.47.06.011,485.4,121.4,0,,,17559.3,56.95,-0.53,0.29,0.08,0.2,-0.2,20.5,36.29,,,,,,,,,,
13.47.06.021,429.9,107.5,0,,,17559.3,56.95,-0.47,-0.55,0.64,24.5,7.9,8.3,36.3,,,,,,,,,,
13.47.06.031,374.2,93.6,0,,,17559.3,56.95,-0.28,0.16,-0.18,4.6,3.1,2.7,36.35,,,,,,,,,,
13.47.06.039,300.2,75.0,0,,,17562.3,56.94,-0.57,0.09,0.42,-18.9,9.6,-3.4,36.23,,,,,,,,,,
13.47.06.049,187.6,46.9,0,,,17562.3,56.94,-0.19,0.14,0.32,16.0,14.2,7.2,36.3,,,,,,,,,,
13.47.06.060,168.6,42.2,0,,,17562.3,56.94,-0.35,-0.3,0.54,8.5,-4.9,12.7,36.31,,,,,,,,,,
13.47.06.070,-3.7,0.9,0,,,17562.3,56.94,-0.52,-0.13,0.26,-31.2,-4.9,1.9,36.3,,,,,,,,,,
13.47.06.081,19.2,4.8,0,,,17562.3,56.94,-0.61,0.44,-0.22,20.4,5.9,10.7,36.32,,,,,,,,,,
13.47.06.088,63.3,15.8,0,,,17562.3,56.94,-0.62,0.33,0.1,4.4,-15.9,8.1,36.29,,,,,,,,,,
13.47.06.099,68.8,17.2,0,,,17565.4,56.93,-0.74,-0.5,0.71,19.5,4.1,-5.5,36.29,,,,,,,,,,
13.47.06.109,45.8,11.4,0,,,17565.4,56.93,-0.61,0.22,0.19,-21.3,10.9,-4.3,36.37,,,,,,,,,,
13.47.06.120,105.6,26.4,0,,,17565.4,56.93,-1.22,0.11,-0.34,7.0,-12.8,4.7,36.28,,,,,,,,,,
13.47.06.130,66.4,16.6,0,,,17565.4,56.93,-1.01,0.31,-0.0,0.5,20.5,0.3,36.02,,,,,,,,,,
13.47.06.139,20.0,5.0,0,,,17565.4,56.93,-0.83,0.09,-0.38,-21.4,17.4,1.8,36.68,,,,,,,,,,
13.47.06.150,4.4,1.1,0,,,17568.5,56.92,-1.02,0.8,-0.68,17.2,-9.2,21.2,36.5,,,,,,,,,,
13.47.06.157,54.8,13.7,0,,,17568.5,56.92,-0.78,0.82,-0.48,11.7,-16.9,-4.4,36.17,,,,,,,,,,
13.47.06.167,29.8,7.4,0,,,17568.5,56.92,-0.8,0.45,0.38,-7.1,-13.1,13.6,36.35,,,,,,,,,,
13.47.06.177,3.2,0.8,0,,,17568.5,56.92,-0.7,0.75,-0.42,-50.1,9.9,-0.4,36.35,,,,,,,,,,
13.47.06.186,33.4,8.4,0,,,17568.5,56.92,-0.58,0.44,0.35,1.1,23.3,-7.1,36.35,,,,,,,,,,
13.47.06.197,-29.6,7.4,0,,,17568.5,56.92,-0.52,0.53,0.0,-15.2,-11.1,17.4,36.25,,,,,,,,,,
13.47.06.207,-94.0,23.5,0,,,17571.6,56.91,-0.73,0.81,-0.21,25.6,-9.2,-5.1,36.4,,,,,,,,,,
13.47.06.217,-45.2,11.3,0,,,17571.6,56.91,-0.5,0.94,0.49,-15.3,7.8,17.6,36.51,,,,,,,,,,
13.47.06.227,,,0,,,,,,,,,,,,,,,,,,,,,
13.47.06.236,-79.3,19.8,0,,,17571.6,56.91,-0.37,0.67,0.39,-16.1,19.9,-3.4,36.32,,,,,,,,,,
13.47.06.246,-82.3,20.6,0,,,17571.6,56.91,-0.26,1.37,1.19,34.9,3.6,15.6,36.34,,,,,,,,,,
13.47.06.255,-96.3,24.1,0,,,17571.6,56.91,-0.4,0.47,-0.25,4.9,-3.4,13.3,36.28,,,,,,,,,,
13.47.06.264,-47.4,11.8,0,,,17574.7,56.9,-0.55,0.55,0.64,-23.1,-6.3,-2.5,36.42,,,,,,,,,,
13.47.06.273,-119.9,30.0,0,,,17574.7,56.9,-0.71,0.82,1.14,16.9,20.0,18.9,36.2,,,,,,,,,,
13.47.06.282,-108.5,27.1,1,17.0,149.6,17574.7,56.9,-0.57,0.84,0.2,13.9,10.8,-11.5,36.28,,,,,,,,,,
13.47.06.292,-131.4,32.8,0,,,17574.7,56.9,-0.43,0.44,0.33,7.5,11.4,8.5,36.14,,,,,,,,,,
13.47.06.300,-92.7,23.2,0,,,17574.7,56.9,-0.5,0.63,0.15,22.5,4.0,3.4,36.23,,,,,,,,,,
13.47.06.310,-162.7,40.7,0,,,17574.7,56.9,-0.22,0.45,0.85,6.3,20.0,-17.9,36.29,,,,,,,,,,
13.47.06.319,-173.0,43.2,0,,,17574.7,56.9,-0.28,0.52,0.46,-18.5,-24.3,4.0,36.28,,,,,,,,,,
13.47.06.329,-154.5,38.6,0,,,17577.8,56.89,-0.66,0.17,0.51,17.7,-6.9,-18.9,36.26,,,,,,,,,,
13.47.06.339,-197.1,49.3,0,,,17577.8,56.89,-0.15,0.98,1.25,23.8,16.7,-0.8,36.4,,,,,,,,,,
13.47.06.350,-164.0,41.0,0,,,17577.8,56.89,-0.34,0.29,0.74,17.1,-4.4,-11.1,36.1,,,,,,,,,,
13.47.06.360,-210.4,52.6,0,,,17577.8,56.89,-0.58,0.05,0.25,-15.3,-10.7,-10.9,36.43,,,,,,,,,,
13.47.06.370,38.2,9.6,0,,,17577.8,56.89,-0.18,1.11,-0.2,0.6,6.8,3.8,36.25,,,,,,,,,,
13.47.06.379,188.7,47.2,0,,,17580.9,56.88,-0.7,0.35,0.63,3.8,5.6,-5.1,36.43,,,,,,,,,,
13.47.06.388,247.9,62.0,0,,,17580.9,56.88,-0.03,0.01,0.94,11.1,9.9,6.8,36.17,,,,,,,,,,
13.47.06.398,292.0,73.0,0,,,17580.9,56.88,-0.53,-0.08,0.14,11.6,1.8,-3.4,36.28,,,,,,,,,,
13.47.06.409,425.4,106.4,0,,,17580.9,56.88,-0.64,0.36,0.56,-17.5,12.9,4.3,36.48,,,,,,,,,,
13.47.06.419,433.8,108.4,0,,,17580.9,56.88,-0.46,-0.3,-0.34,18.9,-5.8,14.4,36.53,,,,,,,,,,
13.47.06.430,531.7,132.9,0,,,17580.9,56.88,-1.04,-0.26,0.35,-9.3,36.0,9.7,36.09,,,,,,,,,,
13.47.06.440,469.2,117.3,0,,,17584.0,56.87,-0.76,0.13,-0.66,-21.4,5.6,-16.3,36.3,,,,,,,,,,
13.47.06.449,446.5,111.6,0,,,17584.0,56.87,-1.06,0.25,0.71,-7.3,13.2,-15.6,36.5,,,,,,,,,,
13.47.06.458,473.4,118.4,0,,,17584.0,56.87,-0.89,0.2,0.7,-3.2,12.7,6.6,36.48,,,,,,,,,,
13.47.06.468,445.3,111.3,0,,,17584.0,56.87,-0.92,-0.16,-0.15,-2.6,19.6,-25.0,36.29,,,,,,,,,,
13.47.06.476,449.8,112.4,0,,,17584.0,56.87,-0.71,-0.05,0.94,-23.4,3.4,28.1,36.42,,,,,,,,,,
13.47.06.485,348.8,87.2,0,,,17584.0,56.87,-0.7,0.9,-0.08,-12.0,3.4,2.2,36.35,,,,,,,,,,
13.47.06.496,259.5,64.9,0,,,17587.1,56.86,-0.4,0.31,-0.64,0.2,34.8,-0.9,36.35,,,,,,,,,,
13.47.06.506,100.1,25.0,0,,,17587.1,56.86,-0.96,1.0,0.26,8.9,-12.0,-7.2,36.43,,,,,,,,,,
13.47.06.518,-3.5,0.9,0,,,17587.1,56.86,-0.76,-0.25,0.25,-3.6,2.2,23.1,36.45,,,,,,,,,,
13.47.06.528,30.6,7.6,0,,,17587.1,56.86,-0.05,0.58,-0.39,9.1,-6.4,-1.2,36.24,,,,,,,,,,
13.47.06.539,65.1,16.3,0,,,17587.1,56.86,-0.56,0.23,0.24,14.9,1.8,1.0,36.38,,,,,,,,,,
13.47.06.547,-12.8,3.2,0,,,17587.1,56.86,-0.29,0.27,0.5,-10.1,21.6,0.6,36.3,,,,,,,,,,
13.47.06.556,132.8,33.2,0,,,17590.1,56.85,-0.93,1.18,0.07,18.6,2.0,-4.6,36.46,,,,,,,,,,
13.47.06.566,69.6,17.4,0,,,17590.1,56.85,-0.35,0.35,0.66,-1.1,25.3,9.6,36.53,,,,,,,,,,
13.47.06.573,62.3,15.6,0,,,17590.1,56.85,-0.34,0.78,0.58,15.5,6.5,1.2,36.36,,,,,,,,,,
13.47.06.584,66.0,16.5,0,,,17590.1,56.85,-0.26,0.07,-0.23,-28.9,11.1,4.4,36.51,,,,,,,,,,
13.47.06.594,28.1,7.0,0,,,17590.1,56.85,-0.32,1.02,0.2,-5.5,6.4,-24.6,36.45,,,,,,,,,,
13.47.06.602,39.4,9.8,1,18.0,187.5,17590.1,56.85,-0.27,0.81,0.75,11.5,9.7,-17.4,36.07,,,,,,,,,,
13.47.06.613,-31.8,8.0,0,,,17593.2,56.84,-0.56,0.45,0.59,29.2,2.6,-8.4,36.39,,,,,,,,,,
13.47.06.622,-73.5,18.4,0,,,17593.2,56.84,-0.47,0.43,1.16,-5.9,-9.0,0.8,36.21,,,,,,,,,,
13.47.06.632,3.2,0.8,0,,,17593.2,56.84,-0.63,1.11,0.0,-11.7,-13.3,2.0,36.17,,,,,,,,,,
13.47.06.644,19.3,4.8,0,,,17593.2,56.84,-0.43,0.49,0.87,-41.2,2.7,-10.0,36.36,,,,,,,,,,
13.47.06.655,-34.2,8.6,0,,,17593.2,56.84,-0.07,0.05,0.63,-6.7,0.5,8.3,36.25,,,,,,,,,,
13.47.06.666,-25.3,6.3,0,,,17596.3,56.83,0.04,-0.21,0.24,-24.3,2.7,-5.5,36.37,,,,,,,,,,
13.47.06.677,-74.2,18.6,0,,,17596.3,56.83,-0.1,-0.39,0.39,7.1,-8.1,-5.5,36.37,,,,,,,,,,
13.47.06.687,-76.2,19.0,0,,,17596.3,56.83,-0.18,0.87,-0.13,6.2,2.8,8.0,36.27,,,,,,,,,,
13.47.06.695,-72.9,18.2,0,,,17596.3,56.83,-0.29,0.21,0.03,23.3,1.9,-7.0,36.26,,,,,,,,,,
13.47.06.706,-172.0,43.0,0,,,17596.3,56.83,-0.46,-0.2,1.01,-19.3,-7.1,-10.1,36.21,,,,,,,,,,
13.47.06.715,-108.2,27.0,0,,,17596.3,56.83,-0.48,-0.04,0.62,-16.7,-7.9,1.2,36.41,,,,,,,,,,
13.47.06.725,-105.4,26.4,0,,,17599.4,56.82,-0.3,-0.29,1.01,-2.2,-4.8,10.6,36.4,,,,,,,,,,
13.47.06.732,-200.3,50.1,0,,,17599.4,56.82,-0.62,-0.6,0.51,-6.7,-17.0,-6.6,36.17,,,,,,,,,,
13.47.06.740,-137.7,34.4,0,,,17599.4,56.82,-0.43,0.59,0.5,-8.5,8.8,4.7,36.35,,,,,,,,,,
13.47.06.748,-117.2,29.3,0,,,17599.4,56.82,-0.2,0.12,0.02,-15.8,19.6,-15.6,36.32,,,,,,,,,,
13.47.06.758,-200.4,50.1,0,,,17599.4,56.82,-0.74,-0.02,0.01,-5.4,19.4,2.6,36.26,,,,,,,,,,
13.47.06.767,-159.0,39.8,0,,,17599.4,56.82,-0.71,0.18,0.09,13.6,1.5,0.8,36.25,,,,,,,,,,
13.47.06.776,-178.0,44.5,0,,,17602.5,56.81,-0.21,0.13,0.19,10.0,4.7,24.1,36.3,,,,,,,,,,
13.47.06.786,-208.4,52.1,0,,,17602.5,56.81,-0.87,0.29,-1.13,-3.3,26.6,-0.1,36.34,,,,,,,,,,
13.47.06.794,-202.0,50.5,0,,,17602.5,56.81,-0.65,0.13,-0.65,13.7,8.5,7.2,36.33,,,,,,,,,,
13.47.06.804,-151.8,38.0,0,,,17602.5,56.81,-0.63,-0.34,-0.45,12.4,20.9,-2.3,36.44,,,,,,,,,,
13.47.06.813,24.9,6.2,0,,,17602.5,56.81,-0.73,0.58,-0.41,-5.0,4.1,2.7,36.3,,,,,,,,,,
13.47.06.822,105.4,26.4,0,,,17602.5,56.81,-0.62,0.57,0.16,9.5,13.8,-6.8,36.38,,,,,,,,,,
13.47.06.833,232.4,58.1,0,,,17605.6,56.8,-0.88,0.86,-0.59,1.2,-1.1,-3.3,36.27,,,,,,,,,,
13.47.06.839,286.8,71.7,0,,,17605.6,56.8,-0.78,0.33,0.4,-24.5,-9.5,-6.1,36.32,,,,,,,,,,
13.47.06.849,333.3,83.3,0,,,17605.6,56.8,-0.88,0.81,0.87,20.2,2.5,-12.8,36.49,,,,,,,,,,
13.47.06.859,425.8,106.4,0,,,17605.6,56.8,-0.97,0.56,0.6,11.9,-8.4,1.2,36.16,,,,,,,,,,
13.47.06.871,507.6,126.9,0,,,17605.6,56.8,-0.71,0.5,1.06,12.1,-4.4,18.7,36.39,,,,,,,,,,
13.47.06.882,519.7,129.9,0,,,17605.6,56.8,-0.64,0.71,0.18,-20.6,11.7,-0.8,36.45,,,,,,,,,,
13.47.06.892,502.5,125.6,0,,,17608.7,56.79,-0.98,0.79,-0.08,28.7,-4.4,4.7,36.22,,,,,,,,,,
13.47.06.903,465.1,116.3,0,,,17608.7,56.79,-0.7,0.68,-0.45,17.7,0.2,1.4,36.56,,,,,,,,,,
13.47.06.914,393.3,98.3,0,,,17608.7,56.79,-0.24,0.91,-0.21,5.0,5.2,4.0,36.29,,,,,,,,,,
13.47.06.925,359.7,89.9,0,,,17608.7,56.79,-0.3,0.89,1.56,10.1,-6.5,19.9,36.29,,,,,,,,,,
13.47.06.935,226.7,56.7,0,,,17608.7,56.79,-0.43,1.22,-0.14,-30.7,4.1,4.8,36.45,,,,,,,,,,
13.47.06.946,234.7,58.7,0,,,17611.8,56.78,-0.62,0.44,0.19,-6.9,3.7,19.4,36.46,,,,,,,,,,
13.47.06.954,181.3,45.3,0,,,17611.8,56.78,-0.18,1.25,0.58,6.6,7.3,-10.2,36.26,,,,,,,,,,
13.47.06.964,0.9,0.2,0,,,17611.8,56.78,-0.53,0.62,0.91,16.4,4.5,-6.9,36.44,,,,,,,,,,
13.47.06.973,14.7,3.7,0,,,17611.8,56.78,0.14,0.56,-0.59,-14.6,20.7,6.1,36.22,,,,,,,,,,
13.47.06.983,-8.1,2.0,0,,,17611.8,56.78,-0.08,0.47,1.33,-7.3,11.3,-6.4,36.33,,,,,,,,,,
13.47.06.994,47.1,11.8,0,,,17611.8,56.78,-0.31,0.39,1.27,6.8,-2.3,-5.1,36.38,,,,,,,,,,
13.47.07.003,43.2,10.8,0,,,17611.8,56.78,-0.42,0.38,0.77,6.2,9.0,-16.5,36.18,,,,,,,,,,
13.47.07.012,112.5,28.1,1,19.0,146.3,17611.8,56.78,-0.3,0.66,-0.28,6.3,-6.6,-11.4,36.5,,,,,,,,,,
13.47.07.023,63.3,15.8,0,,,17611.8,56.78,0.01,0.25,0.54,-0.4,-7.1,-9.0,36.35,,,,,,,,,,
13.47.07.033,74.3,18.6,0,,,17611.8,56.78,-0.29,0.69,1.22,-10.4,0.3,-4.1,36.44,,,,,,,,,,
13.47.07.041,25.9,6.5,0,,,17611.8,56.78,-0.21,0.41,1.01,20.8,6.4,-1.3,36.37,,,,,,,,,,
13.47.07.052,20.9,5.2,0,,,17611.8,56.78,-0.25,-0.21,0.18,-2.0,-8.3,17.5,36.16,,,,,,,,,,
13.47.07.062,-47.0,11.8,0,,,17611.8,56.78,-0.12,-0.23,0.33,13.2,5.4,-22.8,36.62,,,,,,,,,,
13.47.07.073,-60.6,15.2,0,,,17611.8,56.78,-0.69,-0.63,0.91,-0.2,-8.1,-3.1,36.3,,,,,,,,,,
13.47.07.082,-37.8,9.4,0,,,17611.8,56.78,-0.99,0.21,0.61,5.3,-0.4,9.8,36.28,,,,,,,,,,
13.47.07.092,-30.1,7.5,0,,,17611.8,56.78,-0.48,0.5,0.02,1.4,30.6,6.8,36.32,,,,,,,,,,
13.47.07.102,-9.1,2.3,0,,,17611.8,56.78,-0.66,0.28,0.47,5.9,8.4,17.6,36.49,,,,,,,,,,
13.47.07.111,-99.0,24.8,0,,,17608.7,56.79,-0.41,0.2,-0.29,3.2,5.1,7.2,36.36,,,,,,,,,,
13.47.07.121,-123.3,30.8,0,,,17608.7,56.79,-0.84,-0.19,-0.06,-17.2,1.4,10.5,36.65,,,,,,,,,,
13.47.07.131,-117.3,29.3,0,,,17608.7,56.79,-0.69,0.31,0.51,-21.9,-7.8,-6.4,36.51,,,,,,,,,,
13.47.07.141,-69.9,17.5,0,,,17608.7,56.79,-0.87,0.59,-0.44,-19.4,-14.4,2.9,36.13,,,,,,,,,,
13.47.07.152,-106.1,26.5,0,,,17608.7,56.79,-0.71,-0.21,-0.13,-14.3,7.3,0.4,36.11,,,,,,,,,,
13.47.07.163,-124.1,31.0,0,,,17608.7,56.79,-0.79,0.32,0.78,21.7,-6.5,-6.7,36.31,,,,,,,,,,
13.47.07.172,-118.1,29.5,0,,,17608.7,56.79,-0.72,1.1,0.23,-7.2,17.1,-3.0,36.43,,,,,,,,,,
13.47.07.181,-100.5,25.1,0,,,17608.7,56.79,-0.51,0.97,-0.19,-13.8,14.5,12.7,36.36,,,,,,,,,,
13.47.07.191,-130.6,32.6,0,,,17608.7,56.79,-0.72,0.05,0.16,-4.3,15.9,20.8,36.12,,,,,,,,,,
13.47.07.199,-89.3,22.3,0,,,17608.7,56.79,-0.69,0.88,-0.28,27.1,-7.2,6.4,36.38,,,,,,,,,,
13.47.07.210,-175.9,44.0,0,,,17608.7,56.79,-0.65,0.58,-0.01,-0.6,16.6,3.0,36.41,,,,,,,,,,
13.47.07.218,-158.7,39.7,0,,,17605.6,56.8,-0.38,0.9,-0.38,-20.5,3.5,-4.1,36.09,,,,,,,,,,
13.47.07.228,-177.0,44.2,0,,,17605.6,56.8,-0.4,0.33,-0.13,-34.4,1.6,6.4,36.31,,,,,,,,,,
13.47.07.238,-183.4,45.8,0,,,17605.6,56.8,-0.51,1.21,0.76,8.7,15.5,3.4,36.24,,,,,,,,,,
13.47.07.250,-238.2,59.6,0,,,17605.6,56.8,-0.88,1.18,0.6,18.4,20.2,-0.6,36.19,,,,,,,,,,
13.47.07.260,-9.1,2.3,0,,,17605.6,56.8,-0.8,1.04,-0.14,-0.4,4.8,4.3,36.62,,,,,,,,,,
13.47.07.269,139.3,34.8,0,,,17605.6,56.8,-0.14,0.41,0.55,-3.4,-3.6,-6.4,36.34,,,,,,,,,,
13.47.07.279,199.3,49.8,0,,,17605.6,56.8,-0.6,0.58,0.59,8.5,-4.7,14.4,36.33,,,,,,,,,,
13.47.07.289,328.2,82.0,0,,,17605.6,56.8,-0.65,0.89,1.14,-10.7,-3.0,4.7,36.14,,,,,,,,,,
13.47.07.298,368.4,92.1,0,,,17605.6,56.8,-0.29,0.01,0.37,29.1,14.4,2.9,36.36,,,,,,,,,,
13.47.07.307,433.5,108.4,0,,,17605.6,56.8,-0.11,0.83,0.95,7.4,-10.2,-7.4,36.43,,,,,,,,,,
13.47.07.318,425.1,106.3,0,,,17605.6,56.8,-0.43,0.57,1.55,-7.8,18.2,-6.4,35.92,,,,,,,,,,
13.47.07.328,547.0,136.8,0,,,17602.5,56.81,-0.12,0.58,1.11,21.9,-5.3,4.1,36.24,,,,,,,,,,
13.47.07.338,447.4,111.8,0,,,17602.5,56.81,-0.71,0.23,0.74,-3.7,-9.3,11.4,36.47,,,,,,,,,,
13.47.07.346,432.8,108.2,0,,,17602.5,56.81,-0.22,0.68,1.02,-18.0,8.2,-0.2,36.23,,,,,,,,,,
13.47.07.357,414.8,103.7,0,,,17602.5,56.81,-0.27,-0.01,1.05,22.1,-2.7,3.9,36.51,,,,,,,,,,
13.47.07.367,422.4,105.6,0,,,17602.5,56.81,-0.53,0.07,0.6,12.0,-4.4,-4.1,36.44,,,,,,,,,,
13.47.07.378,307.1,76.8,1,20.0,163.9,17602.5,56.81,0.15,0.45,0.75,-21.1,13.4,9.0,36.41,,,,,,,,,,
13.47.07.386,276.3,69.1,0,,,17602.5,56.81,-0.33,0.23,0.44,0.4,25.0,-18.5,36.17,,,,,,,,,,
13.47.07.395,156.6,39.2,0,,,17602.5,56.81,-0.53,0.11,0.03,8.2,-0.3,1.1,36.36,,,,,,,,,,
13.47.07.405,36.0,9.0,0,,,17602.5,56.81,-0.3,-0.39,0.9,10.2,3.5,14.3,36.14,,,,,,,,,,
13.47.07.415,-0.1,0.0,0,,,17602.5,56.81,-0.06,0.06,0.28,-3.3,18.9,18.7,36.18,,,,,,,,,,
13.47.07.426,44.1,11.0,0,,,17602.5,56.81,-0.25,0.74,0.6,-1.6,0.1,-12.7,36.51,,,,,,,,,,
13.47.07.437,40.5,10.1,0,,,17599.4,56.82,-0.64,0.07,0.59,0.1,18.2,17.9,36.28,,,,,,,,,,
13.47.07.447,42.9,10.7,0,,,17599.4,56.82,-0.61,0.21,0.7,-2.4,-11.0,-6.8,36.35,,,,,,,,,,
13.47.07.457,113.1,28.3,0,,,17599.4,56.82,-0.92,-0.22,0.27,-14.1,-12.8,0.1,36.33,,,,,,,,,,
13.47.07.465,131.1,32.8,0,,,17599.4,56.82,-0.25,0.3,-0.18,13.9,16.7,2.3,36.58,,,,,,,,,,
13.47.07.475,125.0,31.2,0,,,17599.4,56.82,-0.89,0.3,-0.12,-4.6,24.4,-2.8,36.48,,,,,,,,,,
13.47.07.483,75.1,18.8,0,,,17599.4,56.82,-0.43,0.12,0.46,30.2,13.0,-16.2,36.37,,,,,,,,,,
13.47.07.494,6.1,1.5,0,,,17599.4,56.82,-0.78,0.18,0.1,5.2,-26.7,10.2,36.31,,,,,,,,,,
13.47.07.504,-51.4,12.8,0,,,17599.4,56.82,-1.46,0.3,-0.45,8.3,15.9,-3.4,36.4,,,,,,,,,,
13.47.07.515,-13.8,3.4,0,,,17599.4,56.82,-0.79,1.05,0.27,25.8,1.5,-7.1,36.39,,,,,,,,,,
13.47.07.526,-44.7,11.2,0,,,17599.4,56.82,-0.7,0.12,0.04,5.8,8.3,12.3,36.29,,,,,,,,,,
13.47.07.537,-90.5,22.6,0,,,17599.4,56.82,-0.67,0.17,-0.79,-15.9,-6.5,-21.0,36.27,,,,,,,,,,
13.47.07.547,-29.4,7.4,0,,,17596.3,56.83,-0.87,0.74,0.1,1.1,10.9,-0.6,36.33,,,,,,,,,,
13.47.07.555,-55.9,14.0,0,,,17596.3,56.83,-0.67,0.54,-0.28,14.4,-9.9,-11.3,36.33,,,,,,,,,,
13.47.07.566,-55.0,13.8,0,,,17596.3,56.83,-0.85,0.51,-0.06,-17.0,6.0,8.1,36.41,,,,,,,,,,
13.47.07.576,-91.7,22.9,0,,,17596.3,56.83,-1.03,0.03,0.44,-14.9,-1.5,-1.1,36.29,,,,,,,,,,
13.47.07.587,-41.3,10.3,0,,,17596.3,56.83,-0.36,0.24,0.55,-39.3,-29.3,9.1,36.08,,,,,,,,,,
13.47.07.596,-66.2,16.6,0,,,17596.3,56.83,-0.73,0.64,0.5,-26.7,3.3,4.1,36.47,,,,,,,,,,
13.47.07.604,-45.0,11.2,0,,,17596.3,56.83,-0.49,1.36,0.28,11.1,-0.8,15.1,36.6,,,,,,,,,,
13.47.07.614,-96.7,24.2,0,,,17596.3,56.83,-0.64,0.78,1.23,15.7,8.7,0.2,36.28,,,,,,,,,,
13.47.07.624,-69.5,17.4,0,,,17596.3,56.83,-0.81,0.65,-0.66,-1.0,-1.5,-11.2,36.3,,,,,,,,,,
13.47.07.635,-186.4,46.6,0,,,17596.3,56.83,-0.52,0.58,1.45,2.8,-13.4,-20.1,36.28,,,,,,,,,,
13.47.07.646,-134.8,33.7,0,,,17596.3,56.83,-0.13,0.41,0.97,17.0,8.2,-15.6,36.38,,,,,,,,,,
13.47.07.654,-124.3,31.1,0,,,17593.2,56.84,-0.04,1.33,0.42,17.3,-18.5,5.5,36.23,,,,,,,,,,
13.47.07.664,-175.0,43.8,0,,,17593.2,56.84,-0.59,0.41,0.38,-8.4,0.5,0.8,36.15,,,,,,,,,,
13.47.07.674,-170.4,42.6,0,,,17593.2,56.84,-0.45,0.47,0.45,19.8,8.3,6.8,36.48,,,,,,,,,,
13.47.07.686,-166.3,41.6,0,,,17593.2,56.84,-0.63,0.29,0.27,9.8,-19.1,-7.4,36.36,,,,,,,,,,
13.47.07.697,-158.1,39.5,0,,,17593.2,56.84,-0.27,-0.05,0.72,-35.3,13.6,-0.0,36.23,,,,,,,,,,
13.47.07.709,33.2,8.3,0,,,17593.2,56.84,-0.45,0.83,0.42,7.7,-6.6,1.2,36.27,,,,,,,,,,
13.47.07.719,137.5,34.4,0,,,17593.2,56.84,-0.26,0.55,0.78,-19.6,2.4,-19.7,36.55,,,,,,,,,,
13.47.07.729,190.8,47.7,0,,,17593.2,56.84,-0.21,-0.09,1.8,-8.2,3.5,-22.5,36.48,,,,,,,,,,
13.47.07.740,289.0,72.2,0,,,17593.2,56.84,-0.21,-0.57,-0.43,-10.7,3.8,1.4,36.42,,,,,,,,,,
13.47.07.748,379.7,94.9,0,,,17593.2,56.84,-0.18,0.44,0.53,7.6,9.8,10.5,36.36,,,,,,,,,,
13.47.07.756,409.1,102.3,1,21.0,158.7,17593.2,56.84,-0.25,0.3,-0.25,-6.9,10.2,1.6,36.19,,,,,,,,,,
13.47.07.767,539.6,134.9,0,,,17590.1,56.85,-0.52,0.21,0.31,-2.5,-4.1,15.4,36.27,,,,,,,,,,
13.47.07.777,490.6,122.6,0,,,17590.1,56.85,-0.29,0.45,1.05,17.9,2.1,6.5,36.19,,,,,,,,,,
13.47.07.786,530.3,132.6,0,,,17590.1,56.85,-0.49,-0.49,0.61,21.0,-10.9,-12.3,35.77,,,,,,,,,,
13.47.07.795,477.6,119.4,0,,,17590.1,56.85,-0.32,0.57,0.44,-3.1,9.7,-5.4,36.42,,,,,,,,,,
13.47.07.805,408.6,102.2,0,,,17590.1,56.85,-0.5,-0.35,0.63,-3.2,-5.7,-19.6,36.46,,,,,,,,,,
13.47.07.815,414.7,103.7,0,,,17590.1,56.85,-0.12,0.31,-0.24,6.8,-9.2,7.6,36.35,,,,,,,,,,
13.47.07.825,251.2,62.8,0,,,17590.1,56.85,-0.61,-0.26,-0.01,-8.0,5.6,-16.9,36.44,,,,,,,,,,
13.47.07.835,247.2,61.8,0,,,17590.1,56.85,-0.8,0.27,-0.3,-5.7,8.6,3.3,36.25,,,,,,,,,,
13.47.07.843,136.5,34.1,0,,,17590.1,56.85,-0.42,0.38,-0.85,-11.7,18.2,-5.1,36.41,,,,,,,,,,
13.47.07.854,3.1,0.8,0,,,17590.1,56.85,-0.48,-0.32,0.25,9.3,1.9,10.0,36.32,,,,,,,,,,
13.47.07.866,54.2,13.6,0,,,17590.1,56.85,-0.61,0.27,0.07,23.6,1.5,-5.8,36.19,,,,,,,,,,
13.47.07.876,40.6,10.2,0,,,17587.1,56.86,-0.84,0.01,0.42,-42.5,-9.6,-9.2,36.42,,,,,,,,,,
13.47.07.887,21.1,5.3,0,,,17587.1,56.86,-0.83,0.76,-0.22,13.6,12.2,-0.4,36.45,,,,,,,,,,
13.47.07.897,98.1,24.5,0,,,17587.1,56.86,-0.63,0.51,-0.44,4.3,16.9,5.4,36.32,,,,,,,,,,
13.47.07.905,127.3,31.8,0,,,17587.1,56.86,-0.59,0.67,-0.55,-23.5,-12.4,6.9,36.36,,,,,,,,,,
13.47.07.913,33.4,8.4,0,,,17587.1,56.86,-0.74,0.6,0.64,14.2,9.5,-13.5,36.38,,,,,,,,,,
13.47.07.924,65.8,16.4,0,,,17587.1,56.86,-0.72,-0.27,0.08,-23.9,9.2,-10.2,36.35,,,,,,,,,,
13.47.07.932,65.5,16.4,0,,,17587.1,56.86,-0.23,0.61,0.78,1.8,7.9,0.4,36.39,,,,,,,,,,
13.47.07.942,14.0,3.5,0,,,17587.1,56.86,-1.3,0.01,-0.04,22.5,5.2,-7.3,36.43,,,,,,,,,,
13.47.07.952,-36.7,9.2,0,,,17587.1,56.86,-0.9,0.65,-0.12,-21.0,14.6,-2.0,36.53,,,,,,,,,,
13.47.07.962,-37.7,9.4,0,,,17587.1,56.86,-0.97,0.07,-0.22,3.6,-2.2,-22.9,36.35,,,,,,,,,,
13.47.07.973,-29.2,7.3,0,,,17587.1,56.86,-0.3,0.26,0.33,2.5,-16.0,-6.5,36.35,,,,,,,,,,
13.47.07.982,-85.7,21.4,0,,,17584.0,56.87,-0.44,0.96,0.3,6.3,5.5,-13.9,36.26,,,,,,,,,,
13.47.07.992,-115.6,28.9,0,,,17584.0,56.87,-0.64,0.76,0.77,-8.0,19.3,0.5,36.26,,,,,,,,,,
13.47.08.002,-31.6,7.9,0,,,17584.0,56.87,-0.44,0.79,0.91,-3.1,-10.0,4.0,36.42,,,,,,,,,,
13.47.08.012,-112.8,28.2,0,,,17584.0,56.87,-0.67,0.03,0.2,-7.2,10.6,-3.3,36.36,,,,,,,,,,
13.47.08.022,-23.1,5.8,0,,,17587.1,56.86,-0.39,0.42,1.15,-32.9,10.4,-2.8,36.32,,,,,,,,,,
13.47.08.033,-57.1,14.3,0,,,17587.1,56.86,-0.67,0.27,1.76,-2.2,7.5,14.2,36.26,,,,,,,,,,
13.47.08.040,-79.3,19.8,0,,,17587.1,56.86,-0.55,0.42,1.23,12.0,-2.7,0.3,36.12,,,,,,,,,,
13.47.08.049,-138.8,34.7,0,,,17587.1,56.86,-0.4,-0.23,0.62,2.4,-3.9,-5.1,36.31,,,,,,,,,,
13.47.08.059,-127.2,31.8,0,,,17587.1,56.86,-0.7,0.13,1.48,18.7,13.0,-0.1,36.3,,,,,,,,,,
13.47.08.070,-94.4,23.6,0,,,17587.1,56.86,-0.27,0.28,0.38,10.5,-0.3,0.4,36.48,,,,,,,,,,
13.47.08.079,-183.8,46.0,0,,,17587.1,56.86,-0.28,-0.17,0.74,-2.9,-11.2,5.8,36.5,,,,,,,,,,
13.47.08.088,-181.8,45.4,0,,,17587.1,56.86,-0.16,0.21,1.12,9.9,5.0,-4.2,36.25,,,,,,,,,,
13.47.08.096,-111.2,27.8,0,,,17587.1,56.86,-0.39,-0.4,1.18,-17.0,-2.9,0.0,36.35,,,,,,,,,,
13.47.08.105,-151.1,37.8,0,,,17587.1,56.86,-0.65,0.75,0.63,24.1,-10.2,1.4,36.39,,,,,,,,,,
13.47.08.116,-140.3,35.1,1,22.0,166.7,17587.1,56.86,-0.75,-0.02,0.63,-7.3,8.0,-13.4,36.27,,,,,,,,,,
13.47.08.125,-174.6,43.6,0,,,17590.1,56.85,-0.49,-0.09,0.15,-12.7,1.1,-2.0,36.31,,,,,,,,,,
13.47.08.137,-161.7,40.4,0,,,17590.1,56.85,-0.18,0.25,-0.23,22.2,12.4,1.1,36.31,,,,,,,,,,
13.47.08.144,-151.2,37.8,0,,,17590.1,56.85,-0.57,0.14,0.62,3.4,4.9,14.6,36.59,,,,,,,,,,
13.47.08.154,58.2,14.6,0,,,17590.1,56.85,-0.82,-0.23,0.46,27.5,24.2,-13.0,36.32,,,,,,,,,,
13.47.08.166,215.7,53.9,0,,,17590.1,56.85,-0.74,-0.44,0.93,-12.4,8.5,21.1,36.51,,,,,,,,,,
13.47.08.178,331.0,82.8,0,,,17590.1,56.85,-0.52,0.14,-0.39,-36.3,4.7,-12.0,36.14,,,,,,,,,,
13.47.08.187,371.8,93.0,0,,,17590.1,56.85,-0.57,0.21,-0.05,15.3,7.9,-15.3,36.35,,,,,,,,,,
13.47.08.196,462.5,115.6,0,,,17590.1,56.85,-0.75,0.21,0.35,-8.4,30.3,-23.0,36.3,,,,,,,,,,
13.47.08.206,506.0,126.5,0,,,17590.1,56.85,-0.82,0.3,-0.08,-7.8,-5.8,9.2,36.4,,,,,,,,,,
13.47.08.215,448.8,112.2,0,,,17590.1,56.85,-0.78,0.43,0.12,-4.4,-1.8,5.5,36.33,,,,,,,,,,
13.47.08.225,483.0,120.8,0,,,17593.2,56.84,-0.52,0.14,0.66,10.8,-6.8,-7.2,36.3,,,,,,,,,,
13.47.08.234,476.6,119.2,0,,,17593.2,56.84,-0.96,0.64,-0.1,28.8,2.7,-8.4,36.45,,,,,,,,,,
13.47.08.242,452.5,113.1,0,,,17593.2,56.84,-0.74,0.36,0.61,18.3,19.9,10.4,36.2,,,,,,,,,,
13.47.08.256,474.9,118.7,0,,,17593.2,56.84,-1.01,0.68,0.76,8.5,3.4,29.2,36.54,,,,,,,,,,
13.47.08.266,401.6,100.4,0,,,17593.2,56.84,-1.01,0.61,-0.68,-2.0,6.5,-4.0,36.33,,,,,,,,,,
13.47.08.278,138.0,34.5,0,,,17593.2,56.84,-0.81,0.75,-0.28,15.8,-3.2,-7.9,36.4,,,,,,,,,,
13.47.08.288,131.8,33.0,0,,,17593.2,56.84,-0.55,0.41,0.24,14.5,4.1,-7.2,36.59,,,,,,,,,,
13.47.08.300,-40.1,10.0,0,,,17593.2,56.84,-0.84,0.54,1.08,1.2,-6.0,9.0,36.41,,,,,,,,,,
13.47.08.311,8.2,2.0,0,,,17593.2,56.84,-0.44,0.75,0.03,-19.4,5.3,-20.2,36.42,,,,,,,,,,
13.47.08.321,6.7,1.7,0,,,17596.3,56.83,-0.38,0.96,0.05,-11.2,-4.1,18.0,36.44,,,,,,,,,,
13.47.08.333,3.1,0.8,0,,,17596.3,56.83,-0.61,1.17,0.69,-10.8,1.7,10.8,36.2,,,,,,,,,,
13.47.08.341,88.6,22.2,0,,,17596.3,56.83,-0.27,1.16,-0.23,1.3,-2.1,21.5,36.55,,,,,,,,,,
13.47.08.350,117.1,29.3,0,,,17596.3,56.83,-0.35,0.88,1.04,-0.5,-12.8,-17.2,36.13,,,,,,,,,,
13.47.08.360,58.0,14.5,0,,,17596.3,56.83,-0.51,0.5,0.89,-23.9,15.2,-4.1,36.45,,,,,,,,,,
13.47.08.370,105.0,26.2,0,,,17596.3,56.83,-0.61,1.07,0.75,12.5,19.5,-8.5,36.49,,,,,,,,,,
13.47.08.381,-7.1,1.8,0,,,17596.3,56.83,-0.53,0.98,0.92,-5.1,-3.6,24.0,36.37,,,,,,,,,,
13.47.08.390,19.7,4.9,0,,,17596.3,56.83,-0.49,1.12,0.66,-3.7,13.0,8.7,36.25,,,,,,,,,,
13.47.08.401,35.3,8.8,0,,,17596.3,56.83,-0.23,-0.28,1.54,24.8,10.8,-1.6,36.55,,,,,,,,,,
13.47.08.410,-2.3,0.6,0,,,17596.3,56.83,-0.58,0.66,0.26,-27.6,-3.7,-3.1,36.34,,,,,,,,,,
13.47.08.420,-51.4,12.8,0,,,17599.4,56.82,-0.23,0.88,0.56,-29.5,20.4,-15.3,36.28,,,,,,,,,,
13.47.08.429,-57.2,14.3,0,,,17599.4,56.82,-0.32,-0.06,0.6,8.6,3.5,-25.7,36.36,,,,,,,,,,
13.47.08.437,-44.6,11.2,0,,,17599.4,56.82,-0.72,-0.25,1.17,32.4,18.6,11.5,36.28,,,,,,,,,,
13.47.08.445,-23.1,5.8,0,,,17599.4,56.82,-0.46,0.21,1.02,-6.3,-25.0,4.3,36.53,,,,,,,,,,
13.47.08.453,-58.0,14.5,0,,,17599.4,56.82,-0.55,0.12,0.06,-11.3,-3.7,-8.0,36.28,,,,,,,,,,
13.47.08.462,-40.3,10.1,0,,,17599.4,56.82,-0.09,0.34,0.95,4.2,-1.8,8.4,36.28,,,,,,,,,,
13.47.08.474,-99.7,24.9,1,23.0,167.6,17599.4,56.82,-0.58,0.23,1.77,-2.7,5.3,-4.6,36.67,,,,,,,,,,
13.47.08.484,-122.3,30.6,0,,,17599.4,56.82,-0.53,-0.26,0.32,-2.4,2.1,4.7,36.38,,,,,,,,,,
13.47.08.495,-133.3,33.3,0,,,17599.4,56.82,-0.31,-0.02,0.2,19.3,2.0,7.2,36.2,,,,,,,,,,
13.47.08.506,-87.5,21.9,0,,,17599.4,56.82,-0.89,0.25,0.82,-4.0,23.9,9.2,36.29,,,,,,,,,,
13.47.08.515,-134.3,33.6,0,,,17602.5,56.81,-0.74,-0.09,-0.59,-25.2,-5.7,-5.8,36.16,,,,,,,,,,
13.47.08.526,-196.0,49.0,0,,,17602.5,56.81,-0.91,0.55,-0.59,-3.5,3.2,8.2,36.33,,,,,,,,,,
13.47.08.536,-105.7,26.4,0,,,17602.5,56.81,-0.22,0.38,-1.03,4.6,18.3,-0.7,36.6,,,,,,,,,,
13.47.08.544,-194.4,48.6,0,,,17602.5,56.81,-0.81,0.02,0.12,-11.6,-1.6,-10.5,36.32,,,,,,,,,,
13.47.08.554,-163.0,40.8,0,,,17602.5,56.81,-0.66,0.28,0.41,-32.1,15.5,1.8,36.14,,,,,,,,,,
13.47.08.563,-135.5,33.9,0,,,17602.5,56.81,-0.9,-0.39,-0.02,-10.6,8.4,4.3,36.19,,,,,,,,,,
13.47.08.571,-126.2,31.6,0,,,17602.5,56.81,-0.48,-0.03,0.5,7.9,12.6,26.5,36.09,,,,,,,,,,
13.47.08.579,-148.3,37.1,0,,,17602.5,56.81,-0.81,0.29,0.18,12.1,5.2,-5.1,36.3,,,,,,,,,,
13.47.08.590,-8.4,2.1,0,,,17602.5,56.81,-0.66,0.38,-0.44,15.9,1.8,9.3,36.3,,,,,,,,,,
13.47.08.600,106.8,26.7,0,,,17602.5,56.81,-0.98,0.18,-0.13,33.3,15.2,-11.0,36.49,,,,,,,,,,
13.47.08.609,214.2,53.6,0,,,17602.5,56.81,-0.76,0.16,-0.24,-21.6,12.3,-13.5,36.29,,,,,,,,,,
13.47.08.617,284.6,71.2,0,,,17605.6,56.8,-0.32,0.7,0.13,10.7,-2.2,-12.2,36.35,,,,,,,,,,
13.47.08.628,329.9,82.5,0,,,17605.6,56.8,-0.79,0.91,-0.23,-14.2,13.7,9.7,36.44,,,,,,,,,,
13.47.08.641,382.2,95.6,0,,,17605.6,56.8,-0.6,0.99,-0.22,-20.1,1.1,-3.3,36.41,,,,,,,,,,
13.47.08.651,544.7,136.2,0,,,17605.6,56.8,-1.06,0.61,0.81,-23.0,-6.5,-5.8,36.31,,,,,,,,,,
13.47.08.659,520.8,130.2,0,,,17605.6,56.8,-0.79,0.36,1.12,7.0,10.7,-8.6,36.44,,,,,,,,,,
13.47.08.668,408.1,102.0,0,,,17605.6,56.8,-0.71,1.05,0.42,2.1,-21.2,-12.4,36.49,,,,,,,,,,
13.47.08.676,554.4,138.6,0,,,17605.6,56.8,-0.69,0.58,0.71,-1.8,20.0,-15.3,36.41,,,,,,,,,,
13.47.08.685,382.7,95.7,0,,,17605.6,56.8,-0.64,0.6,-0.39,-5.8,-7.9,-24.5,36.16,,,,,,,,,,
13.47.08.695,396.8,99.2,0,,,17605.6,56.8,-0.6,0.4,0.24,-3.6,-6.4,5.0,36.47,,,,,,,,,,
13.47.08.706,324.8,81.2,0,,,17605.6,56.8,-0.03,1.07,1.21,-5.4,29.3,22.9,36.31,,,,,,,,,,
13.47.08.717,197.2,49.3,0,,,17608.7,56.79,-0.36,1.13,0.42,-40.9,10.6,-5.7,36.2,,,,,,,,,,
13.47.08.724,124.9,31.2,0,,,17608.7,56.79,-1.03,0.16,0.6,15.1,-14.0,8.2,36.39,,,,,,,,,,
13.47.08.733,129.1,32.3,0,,,17608.7,56.79,-0.56,1.01,0.88,5.8,9.2,2.6,36.65,,,,,,,,,,
13.47.08.744,-64.6,16.2,0,,,17608.7,56.79,-0.51,0.05,0.67,9.3,4.6,3.6,36.42,,,,,,,,,,
13.47.08.755,0.9,0.2,0,,,17608.7,56.79,-0.29,0.86,0.79,4.9,10.9,1.4,36.38,,,,,,,,,,
13.47.08.764,53.8,13.4,0,,,17608.7,56.79,-0.61,0.51,0.23,2.2,16.5,-7.5,36.36,,,,,,,,,,
13.47.08.772,44.3,11.1,0,,,17608.7,56.79,-0.28,0.24,0.72,29.5,10.2,5.9,36.47,,,,,,,,,,
13.47.08.783,128.1,32.0,0,,,17608.7,56.79,-0.35,0.03,0.97,10.1,13.5,-3.2,36.32,,,,,,,,,,
13.47.08.793,74.9,18.7,0,,,17608.7,56.79,0.03,0.17,1.05,22.2,19.1,-17.9,36.59,,,,,,,,,,
13.47.08.802,61.1,15.3,0,,,17608.7,56.79,-0.05,-0.65,1.07,-4.5,26.2,-11.3,36.27,,,,,,,,,,
13.47.08.813,27.0,6.8,0,,,17611.8,56.78,-0.39,-0.05,0.53,7.3,6.3,-8.8,36.47,,,,,,,,,,
13.47.08.824,-3.5,0.9,0,,,17611.8,56.78,-0.68,-0.87,0.8,4.8,16.4,-2.8,36.33,,,,,,,,,,
13.47.08.834,35.1,8.8,0,,,17611.8,56.78,-0.45,0.31,0.1,-9.5,11.1,-11.5,36.49,,,,,,,,,,
13.47.08.844,5.2,1.3,0,,,17611.8,56.78,-0.71,-0.44,1.02,-12.0,7.1,-9.8,36.55,,,,,,,,,,
13.47.08.853,19.4,4.8,0,,,17611.8,56.78,-1.15,0.21,0.27,21.1,12.6,-9.9,36.5,,,,,,,,,,
13.47.08.863,-17.2,4.3,1,24.0,154.2,17611.8,56.78,-0.68,-0.11,0.57,-1.0,11.4,-20.3,36.57,,,,,,,,,,
13.47.08.872,-35.3,8.8,0,,,17611.8,56.78,-0.7,0.1,0.34,5.2,-2.1,-18.9,36.22,,,,,,,,,,
13.47.08.882,-36.9,9.2,0,,,17611.8,56.78,-0.83,0.04,0.62,6.6,11.0,-3.1,36.21,,,,,,,,,,
13.47.08.892,-84.5,21.1,0,,,17611.8,56.78,-1.06,-0.28,0.45,34.1,14.3,6.3,36.19,,,,,,,,,,
13.47.08.901,-20.6,5.2,0,,,17611.8,56.78,-0.77,-0.12,0.82,2.2,12.3,-20.6,36.4,,,,,,,,,,
13.47.08.912,-84.1,21.0,0,,,17614.9,56.77,-0.67,0.2,0.24,-22.9,-1.0,-15.4,36.39,,,,,,,,,,
13.47.08.922,-91.4,22.8,0,,,17614.9,56.77,-0.94,0.48,-0.13,25.9,-7.7,-14.0,36.34,,,,,,,,,,
13.47.08.933,-98.2,24.6,0,,,17614.9,56.77,-0.63,0.34,-0.99,19.4,4.1,10.3,36.5,,,,,,,,,,
13.47.08.945,-125.1,31.3,0,,,17614.9,56.77,-0.51,0.14,-0.17,0.2,-8.6,-15.7,36.29,,36.33,,,,,,,,
13.47.08.954,-138.0,34.5,0,,,17614.9,56.77,-0.74,0.46,-0.07,-11.9,4.2,-26.3,36.56,,,,,,,,,,
13.47.08.966,-117.0,29.2,0,,,17614.9,56.77,-0.74,0.59,0.62,6.8,-12.8,7.4,36.34,,,,,,,,,,
13.47.08.974,-178.2,44.6,0,,,17614.9,56.77,-0.58,0.35,-0.36,-0.6,4.2,1.8,36.27,,,,,,,,,,
13.47.08.987,-186.4,46.6,0,,,17614.9,56.77,-0.29,0.09,1.06,16.5,5.7,7.8,36.36,,,,,,,,,,
13.47.08.994,-194.5,48.6,0,,,17614.9,56.77,-0.36,0.94,0.26,-14.5,12.4,-10.1,36.29,,,,,,,,,,
13.47.09.003,-219.0,54.8,0,,,17618.0,56.76,-0.54,1.0,0.92,-13.3,10.4,-11.5,36.5,,,,,,,,,,
13.47.09.013,-155.8,39.0,0,,,17618.0,56.76,-0.4,0.78,0.41,3.0,40.7,-1.8,36.36,,,,,,,,,,
13.47.09.023,-178.8,44.7,0,,,17618.0,56.76,-0.62,0.32,1.08,23.2,6.3,-3.6,36.27,,,,,,,,,,
13.47.09.031,-162.7,40.7,0,,,17618.0,56.76,-0.47,0.54,-0.15,3.7,2.1,1.2,36.1,,,,,,,,,,
13.47.09.041,101.1,25.3,0,,,17618.0,56.76,-0.49,0.78,0.76,3.2,-5.2,-14.6,36.27,,,,,,,,,,
13.47.09.051,117.9,29.5,0,,,17618.0,56.76,-0.7,0.82,0.19,0.4,19.6,5.8,36.15,,,,,,,,,,
13.47.09.061,224.3,56.1,0,,,17621.1,56.75,-0.64,0.8,0.13,22.1,18.3,-4.8,36.34,,,,,,,,,,
13.47.09.073,365.7,91.4,0,,,17621.1,56.75,-0.42,0.89,0.5,13.7,17.0,9.5,36.33,,,,,,,,,,
13.47.09.082,486.0,121.5,0,,,17621.1,56.75,-0.44,0.32,1.08,19.9,-8.0,0.4,36.52,,,,,,,,,,
13.47.09.091,394.9,98.7,0,,,17621.1,56.75,-0.27,0.84,1.54,14.2,12.5,3.0,36.34,,,,,,,,,,
13.47.09.102,480.3,120.1,0,,,17621.1,56.75,-0.17,0.37,0.7,-3.0,4.6,-40.1,36.34,,,,,,,,,,
13.47.09.110,472.6,118.2,0,,,17621.1,56.75,-0.61,0.55,0.65,-36.6,12.5,13.6,36.41,,,,,,,,,,
13.47.09.119,474.3,118.6,0,,,17624.3,56.74,-0.06,-0.19,0.99,-22.4,2.6,6.0,36.45,,,,,,,,,,
13.47.09.130,443.6,110.9,0,,,17624.3,56.74,-0.41,-0.45,0.86,18.4,12.8,-2.3,36.02,,,,,,,,,,
13.47.09.141,431.9,108.0,0,,,17624.3,56.74,-0.35,0.83,0.31,-7.4,20.8,1.8,36.68,,,,,,,,,,
13.47.09.152,370.0,92.5,0,,,17624.3,56.74,0.1,-0.29,1.15,-2.9,22.5,-3.4,36.3,,,,,,,,,,
13.47.09.161,251.5,62.9,0,,,17624.3,56.74,-0.6,0.42,0.32,11.5,20.1,21.8,36.55,,,,,,,,,,
13.47.09.171,198.6,49.6,0,,,17627.4,56.73,-0.61,0.01,0.43,-21.2,-7.1,-4.5,36.25,,,,,,,,,,
13.47.09.182,12.0,3.0,0,,,17627.4,56.73,-0.46,-0.15,-0.2,-25.1,6.8,14.8,36.09,,,,,,,,,,
13.47.09.193,8.1,2.0,0,,,17627.4,56.73,-0.35,-0.38,0.49,-11.2,29.2,-6.4,36.41,,,,,,,,,,
13.47.09.202,24.7,6.2,0,,,17627.4,56.73,-0.69,0.11,-0.12,-3.7,11.3,4.1,36.33,,,,,,,,,,
13.47.09.211,102.0,25.5,0,,,17627.4,56.73,-0.35,0.21,0.19,-4.0,-4.4,5.4,36.45,,,,,,,,,,
13.47.09.222,29.3,7.3,0,,,17630.5,56.72,-0.31,-0.25,0.73,10.9,6.9,7.2,36.41,,,,,,,,,,
13.47.09.233,95.4,23.8,0,,,17630.5,56.72,-0.44,0.08,-1.6,-12.2,10.6,6.4,36.41,,,,,,,,,,
13.47.09.242,63.1,15.8,0,,,17630.5,56.72,-0.73,-0.22,-0.29,13.4,20.2,-12.6,36.32,,,,,,,,,,
13.47.09.252,51.4,12.8,1,25.0,154.2,17630.5,56.72,-0.5,0.06,0.38,-7.0,7.7,7.9,36.21,,,,,,,,,,
13.47.09.262,31.9,8.0,0,,,17630.5,56.72,-0.54,-0.25,0.46,-6.6,37.0,-7.7,36.06,,,,,,,,,,
13.47.09.273,-9.7,2.4,0,,,17633.6,56.71,-0.93,0.65,1.22,-15.7,-2.1,2.1,36.43,,,,,,,,,,
13.47.09.281,-67.1,16.8,0,,,17633.6,56.71,-1.14,0.06,0.44,-5.3,9.8,6.0,36.3,,,,,,,,,,
13.47.09.291,-53.9,13.5,0,,,17633.6,56.71,-0.48,0.78,0.63,0.5,-12.0,2.0,36.39,,,,,,,,,,
13.47.09.300,-11.7,2.9,0,,,17633.6,56.71,-0.87,0.79,-0.47,-0.1,10.6,-7.5,36.12,,,,,,,,,,
13.47.09.310,14.1,3.5,0,,,17633.6,56.71,-0.93,0.5,0.39,2.3,-2.1,1.7,36.28,,,,,,,,,,
13.47.09.322,-108.0,27.0,0,,,17633.6,56.71,-0.41,0.56,0.36,-15.5,0.8,-16.2,36.22,,,,,,,,,,
13.47.09.333,-14.1,3.5,0,,,17636.7,56.7,-0.81,0.86,-0.4,-18.0,24.0,-8.3,36.28,,,,,,,,,,
13.47.09.342,-84.6,21.2,0,,,17636.7,56.7,-0.61,0.55,-0.64,-34.5,-12.2,-10.0,36.48,,,,,,,,,,
13.47.09.352,-99.3,24.8,0,,,17636.7,56.7,-0.74,0.86,-0.23,-13.4,13.4,-4.9,36.39,,,,,,,,,,
13.47.09.362,-93.4,23.4,0,,,17636.7,56.7,-0.86,0.74,-0.0,-2.0,-15.4,8.3,36.27,,,,,,,,,,
13.47.09.370,-39.6,9.9,0,,,17636.7,56.7,-0.66,1.36,0.77,-2.9,26.9,-15.0,36.36,,,,,,,,,,
13.47.09.378,-56.3,14.1,0,,,17636.7,56.7,-0.47,0.92,0.25,18.8,8.6,-13.1,36.2,,,,,,,,,,
13.47.09.388,-111.3,27.8,0,,,17639.8,56.69,-0.57,0.41,0.19,3.3,3.3,7.5,36.58,,,,,,,,,,
13.47.09.399,-159.8,40.0,0,,,17639.8,56.69,-0.72,0.34,1.15,7.9,17.8,-10.2,36.09,,,,,,,,,,
13.47.09.409,-132.8,33.2,0,,,17639.8,56.69,-0.13,0.44,0.45,20.7,13.0,-4.0,36.46,,,,,,,,,,
13.47.09.416,-110.1,27.5,0,,,17639.8,56.69,-0.63,0.68,0.86,0.6,21.8,5.6,36.42,,,,,,,,,,
13.47.09.425,-175.6,43.9,0,,,17639.8,56.69,-0.13,0.27,1.18,-12.3,1.2,9.7,36.23,,,,,,,,,,
13.47.09.435,-147.5,36.9,0,,,17642.9,56.68,-0.09,0.51,0.34,-8.4,-7.6,1.0,36.33,,,,,,,,,,
13.47.09.443,-155.8,39.0,0,,,17642.9,56.68,-0.37,1.04,0.9,-4.5,3.6,-2.7,36.45,,,,,,,,,,
13.47.09.453,-153.4,38.4,0,,,17642.9,56.68,-0.61,0.3,0.88,-8.9,14.4,-0.6,36.44,,,,,,,,,,
13.47.09.464,-155.3,38.8,0,,,17642.9,56.68,-0.19,0.56,1.02,32.9,20.0,2.8,36.25,,,,,,,,,,
13.47.09.473,-175.2,43.8,0,,,17642.9,56.68,-0.64,-0.04,0.5,-12.6,18.3,-11.6,36.43,,,,,,,,,,
13.47.09.482,48.8,12.2,0,,,17642.9,56.68,-0.24,0.17,0.51,9.8,12.8,-12.3,36.59,,,,,,,,,,
13.47.09.493,170.9,42.7,0,,,17646.0,56.67,-0.51,0.33,0.61,0.8,-5.2,5.3,36.42,,,,,,,,,,
13.47.09.504,354.4,88.6,0,,,17646.0,56.67,0.13,0.26,0.51,-4.6,3.0,4.4,36.31,,,,,,,,,,
13.47.09.511,352.2,88.0,0,,,17646.0,56.67,-0.52,0.17,0.59,-35.2,20.8,2.9,36.16,,,,,,,,,,
13.47.09.521,379.9,95.0,0,,,17646.0,56.67,-0.04,0.39,1.36,-17.8,1.8,-4.4,36.47,,,,,,,,,,
13.47.09.529,421.0,105.2,0,,,17646.0,56.67,-0.38,0.21,0.56,-6.9,3.9,-22.8,36.46,,,,,,,,,,
13.47.09.539,500.3,125.1,0,,,17646.0,56.67,-0.24,0.58,-0.04,-3.3,26.0,-9.1,36.44,,,,,,,,,,
13.47.09.549,514.7,128.7,0,,,17649.1,56.66,-0.32,0.18,1.47,-2.8,2.5,-8.1,36.62,,,,,,,,,,
13.47.09.560,395.7,98.9,0,,,17649.1,56.66,-0.45,0.39,0.37,-16.4,13.4,-5.4,36.48,,,,,,,,,,
13.47.09.567,393.7,98.4,0,,,17649.1,56.66,-0.6,-0.05,0.38,2.9,16.2,-0.8,36.22,,,,,,,,,,
13.47.09.575,508.5,127.1,0,,,17649.1,56.66,-0.43,-0.08,0.22,-4.1,-0.2,6.0,36.49,,,,,,,,,,
13.47.09.585,378.2,94.6,0,,,17649.1,56.66,-0.42,-0.04,0.15,15.0,0.9,5.6,36.33,,,,,,,,,,
13.47.09.597,260.1,65.0,0,,,17652.3,56.65,-0.77,-0.22,0.16,-19.4,12.9,22.0,36.4,,,,,,,,,,
13.47.09.607,216.8,54.2,0,,,17652.3,56.65,-0.7,0.15,-0.12,-9.8,-7.7,0.7,36.42,,,,,,,,,,
13.47.09.616,91.9,23.0,0,,,17652.3,56.65,-0.47,0.88,0.04,7.6,8.1,10.2,36.31,,,,,,,,,,
13.47.09.627,-34.3,8.6,0,,,17652.3,56.65,-0.37,0.49,0.17,15.2,3.3,-12.5,36.43,,,,,,,,,,
13.47.09.639,68.7,17.2,0,,,17652.3,56.65,-0.72,0.37,-0.85,-0.5,24.0,-1.9,36.35,,,,,,,,,,
13.47.09.649,135.2,33.8,1,26.0,151.1,17655.4,56.64,-1.0,-0.22,-0.18,-20.7,-18.8,22.0,36.29,,,,,,,,,,
13.47.09.660,79.1,19.8,0,,,17655.4,56.64,-0.72,0.37,-0.41,-23.6,-2.1,-4.6,36.45,,,,,,,,,,
13.47.09.672,91.5,22.9,0,,,17655.4,56.64,-0.84,0.55,0.21,0.4,21.1,-19.3,36.44,,,,,,,,,,
13.47.09.685,112.6,28.2,0,,,17655.4,56.64,-0.89,0.73,-0.3,-27.2,12.1,-2.1,36.3,,,,,,,,,,
13.47.09.696,78.5,19.6,0,,,17655.4,56.64,-0.77,0.31,-1.11,-0.0,17.2,12.4,36.11,,,,,,,,,,
13.47.09.706,22.6,5.6,0,,,17658.5,56.63,-1.1,0.41,0.14,-3.6,21.5,-10.8,36.53,,,,,,,,,,
13.47.09.715,-30.4,7.6,0,,,17658.5,56.63,-0.29,0.53,-0.01,15.3,11.6,-7.2,36.29,,,,,,,,,,
13.47.09.724,1.9,0.5,0,,,17658.5,56.63,-0.51,0.88,0.42,-21.8,13.2,-1.5,36.44,,,,,,,,,,
13.47.09.735,-21.3,5.3,0,,,17658.5,56.63,-0.48,0.57,0.07,-4.0,14.1,4.5,36.27,,,,,,,,,,
13.47.09.744,-33.4,8.4,0,,,17658.5,56.63,-0.48,0.57,0.34,-1.8,-0.7,1.1,36.48,,,,,,,,,,
13.47.09.753,-21.0,5.2,0,,,17658.5,56.63,-0.47,1.07,0.34,5.5,-9.0,-5.7,36.47,,,,,,,,,,
13.47.09.762,-37.7,9.4,0,,,17661.6,56.62,-0.18,1.37,0.67,-1.4,-2.2,-2.0,36.54,,,,,,,,,,
13.47.09.772,-68.2,17.0,0,,,17661.6,56.62,-0.82,-0.2,1.09,9.1,-2.5,-8.1,36.25,,,,,,,,,,
13.47.09.782,-47.1,11.8,0,,,17661.6,56.62,-0.38,1.0,0.3,3.2,19.2,-4.0,36.43,,,,,,,,,,
13.47.09.793,-133.5,33.4,0,,,17661.6,56.62,-0.01,0.79,0.84,-7.5,-11.6,-3.5,36.07,,,,,,,,,,
13.47.09.803,-78.9,19.7,0,,,17661.6,56.62,-0.01,0.43,0.02,16.0,17.2,-0.8,36.34,,,,,,,,,,
13.47.09.814,-158.9,39.7,0,,,17664.7,56.61,-0.7,1.14,1.41,8.5,17.5,-0.1,36.23,,,,,,,,,,
13.47.09.824,-76.7,19.2,0,,,17664.7,56.61,-0.6,0.02,0.78,-11.5,20.8,-6.1,36.52,,,,,,,,,,
13.47.09.836,-100.0,25.0,0,,,17664.7,56.61,-0.42,0.06,1.32,3.2,11.3,-6.2,36.44,,,,,,,,,,
13.47.09.846,-121.5,30.4,0,,,17664.7,56.61,0.11,0.2,1.64,-4.3,13.9,-12.7,36.39,,,,,,,,,,
13.47.09.856,-200.2,50.0,0,,,17664.7,56.61,-0.49,0.75,1.23,-6.2,1.9,-10.1,36.33,,,,,,,,,,
13.47.09.866,-86.5,21.6,0,,,17667.8,56.6,-0.24,0.05,0.88,-27.1,-6.3,1.8,36.04,,,,,,,,,,
13.47.09.876,-130.7,32.7,0,,,17667.8,56.6,-0.2,0.57,0.43,-12.6,-0.2,7.6,36.31,,,,,,,,,,
13.47.09.885,-129.9,32.5,0,,,17667.8,56.6,-0.79,0.18,0.3,-2.2,5.4,3.6,36.29,,,,,,,,,,
13.47.09.895,-187.3,46.8,0,,,17667.8,56.6,-0.33,-0.88,0.22,0.9,-4.2,4.3,36.27,,,,,,,,,,
13.47.09.906,-165.0,41.2,0,,,17667.8,56.6,-0.72,0.05,-0.09,-8.6,11.8,-9.7,36.28,,,,,,,,,,
13.47.09.916,59.7,14.9,0,,,17671.0,56.59,-0.42,0.34,0.37,6.1,16.3,13.0,36.45,,,,,,,,,,
13.47.09.924,130.6,32.6,0,,,17671.0,56.59,-0.56,-0.27,-0.29,-3.9,24.9,-2.0,36.36,,,,,,,,,,
13.47.09.934,141.8,35.4,0,,,17671.0,56.59,-0.43,0.21,0.12,6.1,-7.7,-19.0,36.24,,,,,,,,,,
13.47.09.944,283.2,70.8,0,,,17671.0,56.59,-0.41,0.26,0.45,8.6,11.0,-2.0,36.38,,,,,,,,,,
13.47.09.953,337.5,84.4,0,,,17671.0,56.59,-1.01,0.52,0.2,20.7,-8.9,2.9,36.45,,,,,,,,,,
13.47.09.962,375.9,94.0,0,,,17671.0,56.59,-0.65,0.63,0.47,9.7,5.6,-12.8,36.39,,,,,,,,,,
13.47.09.972,,,0,,,,,,,,,,,,,,,,,,,,,
13.47.09.980,481.7,120.4,0,,,17674.1,56.58,-0.74,-0.41,-0.18,10.8,1.3,2.5,36.32,,,,,,,,,,
13.47.09.990,484.1,121.0,1,27.0,176.0,17674.1,56.58,-0.61,0.17,0.84,-5.1,5.4,6.3,36.38,,,,,,,,,,
13.47.10.000,490.3,122.6,0,,,17674.1,56.58,-1.08,-0.12,0.01,-21.2,-7.2,-9.4,36.33,,,,,,,,,,
13.47.10.008,429.2,107.3,0,,,17674.1,56.58,-0.96,-0.12,0.29,0.3,33.3,-0.2,36.49,135.0,,,,,,,,,
13.47.10.016,467.7,116.9,0,,,17674.1,56.58,-0.82,0.54,0.07,1.0,19.6,4.2,36.33,,,,,,,,,,
13.47.10.028,372.9,93.2,0,,,17677.2,56.57,-0.78,-0.09,0.06,5.6,-17.4,7.0,36.32,,,,,,,,,,
13.47.10.038,328.2,82.0,0,,,17677.2,56.57,-0.85,0.99,0.5,-14.1,13.3,7.0,36.38,,,,,,,,,,
13.47.10.048,202.8,50.7,0,,,17677.2,56.57,-0.73,0.95,0.13,-5.4,1.4,1.6,36.49,,,,,,,,,,
13.47.10.058,49.8,12.4,0,,,17677.2,56.57,-0.88,0.37,0.71,-2.9,-15.9,6.0,36.39,,,,,,,,,,
13.47.10.068,2.5,0.6,0,,,17677.2,56.57,-0.79,0.38,0.07,18.6,6.8,-3.1,36.27,,,,,,,,,,
13.47.10.076,13.3,3.3,0,,,17680.3,56.56,-0.66,0.37,-0.46,-7.2,18.1,-11.9,36.3,,,,,,,,,,
13.47.10.086,-33.4,8.4,0,,,17680.3,56.56,-0.49,0.64,0.5,23.8,-9.0,10.0,36.43,,,,,,,,,,
13.47.10.094,53.7,13.4,0,,,17680.3,56.56,-0.44,0.76,0.28,-20.5,-2.2,-14.0,36.48,,,,,,,,,,
13.47.10.105,84.8,21.2,0,,,17680.3,56.56,-1.15,1.49,-0.2,-15.6,13.6,-4.4,36.37,,,,,,,,,,
13.47.10.116,79.3,19.8,0,,,17680.3,56.56,-0.56,0.23,0.83,-26.6,13.8,13.0,36.45,,,,,,,,,,
13.47.10.125,74.0,18.5,0,,,17683.5,56.55,-0.41,0.77,0.73,16.0,18.3,0.9,36.7,,,,,,,,,,
13.47.10.134,47.6,11.9,0,,,17683.5,56.55,-0.18,0.7,1.43,23.3,4.2,16.6,36.35,,,,,,,,,,
13.47.10.144,31.7,7.9,0,,,17683.5,56.55,-0.24,1.02,0.14,3.3,11.7,2.5,36.5,,,,,,,,,,
13.47.10.155,-2.9,0.7,0,,,17683.5,56.55,-0.33,0.67,0.83,-25.8,9.7,-4.4,36.28,,,,,,,,,,
13.47.10.166,-13.6,3.4,0,,,17683.5,56.55,-0.13,0.45,0.51,-1.4,20.9,-24.1,36.35,,,,,,,,,,
13.47.10.178,-92.0,23.0,0,,,17686.6,56.54,-0.67,0.55,1.69,-11.4,5.2,9.8,36.35,,,,,,,,,,
13.47.10.188,-4.6,1.2,0,,,17686.6,56.54,-0.67,0.41,0.09,27.4,11.4,12.7,36.53,,,,,,,,,,
13.47.10.201,-91.0,22.8,0,,,17686.6,56.54,-0.61,0.23,0.47,-20.7,1.0,4.9,36.38,,,,,,,,,,
13.47.10.211,-76.1,19.0,0,,,17686.6,56.54,-0.16,0.59,0.54,-18.5,8.7,6.5,36.34,,,,,,,,,,
13.47.10.221,-38.8,9.7,0,,,17686.6,56.54,-0.64,-0.69,0.31,-20.7,15.3,2.1,36.37,,,,,,,,,,
13.47.10.230,-100.9,25.2,0,,,17689.7,56.53,-0.37,-0.48,0.47,7.6,3.0,-3.2,36.23,,,,,,,,,,
13.47.10.237,-56.7,14.2,0,,,17689.7,56.53,-0.56,-0.32,0.69,28.7,18.2,-9.6,36.47,,,,,,,,,,
13.47.10.249,-152.8,38.2,0,,,17689.7,56.53,-0.87,0.34,0.1,7.4,-5.8,-6.8,36.48,,,,,,,,,,
13.47.10.260,-91.8,23.0,0,,,17689.7,56.53,-0.56,0.09,0.32,-24.8,10.1,6.7,36.4,,,,,,,,,,
13.47.10.271,-100.9,25.2,0,,,17689.7,56.53,-0.46,-0.56,0.17,-15.1,19.1,17.6,36.26,,,,,,,,,,
13.47.10.280,-110.6,27.6,0,,,17692.9,56.52,-0.21,-0.05,0.11,-3.7,-5.5,-8.2,36.23,,,,,,,,,,
13.47.10.290,-129.2,32.3,0,,,17692.9,56.52,-1.06,0.05,0.53,1.1,1.3,2.3,36.73,,,,,,,,,,
13.47.10.301,-109.5,27.4,0,,,17692.9,56.52,-0.75,0.09,-0.06,1.0,-1.3,-6.9,36.21,,,,,,,,,,
13.47.10.311,-113.9,28.5,0,,,17692.9,56.52,-0.62,0.38,-0.21,15.3,3.9,-9.3,36.45,,,,,,,,,,
13.47.10.322,-226.5,56.6,0,,,17692.9,56.52,-0.29,0.24,0.19,-5.9,14.3,17.2,36.33,,,,,,,,,,
13.47.10.333,-182.6,45.6,0,,,17696.0,56.51,-0.95,0.62,-0.49,-16.5,4.3,12.9,36.36,,,,,,,,,,
13.47.10.339,-165.4,41.4,1,28.0,171.9,17696.0,56.51,-0.88,0.81,-0.97,-2.7,16.5,-11.9,36.37,,,,,,,,,,
13.47.10.348,-228.5,57.1,0,,,17696.0,56.51,-0.34,0.47,-0.39,-20.8,3.9,-10.4,36.25,,,,,,,,,,
13.47.10.357,-37.5,9.4,0,,,17696.0,56.51,-0.65,0.74,0.14,-8.3,20.2,-1.8,36.54,,,,,,,,,,
13.47.10.366,54.6,13.6,0,,,17696.0,56.51,-1.11,0.02,-0.45,-1.2,15.0,5.9,36.25,,,,,,,,,,
13.47.10.377,200.8,50.2,0,,,17696.0,56.51,-0.82,0.12,0.25,-3.8,7.4,-11.2,36.43,,,,,,,,,,
13.47.10.387,296.2,74.0,0,,,17699.1,56.5,-0.52,0.75,0.06,-1.6,10.6,-9.0,36.04,,,,,,,,,,
13.47.10.396,381.8,95.4,0,,,17699.1,56.5,-1.1,0.73,0.25,-1.9,3.2,9.6,36.38,,,,,,,,,,
13.47.10.405,411.3,102.8,0,,,17699.1,56.5,-0.96,0.84,0.38,-4.5,27.7,-3.3,36.53,,,,,,,,,,
13.47.10.412,452.6,113.2,0,,,17699.1,56.5,-0.77,0.3,-0.26,30.4,5.0,0.5,36.25,,,,,,,,,,
13.47.10.421,446.6,111.6,0,,,17699.1,56.5,-0.36,0.69,-0.08,16.1,-15.2,8.1,36.17,,,,,,,,,,
13.47.10.430,481.4,120.4,0,,,17699.1,56.5,-0.47,0.54,0.83,-20.5,14.9,-3.8,36.29,,,,,,,,,,
13.47.10.440,516.3,129.1,0,,,17702.2,56.49,-0.27,0.71,0.46,-7.4,-4.8,10.6,36.38,,,,,,,,,,
13.47.10.450,510.5,127.6,0,,,17702.2,56.49,-0.9,0.62,0.01,-12.1,-17.7,-14.5,36.48,,,,,,,,,,
13.47.10.460,389.7,97.4,0,,,17702.2,56.49,-0.61,0.62,0.76,12.2,4.6,-1.4,36.63,,,,,,,,,,
13.47.10.471,303.6,75.9,0,,,17702.2,56.49,-0.33,0.78,0.72,-8.4,9.2,-4.3,36.04,,,,,,,,,,
13.47.10.481,249.9,62.5,0,,,17702.2,56.49,-0.33,0.4,1.21,-7.5,27.0,-11.5,36.37,,,,,,,,,,
13.47.10.490,144.2,36.0,0,,,17705.4,56.48,-0.08,1.16,0.79,10.9,22.3,8.6,36.55,,,,,,,,,,
13.47.10.500,58.4,14.6,0,,,17705.4,56.48,-0.53,0.88,0.85,7.5,-2.1,10.8,36.54,,,,,,,,,,
13.47.10.509,-17.6,4.4,0,,,17705.4,56.48,-0.4,0.38,0.53,15.3,-8.9,-3.2,36.16,,,,,,,,,,
13.47.10.518,53.8,13.4,0,,,17705.4,56.48,0.13,0.18,0.87,24.2,28.8,-14.5,36.43,,,,,,,,,,
13.47.10.527,84.2,21.0,0,,,17705.4,56.48,-0.26,-0.1,0.74,0.3,5.1,9.3,36.34,,,,,,,,,,
13.47.10.537,52.5,13.1,0,,,17708.5,56.47,-0.57,-0.5,0.45,4.0,18.5,3.2,36.41,,,,,,,,,,
13.47.10.546,55.1,13.8,0,,,17708.5,56.47,-0.66,0.12,0.56,25.1,-28.5,11.5,36.56,,,,,,,,,,
13.47.10.556,112.2,28.0,0,,,17708.5,56.47,-0.47,0.17,0.05,-20.5,2.5,-13.2,36.29,,,,,,,,,,
13.47.10.568,29.4,7.4,0,,,17708.5,56.47,-0.29,-0.36,1.26,10.6,-9.2,-0.1,36.54,,,,,,,,,,
13.47.10.576,73.8,18.4,0,,,17708.5,56.47,-0.4,-0.11,0.3,-9.3,-2.8,3.1,36.54,,,,,,,,,,
13.47.10.585,73.4,18.4,0,,,17711.7,56.46,-0.49,0.08,0.76,5.3,15.8,1.0,36.63,,,,,,,,,,
13.47.10.592,28.3,7.1,0,,,17711.7,56.46,-0.02,0.36,0.67,14.0,-1.7,-6.0,36.49,,,,,,,,,,
13.47.10.600,23.8,6.0,0,,,17711.7,56.46,-0.55,-0.13,1.11,19.9,10.6,-4.3,36.23,,,,,,,,,,
13.47.10.608,-41.6,10.4,0,,,17711.7,56.46,-0.55,-0.06,0.57,-14.2,11.4,-8.9,36.39,,,,,,,,,,
13.47.10.615,-3.4,0.8,0,,,17711.7,56.46,-0.67,0.61,1.22,-1.8,8.2,17.9,36.45,,,,,,,,,,
13.47.10.623,-14.4,3.6,0,,,17711.7,56.46,-0.76,-0.25,-0.41,14.0,16.7,-1.5,36.43,,,,,,,,,,
13.47.10.632,-69.2,17.3,0,,,17711.7,56.46,-1.08,0.33,0.05,15.4,10.7,7.3,36.62,,,,,,,,,,
13.47.10.644,-58.8,14.7,0,,,17714.8,56.45,-0.83,-0.17,-0.03,-20.5,23.5,10.3,36.56,,,,,,,,,,
13.47.10.654,-10.6,2.6,0,,,17714.8,56.45,-0.51,0.21,-0.31,-8.2,10.2,4.5,36.47,,,,,,,,,,
13.47.10.665,-56.2,14.0,0,,,17714.8,56.45,-1.1,0.18,-0.07,31.2,3.5,-18.0,36.45,,,,,,,,,,
13.47.10.677,-60.6,15.2,0,,,17714.8,56.45,-0.69,-0.09,0.61,7.0,18.8,3.0,36.36,,,,,,,,,,
13.47.10.687,-115.4,28.8,0,,,17717.9,56.44,-0.58,0.52,-0.39,-26.9,9.1,7.9,36.42,,,,,,,,,,
13.47.10.696,-115.9,29.0,0,,,17717.9,56.44,-0.67,0.1,-0.47,-14.5,-2.0,11.0,36.59,,,,,,,,,,
13.47.10.705,-102.5,25.6,0,,,17717.9,56.44,-0.92,-0.09,-0.16,-14.0,34.5,3.9,36.42,,,,,,,,,,
13.47.10.715,-119.6,29.9,0,,,17717.9,56.44,-0.77,0.1,0.24,-22.8,3.0,1.2,36.35,,,,,,,,,,
13.47.10.724,-67.5,16.9,1,29.0,155.8,17717.9,56.44,-0.68,0.65,0.1,-11.9,3.0,-2.4,36.12,,,,,,,,,,
13.47.10.733,-130.5,32.6,0,,,17717.9,56.44,-0.94,0.23,0.2,5.8,10.1,-11.4,36.06,,,,,,,,,,
13.47.10.745,-113.8,28.4,0,,,17721.1,56.43,-1.01,0.65,0.76,-5.8,-18.6,10.0,36.26,,,,,,,,,,
13.47.10.756,-168.2,42.0,0,,,17721.1,56.43,-0.76,0.83,-0.15,6.6,9.1,6.0,36.36,,,,,,,,,,
13.47.10.765,-147.8,37.0,0,,,17721.1,56.43,-0.52,1.46,0.68,16.4,4.5,17.1,36.4,,,,,,,,,,
13.47.10.776,-142.9,35.7,0,,,17721.1,56.43,-0.69,1.21,1.05,4.5,-7.0,3.4,36.35,,,,,,,,,,
13.47.10.787,-165.6,41.4,0,,,17721.1,56.43,-0.82,0.63,0.66,-6.4,3.6,4.3,36.62,,,,,,,,,,
13.47.10.796,-1.3,0.3,0,,,17724.2,56.42,-0.97,0.6,0.55,-5.4,-2.5,0.1,36.39,,,,,,,,,,
13.47.10.806,145.1,36.3,0,,,17724.2,56.42,0.13,1.15,0.4,-3.5,25.6,-5.3,36.27,,,,,,,,,,
13.47.10.816,181.4,45.4,0,,,17724.2,56.42,-0.68,1.06,0.4,-15.5,5.2,-4.0,36.32,,,,,,,,,,
13.47.10.825,304.1,76.0,0,,,17724.2,56.42,-0.36,0.87,0.99,-0.4,19.0,-17.5,36.03,,,,,,,,,,
13.47.10.835,400.3,100.1,0,,,17724.2,56.42,-0.51,-0.23,0.29,-15.8,19.6,20.0,36.38,,,,,,,,,,
13.47.10.844,346.6,86.6,0,,,17727.4,56.41,-0.55,1.31,0.5,17.2,26.5,3.3,36.52,,,,,,,,,,
13.47.10.853,459.9,115.0,0,,,17727.4,56.41,-0.58,0.51,0.59,-3.4,13.8,8.8,36.42,,,,,,,,,,
13.47.10.866,422.3,105.6,0,,,17727.4,56.41,-0.26,-0.14,0.52,-8.1,-9.0,11.5,36.66,,,,,,,,,,
13.47.10.874,503.6,125.9,0,,,17727.4,56.41,-0.32,0.12,1.28,3.0,25.9,10.0,36.23,,,,,,,,,,
13.47.10.884,423.4,105.8,0,,,17727.4,56.41,0.19,0.71,0.94,15.8,18.6,-0.9,36.38,,,,,,,,,,
13.47.10.894,473.1,118.3,0,,,17730.5,56.4,-0.46,-0.59,0.67,-5.4,12.3,-4.0,36.33,,,,,,,,,,
13.47.10.906,348.5,87.1,0,,,17730.5,56.4,-0.26,-0.55,0.64,-21.7,1.1,-15.3,36.25,,,,,,,,,,
13.47.10.913,288.6,72.2,0,,,17730.5,56.4,-0.4,-0.43,1.38,4.5,13.4,8.8,36.36,,,,,,,,,,
13.47.10.923,175.0,43.8,0,,,17730.5,56.4,-0.94,-0.12,0.55,-2.1,23.8,-3.3,36.29,,,,,,,,,,
13.47.10.932,119.4,29.8,0,,,17730.5,56.4,-0.49,0.4,-0.31,14.7,4.2,16.5,36.31,,,,,,,,,,
13.47.10.940,20.2,5.0,0,,,17730.5,56.4,-0.49,-0.1,-0.07,6.7,7.1,1.4,36.44,,,,,,,,,,
13.47.10.951,82.8,20.7,0,,,17733.6,56.39,-0.73,0.19,0.12,-12.7,1.2,0.7,36.25,,,,,,,,,,
13.47.10.960,20.7,5.2,0,,,17733.6,56.39,-0.58,0.29,0.4,-1.1,-9.6,-28.1,36.43,,,,,,,,,,
13.47.10.969,63.9,16.0,0,,,17733.6,56.39,-0.99,0.02,0.93,18.8,13.1,-4.9,36.24,,,,,,,,,,
13.47.10.979,19.8,5.0,0,,,17733.6,56.39,-0.49,0.93,0.82,5.4,12.9,0.6,36.37,,,,,,,,,,
13.47.10.987,62.7,15.7,0,,,17733.6,56.39,-0.44,0.81,-0.06,-10.3,20.4,-9.0,36.3,,,,,,,,,,
13.47.10.998,93.3,23.3,0,,,17736.8,56.38,-0.71,0.4,-1.0,-14.4,12.3,-14.7,36.45,,,,,,,,,,
13.47.11.007,63.3,15.8,0,,,17736.8,56.38,-0.71,0.29,-0.02,13.6,-31.5,-5.5,36.4,,,,,,,,,,
13.47.11.016,76.9,19.2,0,,,17736.8,56.38,-1.18,0.27,-0.63,-9.1,3.4,-4.0,36.41,,,,,,,,,,
13.47.11.026,58.6,14.6,0,,,17736.8,56.38,-1.03,0.8,-0.58,33.8,5.4,10.9,36.37,,,,,,,,,,
13.47.11.035,13.0,3.2,0,,,17736.8,56.38,-0.35,-0.03,-0.45,-2.2,9.9,-1.3,36.33,,,,,,,,,,
13.47.11.044,-32.0,8.0,0,,,17736.8,56.38,-0.61,0.73,0.16,-9.8,6.0,-6.3,36.5,,,,,,,,,,
13.47.11.054,-57.8,14.4,0,,,17736.8,56.38,-0.93,0.33,0.93,-17.0,36.0,4.2,36.45,,,,,,,,,,
13.47.11.062,-52.0,13.0,0,,,17736.8,56.38,-1.2,0.88,-1.0,20.4,-1.8,-4.3,36.51,,,,,,,,,,
13.47.11.070,-9.9,2.5,1,30.0,173.4,17739.9,56.37,-0.73,0.82,0.25,2.7,14.5,-10.1,36.49,,,,,,,,,,
13.47.11.080,-79.3,19.8,0,,,17739.9,56.37,-0.61,1.26,0.44,-2.6,1.5,-11.1,36.41,,,,,,,,,,
13.47.11.090,-29.3,7.3,0,,,17739.9,56.37,-0.67,0.63,0.1,20.7,-5.3,9.4,36.21,,,,,,,,,,
13.47.11.098,-103.9,26.0,0,,,17739.9,56.37,-0.31,0.07,0.72,-8.6,2.4,4.7,36.48,,,,,,,,,,
13.47.11.108,-78.8,19.7,0,,,17739.9,56.37,-0.36,0.79,0.42,0.3,15.8,3.3,36.56,,,,,,,,,,
13.47.11.119,-115.3,28.8,0,,,17739.9,56.37,-0.53,1.11,0.45,3.0,36.3,-9.1,36.49,,,,,,,,,,
13.47.11.130,-59.8,15.0,0,,,17739.9,56.37,-0.88,0.51,-0.14,-23.8,15.0,-8.7,36.28,,,,,,,,,,
13.47.11.138,-145.7,36.4,0,,,17739.9,56.37,-0.55,0.07,-0.94,19.2,24.9,-7.4,36.47,,,,,,,,,,
13.47.11.148,-77.0,19.2,0,,,17743.1,56.36,-0.32,0.22,0.79,-1.9,6.1,2.5,36.35,,,,,,,,,,
13.47.11.155,-123.7,30.9,0,,,17743.1,56.36,-0.63,0.75,1.33,-1.7,-14.4,0.1,36.28,,,,,,,,,,
13.47.11.165,-103.1,25.8,0,,,17743.1,56.36,-0.77,1.58,0.87,-1.3,-9.5,15.6,36.49,,,,,,,,,,
13.47.11.175,-134.7,33.7,0,,,17743.1,56.36,0.01,0.97,1.01,-1.4,-16.3,5.1,36.52,,,,,,,,,,
13.47.11.185,-121.5,30.4,0,,,17743.1,56.36,-0.58,0.77,0.37,12.3,21.7,14.3,36.64,,,,,,,,,,
13.47.11.194,-165.7,41.4,0,,,17743.1,56.36,0.05,0.83,0.02,13.0,25.9,-18.2,36.13,,,,,,,,,,
13.47.11.203,-101.9,25.5,0,,,17743.1,56.36,0.01,0.52,0.38,-10.1,3.3,-11.9,36.19,,,,,,,,,,
13.47.11.212,-156.7,39.2,0,,,17743.1,56.36,-0.31,0.42,0.98,-15.1,21.1,2.7,36.59,,,,,,,,,,
13.47.11.222,-233.6,58.4,0,,,17746.2,56.35,-0.46,0.14,0.83,22.7,-7.3,-6.7,36.38,,,,,,,,,,
13.47.11.231,36.8,9.2,0,,,17746.2,56.35,-0.41,0.12,-0.18,16.3,15.1,2.2,36.34,,,,,,,,,,
13.47.11.240,62.7,15.7,0,,,17746.2,56.35,-0.4,0.29,0.85,18.1,17.7,-8.2,36.5,,,,,,,,,,
13.47.11.250,152.6,38.2,0,,,17746.2,56.35,-0.38,0.23,1.0,19.8,4.4,-9.3,36.28,,,,,,,,,,
13.47.11.259,283.1,70.8,0,,,17746.2,56.35,-0.32,0.14,-0.62,6.1,-7.4,21.0,36.46,,,,,,,,,,
13.47.11.269,326.5,81.6,0,,,17746.2,56.35,-0.46,-0.31,1.09,-5.4,-13.2,4.5,36.47,,,,,,,,,,
13.47.11.279,425.5,106.4,0,,,17746.2,56.35,-0.31,0.57,0.64,-6.8,-2.7,2.4,36.46,,,,,,,,,,
13.47.11.289,448.4,112.1,0,,,17749.4,56.34,-0.3,-0.43,0.3,-12.0,-0.3,-4.2,36.48,,,,,,,,,,
13.47.11.298,535.0,133.8,0,,,17749.4,56.34,-0.55,0.06,0.76,1.7,6.5,-13.5,36.52,,,,,,,,,,
13.47.11.307,485.9,121.5,0,,,17749.4,56.34,-0.26,0.24,0.47,-29.8,6.7,0.9,36.26,,,,,,,,,,
13.47.11.317,518.9,129.7,0,,,17749.4,56.34,-0.63,-0.19,0.72,9.9,17.2,-6.0,36.33,,,,,,,,,,
13.47.11.328,423.0,105.8,0,,,17749.4,56.34,-0.91,0.44,-0.09,0.5,10.4,3.5,36.33,,,,,,,,,,
13.47.11.337,420.9,105.2,0,,,17749.4,56.34,-0.47,0.17,0.21,-1.1,12.6,-5.3,36.43,,,,,,,,,,
13.47.11.347,325.1,81.3,0,,,17749.4,56.34,-0.89,0.3,0.6,20.4,-7.5,-6.5,36.25,,,,,,,,,,
13.47.11.356,254.4,63.6,0,,,17749.4,56.34,-0.6,0.02,-0.25,16.5,2.6,-17.0,36.46,,,,,,,,,,
13.47.11.365,181.1,45.3,0,,,17752.5,56.33,-0.63,0.13,-0.39,20.9,2.4,3.4,36.23,,,,,,,,,,
13.47.11.373,99.1,24.8,0,,,17752.5,56.33,-0.6,0.07,0.31,5.3,19.3,-2.2,36.66,,,,,,,,,,
13.47.11.383,-4.5,1.1,0,,,17752.5,56.33,-0.94,0.16,-0.17,-3.0,7.6,-23.9,36.43,,,,,,,,,,
13.47.11.393,17.6,4.4,0,,,17752.5,56.33,-0.79,0.57,0.04,26.7,16.7,-27.7,36.43,,,,,,,,,,
13.47.11.403,59.0,14.8,0,,,17752.5,56.33,-0.58,0.63,-0.44,-12.2,-6.3,-13.8,36.53,,,,,,,,,,
13.47.11.412,49.4,12.4,0,,,17752.5,56.33,-1.01,0.44,0.18,-29.6,3.9,-15.9,36.42,,,,,,,,,,
13.47.11.422,101.8,25.4,0,,,17752.5,56.33,-0.97,1.07,0.28,-32.4,2.9,-0.9,36.2,,,,,,,,,,
13.47.11.432,74.8,18.7,0,,,17752.5,56.33,-0.66,1.0,0.63,-16.5,4.9,21.9,36.09,,,,,,,,,,
13.47.11.441,70.3,17.6,0,,,17755.7,56.32,-0.35,0.26,0.19,0.1,7.6,8.9,36.41,,,,,,,,,,
13.47.11.450,134.1,33.5,0,,,17755.7,56.32,-0.53,0.61,0.26,-1.2,7.1,7.8,36.51,,,,,,,,,,
13.47.11.460,118.6,29.6,1,31.0,153.8,17755.7,56.32,-0.65,1.17,-0.35,-29.4,12.9,-6.8,36.32,,,,,,,,,,
13.47.11.470,13.4,3.4,0,,,17755.7,56.32,-0.17,0.83,0.61,-11.2,-6.5,-6.8,36.39,,,,,,,,,,
13.47.11.479,17.8,4.4,0,,,17755.7,56.32,-0.22,0.73,0.24,14.7,9.0,-18.9,36.19,,,,,,,,,,
13.47.11.489,-1.1,0.3,0,,,17755.7,56.32,-0.3,0.56,0.25,-5.1,30.8,17.9,36.33,,,,,,,,,,
13.47.11.497,-26.0,6.5,0,,,17755.7,56.32,-0.36,0.47,0.61,-23.9,3.1,5.5,36.54,,,,,,,,,,
13.47.11.507,-54.0,13.5,0,,,17755.7,56.32,-0.08,0.61,1.26,28.4,-11.3,-0.9,36.61,,,,,,,,,,
13.47.11.515,-9.0,2.2,0,,,17758.8,56.31,-0.61,0.43,1.05,16.1,-5.6,2.2,36.44,,,,,,,,,,
13.47.11.524,-79.5,19.9,0,,,17758.8,56.31,-0.59,0.25,0.78,2.1,-23.5,1.5,36.48,,,,,,,,,,
13.47.11.532,-61.6,15.4,0,,,17758.8,56.31,-0.55,0.82,1.26,-27.6,21.0,-11.8,36.7,,,,,,,,,,
13.47.11.542,-109.1,27.3,0,,,17758.8,56.31,-0.04,-0.53,0.59,17.3,29.2,7.2,36.5,,,,,,,,,,
13.47.11.551,-76.1,19.0,0,,,17758.8,56.31,-0.39,0.57,0.05,13.6,-1.0,-17.9,36.3,,,,,,,,,,
13.47.11.559,-55.2,13.8,0,,,17758.8,56.31,-0.03,0.5,0.41,2.6,-5.9,-5.1,36.28,,,,,,,,,,
13.47.11.567,-117.5,29.4,0,,,17758.8,56.31,-0.48,-0.49,0.8,1.8,10.6,2.3,36.31,,,,,,,,,,
13.47.11.576,-105.7,26.4,0,,,17758.8,56.31,-0.27,0.17,0.23,21.8,-17.1,-14.7,36.37,,,,,,,,,,
13.47.11.587,-47.5,11.9,0,,,17762.0,56.3,-0.45,0.14,-0.17,-12.1,-12.9,-8.0,36.35,,,,,,,,,,
13.47.11.597,-114.5,28.6,0,,,17762.0,56.3,-0.23,0.15,0.41,11.2,3.7,8.6,36.56,,,,,,,,,,
13.47.11.608,-123.1,30.8,0,,,17762.0,56.3,-0.22,0.73,0.62,31.1,-4.8,0.2,36.39,,,,,,,,,,
13.47.11.618,-96.9,24.2,0,,,17762.0,56.3,-0.73,-0.11,0.47,27.4,17.6,8.8,36.48,,,,,,,,,,
13.47.11.628,-195.3,48.8,0,,,17762.0,56.3,-0.56,-0.52,0.8,-4.0,10.9,-1.0,36.21,,,,,,,,,,
13.47.11.638,-162.6,40.6,0,,,17762.0,56.3,-0.39,-0.57,0.45,6.1,12.8,13.4,36.37,,,,,,,,,,
13.47.11.647,-174.8,43.7,0,,,17762.0,56.3,-1.02,-0.22,-0.16,-2.6,-0.1,-13.9,36.4,,,,,,,,,,
13.47.11.657,-204.3,51.1,0,,,17765.1,56.29,-0.5,0.22,0.12,3.1,-2.7,-1.0,36.39,,,,,,,,,,
13.47.11.664,-163.3,40.8,0,,,17765.1,56.29,-0.76,0.46,0.42,-32.9,19.5,-10.1,36.01,,,,,,,,,,
13.47.11.673,46.6,11.6,0,,,17765.1,56.29,-0.68,0.07,-0.18,19.7,-3.2,5.8,36.44,,,,,,,,,,
13.47.11.683,142.1,35.5,0,,,17765.1,56.29,-1.0,-0.47,-0.19,-23.3,7.8,-3.5,36.34,,,,,,,,,,
13.47.11.693,204.9,51.2,0,,,17765.1,56.29,-0.91,-0.0,0.0,35.6,18.0,15.2,36.34,,,,,,,,,,
13.47.11.703,324.0,81.0,0,,,17765.1,56.29,-0.56,0.48,-0.42,-17.2,2.5,-0.4,36.27,,,,,,,,,,
13.47.11.714,410.3,102.6,0,,,17765.1,56.29,-0.55,0.46,0.04,-7.1,16.4,9.7,36.15,,,,,,,,,,
13.47.11.722,374.5,93.6,0,,,17765.1,56.29,-0.51,0.57,0.21,6.5,27.9,4.5,36.33,,,,,,,,,,
13.47.11.733,439.1,109.8,0,,,17768.3,56.28,-1.01,0.05,0.1,2.3,5.4,1.2,36.61,,,,,,,,,,
13.47.11.743,454.1,113.5,0,,,17768.3,56.28,-0.77,0.99,0.39,-1.8,20.7,1.1,36.24,,,,,,,,,,
13.47.11.752,528.3,132.1,0,,,17768.3,56.28,-0.59,0.59,-0.18,-12.1,23.4,-3.6,36.61,,,,,,,,,,
13.47.11.763,442.2,110.6,0,,,17768.3,56.28,-0.68,0.53,0.23,21.2,-7.5,4.2,36.42,,,,,,,,,,
13.47.11.773,359.6,89.9,0,,,17768.3,56.28,-0.48,0.59,0.74,0.5,6.6,-24.0,36.36,,,,,,,,,,
13.47.11.783,359.8,90.0,0,,,17768.3,56.28,-0.93,0.61,0.74,20.2,10.8,7.2,36.17,,,,,,,,,,
13.47.11.791,247.7,61.9,0,,,17768.3,56.28,-0.51,0.57,0.21,-43.3,16.8,-2.4,36.15,,,,,,,,,,
13.47.11.800,115.5,28.9,1,32.0,176.5,17768.3,56.28,-0.24,0.75,0.44,23.6,6.3,-1.1,36.57,,,,,,,,,,
13.47.11.810,121.8,30.4,0,,,17771.5,56.27,-0.42,0.77,0.94,-11.9,4.7,-7.7,36.23,,,,,,,,,,
13.47.11.819,51.6,12.9,0,,,17771.5,56.27,-0.44,1.08,0.91,5.3,10.3,-1.0,36.35,,,,,,,,,,
13.47.11.828,-51.9,13.0,0,,,17771.5,56.27,-0.6,0.06,0.27,-15.2,-9.8,4.5,36.7,,,,,,,,,,
13.47.11.837,24.8,6.2,0,,,17771.5,56.27,-0.4,0.65,0.66,16.9,31.7,-8.4,36.37,,,,,,,,,,
13.47.11.847,120.8,30.2,0,,,17771.5,56.27,-0.56,0.44,0.53,38.1,23.7,-13.8,36.35,,,,,,,,,,
13.47.11.856,85.6,21.4,0,,,17771.5,56.27,-0.18,-0.16,1.22,-2.4,2.9,-17.1,36.38,,,,,,,,,,
13.47.11.866,76.7,19.2,0,,,17771.5,56.27,-0.6,0.33,0.88,1.5,-4.5,-5.4,36.46,,,,,,,,,,
13.47.11.875,84.7,21.2,0,,,17771.5,56.27,0.32,0.66,0.34,15.3,4.5,-4.9,36.34,,,,,,,,,,
13.47.11.883,52.1,13.0,0,,,17774.6,56.26,-0.26,0.86,1.16,-26.6,4.3,0.3,36.48,,,,,,,,,,
13.47.11.892,,,0,,,,,,,,,,,,,,,,,,,,,
13.47.11.902,44.0,11.0,0,,,17774.6,56.26,-0.09,-0.01,0.63,25.6,15.4,-20.4,36.47,,,,,,,,,,
13.47.11.912,-8.9,2.2,0,,,17774.6,56.26,-0.31,-0.02,0.45,7.7,11.2,-12.5,36.49,,,,,,,,,,
13.47.11.922,6.4,1.6,0,,,17774.6,56.26,-0.62,-0.07,1.01,13.1,6.1,0.6,36.46,,,,,,,,,,
13.47.11.933,-50.2,12.6,0,,,17774.6,56.26,-0.23,-0.27,0.56,-5.2,2.7,-7.2,36.54,,,,,,,,,,
13.47.11.943,11.6,2.9,0,,,17774.6,56.26,-0.08,0.34,0.12,18.2,3.5,-4.1,36.46,,,,,,,,,,
13.47.11.951,-47.1,11.8,0,,,17774.6,56.26,-0.82,-0.24,0.77,-31.1,13.4,10.2,36.53,,,,,,,,,,
13.47.11.962,-55.1,13.8,0,,,17777.8,56.25,-0.36,0.16,-1.24,11.3,3.3,1.6,36.51,,,,,,,,,,
13.47.11.970,-52.2,13.0,0,,,17777.8,56.25,-0.13,0.12,0.95,-17.6,-0.5,-7.7,36.43,,,,,,,,,,
13.47.11.979,-81.7,20.4,0,,,17777.8,56.25,-0.61,0.22,-0.69,-24.1,1.6,-3.6,36.5,,,,,,,,,,
13.47.11.989,-95.4,23.8,0,,,17777.8,56.25,-0.74,0.04,0.14,13.5,-6.3,9.2,36.45,,,,,,,,,,
13.47.11.997,-36.1,9.0,0,,,17777.8,56.25,-0.67,0.1,0.79,-27.8,6.4,-7.1,36.3,,,,,,,,,,
13.47.12.007,-120.9,30.2,0,,,17777.8,56.25,-0.66,-0.57,-0.66,20.6,3.2,15.3,36.58,,,,,,,,,,
13.47.12.016,-68.8,17.2,0,,,17777.8,56.25,-0.57,-0.02,-0.47,-11.6,10.6,-16.0,36.46,,,,,,,,,,
13.47.12.025,-147.4,36.8,0,,,17777.8,56.25,-0.71,0.41,-0.13,-13.2,10.6,14.5,36.35,,,,,,,,,,
13.47.12.034,-160.8,40.2,0,,,17777.8,56.25,-0.84,-0.05,0.59,9.0,25.5,0.3,36.44,,,,,,,,,,
13.47.12.042,-105.3,26.3,0,,,17777.8,56.25,-0.44,0.73,-0.38,1.8,6.3,13.0,36.42,,,,,,,,,,
13.47.12.051,-116.3,29.1,0,,,17777.8,56.25,-0.41,1.17,-0.12,-5.5,28.7,4.3,36.39,,,,,,,,,,
13.47.12.060,-205.4,51.4,0,,,17777.8,56.25,-0.55,0.53,-0.2,4.7,9.7,-7.8,36.58,,,,,,,,,,
13.47.12.070,-107.8,27.0,0,,,17777.8,56.25,-0.91,0.29,0.2,-10.6,23.8,6.4,36.63,,,,,,,,,,
13.47.12.080,-195.3,48.8,0,,,17777.8,56.25,-0.76,0.57,-0.41,7.6,26.6,2.7,36.44,,,,,,,,,,
13.47.12.090,-187.6,46.9,0,,,17777.8,56.25,-0.86,0.87,-0.02,-1.4,35.6,-24.3,36.56,,,,,,,,,,
13.47.12.097,-235.6,58.9,0,,,17777.8,56.25,-0.96,0.4,-0.07,4.2,1.3,3.5,36.51,,,,,,,,,,
13.47.12.107,26.4,6.6,0,,,17777.8,56.25,-0.55,0.81,0.1,-14.9,17.0,10.0,36.3,,,,,,,,,,
13.47.12.117,102.9,25.7,0,,,17780.9,56.24,-0.64,0.5,1.09,15.0,12.7,4.1,36.59,,,,,,,,,,
13.47.12.126,214.0,53.5,0,,,17780.9,56.24,-0.75,1.01,-0.22,11.9,9.4,-7.2,36.55,,,,,,,,,,
13.47.12.137,254.6,63.6,0,,,17780.9,56.24,-0.65,0.53,0.03,2.9,2.0,11.8,36.26,,,,,,,,,,
13.47.12.147,338.4,84.6,1,33.0,172.9,17780.9,56.24,-0.25,1.01,0.26,9.1,-9.8,6.6,36.28,,,,,,,,,,
13.47.12.155,346.8,86.7,0,,,17780.9,56.24,-0.18,0.52,0.23,15.1,6.7,-9.3,36.53,,,,,,,,,,
13.47.12.164,494.6,123.6,0,,,17780.9,56.24,-0.34,0.68,0.8,-25.4,12.6,4.2,36.62,,,,,,,,,,
13.47.12.175,420.8,105.2,0,,,17780.9,56.24,-0.19,0.96,0.85,-2.2,1.4,6.9,36.43,,,,,,,,,,
13.47.12.185,583.3,145.8,0,,,17780.9,56.24,-0.35,-0.02,0.47,7.9,-4.0,-11.2,36.38,,,,,,,,,,
13.47.12.195,472.6,118.2,0,,,17780.9,56.24,-0.35,0.71,1.15,-16.1,5.2,-10.8,36.39,,,,,,,,,,
13.47.12.207,432.0,108.0,0,,,17780.9,56.24,-0.53,-0.09,1.32,1.9,-0.3,0.5,36.39,,,,,,,,,,
13.47.12.215,407.6,101.9,0,,,17780.9,56.24,-0.44,-0.02,0.44,-3.1,20.3,6.1,36.66,,,,,,,,,,
13.47.12.225,352.9,88.2,0,,,17780.9,56.24,-0.43,0.65,0.53,13.7,1.0,10.2,36.46,,,,,,,,,,
13.47.12.234,206.0,51.5,0,,,17780.9,56.24,-0.18,0.45,0.63,-3.2,29.7,0.4,36.48,,,,,,,,,,
13.47.12.243,224.9,56.2,0,,,17780.9,56.24,-0.35,0.47,0.2,-29.7,9.6,5.5,36.54,,,,,,,,,,
13.47.12.252,57.8,14.4,0,,,17780.9,56.24,0.15,0.48,0.1,8.5,3.4,-2.8,36.28,,,,,,,,,,
13.47.12.263,-65.2,16.3,0,,,17780.9,56.24,-0.5,0.08,1.26,-8.1,15.2,24.1,36.43,,,,,,,,,,
13.47.12.275,49.9,12.5,0,,,17780.9,56.24,-0.1,0.03,1.03,12.4,13.6,17.5,36.49,,,,,,,,,,
13.47.12.285,49.3,12.3,0,,,17780.9,56.24,-0.57,0.51,0.43,-16.4,11.4,-11.8,36.27,,,,,,,,,,
13.47.12.294,119.9,30.0,0,,,17780.9,56.24,-0.62,0.29,-0.12,-1.1,10.3,7.8,36.26,,,,,,,,,,
13.47.12.305,33.0,8.2,0,,,17780.9,56.24,-0.71,-0.48,0.04,-23.9,13.4,13.0,36.48,,,,,,,,,,
13.47.12.315,48.7,12.2,0,,,17780.9,56.24,-0.87,-0.68,0.55,-11.3,5.2,9.8,36.58,,,,,,,,,,
13.47.12.327,91.3,22.8,0,,,17780.9,56.24,-0.81,-0.16,-0.5,-17.0,11.5,-1.1,36.3,,,,,,,,,,
13.47.12.338,25.7,6.4,0,,,17780.9,56.24,-0.55,0.12,-0.86,-0.2,2.0,1.2,36.32,,,,,,,,,,
13.47.12.346,-10.6,2.6,0,,,17780.9,56.24,-0.36,-0.21,0.33,10.2,6.3,-10.0,36.53,,,,,,,,,,
13.47.12.355,-103.3,25.8,0,,,17780.9,56.24,-0.54,0.12,0.08,-12.5,11.6,-9.4,36.39,,,,,,,,,,
13.47.12.364,-30.3,7.6,0,,,17780.9,56.24,-1.13,0.33,0.17,15.0,5.5,-10.3,36.44,,,,,,,,,,
13.47.12.375,-78.6,19.6,0,,,17780.9,56.24,-0.85,-0.53,0.35,-7.0,15.7,2.6,36.44,,,,,,,,,,
13.47.12.385,2.0,0.5,0,,,17780.9,56.24,-0.72,0.37,-0.61,10.0,1.6,-2.2,36.3,,,,,,,,,,
13.47.12.395,25.4,6.4,0,,,17780.9,56.24,-0.13,0.88,0.08,-15.3,25.5,4.6,36.43,,,,,,,,,,
13.47.12.407,-67.7,16.9,0,,,17780.9,56.24,-0.93,0.39,-0.29,-15.6,5.7,-20.6,36.31,,,,,,,,,,
13.47.12.419,-112.9,28.2,0,,,17780.9,56.24,-0.57,0.19,0.81,-12.9,8.5,24.4,36.51,,,,,,,,,,
13.47.12.430,-117.5,29.4,0,,,17780.9,56.24,-0.87,0.69,0.5,21.4,0.0,-8.7,36.41,,,,,,,,,,
13.47.12.439,-113.5,28.4,1,34.0,205.5,17780.9,56.24,-0.54,-0.14,0.15,-7.2,12.8,-1.1,36.48,,,,,,,,,,
13.47.12.450,-105.7,26.4,0,,,17780.9,56.24,-0.66,0.43,0.71,17.5,2.8,-10.5,36.54,,,,,,,,,,
13.47.12.459,-133.3,33.3,0,,,17784.1,56.23,-0.63,0.75,0.32,4.5,-17.1,0.5,36.4,,,,,,,,,,
13.47.12.469,-90.2,22.6,0,,,17784.1,56.23,-0.49,0.93,0.33,24.8,4.0,-19.3,36.44,,,,,,,,,,
13.47.12.479,-139.3,34.8,0,,,17784.1,56.23,-0.66,1.29,-0.87,-22.6,23.0,-7.7,36.47,,,,,,,,,,
13.47.12.491,-137.9,34.5,0,,,17784.1,56.23,-0.19,0.19,0.64,11.8,-4.1,2.0,36.52,,,,,,,,,,
13.47.12.500,-229.5,57.4,0,,,17784.1,56.23,-0.38,0.3,0.2,21.6,11.0,23.1,36.22,,,,,,,,,,
13.47.12.509,-166.6,41.6,0,,,17784.1,56.23,0.1,0.43,1.29,20.8,20.5,-10.5,36.32,,,,,,,,,,
13.47.12.517,-192.8,48.2,0,,,17784.1,56.23,-0.61,1.22,1.47,-4.9,23.6,2.8,36.29,,,,,,,,,,
13.47.12.529,-209.5,52.4,0,,,17784.1,56.23,-0.36,0.48,-0.07,18.9,-3.4,-18.4,36.51,,,,,,,,,,
13.47.12.538,-139.5,34.9,0,,,17784.1,56.23,-0.76,1.0,0.91,17.7,19.2,-29.3,36.32,,,,,,,,,,
13.47.12.547,71.2,17.8,0,,,17784.1,56.23,-0.73,0.44,0.85,15.6,-2.2,-0.3,36.35,,,,,,,,,,
13.47.12.555,200.3,50.1,0,,,17784.1,56.23,-0.2,0.74,0.18,25.5,5.2,10.3,36.31,,,,,,,,,,
13.47.12.565,231.7,57.9,0,,,17784.1,56.23,-0.78,0.88,1.52,8.5,6.2,-14.0,36.27,,,,,,,,,,
13.47.12.574,351.1,87.8,0,,,17784.1,56.23,-0.55,0.27,0.01,-2.9,-13.7,10.5,36.64,,,,,,,,,,
13.47.12.583,381.8,95.4,0,,,17784.1,56.23,-0.48,-0.24,2.0,19.4,10.4,9.6,36.23,,,,,,,,,,
13.47.12.594,473.0,118.2,0,,,17784.1,56.23,-0.06,0.65,-0.24,-10.1,19.5,21.0,36.41,,,,,,,,,,
13.47.12.604,432.4,108.1,0,,,17784.1,56.23,-0.48,0.19,0.75,10.9,-6.3,-13.0,36.45,,,,,,,,,,
13.47.12.615,476.2,119.0,0,,,17784.1,56.23,-0.46,0.42,0.56,2.8,0.4,-1.4,36.37,,,,,,,,,,
13.47.12.625,532.7,133.2,0,,,17784.1,56.23,-0.32,-0.1,0.25,19.5,33.4,16.6,36.44,,,,,,,,,,
13.47.12.635,453.1,113.3,0,,,17784.1,56.23,-0.39,0.18,1.43,-16.6,28.7,-9.7,36.45,,,,,,,,,,
13.47.12.642,367.4,91.8,0,,,17784.1,56.23,-0.88,-0.22,0.04,-51.5,10.8,-11.9,36.32,,,,,,,,,,
13.47.12.651,349.9,87.5,0,,,17784.1,56.23,-0.53,0.5,0.32,-14.5,22.5,-24.3,36.35,,,,,,,,,,
13.47.12.661,256.9,64.2,0,,,17784.1,56.23,-0.77,0.37,0.39,8.5,-19.7,-6.3,36.42,,,,,,,,,,
13.47.12.671,269.9,67.5,0,,,17784.1,56.23,-0.63,0.21,0.2,16.3,-1.9,4.2,36.47,,,,,,,,,,
13.47.12.680,126.7,31.7,0,,,17784.1,56.23,-0.43,-0.65,0.44,-10.2,32.4,-11.6,36.51,,,,,,,,,,
13.47.12.691,29.0,7.2,0,,,17784.1,56.23,-0.56,-0.13,-0.3,0.6,7.8,21.0,36.17,,,,,,,,,,
13.47.12.702,8.9,2.2,0,,,17784.1,56.23,-0.37,0.21,0.72,-12.5,20.3,-6.6,36.43,,,,,,,,,,
13.47.12.712,30.1,7.5,0,,,17784.1,56.23,-0.45,0.54,0.2,13.7,5.6,12.2,36.31,,,,,,,,,,
13.47.12.724,-2.3,0.6,0,,,17784.1,56.23,-0.55,0.23,-1.38,32.3,-5.5,-0.8,36.29,,,,,,,,,,
13.47.12.736,,,0,,,,,,,,,,,,,,,,,,,,,
13.47.12.746,41.2,10.3,0,,,17784.1,56.23,-0.66,0.29,-0.18,-5.6,8.9,3.2,36.27,,,,,,,,,,
13.47.12.756,72.8,18.2,0,,,17784.1,56.23,-1.21,0.47,-0.03,-25.8,22.0,1.6,36.43,,,,,,,,,,
13.47.12.766,59.1,14.8,0,,,17784.1,56.23,-0.63,0.21,0.02,-6.0,1.6,1.6,36.3,,,,,,,,,,
13.47.12.774,35.0,8.8,0,,,17784.1,56.23,-1.16,0.65,-0.06,-15.6,-3.4,-2.9,36.53,,,,,,,,,,
13.47.12.784,-20.0,5.0,0,,,17784.1,56.23,-0.61,1.11,0.17,-17.2,-4.2,8.5,36.31,,,,,,,,,,
13.47.12.794,-1.6,0.4,0,,,17787.3,56.22,-0.68,0.45,0.08,34.9,-7.0,-15.5,36.45,,,,,,,,,,
13.47.12.806,-59.8,15.0,0,,,17787.3,56.22,-0.83,0.48,0.4,-4.1,-12.0,-13.5,36.37,,,,,,,,,,
13.47.12.815,-51.9,13.0,0,,,17787.3,56.22,-0.92,0.51,1.13,-7.8,3.4,-3.2,36.44,,,,,,,,,,
13.47.12.824,-39.3,9.8,0,,,17787.3,56.22,-0.73,0.45,0.21,-7.2,-1.3,-3.5,36.3,,,,,,,,,,
13.47.12.835,-23.9,6.0,0,,,17787.3,56.22,-0.61,1.13,0.57,-7.9,2.2,-0.1,36.36,,,,,,,,,,
13.47.12.845,-59.3,14.8,0,,,17787.3,56.22,-0.24,0.68,1.09,-13.6,-4.3,-8.1,36.41,,,,,,,,,,
13.47.12.855,-91.0,22.8,1,35.0,144.2,17787.3,56.22,-0.46,0.62,0.34,-16.6,18.3,-9.7,36.27,,,,,,,,,,
13.47.12.865,-60.9,15.2,0,,,17787.3,56.22,-0.29,0.26,0.99,6.1,13.8,-2.7,36.64,,,,,,,,,,
13.47.12.873,-179.0,44.8,0,,,17787.3,56.22,-0.61,0.77,-0.03,-10.2,-12.3,-0.1,36.25,,,,,,,,,,
13.47.12.885,-173.8,43.4,0,,,17787.3,56.22,-0.76,0.89,0.84,-12.9,1.0,13.5,36.24,,,,,,,,,,
13.47.12.895,-114.7,28.7,0,,,17787.3,56.22,-0.11,1.01,1.42,6.6,10.8,4.8,36.42,,,,,,,,,,
13.47.12.905,-122.7,30.7,0,,,17787.3,56.22,-0.26,0.35,0.71,12.6,3.9,-1.3,36.48,,,,,,,,,,
13.47.12.915,-125.1,31.3,0,,,17787.3,56.22,0.08,0.36,-0.01,-12.5,-1.1,-12.2,36.39,,,,,,,,,,
13.47.12.926,-36.9,9.2,0,,,17787.3,56.22,-0.14,0.44,1.26,-4.2,-3.4,-6.9,36.29,,,,,,,,,,
13.47.12.938,-152.4,38.1,0,,,17787.3,56.22,-0.35,-0.3,1.36,0.6,-9.5,4.7,36.55,,,,,,,,,,
13.47.12.948,-169.5,42.4,0,,,17787.3,56.22,-0.18,0.2,1.29,-11.4,-6.0,-15.7,36.49,,,,,,,,,,
13.47.12.959,-193.1,48.3,0,,,17787.3,56.22,-0.23,0.46,1.13,21.4,4.4,1.6,36.51,,,,,,,,,,
13.47.12.972,-220.9,55.2,0,,,17787.3,56.22,0.05,0.48,1.33,13.6,-2.0,0.8,36.23,,,,,,,,,,
13.47.12.981,42.6,10.6,0,,,17787.3,56.22,-0.31,0.12,1.12,10.1,4.3,2.2,36.57,,,,,,,,,,
13.47.12.990,101.2,25.3,0,,,17787.3,56.22,-0.36,-0.11,-0.01,-12.1,-2.5,31.3,36.52,,,,,,,,,,
13.47.13.000,292.7,73.2,0,,,17787.3,56.22,-0.37,0.31,0.45,-2.8,-3.7,1.2,36.31,,,,,,,,,,
13.47.13.011,317.3,79.3,0,,,17787.3,56.22,-0.71,-0.13,0.34,-28.7,14.2,7.1,36.43,,,,,,,,,,
13.47.13.020,370.9,92.7,0,,,17787.3,56.22,-0.31,-0.06,0.14,-39.2,5.6,5.8,36.42,,,,,,,,,,
13.47.13.030,462.8,115.7,0,,,17790.4,56.21,-0.31,0.31,0.54,-21.5,-3.9,12.1,36.48,,,,,,,,,,
13.47.13.039,486.3,121.6,0,,,17790.4,56.21,-0.75,0.0,-0.02,4.1,6.5,14.4,36.38,,,,,,,,,,
13.47.13.049,500.2,125.0,0,,,17790.4,56.21,-0.67,-0.16,-0.06,-22.7,10.2,1.2,36.43,,,,,,,,,,
13.47.13.057,438.9,109.7,0,,,17790.4,56.21,-0.58,0.72,0.85,18.2,6.7,12.0,36.45,,,,,,,,,,
13.47.13.065,497.7,124.4,0,,,17790.4,56.21,-0.5,0.54,-0.05,7.4,13.8,16.4,36.41,,,,,,,,,,
13.47.13.077,412.6,103.2,0,,,17790.4,56.21,-0.44,-0.67,-0.13,-0.3,9.7,-1.7,36.27,,,,,,,,,,
13.47.13.085,306.1,76.5,0,,,17793.6,56.2,-0.45,0.31,-0.24,-15.8,-15.2,-13.9,36.39,,,,,,,,,,
13.47.13.097,312.4,78.1,0,,,17793.6,56.2,-0.71,0.59,-0.81,0.6,18.8,-7.4,36.51,,,,,,,,,,
13.47.13.107,190.0,47.5,0,,,17793.6,56.2,-1.17,0.37,-0.07,-23.6,20.1,-4.8,36.33,,,,,,,,,,
13.47.13.117,68.8,17.2,0,,,17793.6,56.2,-0.55,-0.04,-0.16,7.2,2.0,-1.2,36.33,,,,,,,,,,
13.47.13.126,20.4,5.1,0,,,17793.6,56.2,-0.91,-0.2,-0.75,19.4,28.1,-3.2,36.37,,,,,,,,,,
13.47.13.136,4.1,1.0,0,,,17793.6,56.2,-0.6,1.01,-0.68,11.1,35.3,0.8,36.12,,,,,,,,,,
