timestamp,ppg,threshold,beat,beat_count,inst_bpm,gsr_resistance_ohm,gsr_conductance_us,accel_x,accel_y,accel_z,gyro_x,gyro_y,gyro_z,temp_c,window_bpm,window_temp_c,status_message,SpO2,bmi,age,height,weight,env_temp_c,env_humidity_pct
13.23.16.000,0.0,0.0,0,,,101419.9,9.86,-0.16,0.47,0.28,3.5,-12.0,0.5,34.81,59.0,,,97.0,21.1,20.0,172.72,63.0,31.44,45.0
13.23.16.009,13.7,3.4,0,,,101419.9,9.86,-0.28,0.55,0.43,-4.1,10.6,5.2,35.12,,,,,,,,,,
13.23.16.018,43.8,11.0,0,,,101419.9,9.86,-0.33,0.68,0.52,-8.0,14.9,-3.6,35.27,,,,,,,,,,
13.23.16.029,85.6,21.4,0,,,101419.9,9.86,-0.33,0.71,0.51,3.6,-6.2,5.1,35.09,,,,,,,,,,
13.23.16.042,128.7,32.2,0,,,101419.9,9.86,-0.22,0.62,0.51,-1.6,-2.8,13.7,34.9,,,,,,,,,,
13.23.16.053,151.5,37.9,0,,,101419.9,9.86,-0.29,0.77,0.38,-9.1,-14.9,-17.2,34.91,,,,,,,,,,
13.23.16.062,174.7,43.7,0,,,101419.9,9.86,-0.25,0.63,0.47,-17.5,-8.9,-10.9,35.28,,,,,,,,,,
13.23.16.073,205.2,51.3,0,,,101419.9,9.86,-0.19,0.73,0.46,-25.6,-16.1,19.7,35.18,,,,,,,,,,
13.23.16.084,227.5,56.9,0,,,101419.9,9.86,-0.29,0.63,0.53,7.0,29.3,5.2,35.26,,,,,,,,,,
13.23.16.093,240.2,60.0,0,,,101419.9,9.86,-0.22,0.62,0.43,20.3,7.2,12.8,35.39,,,,,,,,,,
13.23.16.101,265.4,66.4,0,,,101419.9,9.86,-0.29,0.37,0.44,-7.8,21.9,2.2,35.38,,,,,,,,,,
13.23.16.110,294.6,73.6,0,,,101419.9,9.86,-0.08,0.72,0.47,-7.5,-5.7,-11.4,35.13,,,,,,,,,,
13.23.16.119,288.3,72.1,0,,,101419.9,9.86,-0.47,0.51,0.33,-6.4,-7.9,12.9,35.7,,,,,,,,,,
13.23.16.126,301.5,75.4,0,,,101419.9,9.86,-0.34,0.6,0.3,2.4,19.4,8.4,35.09,,,,,,,,,,
13.23.16.135,299.6,74.9,0,,,101419.9,9.86,-0.19,0.78,0.47,-22.0,12.9,5.7,35.66,,,,,,,,,,
13.23.16.146,334.6,83.6,0,,,101419.9,9.86,-0.35,0.72,0.34,7.6,2.3,-4.9,35.08,,,,,,,,,,
13.23.16.156,296.1,74.0,0,,,101419.9,9.86,-0.34,0.63,0.52,4.6,11.9,10.8,35.02,,,,,,,,,,
13.23.16.164,318.7,79.7,0,,,101419.9,9.86,-0.23,0.52,0.46,-3.9,19.4,7.4,35.58,,,,,,,,,,
13.23.16.174,325.3,81.3,0,,,101419.9,9.86,-0.24,0.9,0.56,-11.0,11.0,-2.5,35.15,,,,,,,,,,
13.23.16.184,341.7,85.4,0,,,101419.9,9.86,-0.26,0.71,0.33,16.5,14.7,-0.1,35.06,,,,,,,,,,
13.23.16.192,322.9,80.7,0,,,101419.9,9.86,-0.29,0.71,0.36,12.1,10.3,2.5,35.04,,,,,,,,,,
13.23.16.202,308.7,77.2,0,,,101419.9,9.86,-0.22,0.62,0.42,9.4,-9.0,-12.8,35.28,,,,,,,,,,
13.23.16.210,,,0,,,,,,,,,,,,,,,,,,,,,
13.23.16.219,290.1,72.5,0,,,101419.9,9.86,-0.14,0.66,0.46,12.1,5.2,11.2,34.74,,,,,,,,,,
13.23.16.227,273.3,68.3,0,,,101419.9,9.86,-0.24,0.65,0.37,-4.8,7.5,-5.0,35.2,,,,,,,,,,
13.23.16.237,264.3,66.1,0,,,101419.9,9.86,-0.19,0.56,0.25,-20.8,-0.8,-6.3,34.78,,,,,,,,,,
13.23.16.247,224.5,56.1,0,,,101419.9,9.86,-0.27,0.55,0.38,2.0,1.2,-3.9,35.17,,,,,,,,,,
13.23.16.256,237.4,59.4,0,,,101419.9,9.86,-0.34,0.67,0.45,1.6,1.9,-1.2,35.5,,,,,,,,,,
13.23.16.267,178.5,44.6,0,,,101419.9,9.86,-0.36,0.71,0.45,-1.1,12.7,17.8,35.0,,,,,,,,,,
13.23.16.276,177.3,44.3,0,,,101419.9,9.86,-0.24,0.57,0.44,10.6,7.7,-0.7,35.11,,,,,,,,,,
13.23.16.286,150.3,37.6,0,,,101419.9,9.86,-0.32,0.73,0.39,5.8,8.0,12.9,35.09,,,,,,,,,,
13.23.16.295,,,0,,,,,,,,,,,,,,,,,,,,,
13.23.16.303,100.5,25.1,0,,,101419.9,9.86,-0.29,0.63,0.38,-9.0,7.7,-15.5,34.86,,,,,,,,,,
13.23.16.311,76.8,19.2,0,,,101419.9,9.86,-0.26,0.65,0.56,-19.0,13.3,-2.3,35.1,,,,,,,,,,
13.23.16.319,47.4,11.8,0,,,101419.9,9.86,-0.3,0.53,0.44,-23.9,5.0,-18.2,35.63,,,,,,,,,,
13.23.16.330,23.0,5.8,0,,,101419.9,9.86,-0.22,0.7,0.33,-13.3,19.6,-14.7,34.64,,,,,,,,,,
13.23.16.337,-5.9,1.5,0,,,101419.9,9.86,-0.31,0.63,0.42,26.7,7.3,-16.5,35.3,,,,,,,,,,
13.23.16.346,8.4,2.1,0,,,101419.9,9.86,-0.26,0.58,0.32,2.0,15.2,4.1,35.28,,,,,,,,,,
13.23.16.354,11.6,2.9,0,,,101419.9,9.86,-0.33,0.68,0.48,-11.3,2.6,-2.3,35.51,,,,,,,,,,
13.23.16.364,25.7,6.4,0,,,101419.9,9.86,-0.35,0.73,0.35,-18.2,8.2,-22.4,35.19,,,,,,,,,,
13.23.16.374,35.2,8.8,0,,,101419.9,9.86,-0.14,0.7,0.51,-13.1,17.5,-5.7,35.2,,,,,,,,,,
13.23.16.385,37.0,9.2,0,,,101419.9,9.86,-0.21,0.76,0.5,-0.4,6.0,-13.7,34.92,,,,,,,,,,
13.23.16.395,49.9,12.5,0,,,101419.9,9.86,-0.2,0.62,0.55,4.1,-1.2,-0.7,35.35,,,,,,,,,,
13.23.16.407,54.4,13.6,0,,,101419.9,9.86,-0.34,0.69,0.53,-5.9,11.3,5.1,35.04,,,,,,,,,,
13.23.16.417,66.3,16.6,0,,,101419.9,9.86,-0.33,0.67,0.33,0.6,11.1,26.0,35.43,,,,,,,,,,
13.23.16.428,55.9,14.0,0,,,101419.9,9.86,-0.28,0.62,0.51,20.8,-1.7,-1.3,35.36,,,,,,,,,,
13.23.16.440,61.7,15.4,0,,,101419.9,9.86,-0.37,0.7,0.52,-7.5,17.8,2.5,35.53,,,,,,,,,,
13.23.16.451,60.1,15.0,0,,,101419.9,9.86,-0.46,0.82,0.34,3.8,12.0,15.6,35.38,,,,,,,,,,
13.23.16.462,54.5,13.6,0,,,101419.9,9.86,-0.18,0.73,0.25,12.7,5.0,-10.8,34.99,,,,,,,,,,
13.23.16.471,54.2,13.6,0,,,101419.9,9.86,-0.25,0.61,0.51,22.4,-4.2,1.4,34.86,,,,,,,,,,
13.23.16.481,41.2,10.3,0,,,101419.9,9.86,-0.26,0.68,0.47,6.7,-12.1,5.6,35.27,,,,,,,,,,
13.23.16.489,38.6,9.6,0,,,101419.9,9.86,-0.28,0.62,0.42,-4.6,-6.9,1.2,35.06,,,,,,,,,,
13.23.16.498,28.6,7.2,0,,,101419.9,9.86,-0.29,0.68,0.54,17.4,2.4,-4.6,35.48,,,,,,,,,,
13.23.16.508,26.1,6.5,0,,,101419.9,9.86,-0.32,0.65,0.47,-10.4,4.8,5.3,35.08,,,,,,,,,,
13.23.16.517,14.8,3.7,0,,,101419.9,9.86,-0.26,0.6,0.31,9.4,7.8,-0.8,34.86,,,,,,,,,,
13.23.16.526,-0.4,0.1,0,,,101419.9,9.86,-0.32,0.63,0.45,15.6,10.9,-5.6,35.06,,,,,,,,,,
13.23.16.537,-2.1,0.5,0,,,101419.9,9.86,-0.23,0.65,0.52,-16.5,-2.8,-9.5,35.23,,,,,,,,,,
13.23.16.547,-2.3,0.6,0,,,101419.9,9.86,-0.19,0.74,0.49,-0.8,18.6,-11.0,35.27,,,,,,,,,,
13.23.16.558,-5.0,1.2,0,,,101419.9,9.86,-0.24,0.62,0.43,-0.2,-5.5,-8.5,35.02,,,,,,,,,,
13.23.16.568,-18.0,4.5,0,,,101419.9,9.86,-0.2,0.69,0.48,1.9,-0.4,3.3,35.53,,,,,,,,,,
13.23.16.577,-14.1,3.5,0,,,101419.9,9.86,-0.28,0.79,0.4,0.4,13.1,-5.4,35.42,,,,,,,,,,
13.23.16.587,-14.5,3.6,0,,,101419.9,9.86,-0.17,0.58,0.36,-18.7,24.2,-2.4,35.0,,,,,,,,,,
13.23.16.598,-12.9,3.2,0,,,101419.9,9.86,-0.17,0.86,0.48,-19.1,2.6,-19.3,35.27,,,,,,,,,,
13.23.16.606,-18.1,4.5,0,,,101419.9,9.86,-0.34,0.62,0.44,-11.8,19.3,11.8,35.23,,,,,,,,,,
13.23.16.614,-29.6,7.4,0,,,101419.9,9.86,-0.27,0.86,0.47,7.9,-2.4,-8.4,35.7,,,,,,,,,,
13.23.16.625,-27.0,6.8,0,,,101419.9,9.86,-0.23,0.64,0.3,5.0,6.2,13.7,35.21,,,,,,,,,,
13.23.16.635,-30.2,7.6,0,,,101419.9,9.86,-0.23,0.64,0.57,3.0,10.8,-9.2,35.23,,,,,,,,,,
13.23.16.645,-35.9,9.0,0,,,101419.9,9.86,-0.2,0.78,0.29,-4.2,1.0,-3.2,35.03,,,,,,,,,,
13.23.16.652,-31.4,7.8,0,,,101419.9,9.86,-0.28,0.67,0.58,-9.4,10.4,-10.5,35.42,,,,,,,,,,
13.23.16.660,-42.2,10.6,0,,,101419.9,9.86,-0.34,0.59,0.43,7.2,13.1,-5.7,35.19,,,,,,,,,,
13.23.16.670,-45.2,11.3,0,,,101419.9,9.86,-0.25,0.82,0.47,-2.0,-11.5,1.3,34.92,,,,,,,,,,
13.23.16.679,-44.2,11.0,0,,,101419.9,9.86,-0.2,0.63,0.44,-3.7,8.3,-12.5,35.21,,,,,,,,,,
13.23.16.686,-47.5,11.9,0,,,101419.9,9.86,-0.42,0.63,0.42,-9.1,2.4,-19.2,35.16,,,,,,,,,,
13.23.16.695,-46.7,11.7,0,,,101419.9,9.86,-0.31,0.61,0.36,18.9,-7.1,-1.4,35.46,,,,,,,,,,
13.23.16.704,-49.6,12.4,0,,,101419.9,9.86,-0.27,0.56,0.33,0.1,-7.5,-3.4,35.19,,,,,,,,,,
13.23.16.713,-55.3,13.8,0,,,101419.9,9.86,-0.21,0.58,0.41,-4.3,18.9,4.4,35.37,,,,,,,,,,
13.23.16.722,-53.4,13.4,0,,,101419.9,9.86,-0.32,0.63,0.45,2.2,13.1,-6.2,35.03,,,,,,,,,,
13.23.16.731,-48.1,12.0,0,,,101419.9,9.86,-0.4,0.68,0.31,-10.0,1.8,0.3,34.84,,,,,,,,,,
13.23.16.741,-65.3,16.3,0,,,101419.9,9.86,-0.28,0.8,0.67,-13.9,-0.8,-6.4,34.7,,,,,,,,,,
13.23.16.751,-65.4,16.4,0,,,101419.9,9.86,-0.15,0.64,0.61,7.5,12.0,-2.3,35.51,,,,,,,,,,
13.23.16.760,-71.9,18.0,0,,,101419.9,9.86,-0.22,0.58,0.51,-15.3,12.0,8.5,35.17,,,,,,,,,,
13.23.16.772,-69.5,17.4,0,,,101419.9,9.86,-0.31,0.75,0.56,-7.5,20.9,-6.5,34.79,,,,,,,,,,
13.23.16.782,-80.0,20.0,0,,,101419.9,9.86,-0.45,0.79,0.29,-32.8,8.5,3.3,35.09,,,,,,,,,,
13.23.16.791,-75.2,18.8,0,,,101419.9,9.86,-0.3,0.6,0.31,-4.4,1.1,-3.8,35.85,,,,,,,,,,
13.23.16.801,-82.1,20.5,0,,,101419.9,9.86,-0.37,0.75,0.32,17.0,11.8,13.1,35.0,,,,,,,,,,
13.23.16.809,-93.6,23.4,0,,,101419.9,9.86,-0.23,0.69,0.48,-6.9,14.8,19.3,35.27,,,,,,,,,,
13.23.16.820,-82.8,20.7,0,,,101419.9,9.86,-0.14,0.59,0.54,22.7,6.3,-3.6,35.53,,,,,,,,,,
13.23.16.831,-90.5,22.6,0,,,101419.9,9.86,-0.16,0.77,0.42,6.8,-6.7,17.0,35.34,,,,,,,,,,
13.23.16.840,-95.6,23.9,0,,,101419.9,9.86,-0.26,0.59,0.53,8.6,10.5,1.8,35.2,,,,,,,,,,
13.23.16.851,-82.1,20.5,0,,,101419.9,9.86,-0.2,0.5,0.37,-39.3,33.3,-1.6,35.28,,,,,,,,,,
13.23.16.859,-95.7,23.9,0,,,101419.9,9.86,-0.22,0.47,0.61,7.5,4.3,7.8,35.12,,,,,,,,,,
13.23.16.870,-93.7,23.4,0,,,101419.9,9.86,-0.15,0.82,0.58,31.5,36.1,2.9,34.99,,,,,,,,,,
13.23.16.879,-97.0,24.2,0,,,101419.9,9.86,-0.21,0.64,0.46,-4.6,-11.2,-11.3,35.26,,,,,,,,,,
13.23.16.890,-103.2,25.8,0,,,101419.9,9.86,-0.27,0.59,0.41,-1.3,10.5,0.6,35.04,,,,,,,,,,
13.23.16.900,-105.2,26.3,0,,,101419.9,9.86,-0.35,0.61,0.68,-2.7,5.5,-5.9,35.09,,,,,,,,,,
13.23.16.913,-117.2,29.3,0,,,101419.9,9.86,-0.18,0.56,0.31,-18.8,15.8,5.9,35.1,,,,,,,,,,
13.23.16.923,-114.0,28.5,0,,,101419.9,9.86,-0.36,0.76,0.35,7.7,17.6,2.7,35.19,,,,,,,,,,
13.23.16.932,-124.7,31.2,0,,,101419.9,9.86,-0.36,0.74,0.4,-19.1,3.9,-10.4,34.98,,,,,,,,,,
13.23.16.943,-117.8,29.4,0,,,101419.9,9.86,-0.4,0.56,0.52,22.9,0.3,-3.3,35.38,,,,,,,,,,
13.23.16.953,-123.1,30.8,0,,,101419.9,9.86,-0.26,0.72,0.44,3.3,-3.6,-10.6,35.45,,,,,,,,,,
13.23.16.963,-108.7,27.2,0,,,101419.9,9.86,-0.19,0.41,0.56,8.2,8.4,0.6,34.94,,,,,,,,,,
13.23.16.973,9.4,2.4,1,1.0,,101419.9,9.86,-0.31,0.79,0.5,4.9,18.8,5.7,35.06,,,,,,,,,,
13.23.16.983,42.8,10.7,0,,,101419.9,9.86,-0.3,0.66,0.5,-12.8,7.2,-1.1,35.19,,,,,,,,,,
13.23.16.994,77.5,19.4,0,,,101419.9,9.86,-0.26,0.68,0.3,-11.1,0.6,-2.3,35.45,,,,,,,,,,
13.23.17.005,118.6,29.6,0,,,101419.9,9.86,-0.17,0.77,0.57,24.4,18.8,-7.0,35.33,,,,,,,,,,
13.23.17.016,149.3,37.3,0,,,101419.9,9.86,-0.05,0.76,0.39,-0.7,21.1,4.3,34.96,,,,,,,,,,
13.23.17.025,170.6,42.6,0,,,101419.9,9.86,-0.28,0.6,0.37,3.0,11.4,-12.3,35.07,,,,,,,,,,
13.23.17.036,202.1,50.5,0,,,101419.9,9.86,-0.14,0.63,0.26,20.9,-13.4,-8.6,35.12,,,,,,,,,,
13.23.17.045,205.0,51.2,0,,,101419.9,9.86,-0.16,0.76,0.49,-5.1,6.4,-6.9,34.86,,,,,,,,,,
13.23.17.053,242.4,60.6,0,,,101419.9,9.86,-0.47,0.56,0.28,2.5,2.6,6.2,35.23,,,,,,,,,,
13.23.17.062,270.2,67.6,0,,,101419.9,9.86,-0.21,0.62,0.43,-24.2,15.7,3.6,35.51,,,,,,,,,,
13.23.17.073,258.4,64.6,0,,,101419.9,9.86,-0.42,0.37,0.5,9.6,9.3,-9.0,35.34,,,,,,,,,,
13.23.17.083,267.6,66.9,0,,,101419.9,9.86,-0.27,0.56,0.35,22.7,14.3,-1.5,35.33,,,,,,,,,,
13.23.17.091,298.1,74.5,0,,,101419.9,9.86,-0.23,0.67,0.47,11.6,-2.6,-5.8,35.29,,,,,,,,,,
13.23.17.102,291.5,72.9,0,,,101419.9,9.86,-0.33,0.76,0.45,7.8,13.6,-12.5,35.23,,,,,,,,,,
13.23.17.110,331.6,82.9,0,,,101419.9,9.86,-0.25,0.61,0.58,3.5,13.1,-8.6,35.09,,,,,,,,,,
13.23.17.120,293.6,73.4,0,,,101522.8,9.85,-0.27,0.78,0.35,1.7,-0.3,1.9,35.31,,,,,,,,,,
13.23.17.127,336.7,84.2,0,,,101522.8,9.85,-0.29,0.73,0.5,12.8,-5.0,-10.0,35.04,,,,,,,,,,
13.23.17.138,333.3,83.3,0,,,101522.8,9.85,-0.4,0.64,0.32,4.5,7.2,-16.6,34.9,,,,,,,,,,
13.23.17.146,296.5,74.1,0,,,101522.8,9.85,-0.13,0.6,0.29,-0.6,11.9,1.6,35.56,,,,,,,,,,
13.23.17.157,298.5,74.6,0,,,101522.8,9.85,-0.23,0.64,0.44,-31.6,29.0,-0.2,35.45,,,,,,,,,,
13.23.17.166,295.8,74.0,0,,,101522.8,9.85,-0.17,0.73,0.42,26.0,0.7,-13.6,35.05,,,,,,,,,,
13.23.17.175,281.7,70.4,0,,,101522.8,9.85,-0.11,0.75,0.42,-9.7,8.5,4.4,35.18,,,,,,,,,,
13.23.17.185,274.8,68.7,0,,,101522.8,9.85,-0.15,0.69,0.35,23.6,0.5,22.3,35.04,,,,,,,,,,
13.23.17.195,295.7,73.9,0,,,101522.8,9.85,-0.26,0.57,0.39,25.0,8.0,-1.4,35.63,,,,,,,,,,
13.23.17.204,256.8,64.2,0,,,101522.8,9.85,-0.25,0.66,0.41,9.5,18.7,-17.5,34.93,,,,,,,,,,
13.23.17.212,249.3,62.3,0,,,101522.8,9.85,-0.17,0.73,0.58,-6.6,12.8,-10.5,35.11,,,,,,,,,,
13.23.17.222,243.6,60.9,0,,,101522.8,9.85,-0.19,0.68,0.37,-4.2,7.7,4.4,34.89,,,,,,,,,,
13.23.17.232,183.5,45.9,0,,,101522.8,9.85,-0.27,0.84,0.39,-12.4,5.9,-9.3,35.2,,,,,,,,,,
13.23.17.244,174.7,43.7,0,,,101522.8,9.85,-0.22,0.61,0.34,-10.9,-7.8,-8.3,35.09,,,,,,,,,,
13.23.17.254,141.7,35.4,0,,,101522.8,9.85,-0.25,0.73,0.53,4.7,-21.1,-9.2,35.16,,,,,,,,,,
13.23.17.264,117.5,29.4,0,,,101522.8,9.85,-0.29,0.84,0.54,-4.6,19.4,-11.6,34.96,,,,,,,,,,
13.23.17.272,90.4,22.6,0,,,101522.8,9.85,-0.15,0.31,0.46,-2.8,3.2,2.3,35.42,,,,,,,,,,
13.23.17.283,59.3,14.8,0,,,101522.8,9.85,-0.08,0.8,0.31,14.2,-1.4,-18.9,35.29,,,,,,,,,,
13.23.17.294,27.1,6.8,0,,,101522.8,9.85,-0.21,0.6,0.4,27.6,-4.4,-11.9,35.28,,,,,,,,,,
13.23.17.304,4.7,1.2,0,,,101522.8,9.85,-0.29,0.66,0.47,14.2,13.9,3.8,35.49,,,,,,,,,,
13.23.17.314,12.9,3.2,0,,,101522.8,9.85,-0.29,0.65,0.33,15.0,15.6,-2.2,35.08,,,,,,,,,,
13.23.17.326,11.8,3.0,0,,,101522.8,9.85,-0.43,0.66,0.25,21.1,10.1,-12.6,35.28,,,,,,,,,,
13.23.17.335,27.2,6.8,0,,,101522.8,9.85,-0.36,0.57,0.35,-8.6,22.0,-18.4,35.37,,,,,,,,,,
13.23.17.347,34.8,8.7,0,,,101522.8,9.85,-0.21,0.64,0.28,-3.2,8.3,-2.4,34.81,,,,,,,,,,
13.23.17.357,47.5,11.9,0,,,101522.8,9.85,-0.15,0.6,0.48,7.4,-7.5,11.0,35.31,,,,,,,,,,
13.23.17.365,42.9,10.7,0,,,101522.8,9.85,-0.19,0.61,0.36,-1.9,17.6,-13.6,35.06,,,,,,,,,,
13.23.17.375,51.4,12.8,0,,,101522.8,9.85,-0.14,0.66,0.44,14.6,3.5,-3.5,35.22,,,,,,,,,,
13.23.17.384,52.6,13.2,0,,,101522.8,9.85,-0.2,0.74,0.49,1.5,1.7,6.7,35.39,,,,,,,,,,
13.23.17.393,54.2,13.6,0,,,101522.8,9.85,-0.2,0.58,0.49,13.1,4.4,-0.5,35.53,,,,,,,,,,
13.23.17.403,45.1,11.3,0,,,101522.8,9.85,-0.23,0.54,0.43,27.9,11.6,1.9,35.07,,,,,,,,,,
13.23.17.413,48.1,12.0,0,,,101522.8,9.85,-0.24,0.81,0.52,-2.9,25.3,4.2,35.24,,,,,,,,,,
13.23.17.421,58.1,14.5,0,,,101522.8,9.85,-0.52,0.72,0.45,7.8,14.8,-4.1,35.65,,,,,,,,,,
13.23.17.431,49.6,12.4,0,,,101522.8,9.85,-0.14,0.76,0.45,-7.4,5.1,-1.0,34.85,,,,,,,,,,
13.23.17.441,48.9,12.2,0,,,101522.8,9.85,-0.26,0.51,0.3,-8.0,4.6,4.2,35.23,,,,,,,,,,
13.23.17.449,42.6,10.6,0,,,101522.8,9.85,-0.2,0.71,0.36,0.9,8.8,4.0,35.35,,,,,,,,,,
13.23.17.460,26.9,6.7,0,,,101522.8,9.85,-0.2,0.65,0.44,-2.8,12.2,3.1,35.21,,,,,,,,,,
13.23.17.469,21.6,5.4,0,,,101522.8,9.85,-0.23,0.83,0.36,-15.3,-3.7,4.3,35.27,,,,,,,,,,
13.23.17.480,13.5,3.4,0,,,101522.8,9.85,-0.42,0.7,0.36,16.2,20.2,2.7,35.39,,,,,,,,,,
13.23.17.487,16.6,4.2,0,,,101522.8,9.85,-0.34,0.88,0.47,0.9,9.1,4.6,35.39,,,,,,,,,,
13.23.17.496,-1.4,0.4,0,,,101522.8,9.85,-0.34,0.5,0.43,3.0,12.6,-3.4,35.43,,,,,,,,,,
13.23.17.508,6.9,1.7,0,,,101522.8,9.85,-0.29,0.72,0.41,-1.8,13.4,2.6,34.92,,,,,,,,,,
13.23.17.517,-8.9,2.2,0,,,101522.8,9.85,-0.33,0.56,0.43,12.1,2.9,0.6,35.1,,,,,,,,,,
13.23.17.527,-7.6,1.9,0,,,101522.8,9.85,-0.3,0.57,0.5,-10.1,8.2,1.4,35.38,,,,,,,,,,
13.23.17.536,-11.2,2.8,0,,,101522.8,9.85,-0.19,0.54,0.48,23.4,13.3,-8.5,34.93,,,,,,,,,,
13.23.17.546,-15.1,3.8,0,,,101522.8,9.85,-0.25,0.62,0.45,-15.7,12.6,-8.4,35.36,,,,,,,,,,
13.23.17.554,-23.1,5.8,0,,,101522.8,9.85,-0.33,0.82,0.45,13.7,-8.7,1.2,35.45,,,,,,,,,,
13.23.17.565,-20.5,5.1,0,,,101522.8,9.85,-0.26,0.85,0.51,15.8,-10.1,-12.4,35.18,,,,,,,,,,
13.23.17.575,-29.4,7.4,0,,,101522.8,9.85,-0.19,0.9,0.5,15.0,7.1,-17.7,35.33,,,,,,,,,,
13.23.17.582,-24.8,6.2,0,,,101522.8,9.85,-0.27,0.69,0.58,-9.9,-3.1,0.8,35.29,,,,,,,,,,
13.23.17.592,-25.9,6.5,0,,,101522.8,9.85,-0.22,0.62,0.47,-1.3,-6.2,0.8,35.22,,,,,,,,,,
13.23.17.599,-34.3,8.6,0,,,101522.8,9.85,-0.38,0.61,0.23,18.9,2.0,-4.0,34.78,,,,,,,,,,
13.23.17.609,-42.0,10.5,0,,,101522.8,9.85,-0.2,0.74,0.49,-8.4,2.7,-7.2,35.18,,,,,,,,,,
13.23.17.619,-35.3,8.8,0,,,101522.8,9.85,-0.27,0.51,0.54,4.5,11.1,12.6,35.19,,,,,,,,,,
13.23.17.629,-39.3,9.8,0,,,101522.8,9.85,-0.3,0.97,0.29,-9.7,13.6,-9.7,34.98,,,,,,,,,,
13.23.17.636,-44.0,11.0,0,,,101522.8,9.85,-0.18,0.64,0.45,14.4,35.2,-5.6,35.24,,,,,,,,,,
13.23.17.647,-46.8,11.7,0,,,101522.8,9.85,-0.24,0.78,0.54,3.8,2.6,2.2,35.35,,,,,,,,,,
13.23.17.657,-45.5,11.4,0,,,101522.8,9.85,-0.32,0.69,0.45,-32.5,3.4,-2.5,35.52,,,,,,,,,,
13.23.17.666,-41.5,10.4,0,,,101522.8,9.85,-0.21,0.65,0.43,-8.8,19.1,4.2,35.19,,,,,,,,,,
13.23.17.676,-61.2,15.3,0,,,101522.8,9.85,-0.17,0.75,0.33,-23.3,6.7,0.1,35.01,,,,,,,,,,
13.23.17.684,-62.3,15.6,0,,,101522.8,9.85,-0.27,0.62,0.43,-4.7,-15.0,-12.1,35.8,,,,,,,,,,
13.23.17.695,-55.8,14.0,0,,,101522.8,9.85,-0.2,0.59,0.39,-3.2,13.6,-1.5,35.09,,,,,,,,,,
13.23.17.705,-61.9,15.5,0,,,101522.8,9.85,-0.2,0.61,0.43,-11.2,19.3,10.9,35.4,,,,,,,,,,
13.23.17.713,-55.3,13.8,0,,,101522.8,9.85,-0.24,0.71,0.52,-11.7,9.9,7.4,34.75,,,,,,,,,,
13.23.17.722,-56.9,14.2,0,,,101522.8,9.85,-0.3,0.73,0.42,6.0,11.7,-27.8,35.59,,,,,,,,,,
13.23.17.731,-72.2,18.0,0,,,101522.8,9.85,-0.24,0.7,0.55,23.9,-4.5,2.8,35.3,,,,,,,,,,
13.23.17.739,-70.5,17.6,0,,,101522.8,9.85,-0.27,0.69,0.61,-8.1,-2.8,-1.5,35.43,,,,,,,,,,
13.23.17.749,-79.9,20.0,0,,,101522.8,9.85,-0.18,0.65,0.49,9.2,-1.1,-1.5,35.28,,,,,,,,,,
13.23.17.760,-72.8,18.2,0,,,101522.8,9.85,-0.2,0.72,0.37,2.8,10.6,-0.2,35.17,,,,,,,,,,
13.23.17.772,-80.4,20.1,0,,,101522.8,9.85,-0.37,0.51,0.52,-16.5,6.5,10.4,34.86,,,,,,,,,,
13.23.17.782,-90.5,22.6,0,,,101522.8,9.85,-0.2,0.78,0.48,-24.5,-9.4,-8.7,35.29,,,,,,,,,,
13.23.17.792,-85.2,21.3,0,,,101522.8,9.85,-0.28,0.61,0.37,15.2,26.3,-6.9,35.29,,,,,,,,,,
13.23.17.802,-90.9,22.7,0,,,101522.8,9.85,-0.15,0.43,0.3,11.9,19.8,1.5,35.38,,,,,,,,,,
13.23.17.811,-99.0,24.8,0,,,101522.8,9.85,-0.35,0.56,0.49,-14.3,8.2,-8.6,35.05,,,,,,,,,,
13.23.17.822,-100.1,25.0,0,,,101522.8,9.85,-0.31,0.61,0.53,-5.3,-3.5,-4.9,35.25,,,,,,,,,,
13.23.17.830,-97.7,24.4,0,,,101522.8,9.85,-0.19,0.57,0.35,10.2,-6.5,-2.6,34.97,,,,,,,,,,
13.23.17.839,-99.2,24.8,0,,,101522.8,9.85,-0.21,0.71,0.35,-1.1,19.1,-9.0,35.67,,,,,,,,,,
13.23.17.848,-106.6,26.6,0,,,101522.8,9.85,-0.15,0.59,0.42,-1.6,9.4,1.1,35.1,,,,,,,,,,
13.23.17.858,-111.5,27.9,0,,,101522.8,9.85,-0.4,0.56,0.34,5.0,-5.8,3.5,35.27,,,,,,,,,,
13.23.17.869,-113.8,28.4,0,,,101522.8,9.85,-0.2,0.68,0.42,9.6,10.0,-0.6,35.43,,,,,,,,,,
13.23.17.878,-102.1,25.5,0,,,101522.8,9.85,-0.15,0.54,0.33,3.6,0.9,-2.7,35.07,,,,,,,,,,
13.23.17.888,-112.7,28.2,0,,,101522.8,9.85,-0.22,0.73,0.32,9.0,7.5,-7.6,35.46,,,,,,,,,,
13.23.17.897,-109.5,27.4,0,,,101522.8,9.85,-0.29,0.71,0.38,-25.1,6.8,5.4,35.5,,,,,,,,,,
13.23.17.907,-113.2,28.3,0,,,101522.8,9.85,-0.26,0.63,0.55,-19.8,11.9,8.5,35.07,,,,,,,,,,
13.23.17.916,-122.0,30.5,0,,,101522.8,9.85,-0.24,0.4,0.46,-16.8,27.2,0.2,35.06,,,,,,,,,,
13.23.17.925,-135.2,33.8,0,,,101522.8,9.85,-0.27,0.72,0.54,8.9,-2.2,-8.5,35.4,,,,,,,,,,
13.23.17.934,1.9,0.5,0,,,101522.8,9.85,-0.36,0.69,0.42,-13.3,-6.5,-18.2,34.83,,,,,,,,,,
13.23.17.942,31.4,7.8,0,,,101522.8,9.85,-0.28,0.62,0.44,19.1,-5.1,-0.6,35.01,,,,,,,,,,
13.23.17.953,59.2,14.8,0,,,101522.8,9.85,-0.21,0.77,0.21,9.0,4.6,-12.1,35.62,,,,,,,,,,
13.23.17.964,102.9,25.7,0,,,101522.8,9.85,-0.32,0.57,0.47,20.2,-2.2,5.2,35.07,,,,,,,,,,
13.23.17.973,112.0,28.0,1,2.0,60.0,101522.8,9.85,-0.18,0.53,0.46,12.1,4.9,3.5,35.31,,,,,,,,,,
13.23.17.982,157.7,39.4,0,,,101522.8,9.85,-0.2,0.56,0.37,2.4,11.0,13.9,35.55,,,,,,,,,,
13.23.17.993,173.7,43.4,0,,,101522.8,9.85,-0.3,0.74,0.59,-17.9,23.8,-10.5,35.55,,,,,,,,,,
13.23.18.002,200.1,50.0,0,,,101522.8,9.85,-0.3,0.74,0.52,-18.0,0.5,-3.8,34.79,,,,,,,,,,
13.23.18.012,206.4,51.6,0,,,101522.8,9.85,-0.28,0.76,0.39,0.0,9.8,-12.6,35.33,,,,,,,,,,
13.23.18.024,249.8,62.4,0,,,101522.8,9.85,-0.18,0.6,0.36,-3.0,2.7,-10.3,34.96,,,,,,,,,,
13.23.18.033,245.3,61.3,0,,,101522.8,9.85,-0.19,0.78,0.44,21.9,22.9,5.2,35.46,,,,,,,,,,
13.23.18.041,270.3,67.6,0,,,101522.8,9.85,-0.23,0.71,0.36,-2.0,19.5,8.2,35.55,,,,,,,,,,
13.23.18.051,306.2,76.6,0,,,101522.8,9.85,-0.04,0.69,0.54,-13.9,-7.8,-9.9,35.14,,,,,,,,,,
13.23.18.060,307.5,76.9,0,,,101522.8,9.85,-0.22,0.74,0.43,-10.2,-2.8,-18.6,35.17,,,,,,,,,,
13.23.18.070,335.1,83.8,0,,,101522.8,9.85,-0.28,0.71,0.42,19.8,1.1,-4.6,35.16,,,,,,,,,,
13.23.18.077,322.5,80.6,0,,,101522.8,9.85,-0.14,0.79,0.61,1.7,9.5,3.6,35.27,,,,,,,,,,
13.23.18.088,294.9,73.7,0,,,101522.8,9.85,-0.28,0.73,0.41,7.5,0.5,-3.2,35.08,,,,,,,,,,
13.23.18.100,313.1,78.3,0,,,101522.8,9.85,-0.3,0.66,0.47,18.3,-6.0,-3.1,35.38,,,,,,,,,,
13.23.18.109,312.1,78.0,0,,,101522.8,9.85,-0.3,0.88,0.52,-19.0,-8.7,-5.0,35.0,,,,,,,,,,
13.23.18.117,298.2,74.6,0,,,101522.8,9.85,-0.39,0.71,0.45,3.2,9.2,12.4,35.23,,,,,,,,,,
13.23.18.125,317.4,79.4,0,,,101522.8,9.85,-0.19,0.64,0.47,0.2,16.9,-2.3,34.89,,,,,,,,,,
13.23.18.136,318.7,79.7,0,,,101522.8,9.85,-0.24,0.79,0.46,-9.2,16.6,-15.7,35.24,,,,,,,,,,
13.23.18.147,301.0,75.2,0,,,101522.8,9.85,-0.2,0.71,0.4,17.9,9.9,1.7,35.35,,,,,,,,,,
13.23.18.156,290.0,72.5,0,,,101522.8,9.85,-0.21,0.63,0.52,-32.5,13.3,3.9,35.14,,,,,,,,,,
13.23.18.165,283.9,71.0,0,,,101522.8,9.85,-0.17,0.58,0.29,13.5,20.5,-16.3,35.13,,,,,,,,,,
13.23.18.175,239.3,59.8,0,,,101522.8,9.85,-0.15,0.56,0.4,15.5,18.2,2.8,35.22,,,,,,,,,,
13.23.18.186,219.6,54.9,0,,,101522.8,9.85,-0.21,0.74,0.44,-10.0,14.4,6.3,35.16,,,,,,,,,,
13.23.18.197,209.3,52.3,0,,,101522.8,9.85,-0.26,0.66,0.48,-20.6,6.4,-3.8,35.16,,,,,,,,,,
13.23.18.206,161.7,40.4,0,,,101522.8,9.85,-0.21,0.85,0.34,-15.2,-8.8,-6.2,35.11,,,,,,,,,,
13.23.18.215,151.3,37.8,0,,,101522.8,9.85,-0.32,0.78,0.36,-1.5,17.6,11.9,35.21,,,,,,,,,,
13.23.18.226,145.9,36.5,0,,,101522.8,9.85,-0.29,0.83,0.52,23.2,24.4,-4.1,34.87,,,,,,,,,,
13.23.18.239,84.6,21.2,0,,,101522.8,9.85,-0.2,0.54,0.53,11.1,8.2,-2.3,35.46,,,,,,,,,,
13.23.18.249,65.7,16.4,0,,,101522.8,9.85,-0.27,0.58,0.41,-3.3,1.6,2.1,34.83,,,,,,,,,,
13.23.18.258,33.2,8.3,0,,,101522.8,9.85,-0.36,0.73,0.52,-12.7,10.6,-1.9,35.49,,,,,,,,,,
13.23.18.269,7.8,2.0,0,,,101522.8,9.85,-0.22,0.7,0.36,7.8,8.2,5.5,35.43,,,,,,,,,,
13.23.18.277,11.7,2.9,0,,,101522.8,9.85,-0.18,0.66,0.43,-31.6,18.3,1.6,35.22,,,,,,,,,,
13.23.18.287,18.1,4.5,0,,,101522.8,9.85,-0.21,0.65,0.43,44.9,12.3,-2.3,35.09,,,,,,,,,,
13.23.18.297,18.3,4.6,0,,,101522.8,9.85,-0.25,0.65,0.3,-7.5,5.1,1.7,35.46,,,,,,,,,,
13.23.18.307,40.2,10.0,0,,,101522.8,9.85,-0.38,0.77,0.61,-0.1,-12.3,-4.2,35.3,,,,,,,,,,
13.23.18.318,44.0,11.0,0,,,101522.8,9.85,-0.25,0.63,0.53,-5.2,5.0,4.5,35.14,,,,,,,,,,
13.23.18.327,54.1,13.5,0,,,101522.8,9.85,-0.32,0.74,0.58,17.4,-2.6,1.1,35.75,,,,,,,,,,
13.23.18.338,42.7,10.7,0,,,101522.8,9.85,-0.38,0.85,0.42,8.3,10.9,-5.2,35.15,,,,,,,,,,
13.23.18.350,57.6,14.4,0,,,101522.8,9.85,-0.27,0.64,0.28,5.4,18.7,3.5,35.47,,,,,,,,,,
13.23.18.359,53.7,13.4,0,,,101522.8,9.85,-0.22,0.77,0.54,-8.5,7.7,4.2,35.18,,,,,,,,,,
13.23.18.370,58.8,14.7,0,,,101522.8,9.85,-0.22,0.67,0.4,4.2,1.2,8.8,35.18,,,,,,,,,,
13.23.18.381,51.0,12.8,0,,,101522.8,9.85,-0.38,0.58,0.41,28.5,-20.5,17.4,34.98,,,,,,,,,,
13.23.18.390,46.8,11.7,0,,,101522.8,9.85,-0.26,0.71,0.41,11.9,-3.5,11.5,35.03,,,,,,,,,,
13.23.18.399,50.6,12.6,0,,,101522.8,9.85,-0.27,0.7,0.55,15.1,9.0,6.5,35.16,,,,,,,,,,
13.23.18.410,35.8,9.0,0,,,101522.8,9.85,-0.28,0.71,0.33,2.4,4.7,8.3,34.82,,,,,,,,,,
13.23.18.423,39.2,9.8,0,,,101522.8,9.85,-0.32,0.73,0.43,22.3,10.4,2.6,34.94,,,,,,,,,,
13.23.18.435,25.3,6.3,0,,,101522.8,9.85,-0.19,0.79,0.47,-16.2,-18.7,13.3,34.69,,,,,,,,,,
13.23.18.445,17.3,4.3,0,,,101522.8,9.85,-0.21,0.68,0.37,-9.1,20.6,7.5,35.51,,,,,,,,,,
13.23.18.456,-2.0,0.5,0,,,101522.8,9.85,-0.26,0.71,0.44,12.2,5.4,12.0,35.48,,,,,,,,,,
13.23.18.466,6.6,1.6,0,,,101522.8,9.85,-0.29,0.79,0.46,-14.4,-6.8,-12.7,35.16,,,,,,,,,,
13.23.18.476,-0.9,0.2,0,,,101522.8,9.85,-0.31,0.66,0.43,28.4,4.1,-5.8,35.1,,,,,,,,,,
13.23.18.485,-6.3,1.6,0,,,101522.8,9.85,-0.37,0.66,0.41,6.3,8.9,-15.4,35.68,,,,,,,,,,
13.23.18.495,-3.9,1.0,0,,,101522.8,9.85,-0.21,0.57,0.41,3.5,15.5,9.6,35.37,,,,,,,,,,
13.23.18.505,-22.8,5.7,0,,,101522.8,9.85,-0.21,0.53,0.29,-6.7,-8.5,-8.8,35.24,,,,,,,,,,
13.23.18.515,-11.9,3.0,0,,,101522.8,9.85,-0.05,0.57,0.39,-17.0,1.2,7.1,35.28,,,,,,,,,,
13.23.18.528,-23.5,5.9,0,,,101522.8,9.85,-0.25,0.57,0.36,22.5,10.4,-5.9,35.75,,,,,,,,,,
13.23.18.537,-23.0,5.8,0,,,101522.8,9.85,-0.32,0.73,0.42,15.0,20.1,-14.9,34.92,,,,,,,,,,
13.23.18.549,-20.2,5.0,0,,,101522.8,9.85,-0.28,0.71,0.42,2.5,-12.5,-11.9,35.4,,,,,,,,,,
13.23.18.562,-31.2,7.8,0,,,101522.8,9.85,-0.29,0.84,0.41,-11.4,16.4,-7.0,35.19,,,,,,,,,,
13.23.18.573,-25.6,6.4,0,,,101522.8,9.85,-0.31,0.59,0.44,8.2,15.0,20.8,34.97,,,,,,,,,,
13.23.18.581,-44.2,11.0,0,,,101522.8,9.85,-0.32,0.67,0.47,18.9,9.5,-12.7,35.33,,,,,,,,,,
13.23.18.592,-41.9,10.5,0,,,101522.8,9.85,-0.14,0.56,0.38,10.7,6.5,1.1,35.51,,,,,,,,,,
13.23.18.602,-41.0,10.2,0,,,101522.8,9.85,-0.23,0.56,0.41,14.2,1.4,-3.0,35.36,,,,,,,,,,
13.23.18.612,-38.1,9.5,0,,,101522.8,9.85,-0.24,0.77,0.45,34.4,22.2,-1.7,35.21,,,,,,,,,,
13.23.18.620,-40.7,10.2,0,,,101522.8,9.85,-0.24,0.64,0.48,-5.7,-4.2,-20.5,34.88,,,,,,,,,,
13.23.18.631,-43.3,10.8,0,,,101522.8,9.85,-0.35,0.6,0.42,1.7,7.6,1.3,35.27,,,,,,,,,,
13.23.18.640,-60.5,15.1,0,,,101522.8,9.85,-0.19,0.48,0.32,5.7,-7.6,4.5,35.08,,,,,,,,,,
13.23.18.650,-57.1,14.3,0,,,101522.8,9.85,-0.32,0.65,0.43,5.5,19.2,-10.3,35.05,,,,,,,,,,
13.23.18.659,-44.4,11.1,0,,,101522.8,9.85,-0.19,0.62,0.51,17.7,20.9,-2.1,35.37,,,,,,,,,,
13.23.18.668,-61.0,15.2,0,,,101522.8,9.85,-0.27,0.7,0.39,8.1,-1.5,7.8,35.42,,,,,,,,,,
13.23.18.676,-71.5,17.9,0,,,101522.8,9.85,-0.16,0.67,0.55,5.1,0.6,-6.4,35.3,,,,,,,,,,
13.23.18.685,-61.8,15.4,0,,,101522.8,9.85,-0.22,0.78,0.34,19.7,-0.1,-14.1,34.77,,,,,,,,,,
13.23.18.692,-74.6,18.6,0,,,101522.8,9.85,-0.25,0.64,0.39,-14.9,-3.3,-10.1,35.11,,,,,,,,,,
13.23.18.699,-58.2,14.6,0,,,101522.8,9.85,-0.21,0.74,0.44,-7.2,7.5,4.8,34.74,,,,,,,,,,
13.23.18.707,-68.5,17.1,0,,,101522.8,9.85,-0.21,0.75,0.49,-1.2,16.0,-4.0,35.51,,,,,,,,,,
13.23.18.717,-77.5,19.4,0,,,101522.8,9.85,-0.37,0.7,0.54,9.0,1.9,-3.2,35.61,,,,,,,,,,
13.23.18.726,-79.7,19.9,0,,,101522.8,9.85,-0.37,0.5,0.43,15.5,8.5,-4.5,35.12,,,,,,,,,,
13.23.18.737,-85.0,21.2,0,,,101522.8,9.85,-0.37,0.49,0.41,6.0,4.0,16.5,35.32,,,,,,,,,,
13.23.18.747,-87.7,21.9,0,,,101522.8,9.85,-0.3,0.62,0.54,-30.9,8.0,13.0,35.07,,,,,,,,,,
13.23.18.756,-87.0,21.8,0,,,101522.8,9.85,-0.21,0.76,0.48,0.8,-20.8,-10.9,35.13,,,,,,,,,,
13.23.18.765,-95.3,23.8,0,,,101522.8,9.85,-0.36,0.81,0.44,19.6,-5.8,-4.8,34.83,,,,,,,,,,
13.23.18.777,-92.8,23.2,0,,,101522.8,9.85,-0.4,0.57,0.44,-36.3,23.0,-2.1,35.19,,,,,,,,,,
13.23.18.785,-92.8,23.2,0,,,101522.8,9.85,-0.3,0.6,0.36,-15.5,11.3,-17.7,35.46,,,,,,,,,,
13.23.18.795,-105.6,26.4,0,,,101522.8,9.85,-0.17,0.72,0.46,-17.5,3.2,-8.6,34.73,,,,,,,,,,
13.23.18.804,-101.9,25.5,0,,,101522.8,9.85,-0.22,0.78,0.48,-0.2,13.8,1.9,35.51,,,,,,,,,,
13.23.18.814,-122.2,30.6,0,,,101522.8,9.85,-0.17,0.66,0.43,19.5,7.5,-3.1,35.2,,,,,,,,,,
13.23.18.824,-113.3,28.3,0,,,101522.8,9.85,-0.39,0.75,0.47,17.6,3.1,5.3,35.34,,,,,,,,,,
13.23.18.834,-112.2,28.0,0,,,101522.8,9.85,-0.3,0.5,0.52,-13.1,-2.5,-1.3,35.21,,,,,,,,,,
13.23.18.843,-120.3,30.1,0,,,101522.8,9.85,-0.16,0.53,0.44,-22.5,14.6,6.5,35.18,,,,,,,,,,
13.23.18.853,-108.0,27.0,0,,,101522.8,9.85,-0.43,0.6,0.42,0.2,7.4,-4.3,35.24,,,,,,,,,,
13.23.18.861,-114.4,28.6,0,,,101522.8,9.85,-0.12,0.6,0.49,2.0,5.7,-0.8,35.24,,,,,,,,,,
13.23.18.870,-120.3,30.1,0,,,101522.8,9.85,-0.36,0.45,0.43,3.6,10.6,-0.2,35.05,,,,,,,,,,
13.23.18.879,-140.9,35.2,0,,,101522.8,9.85,-0.3,0.76,0.59,11.1,-3.5,-11.8,35.1,,,,,,,,,,
13.23.18.888,-128.0,32.0,0,,,101419.9,9.86,-0.26,0.63,0.38,36.2,16.3,12.1,35.4,,,,,,,,,,
13.23.18.896,-128.4,32.1,0,,,101419.9,9.86,-0.35,0.73,0.44,-6.9,2.3,-7.9,35.46,,,,,,,,,,
13.23.18.906,32.6,8.2,0,,,101419.9,9.86,-0.31,0.55,0.29,15.5,-2.5,10.7,35.49,,,,,,,,,,
13.23.18.913,46.2,11.6,0,,,101419.9,9.86,-0.35,0.64,0.45,17.4,-14.5,12.8,34.95,,,,,,,,,,
13.23.18.920,78.1,19.5,0,,,101419.9,9.86,-0.23,0.64,0.32,-6.4,17.0,-7.1,34.96,,,,,,,,,,
13.23.18.929,96.1,24.0,0,,,101419.9,9.86,-0.29,0.48,0.46,8.3,9.9,-14.3,35.0,,,,,,,,,,
13.23.18.941,133.7,33.4,0,,,101419.9,9.86,-0.31,0.63,0.42,5.5,20.0,4.8,35.07,,,,,,,,,,
13.23.18.949,148.6,37.2,0,,,101419.9,9.86,-0.28,0.7,0.53,-3.4,28.1,12.2,35.09,,,,,,,,,,
13.23.18.958,174.8,43.7,1,3.0,60.9,101419.9,9.86,-0.23,0.52,0.35,-0.1,-4.2,-17.6,34.92,,,,,,,,,,
13.23.18.969,176.8,44.2,0,,,101419.9,9.86,-0.28,0.53,0.44,-16.6,7.1,0.5,34.82,,,,,,,,,,
13.23.18.979,224.8,56.2,0,,,101419.9,9.86,-0.3,0.53,0.53,-2.2,-2.7,13.7,34.72,,,,,,,,,,
13.23.18.992,240.6,60.2,0,,,101419.9,9.86,-0.24,0.64,0.57,-1.8,4.8,1.3,35.04,,,,,,,,,,
13.23.19.002,271.4,67.8,0,,,101419.9,9.86,-0.18,0.51,0.5,0.8,6.9,-9.0,35.09,,,,,,,,,,
13.23.19.008,283.9,71.0,0,,,101419.9,9.86,-0.18,0.7,0.39,-4.0,3.1,-7.3,35.24,,,,,,,,,,
13.23.19.019,271.5,67.9,0,,,101419.9,9.86,-0.32,0.81,0.44,-6.1,7.3,-0.1,35.73,,,,,,,,,,
13.23.19.029,278.0,69.5,0,,,101419.9,9.86,-0.29,0.54,0.49,-17.7,0.6,22.2,35.0,,,,,,,,,,
13.23.19.037,301.4,75.4,0,,,101419.9,9.86,-0.26,0.55,0.47,16.7,-9.2,-9.4,35.13,,,,,,,,,,
13.23.19.045,296.1,74.0,0,,,101419.9,9.86,-0.36,0.51,0.35,-3.0,18.8,-8.4,35.13,,,,,,,,,,
13.23.19.056,298.1,74.5,0,,,101419.9,9.86,-0.32,0.58,0.42,-24.2,-2.3,3.1,35.43,,,,,,,,,,
13.23.19.066,310.2,77.6,0,,,101419.9,9.86,-0.23,0.81,0.47,7.8,-3.6,-1.5,35.61,,,,,,,,,,
13.23.19.077,318.4,79.6,0,,,101419.9,9.86,-0.32,0.79,0.47,-11.0,12.7,-8.1,35.63,,,,,,,,,,
13.23.19.089,313.2,78.3,0,,,101419.9,9.86,-0.31,0.65,0.47,-4.2,2.9,-3.3,35.26,,,,,,,,,,
13.23.19.098,305.9,76.5,0,,,101419.9,9.86,-0.36,0.67,0.37,2.5,3.8,-7.2,35.16,,,,,,,,,,
13.23.19.106,319.1,79.8,0,,,101419.9,9.86,-0.28,0.69,0.43,34.3,4.6,-2.2,35.78,,,,,,,,,,
13.23.19.116,293.2,73.3,0,,,101419.9,9.86,-0.27,0.54,0.49,-10.9,14.8,-3.6,35.19,,,,,,,,,,
13.23.19.124,296.0,74.0,0,,,101419.9,9.86,-0.1,0.7,0.49,1.3,8.8,-0.7,34.96,,,,,,,,,,
13.23.19.133,273.8,68.4,0,,,101419.9,9.86,-0.26,0.55,0.49,-11.0,-12.5,-6.1,35.31,,,,,,,,,,
13.23.19.143,236.0,59.0,0,,,101419.9,9.86,-0.35,0.6,0.32,2.4,-0.7,5.8,35.11,,,,,,,,,,
13.23.19.152,229.9,57.5,0,,,101419.9,9.86,-0.2,0.65,0.47,10.1,13.4,7.6,35.43,,,,,,,,,,
13.23.19.163,190.4,47.6,0,,,101419.9,9.86,-0.39,0.69,0.41,19.2,23.6,-15.7,35.23,,,,,,,,,,
13.23.19.171,167.2,41.8,0,,,101419.9,9.86,-0.31,0.65,0.34,8.1,19.6,4.5,34.95,,,,,,,,,,
13.23.19.182,159.1,39.8,0,,,101419.9,9.86,-0.38,0.51,0.44,14.7,8.1,7.0,35.35,,,,,,,,,,
13.23.19.190,136.5,34.1,0,,,101419.9,9.86,-0.35,0.53,0.39,-9.2,4.1,-2.3,35.68,,,,,,,,,,
13.23.19.200,102.6,25.6,0,,,101419.9,9.86,-0.36,0.67,0.38,16.1,-7.9,-5.3,34.92,,,,,,,,,,
13.23.19.209,68.1,17.0,0,,,101419.9,9.86,-0.16,0.68,0.56,6.7,6.0,-3.7,34.98,,,,,,,,,,
13.23.19.219,47.3,11.8,0,,,101419.9,9.86,-0.19,0.41,0.44,-4.4,0.2,-0.4,35.28,,,,,,,,,,
13.23.19.227,27.3,6.8,0,,,101419.9,9.86,-0.36,0.75,0.46,5.8,-18.8,-10.3,35.15,,,,,,,,,,
13.23.19.236,1.5,0.4,0,,,101419.9,9.86,-0.34,0.65,0.57,-13.3,7.8,-5.7,35.71,,,,,,,,,,
13.23.19.246,7.6,1.9,0,,,101419.9,9.86,-0.29,0.77,0.51,-15.3,5.0,-7.3,34.78,,,,,,,,,,
13.23.19.256,22.7,5.7,0,,,101419.9,9.86,-0.27,0.51,0.41,-4.6,9.4,4.2,35.12,,,,,,,,,,
13.23.19.266,29.4,7.4,0,,,101419.9,9.86,-0.42,0.73,0.37,21.6,-0.2,17.5,35.46,,,,,,,,,,
13.23.19.276,36.3,9.1,0,,,101419.9,9.86,-0.25,0.74,0.38,-8.3,6.4,10.7,35.12,,,,,,,,,,
13.23.19.287,39.4,9.8,0,,,101419.9,9.86,-0.15,0.74,0.58,-1.7,7.9,7.6,35.38,,,,,,,,,,
13.23.19.296,41.0,10.2,0,,,101419.9,9.86,-0.16,0.74,0.46,8.8,14.3,-6.6,35.04,,,,,,,,,,
13.23.19.308,53.5,13.4,0,,,101419.9,9.86,-0.23,0.55,0.37,-4.2,2.3,3.9,34.92,,,,,,,,,,
13.23.19.319,63.6,15.9,0,,,101419.9,9.86,-0.22,0.71,0.42,-14.0,-3.3,2.2,35.0,,,,,,,,,,
13.23.19.331,60.5,15.1,0,,,101419.9,9.86,-0.18,0.75,0.5,12.4,6.3,8.1,35.37,,,,,,,,,,
13.23.19.340,63.7,15.9,0,,,101419.9,9.86,-0.18,0.83,0.29,-7.1,21.0,-10.0,34.79,,,,,,,,,,
13.23.19.349,55.9,14.0,0,,,101419.9,9.86,-0.29,0.74,0.47,14.1,3.0,-1.2,35.19,,,,,,,,,,
13.23.19.361,43.0,10.8,0,,,101419.9,9.86,-0.19,0.61,0.28,0.4,4.1,2.1,35.08,,,,,,,,,,
13.23.19.372,48.3,12.1,0,,,101419.9,9.86,-0.34,0.67,0.54,8.0,-5.0,5.5,35.41,,,,,,,,,,
13.23.19.382,36.5,9.1,0,,,101419.9,9.86,-0.23,0.44,0.36,6.9,10.9,8.7,35.33,,,,,,,,,,
13.23.19.392,28.5,7.1,0,,,101419.9,9.86,-0.18,0.86,0.39,-5.9,-0.1,-16.1,35.13,,,,,,,,,,
13.23.19.403,17.6,4.4,0,,,101419.9,9.86,-0.44,0.7,0.34,0.9,15.8,-9.8,35.1,,,,,,,,,,
13.23.19.414,11.0,2.8,0,,,101419.9,9.86,-0.41,0.74,0.57,17.0,4.2,9.4,35.05,,,,,,,,,,
13.23.19.424,-6.3,1.6,0,,,101419.9,9.86,-0.22,0.62,0.57,20.7,-6.1,8.2,35.02,,,,,,,,,,
13.23.19.433,-8.2,2.0,0,,,101419.9,9.86,-0.27,0.6,0.3,1.4,12.2,10.2,35.41,,,,,,,,,,
13.23.19.441,-8.9,2.2,0,,,101419.9,9.86,-0.12,0.8,0.46,37.2,18.0,23.7,35.53,,,,,,,,,,
13.23.19.451,-8.0,2.0,0,,,101419.9,9.86,-0.08,0.64,0.46,11.2,4.4,2.1,35.04,,,,,,,,,,
13.23.19.463,-8.8,2.2,0,,,101419.9,9.86,-0.33,0.76,0.45,4.1,-17.1,16.5,34.9,,,,,,,,,,
13.23.19.472,-8.9,2.2,0,,,101419.9,9.86,-0.15,0.77,0.5,-3.8,3.7,-5.4,35.21,,,,,,,,,,
13.23.19.481,-11.6,2.9,0,,,101419.9,9.86,-0.17,0.52,0.44,-7.7,7.4,12.2,34.9,,,,,,,,,,
13.23.19.490,-11.7,2.9,0,,,101419.9,9.86,-0.22,0.84,0.48,-1.8,-2.3,-5.3,35.5,,,,,,,,,,
13.23.19.501,-24.4,6.1,0,,,101419.9,9.86,-0.24,0.66,0.47,-1.3,16.7,-3.8,35.15,,,,,,,,,,
13.23.19.510,-26.0,6.5,0,,,101419.9,9.86,-0.4,0.55,0.37,-13.1,-7.7,8.5,35.57,,,,,,,,,,
13.23.19.519,-30.4,7.6,0,,,101419.9,9.86,-0.38,0.87,0.48,-11.9,16.8,1.3,35.47,,,,,,,,,,
13.23.19.531,-33.9,8.5,0,,,101419.9,9.86,-0.15,0.54,0.45,-18.9,8.3,2.9,35.23,,,,,,,,,,
13.23.19.539,-47.1,11.8,0,,,101419.9,9.86,-0.28,0.74,0.49,0.6,17.2,-3.4,34.95,,,,,,,,,,
13.23.19.548,-40.9,10.2,0,,,101419.9,9.86,-0.38,0.73,0.51,-0.1,-1.1,4.9,35.14,,,,,,,,,,
13.23.19.557,-32.8,8.2,0,,,101419.9,9.86,-0.24,0.7,0.38,-12.5,7.9,-4.7,35.16,,,,,,,,,,
13.23.19.568,-40.0,10.0,0,,,101419.9,9.86,-0.31,0.55,0.44,-15.1,6.9,-7.3,34.91,,,,,,,,,,
13.23.19.577,-38.5,9.6,0,,,101419.9,9.86,-0.26,0.58,0.36,-18.5,-2.8,9.8,35.25,,,,,,,,,,
13.23.19.584,-51.1,12.8,0,,,101419.9,9.86,-0.37,0.59,0.53,17.1,25.1,-3.9,35.24,,,,,,,,,,
13.23.19.593,-40.8,10.2,0,,,101419.9,9.86,-0.42,0.76,0.5,-11.8,-11.2,-18.0,35.26,,,,,,,,,,
13.23.19.602,-43.2,10.8,0,,,101419.9,9.86,-0.1,0.52,0.44,7.1,4.5,-4.8,34.75,,,,,,,,,,
13.23.19.613,-57.2,14.3,0,,,101419.9,9.86,-0.41,0.55,0.45,-0.1,6.9,-6.2,35.36,,,,,,,,,,
13.23.19.622,-52.9,13.2,0,,,101419.9,9.86,-0.35,0.77,0.39,2.9,2.2,10.7,35.03,,,,,,,,,,
13.23.19.631,-66.4,16.6,0,,,101419.9,9.86,-0.25,0.74,0.38,-15.5,27.8,-0.5,35.22,,,,,,,,,,
13.23.19.643,-60.7,15.2,0,,,101419.9,9.86,-0.17,0.63,0.43,2.4,16.3,-1.7,35.17,,,,,,,,,,
13.23.19.649,-63.2,15.8,0,,,101419.9,9.86,-0.33,0.62,0.37,5.6,20.1,-0.9,35.14,,,,,,,,,,
13.23.19.659,-68.4,17.1,0,,,101419.9,9.86,-0.1,0.64,0.43,-10.0,9.4,-10.7,35.36,,,,,,,,,,
13.23.19.669,-73.7,18.4,0,,,101419.9,9.86,-0.08,0.71,0.51,-11.7,17.2,-2.2,35.4,,,,,,,,,,
13.23.19.679,-67.2,16.8,0,,,101419.9,9.86,-0.28,0.7,0.42,7.6,2.1,-19.7,35.31,,,,,,,,,,
13.23.19.689,-79.1,19.8,0,,,101419.9,9.86,-0.24,0.65,0.46,-40.3,-5.3,9.2,35.25,,,,,,,,,,
13.23.19.699,-71.4,17.8,0,,,101419.9,9.86,-0.25,0.77,0.47,7.3,-17.7,-7.6,35.52,,,,,,,,,,
13.23.19.707,-86.5,21.6,0,,,101419.9,9.86,-0.26,0.52,0.41,4.6,5.5,-11.1,35.09,,,,,,,,,,
13.23.19.716,-85.7,21.4,0,,,101419.9,9.86,-0.28,0.78,0.41,-39.4,13.0,-3.7,35.54,,,,,,,,,,
13.23.19.726,-89.0,22.2,0,,,101419.9,9.86,-0.26,0.57,0.39,2.8,2.2,-8.2,35.21,,,,,,,,,,
13.23.19.736,-98.8,24.7,0,,,101419.9,9.86,-0.21,0.68,0.41,-11.7,21.9,-5.0,35.07,,,,,,,,,,
13.23.19.746,-98.6,24.6,0,,,101419.9,9.86,-0.24,0.72,0.44,-7.4,-4.6,7.3,34.9,,,,,,,,,,
13.23.19.756,-92.7,23.2,0,,,101419.9,9.86,-0.24,0.76,0.44,-2.7,28.5,2.2,34.76,,,,,,,,,,
13.23.19.766,-103.4,25.8,0,,,101419.9,9.86,-0.21,0.74,0.4,-4.6,-18.6,7.2,35.24,,,,,,,,,,
13.23.19.777,-95.0,23.8,0,,,101419.9,9.86,-0.21,0.64,0.5,11.7,-9.9,2.3,34.92,,,,,,,,,,
13.23.19.786,-112.0,28.0,0,,,101419.9,9.86,-0.2,0.73,0.45,-7.7,13.3,-4.3,35.64,,,,,,,,,,
13.23.19.795,-97.6,24.4,0,,,101419.9,9.86,-0.14,0.59,0.43,11.6,3.4,10.9,35.19,,,,,,,,,,
13.23.19.804,-106.7,26.7,0,,,101419.9,9.86,-0.3,0.51,0.43,24.2,23.6,-6.0,35.46,,,,,,,,,,
13.23.19.815,-110.5,27.6,0,,,101419.9,9.86,-0.32,0.63,0.47,-4.9,9.6,5.0,35.23,,,,,,,,,,
13.23.19.822,-124.5,31.1,0,,,101419.9,9.86,-0.25,0.65,0.55,-18.1,-4.5,-12.2,35.18,,,,,,,,,,
13.23.19.832,-121.8,30.4,0,,,101419.9,9.86,-0.25,0.53,0.37,15.6,11.4,7.6,35.36,,,,,,,,,,
13.23.19.841,-138.1,34.5,0,,,101419.9,9.86,-0.34,0.72,0.32,-1.3,-7.7,-5.8,35.13,,,,,,,,,,
13.23.19.852,-122.7,30.7,0,,,101419.9,9.86,-0.19,0.8,0.42,1.5,11.2,11.1,35.61,,,,,,,,,,
13.23.19.863,10.1,2.5,0,,,101419.9,9.86,-0.11,0.64,0.32,21.0,0.9,-10.8,34.85,,,,,,,,,,
13.23.19.873,34.1,8.5,0,,,101419.9,9.86,-0.24,0.73,0.5,-0.8,3.3,11.6,35.11,,,,,,,,,,
13.23.19.882,59.0,14.8,0,,,101419.9,9.86,-0.22,0.64,0.31,19.4,5.3,2.2,35.2,,,,,,,,,,
13.23.19.891,90.7,22.7,0,,,101419.9,9.86,-0.27,0.68,0.55,-3.7,9.8,3.5,35.37,,,,,,,,,,
13.23.19.899,101.2,25.3,0,,,101419.9,9.86,-0.36,0.56,0.4,-41.9,1.3,0.4,34.56,,,,,,,,,,
13.23.19.910,137.6,34.4,0,,,101419.9,9.86,-0.22,0.54,0.51,6.3,-8.0,-4.1,35.03,,,,,,,,,,
13.23.19.920,145.4,36.4,0,,,101419.9,9.86,-0.15,0.67,0.51,0.9,8.5,-8.4,35.48,,,,,,,,,,
13.23.19.930,205.4,51.4,0,,,101419.9,9.86,-0.17,0.59,0.44,40.4,5.3,-7.5,35.65,,,,,,,,,,
13.23.19.937,213.4,53.4,0,,,101419.9,9.86,-0.24,0.71,0.3,13.5,11.7,-8.4,35.24,,,,,,,,,,
13.23.19.949,213.4,53.4,0,,,101419.9,9.86,-0.45,0.55,0.46,5.8,11.1,-7.0,35.26,,,,,,,,,,
13.23.19.958,254.2,63.6,1,4.0,60.0,101419.9,9.86,-0.09,0.56,0.45,-4.2,-6.9,6.9,35.36,,,,,,,,,,
13.23.19.967,280.0,70.0,0,,,101419.9,9.86,-0.28,0.75,0.49,3.1,5.1,-6.4,35.39,,,,,,,,,,
13.23.19.976,257.3,64.3,0,,,101419.9,9.86,-0.3,0.71,0.56,-21.5,10.8,-3.3,35.24,,,,,,,,,,
13.23.19.989,306.9,76.7,0,,,101419.9,9.86,-0.33,0.5,0.46,-10.0,18.4,6.0,34.9,,,,,,,,,,
13.23.20.001,328.7,82.2,0,,,101419.9,9.86,-0.23,0.69,0.49,4.2,-2.8,-3.3,35.63,,,,,,,,,,
13.23.20.010,331.7,82.9,0,,,101419.9,9.86,-0.17,0.45,0.53,-11.3,15.6,-8.5,35.17,,,,,,,,,,
13.23.20.018,304.6,76.2,0,,,101419.9,9.86,-0.47,0.68,0.55,11.8,6.2,0.7,34.9,,,,,,,,,,
13.23.20.027,339.7,84.9,0,,,101419.9,9.86,-0.3,0.64,0.37,16.2,-7.9,-18.3,35.09,,,,,,,,,,
13.23.20.037,322.3,80.6,0,,,101419.9,9.86,-0.2,0.68,0.45,4.3,1.9,7.8,34.94,,,,,,,,,,
13.23.20.046,336.8,84.2,0,,,101419.9,9.86,-0.28,0.53,0.3,-2.1,-0.1,-9.8,35.09,,,,,,,,,,
13.23.20.055,300.8,75.2,0,,,101419.9,9.86,-0.26,0.7,0.54,22.5,-2.1,-4.6,35.11,,,,,,,,,,
13.23.20.064,310.0,77.5,0,,,101419.9,9.86,-0.46,0.64,0.55,-7.6,22.9,-0.1,35.45,,,,,,,,,,
13.23.20.076,294.2,73.6,0,,,101419.9,9.86,-0.3,0.46,0.35,-0.7,2.9,10.4,34.91,,,,,,,,,,
13.23.20.086,270.9,67.7,0,,,101419.9,9.86,-0.27,0.72,0.46,16.7,13.4,0.1,35.07,,,,,,,,,,
13.23.20.097,278.0,69.5,0,,,101419.9,9.86,-0.48,0.63,0.39,-1.0,16.6,-6.7,35.59,,,,,,,,,,
13.23.20.108,237.9,59.5,0,,,101419.9,9.86,-0.26,0.7,0.48,5.3,-3.9,9.1,35.47,,,,,,,,,,
13.23.20.119,213.5,53.4,0,,,101419.9,9.86,-0.18,0.58,0.4,11.8,9.9,-6.8,35.32,,,,,,,,,,
13.23.20.128,195.0,48.8,0,,,101419.9,9.86,-0.33,0.73,0.42,3.5,14.9,-11.7,35.09,,,,,,,,,,
13.23.20.138,181.8,45.4,0,,,101419.9,9.86,-0.19,0.7,0.42,-0.8,-5.4,-0.2,34.79,,,,,,,,,,
13.23.20.146,155.1,38.8,0,,,101419.9,9.86,-0.28,0.6,0.44,3.8,-6.9,-5.1,34.9,,,,,,,,,,
13.23.20.154,120.2,30.0,0,,,101419.9,9.86,-0.26,0.82,0.51,-16.2,4.7,-5.1,35.52,,,,,,,,,,
13.23.20.165,96.1,24.0,0,,,101419.9,9.86,-0.2,0.41,0.47,-6.7,-2.6,-7.3,35.15,,,,,,,,,,
13.23.20.173,74.2,18.6,0,,,101419.9,9.86,-0.21,0.56,0.46,-2.9,-0.3,2.5,34.9,,,,,,,,,,
13.23.20.182,56.6,14.2,0,,,101419.9,9.86,-0.22,0.78,0.41,8.0,-18.1,-4.7,35.24,,,,,,,,,,
13.23.20.193,16.9,4.2,0,,,101419.9,9.86,-0.34,0.78,0.34,-18.4,5.4,-20.4,35.7,,,,,,,,,,
13.23.20.205,-2.7,0.7,0,,,101419.9,9.86,-0.27,0.5,0.48,15.8,27.7,-5.7,34.85,,,,,,,,,,
13.23.20.214,13.6,3.4,0,,,101419.9,9.86,-0.26,0.72,0.44,-17.2,0.2,-4.5,34.87,,,,,,,,,,
13.23.20.224,25.2,6.3,0,,,101419.9,9.86,-0.32,0.7,0.38,19.9,16.7,-18.1,35.24,,,,,,,,,,
13.23.20.235,37.2,9.3,0,,,101419.9,9.86,-0.24,0.67,0.28,-6.3,13.0,-3.4,35.73,,,,,,,,,,
13.23.20.245,28.6,7.2,0,,,101419.9,9.86,-0.39,0.68,0.44,-1.5,-7.2,-0.8,34.99,,,,,,,,,,
13.23.20.255,46.2,11.6,0,,,101419.9,9.86,-0.19,0.51,0.42,3.3,2.6,4.2,35.12,,,,,,,,,,
13.23.20.267,56.3,14.1,0,,,101419.9,9.86,-0.32,0.8,0.53,14.0,13.8,-7.1,35.52,,,,,,,,,,
13.23.20.277,44.5,11.1,0,,,101419.9,9.86,-0.29,0.77,0.52,3.9,18.9,-6.3,35.39,,,,,,,,,,
13.23.20.285,51.0,12.8,0,,,101419.9,9.86,-0.15,0.69,0.45,19.6,18.6,-2.0,35.31,,,,,,,,,,
13.23.20.295,61.9,15.5,0,,,101419.9,9.86,-0.18,0.6,0.38,-16.4,12.0,-7.8,34.72,,,,,,,,,,
13.23.20.306,61.8,15.4,0,,,101419.9,9.86,-0.24,0.82,0.41,6.8,12.2,0.9,35.0,,,,,,,,,,
13.23.20.315,45.1,11.3,0,,,101419.9,9.86,-0.32,0.72,0.46,-1.4,32.9,-4.3,35.49,,,,,,,,,,
13.23.20.324,50.4,12.6,0,,,101419.9,9.86,-0.44,0.59,0.51,2.3,18.9,-10.4,35.7,,,,,,,,,,
13.23.20.335,48.9,12.2,0,,,101419.9,9.86,-0.49,0.78,0.45,31.4,9.4,-4.7,35.3,,,,,,,,,,
13.23.20.344,43.5,10.9,0,,,101419.9,9.86,-0.17,0.65,0.43,-4.6,-16.7,-1.8,35.47,,,,,,,,,,
13.23.20.354,29.5,7.4,0,,,101419.9,9.86,-0.25,0.56,0.53,13.0,19.1,-8.1,34.93,,,,,,,,,,
13.23.20.363,29.3,7.3,0,,,101419.9,9.86,-0.27,0.53,0.54,4.5,3.1,-13.3,35.13,,,,,,,,,,
13.23.20.373,21.8,5.4,0,,,101419.9,9.86,-0.27,0.69,0.41,-15.2,8.9,8.0,34.91,,,,,,,,,,
13.23.20.384,9.2,2.3,0,,,101419.9,9.86,-0.2,0.61,0.46,-4.6,9.9,5.0,34.76,,,,,,,,,,
13.23.20.393,0.0,0.0,0,,,101419.9,9.86,-0.2,0.61,0.46,-5.6,24.6,-2.8,35.17,,,,,,,,,,
13.23.20.404,2.9,0.7,0,,,101419.9,9.86,-0.4,0.58,0.62,3.9,-5.7,7.4,35.23,,,,,,,,,,
13.23.20.414,-2.7,0.7,0,,,101419.9,9.86,-0.21,0.6,0.49,15.1,5.6,7.4,35.38,,,,,,,,,,
13.23.20.424,-0.2,0.0,0,,,101419.9,9.86,-0.38,0.54,0.45,14.4,-3.5,8.8,35.31,,,,,,,,,,
13.23.20.433,-9.8,2.4,0,,,101419.9,9.86,-0.4,0.48,0.5,-18.1,-1.7,-13.1,35.38,,,,,,,,,,
13.23.20.445,-14.8,3.7,0,,,101419.9,9.86,-0.35,0.58,0.5,-3.2,-11.0,4.4,35.36,,,,,,,,,,
13.23.20.455,-22.9,5.7,0,,,101419.9,9.86,-0.34,0.84,0.44,20.8,6.5,-24.2,34.68,,,,,,,,,,
13.23.20.463,-25.6,6.4,0,,,101419.9,9.86,-0.27,0.49,0.47,8.5,11.6,16.0,34.66,,,,,,,,,,
13.23.20.472,-16.4,4.1,0,,,101419.9,9.86,-0.33,0.66,0.5,-15.5,5.9,5.4,35.1,,,,,,,,,,
13.23.20.481,-17.0,4.2,0,,,101419.9,9.86,-0.4,0.56,0.57,0.3,-1.6,-12.7,35.07,,,,,,,,,,
13.23.20.493,-23.0,5.8,0,,,101419.9,9.86,-0.2,0.58,0.54,-2.1,14.5,-4.6,35.17,,,,,,,,,,
13.23.20.501,-41.8,10.4,0,,,101419.9,9.86,-0.22,0.69,0.42,1.3,20.0,3.9,35.07,,,,,,,,,,
13.23.20.512,-34.3,8.6,0,,,101419.9,9.86,-0.29,0.52,0.49,-14.2,-2.7,3.8,35.43,,,,,,,,,,
13.23.20.523,-30.3,7.6,0,,,101419.9,9.86,-0.33,0.56,0.47,-5.7,7.1,-16.6,35.01,,,,,,,,,,
13.23.20.535,-43.1,10.8,0,,,101419.9,9.86,-0.2,0.72,0.37,2.3,-3.1,4.2,34.88,,,,,,,,,,
13.23.20.544,-48.4,12.1,0,,,101419.9,9.86,-0.25,0.51,0.39,20.2,-17.7,10.3,35.27,,,,,,,,,,
13.23.20.554,-48.1,12.0,0,,,101419.9,9.86,-0.34,0.62,0.5,-13.3,-3.0,-8.0,34.94,,,,,,,,,,
13.23.20.563,-54.3,13.6,0,,,101419.9,9.86,-0.15,0.58,0.49,-1.5,15.3,-16.3,34.69,,,,,,,,,,
13.23.20.574,-50.6,12.6,0,,,101419.9,9.86,-0.26,0.41,0.51,34.6,-7.4,-4.8,35.17,,,,,,,,,,
13.23.20.584,-44.8,11.2,0,,,101419.9,9.86,-0.42,0.5,0.58,-6.4,40.8,-14.4,35.12,,,,,,,,,,
13.23.20.595,-57.1,14.3,0,,,101419.9,9.86,-0.38,0.61,0.46,10.4,6.1,-6.0,35.3,,,,,,,,,,
13.23.20.605,-64.4,16.1,0,,,101419.9,9.86,-0.4,0.78,0.47,12.0,25.1,5.6,34.55,,,,,,,,,,
13.23.20.615,-67.7,16.9,0,,,101419.9,9.86,-0.16,0.59,0.35,2.9,10.5,-9.6,35.31,,,,,,,,,,
13.23.20.625,-63.8,16.0,0,,,101419.9,9.86,-0.31,0.67,0.39,-4.4,9.0,3.1,35.3,,,,,,,,,,
13.23.20.634,-60.1,15.0,0,,,101419.9,9.86,-0.32,0.81,0.58,-8.8,13.8,0.4,35.49,,,,,,,,,,
13.23.20.643,-66.8,16.7,0,,,101419.9,9.86,-0.24,0.95,0.47,1.3,10.1,6.7,34.86,,,,,,,,,,
13.23.20.653,-77.9,19.5,0,,,101419.9,9.86,-0.32,0.73,0.45,12.9,-6.6,-3.2,35.11,,,,,,,,,,
13.23.20.662,-73.8,18.4,0,,,101419.9,9.86,-0.33,0.7,0.42,8.0,18.6,-7.1,35.17,,,,,,,,,,
13.23.20.672,-91.1,22.8,0,,,101419.9,9.86,-0.23,0.66,0.33,8.0,6.7,-19.7,35.27,,,,,,,,,,
13.23.20.682,-86.4,21.6,0,,,101419.9,9.86,-0.19,0.64,0.41,-2.4,20.5,6.0,35.2,,,,,,,,,,
13.23.20.692,-86.5,21.6,0,,,101419.9,9.86,-0.16,0.74,0.56,6.0,16.0,2.7,35.85,,,,,,,,,,
13.23.20.700,-88.1,22.0,0,,,101419.9,9.86,-0.22,0.56,0.37,7.8,9.2,4.3,34.97,,,,,,,,,,
13.23.20.711,-96.7,24.2,0,,,101419.9,9.86,-0.32,0.53,0.52,5.5,9.0,0.8,35.32,,,,,,,,,,
13.23.20.720,-91.8,23.0,0,,,101419.9,9.86,-0.31,0.73,0.35,-6.2,-0.7,-5.6,35.62,,,,,,,,,,
13.23.20.729,-99.1,24.8,0,,,101419.9,9.86,-0.26,0.75,0.5,27.6,-12.3,-18.8,35.35,,,,,,,,,,
13.23.20.739,-99.1,24.8,0,,,101419.9,9.86,-0.22,0.69,0.46,6.8,21.7,0.1,35.25,,,,,,,,,,
13.23.20.751,-104.2,26.0,0,,,101419.9,9.86,-0.22,0.72,0.42,-22.3,15.0,6.7,35.21,,,,,,,,,,
13.23.20.758,-119.6,29.9,0,,,101419.9,9.86,-0.25,0.54,0.33,8.4,-1.1,-14.7,35.34,,,,,,,,,,
13.23.20.768,-114.0,28.5,0,,,101419.9,9.86,-0.21,0.79,0.43,-30.4,18.7,6.8,34.89,,,,,,,,,,
13.23.20.779,-112.3,28.1,0,,,101419.9,9.86,-0.24,0.77,0.52,-1.2,2.3,-7.7,34.88,,,,,,,,,,
13.23.20.791,-111.3,27.8,0,,,101419.9,9.86,-0.26,0.49,0.46,-3.0,4.2,5.7,35.22,,,,,,,,,,
13.23.20.801,-121.3,30.3,0,,,101419.9,9.86,-0.12,0.78,0.43,-3.3,-5.9,4.5,35.31,,,,,,,,,,
13.23.20.811,-116.5,29.1,0,,,101419.9,9.86,-0.23,0.5,0.53,-8.1,4.6,-5.7,35.5,,,,,,,,,,
13.23.20.822,-114.4,28.6,0,,,101419.9,9.86,-0.21,0.74,0.38,7.5,6.8,-2.2,34.95,,,,,,,,,,
13.23.20.831,20.5,5.1,0,,,101419.9,9.86,-0.2,0.76,0.61,15.0,2.6,6.4,35.12,,,,,,,,,,
13.23.20.843,49.4,12.4,0,,,101419.9,9.86,-0.42,0.53,0.53,-12.5,4.6,-7.8,35.23,,,,,,,,,,
13.23.20.854,,,0,,,,,,,,,,,,,,,,,,,,,
13.23.20.863,108.8,27.2,0,,,101419.9,9.86,-0.26,0.54,0.51,-9.8,17.0,8.9,35.17,,,,,,,,,,
13.23.20.873,130.3,32.6,0,,,101419.9,9.86,-0.34,0.82,0.53,11.2,8.3,-3.8,35.07,,,,,,,,,,
13.23.20.883,168.5,42.1,0,,,101419.9,9.86,-0.23,0.64,0.48,31.9,17.8,-4.6,35.2,,,,,,,,,,
13.23.20.890,178.5,44.6,0,,,101419.9,9.86,-0.23,0.76,0.4,-5.9,2.9,-16.0,35.11,,,,,,,,,,
13.23.20.899,207.3,51.8,0,,,101419.9,9.86,-0.21,0.53,0.35,0.1,-1.2,4.5,35.25,,,,,,,,,,
13.23.20.909,209.9,52.5,0,,,101419.9,9.86,-0.28,0.66,0.35,-9.9,-8.8,-2.4,35.33,,,,,,,,,,
13.23.20.918,236.2,59.0,0,,,101419.9,9.86,-0.17,0.64,0.57,0.9,-15.3,9.9,35.03,,,,,,,,,,
13.23.20.928,269.9,67.5,0,,,101419.9,9.86,-0.36,0.64,0.35,-6.6,11.1,-3.0,35.36,,,,,,,,,,
13.23.20.939,283.0,70.8,0,,,101419.9,9.86,-0.39,0.53,0.39,-11.8,7.2,-6.3,35.19,,,,,,,,,,
13.23.20.949,290.8,72.7,0,,,101419.9,9.86,-0.29,0.45,0.49,8.3,-5.3,-18.8,35.57,,,,,,,,,,
13.23.20.957,298.2,74.6,0,,,101419.9,9.86,-0.44,0.73,0.43,4.9,12.8,-3.0,35.12,,,,,,,,,,
13.23.20.967,300.6,75.2,0,,,101419.9,9.86,-0.28,0.8,0.34,-3.0,10.6,-9.5,35.16,,,,,,,,,,
13.23.20.976,303.2,75.8,0,,,101419.9,9.86,-0.34,0.6,0.49,-3.6,0.7,-7.1,35.73,,,,,,,,,,
13.23.20.985,308.3,77.1,0,,,101419.9,9.86,-0.23,0.82,0.37,-18.6,11.5,-3.1,35.07,,,,,,,,,,
13.23.20.997,336.1,84.0,1,5.0,57.7,101419.9,9.86,-0.3,0.67,0.44,7.1,24.4,7.5,34.67,,,,,,,,,,
13.23.21.005,311.8,78.0,0,,,101419.9,9.86,-0.27,0.59,0.53,-21.5,21.4,5.7,35.1,59.6,,,,,,,,,
13.23.21.015,299.9,75.0,0,,,101419.9,9.86,-0.26,0.66,0.54,-10.6,5.0,8.6,35.16,,,,,,,,,,
13.23.21.025,299.2,74.8,0,,,101419.9,9.86,-0.27,0.67,0.41,14.3,11.0,-3.2,35.78,,,,,,,,,,
13.23.21.035,318.0,79.5,0,,,101419.9,9.86,-0.33,0.67,0.47,26.3,-6.8,-1.3,34.95,,,,,,,,,,
13.23.21.045,282.3,70.6,0,,,101419.9,9.86,-0.29,0.72,0.49,6.2,20.3,6.6,35.37,,,,,,,,,,
13.23.21.055,280.6,70.2,0,,,101419.9,9.86,-0.2,0.69,0.49,20.1,31.8,3.8,35.55,,,,,,,,,,
13.23.21.066,241.5,60.4,0,,,101419.9,9.86,-0.24,0.62,0.42,13.0,-7.5,-4.8,35.22,,,,,,,,,,
13.23.21.078,243.5,60.9,0,,,101419.9,9.86,-0.32,0.59,0.47,4.9,16.7,-5.2,35.5,,,,,,,,,,
13.23.21.088,224.4,56.1,0,,,101419.9,9.86,-0.26,0.73,0.39,-14.4,9.7,-7.0,35.35,,,,,,,,,,
13.23.21.096,195.8,49.0,0,,,101419.9,9.86,-0.17,0.7,0.41,-14.6,17.8,0.2,35.07,,,,,,,,,,
13.23.21.105,174.9,43.7,0,,,101419.9,9.86,-0.32,0.63,0.35,5.4,8.7,-6.9,35.27,,,,,,,,,,
13.23.21.114,138.8,34.7,0,,,101419.9,9.86,-0.2,0.67,0.43,-13.6,-4.3,-9.2,34.99,,,,,,,,,,
13.23.21.123,115.5,28.9,0,,,101419.9,9.86,-0.31,0.67,0.42,-2.7,-9.7,-5.4,35.34,,,,,,,,,,
13.23.21.134,81.4,20.4,0,,,101419.9,9.86,-0.19,0.71,0.46,-25.7,5.6,1.5,35.03,,,,,,,,,,
13.23.21.144,62.8,15.7,0,,,101419.9,9.86,-0.24,0.67,0.49,26.7,0.4,-4.1,35.15,,,,,,,,,,
13.23.21.154,29.6,7.4,0,,,101419.9,9.86,-0.31,0.48,0.34,-23.0,13.9,0.7,35.01,,,,,,,,,,
13.23.21.163,14.8,3.7,0,,,101419.9,9.86,-0.31,0.7,0.43,-9.1,10.5,0.1,35.07,,,,,,,,,,
13.23.21.171,0.4,0.1,0,,,101419.9,9.86,-0.22,0.59,0.47,2.7,-3.1,-12.0,35.01,,,,,,,,,,
13.23.21.180,20.0,5.0,0,,,101419.9,9.86,-0.23,0.77,0.4,17.6,7.8,-8.6,35.18,,,,,,,,,,
13.23.21.188,16.1,4.0,0,,,101419.9,9.86,-0.26,0.7,0.34,34.8,8.8,-4.2,35.72,,,,,,,,,,
13.23.21.196,31.4,7.8,0,,,101419.9,9.86,-0.18,0.71,0.44,24.2,7.6,1.5,35.63,,,,,,,,,,
13.23.21.207,40.1,10.0,0,,,101419.9,9.86,-0.21,0.56,0.58,2.0,0.6,1.5,35.24,,,,,,,,,,
13.23.21.217,39.6,9.9,0,,,101419.9,9.86,-0.16,0.75,0.46,-15.7,-11.5,11.9,35.6,,,,,,,,,,
13.23.21.228,58.0,14.5,0,,,101419.9,9.86,-0.41,0.78,0.39,-24.6,-0.2,3.2,35.39,,,,,,,,,,
13.23.21.238,49.9,12.5,0,,,101419.9,9.86,-0.19,0.68,0.3,11.0,-5.5,1.2,35.29,,,,,,,,,,
13.23.21.246,63.6,15.9,0,,,101419.9,9.86,-0.22,0.67,0.39,17.5,10.0,4.4,34.81,,,,,,,,,,
13.23.21.255,54.7,13.7,0,,,101419.9,9.86,-0.44,0.59,0.35,10.8,1.4,0.0,35.61,,,,,,,,,,
13.23.21.263,65.3,16.3,0,,,101419.9,9.86,-0.22,0.47,0.49,24.5,-4.1,3.5,35.19,,,,,,,,,,
13.23.21.276,54.6,13.6,0,,,101419.9,9.86,-0.24,0.47,0.38,-5.3,-5.6,-0.3,35.26,,,,,,,,,,
13.23.21.284,51.9,13.0,0,,,101419.9,9.86,-0.21,0.63,0.43,-30.2,17.8,-11.1,35.5,,,,,,,,,,
13.23.21.293,57.3,14.3,0,,,101419.9,9.86,-0.32,0.78,0.53,-17.8,4.6,3.4,34.89,,,,,,,,,,
13.23.21.303,43.5,10.9,0,,,101419.9,9.86,-0.33,0.64,0.33,11.5,-2.0,7.4,35.45,,,,,,,,,,
13.23.21.313,31.7,7.9,0,,,101419.9,9.86,-0.33,0.51,0.5,16.2,9.5,2.4,34.96,,,,,,,,,,
13.23.21.324,28.5,7.1,0,,,101419.9,9.86,-0.28,0.63,0.4,17.0,-5.8,8.0,34.96,,,,,,,,,,
13.23.21.334,18.5,4.6,0,,,101419.9,9.86,-0.23,0.79,0.44,7.0,6.6,-10.4,35.18,,,,,,,,,,
13.23.21.343,10.3,2.6,0,,,101419.9,9.86,-0.23,0.57,0.53,-0.9,-11.8,-4.7,35.09,,,,,,,,,,
13.23.21.352,10.6,2.6,0,,,101419.9,9.86,-0.2,0.68,0.62,4.0,21.0,-10.2,34.99,,,,,,,,,,
13.23.21.361,7.3,1.8,0,,,101419.9,9.86,-0.28,0.71,0.6,4.0,3.7,-17.0,35.19,,,,,,,,,,
13.23.21.368,-8.4,2.1,0,,,101419.9,9.86,-0.27,0.46,0.41,9.0,12.4,-2.6,35.45,,,,,,,,,,
13.23.21.378,-1.0,0.2,0,,,101419.9,9.86,-0.37,0.72,0.39,-2.9,-0.6,9.0,34.9,,,,,,,,,,
13.23.21.389,-5.4,1.4,0,,,101419.9,9.86,-0.27,0.76,0.45,-31.7,10.8,1.9,35.32,,,,,,,,,,
13.23.21.398,-0.0,0.0,0,,,101419.9,9.86,-0.22,0.68,0.53,3.2,9.3,4.4,34.5,,,,,,,,,,
13.23.21.409,-12.9,3.2,0,,,101419.9,9.86,-0.26,0.8,0.39,17.7,-8.4,-2.8,35.09,,,,,,,,,,
13.23.21.418,-21.1,5.3,0,,,101419.9,9.86,-0.31,0.94,0.55,10.8,-5.3,-10.3,35.28,,,,,,,,,,
13.23.21.428,-17.5,4.4,0,,,101419.9,9.86,-0.12,0.56,0.35,20.1,-17.5,-8.1,35.15,,,,,,,,,,
13.23.21.438,-13.5,3.4,0,,,101419.9,9.86,-0.15,0.66,0.45,6.1,2.3,-11.6,35.49,,,,,,,,,,
13.23.21.445,-22.3,5.6,0,,,101419.9,9.86,-0.2,0.68,0.42,-5.0,25.5,-6.9,35.29,,,,,,,,,,
13.23.21.455,-24.2,6.0,0,,,101419.9,9.86,-0.36,0.65,0.51,-11.5,-1.8,-1.4,34.97,,,,,,,,,,
13.23.21.466,-25.7,6.4,0,,,101419.9,9.86,-0.33,0.73,0.33,11.9,4.4,2.3,35.21,,,,,,,,,,
13.23.21.475,-36.0,9.0,0,,,101419.9,9.86,-0.19,0.54,0.43,-30.0,-7.3,-3.8,35.46,,,,,,,,,,
13.23.21.486,-30.6,7.6,0,,,101419.9,9.86,-0.23,0.8,0.57,-3.0,16.2,2.9,35.41,,,,,,,,,,
13.23.21.496,-40.1,10.0,0,,,101419.9,9.86,-0.34,0.62,0.6,-25.9,7.9,4.7,35.06,,,,,,,,,,
13.23.21.507,-37.9,9.5,0,,,101419.9,9.86,-0.28,0.69,0.36,-16.5,10.6,1.6,35.23,,,,,,,,,,
13.23.21.518,-63.2,15.8,0,,,101419.9,9.86,-0.34,0.6,0.52,4.7,4.4,-18.1,35.24,,,,,,,,,,
13.23.21.529,-50.6,12.6,0,,,101419.9,9.86,-0.34,0.69,0.38,11.6,-13.6,0.5,35.0,,,,,,,,,,
13.23.21.540,-46.5,11.6,0,,,101419.9,9.86,-0.27,0.84,0.34,-12.6,14.0,4.8,35.33,,,,,,,,,,
13.23.21.548,-53.9,13.5,0,,,101419.9,9.86,-0.27,0.69,0.44,14.1,6.8,6.1,35.27,,,,,,,,,,
13.23.21.558,-62.1,15.5,0,,,101419.9,9.86,-0.22,0.77,0.42,-24.5,20.2,10.0,35.15,,,,,,,,,,
13.23.21.569,-59.7,14.9,0,,,101419.9,9.86,-0.41,0.58,0.5,0.8,6.4,12.8,35.03,,,,,,,,,,
13.23.21.579,-68.0,17.0,0,,,101419.9,9.86,-0.28,0.61,0.43,19.7,1.4,-8.6,35.21,,,,,,,,,,
13.23.21.589,-64.5,16.1,0,,,101419.9,9.86,-0.27,0.68,0.43,-20.0,6.0,-0.6,35.32,,,,,,,,,,
13.23.21.597,-58.0,14.5,0,,,101419.9,9.86,-0.38,0.59,0.58,-15.9,10.2,-4.1,35.27,,,,,,,,,,
13.23.21.608,-78.7,19.7,0,,,101419.9,9.86,-0.19,0.64,0.51,-12.1,19.0,-16.2,35.29,,,,,,,,,,
13.23.21.617,-70.1,17.5,0,,,101419.9,9.86,-0.33,0.51,0.25,-13.6,-13.4,-2.9,35.09,,,,,,,,,,
13.23.21.626,-72.2,18.0,0,,,101419.9,9.86,-0.38,0.62,0.39,9.2,-6.9,-5.6,35.08,,,,,,,,,,
13.23.21.635,-81.7,20.4,0,,,101419.9,9.86,-0.29,0.48,0.43,5.1,4.1,-4.2,35.14,,,,,,,,,,
13.23.21.641,-78.8,19.7,0,,,101419.9,9.86,-0.28,0.6,0.39,-16.8,24.7,-11.6,35.24,,,,,,,,,,
13.23.21.649,-82.9,20.7,0,,,101419.9,9.86,-0.31,0.52,0.55,5.8,-3.7,1.8,35.34,,,,,,,,,,
13.23.21.660,-92.6,23.2,0,,,101419.9,9.86,-0.32,0.6,0.32,25.6,15.6,-0.3,35.0,,,,,,,,,,
13.23.21.668,-79.0,19.8,0,,,101419.9,9.86,-0.3,0.62,0.48,-24.4,4.7,-9.8,35.02,,,,,,,,,,
13.23.21.678,-89.1,22.3,0,,,101419.9,9.86,-0.15,0.48,0.57,14.5,-22.0,6.6,35.39,,,,,,,,,,
13.23.21.687,-101.3,25.3,0,,,101419.9,9.86,-0.23,0.65,0.42,2.1,11.4,2.4,35.09,,,,,,,,,,
13.23.21.696,-96.0,24.0,0,,,101419.9,9.86,-0.42,0.6,0.56,3.8,7.4,4.4,35.22,,,,,,,,,,
13.23.21.705,-108.4,27.1,0,,,101419.9,9.86,-0.18,0.71,0.54,3.1,0.4,-11.8,34.77,,,,,,,,,,
13.23.21.715,-117.8,29.4,0,,,101419.9,9.86,-0.13,0.82,0.56,7.1,17.0,7.5,35.5,,,,,,,,,,
13.23.21.725,-100.0,25.0,0,,,101419.9,9.86,-0.32,0.57,0.46,-20.0,-2.6,21.3,35.5,,,,,,,,,,
13.23.21.734,-112.6,28.2,0,,,101419.9,9.86,-0.27,0.54,0.56,24.2,2.2,10.1,34.94,,,,,,,,,,
13.23.21.745,-126.5,31.6,0,,,101419.9,9.86,-0.27,0.56,0.52,7.6,1.4,-2.2,35.54,,,,,,,,,,
13.23.21.755,-118.3,29.6,0,,,101419.9,9.86,-0.31,0.71,0.47,16.9,1.3,2.5,35.4,,,,,,,,,,
13.23.21.763,-116.0,29.0,0,,,101419.9,9.86,-0.38,0.59,0.52,21.4,16.3,3.0,34.95,,,,,,,,,,
13.23.21.772,-126.3,31.6,0,,,101419.9,9.86,-0.27,0.6,0.48,6.4,2.2,4.7,34.83,,,,,,,,,,
13.23.21.783,-111.5,27.9,0,,,101419.9,9.86,-0.28,0.54,0.47,5.4,-9.6,-7.7,35.18,,,,,,,,,,
13.23.21.794,14.7,3.7,0,,,101419.9,9.86,-0.29,0.74,0.39,2.3,30.9,0.3,35.49,,,,,,,,,,
13.23.21.802,27.5,6.9,0,,,101419.9,9.86,-0.28,0.8,0.48,-18.9,-2.9,-19.8,35.2,,,,,,,,,,
13.23.21.811,63.9,16.0,0,,,101419.9,9.86,-0.32,0.61,0.49,-10.1,1.8,-1.8,35.27,,,,,,,,,,
13.23.21.823,85.3,21.3,0,,,101419.9,9.86,-0.14,0.82,0.43,-7.3,2.1,-14.8,34.69,,,,,,,,,,
13.23.21.834,110.1,27.5,0,,,101419.9,9.86,-0.37,0.87,0.47,-11.1,31.5,-14.6,35.12,,,,,,,,,,
13.23.21.843,148.6,37.2,0,,,101419.9,9.86,-0.12,0.62,0.42,8.8,-6.0,6.7,35.25,,,,,,,,,,
13.23.21.854,160.1,40.0,0,,,101419.9,9.86,-0.32,0.35,0.32,-13.7,-5.0,8.1,35.42,,,,,,,,,,
13.23.21.865,199.0,49.8,0,,,101419.9,9.86,-0.36,0.64,0.36,-1.0,4.4,-0.7,35.28,,,,,,,,,,
13.23.21.876,232.1,58.0,0,,,101419.9,9.86,-0.26,0.59,0.28,2.3,3.1,-5.3,35.23,,,,,,,,,,
13.23.21.885,247.6,61.9,0,,,101419.9,9.86,-0.29,0.77,0.32,31.9,19.0,8.6,35.2,,,,,,,,,,
13.23.21.896,290.6,72.6,0,,,101419.9,9.86,-0.18,0.75,0.3,-17.2,-20.7,-12.5,35.0,,,,,,,,,,
13.23.21.906,298.5,74.6,0,,,101419.9,9.86,-0.11,0.68,0.48,2.9,3.8,11.9,34.98,,,,,,,,,,
13.23.21.917,307.1,76.8,0,,,101419.9,9.86,-0.29,0.83,0.57,13.5,8.3,12.8,35.21,,,,,,,,,,
13.23.21.928,307.9,77.0,0,,,101419.9,9.86,-0.31,0.61,0.37,-5.5,6.2,7.4,35.06,,,,,,,,,,
13.23.21.939,305.4,76.4,0,,,101419.9,9.86,-0.24,0.55,0.44,-28.6,7.6,8.7,35.26,,,,,,,,,,
13.23.21.947,314.7,78.7,0,,,101419.9,9.86,-0.27,0.59,0.55,-4.7,-22.0,11.6,34.76,,,,,,,,,,
13.23.21.955,325.6,81.4,0,,,101419.9,9.86,-0.21,0.46,0.42,-4.6,15.3,20.6,35.45,,,,,,,,,,
13.23.21.964,302.3,75.6,0,,,101419.9,9.86,-0.24,0.69,0.33,17.6,11.4,-6.1,34.99,,,,,,,,,,
13.23.21.972,317.7,79.4,0,,,101419.9,9.86,-0.32,0.66,0.27,-9.0,-4.0,2.6,35.39,,,,,,,,,,
13.23.21.982,304.6,76.2,0,,,101419.9,9.86,-0.17,0.57,0.38,-14.3,17.3,-3.8,35.47,,,,,,,,,,
13.23.21.991,331.8,83.0,0,,,101419.9,9.86,-0.22,0.73,0.43,-3.2,-7.3,11.9,34.59,,,,,,,,,,
13.23.22.001,306.9,76.7,0,,,101419.9,9.86,-0.3,0.62,0.4,-2.0,7.6,1.4,35.01,,,,,,,,,,
13.23.22.012,278.1,69.5,1,6.0,59.1,101419.9,9.86,-0.16,0.64,0.35,-5.8,22.6,15.5,34.92,,,,,,,,,,
13.23.22.020,247.5,61.9,0,,,101419.9,9.86,-0.11,0.74,0.43,5.8,2.6,6.1,34.83,,,,,,,,,,
13.23.22.030,255.9,64.0,0,,,101419.9,9.86,-0.19,0.55,0.5,-3.2,22.8,0.8,35.27,,,,,,,,,,
13.23.22.039,237.4,59.4,0,,,101419.9,9.86,-0.38,0.47,0.29,-4.4,18.7,1.0,35.48,,,,,,,,,,
13.23.22.049,235.4,58.8,0,,,101419.9,9.86,-0.31,0.74,0.65,12.5,7.2,-2.0,35.25,,,,,,,,,,
13.23.22.059,172.6,43.2,0,,,101419.9,9.86,-0.16,0.74,0.45,19.2,-16.4,7.2,34.76,,,,,,,,,,
13.23.22.069,177.7,44.4,0,,,101419.9,9.86,-0.25,0.51,0.5,-4.2,16.0,-12.2,35.1,,,,,,,,,,
13.23.22.079,139.8,35.0,0,,,101419.9,9.86,-0.25,0.71,0.44,22.2,-20.6,0.6,35.12,,,,,,,,,,
13.23.22.089,124.5,31.1,0,,,101419.9,9.86,-0.37,0.87,0.47,4.8,-1.9,4.3,35.51,,,,,,,,,,
13.23.22.096,94.8,23.7,0,,,101419.9,9.86,-0.15,0.76,0.42,-16.1,2.8,-14.0,35.02,,,,,,,,,,
13.23.22.104,79.4,19.8,0,,,101419.9,9.86,-0.23,0.71,0.45,-12.7,5.6,10.2,34.97,,,,,,,,,,
13.23.22.115,47.7,11.9,0,,,101419.9,9.86,-0.27,0.59,0.49,-46.8,11.4,-3.0,35.44,,,,,,,,,,
13.23.22.122,25.1,6.3,0,,,101419.9,9.86,-0.27,0.8,0.18,8.0,-1.0,-1.6,35.53,,,,,,,,,,
13.23.22.132,12.7,3.2,0,,,101419.9,9.86,-0.22,0.53,0.53,-13.9,12.2,12.5,35.24,,,,,,,,,,
13.23.22.142,-0.2,0.0,0,,,101419.9,9.86,-0.28,0.79,0.57,19.2,10.9,16.2,35.26,,,,,,,,,,
13.23.22.151,9.5,2.4,0,,,101419.9,9.86,-0.39,0.66,0.47,-0.3,6.5,3.0,35.03,,,,,,,,,,
13.23.22.158,28.0,7.0,0,,,101419.9,9.86,-0.23,0.62,0.46,1.4,8.2,4.6,35.18,,,,,,,,,,
13.23.22.168,36.7,9.2,0,,,101419.9,9.86,-0.27,0.57,0.48,21.3,2.8,-8.3,35.43,,,,,,,,,,
13.23.22.177,46.0,11.5,0,,,101419.9,9.86,-0.18,0.64,0.42,19.5,11.4,0.2,35.36,,,,,,,,,,
13.23.22.188,40.5,10.1,0,,,101419.9,9.86,-0.34,0.69,0.56,12.6,0.4,-4.5,34.98,,,,,,,,,,
13.23.22.197,43.4,10.8,0,,,101419.9,9.86,-0.2,0.7,0.55,21.0,30.1,-15.3,35.33,,,,,,,,,,
13.23.22.206,50.9,12.7,0,,,101419.9,9.86,-0.17,0.55,0.51,-8.1,2.9,1.1,35.34,,,,,,,,,,
13.23.22.215,55.1,13.8,0,,,101419.9,9.86,-0.16,0.64,0.4,-8.5,1.9,-4.7,35.03,,,,,,,,,,
13.23.22.224,62.0,15.5,0,,,101419.9,9.86,-0.16,0.56,0.58,5.3,15.6,-1.9,35.35,,,,,,,,,,
13.23.22.236,57.9,14.5,0,,,101419.9,9.86,-0.26,0.47,0.43,-1.7,4.2,13.8,35.4,,,,,,,,,,
13.23.22.244,53.0,13.2,0,,,101419.9,9.86,-0.16,0.6,0.51,7.8,12.1,-15.0,35.2,,,,,,,,,,
13.23.22.254,61.7,15.4,0,,,101419.9,9.86,-0.21,0.62,0.41,-3.0,-0.7,-4.2,35.39,,,,,,,,,,
13.23.22.264,45.8,11.4,0,,,101419.9,9.86,-0.27,0.67,0.49,-7.9,25.8,4.7,35.34,,,,,,,,,,
13.23.22.272,46.8,11.7,0,,,101419.9,9.86,-0.27,0.62,0.24,4.1,3.4,0.1,35.0,,,,,,,,,,
13.23.22.283,41.6,10.4,0,,,101419.9,9.86,-0.21,0.7,0.29,-5.9,2.0,-9.0,35.63,,,,,,,,,,
13.23.22.292,20.3,5.1,0,,,101419.9,9.86,-0.4,0.38,0.45,11.9,26.8,-8.4,35.46,,,,,,,,,,
13.23.22.300,22.5,5.6,0,,,101419.9,9.86,-0.23,0.7,0.35,-10.3,2.1,-1.7,35.45,,,,,,,,,,
13.23.22.312,2.2,0.6,0,,,101419.9,9.86,-0.26,0.81,0.41,14.8,0.6,1.7,35.68,,,,,,,,,,
13.23.22.321,3.7,0.9,0,,,101419.9,9.86,-0.26,0.63,0.52,-10.1,12.0,-5.1,35.49,,,,,,,,,,
13.23.22.331,3.7,0.9,0,,,101419.9,9.86,-0.38,0.65,0.45,10.1,-3.3,-13.9,35.4,,,,,,,,,,
13.23.22.341,-14.0,3.5,0,,,101419.9,9.86,-0.38,0.71,0.39,13.7,-18.5,-4.1,35.31,,,,,,,,,,
13.23.22.352,-18.2,4.6,0,,,101419.9,9.86,-0.35,0.57,0.46,-14.2,19.0,-12.2,35.27,,,,,,,,,,
13.23.22.360,-12.3,3.1,0,,,101419.9,9.86,-0.33,0.59,0.54,-14.5,-2.0,14.1,35.24,,,,,,,,,,
13.23.22.371,-13.0,3.2,0,,,101419.9,9.86,-0.15,0.68,0.53,9.5,17.5,-0.8,35.22,,,,,,,,,,
13.23.22.380,-12.6,3.2,0,,,101419.9,9.86,-0.33,0.58,0.39,6.8,24.2,-0.2,35.18,,,,,,,,,,
13.23.22.389,-17.5,4.4,0,,,101419.9,9.86,-0.07,0.57,0.41,9.7,-1.2,-8.5,35.25,,,,,,,,,,
13.23.22.398,-23.0,5.8,0,,,101419.9,9.86,-0.23,0.67,0.37,-25.8,15.2,1.9,34.62,,,,,,,,,,
13.23.22.407,-25.9,6.5,0,,,101419.9,9.86,-0.13,0.7,0.37,25.6,-1.7,-8.4,35.32,,,,,,,,,,
13.23.22.418,-30.9,7.7,0,,,101419.9,9.86,-0.15,0.46,0.45,11.3,5.9,14.3,35.04,,,,,,,,,,
13.23.22.428,-32.3,8.1,0,,,101419.9,9.86,-0.17,0.67,0.45,-1.3,21.8,-1.9,35.08,,,,,,,,,,
13.23.22.438,-37.9,9.5,0,,,101419.9,9.86,-0.27,0.67,0.6,-34.1,19.9,-5.8,35.42,,,,,,,,,,
13.23.22.450,-40.6,10.2,0,,,101419.9,9.86,-0.15,0.76,0.59,9.8,13.4,-0.4,34.94,,,,,,,,,,
13.23.22.459,-42.2,10.6,0,,,101419.9,9.86,-0.24,0.69,0.48,-18.9,0.9,-5.6,35.27,,,,,,,,,,
13.23.22.470,-37.4,9.4,0,,,101419.9,9.86,-0.37,0.64,0.44,-30.6,-4.8,-19.3,35.33,,,,,,,,,,
13.23.22.480,-46.3,11.6,0,,,101419.9,9.86,-0.16,0.62,0.58,-4.6,16.9,-6.7,35.09,,,,,,,,,,
13.23.22.489,-49.2,12.3,0,,,101419.9,9.86,-0.32,0.61,0.42,31.8,8.9,-14.5,35.17,,,,,,,,,,
13.23.22.501,-52.6,13.2,0,,,101419.9,9.86,-0.36,0.75,0.44,-7.3,2.3,-8.6,35.37,,,,,,,,,,
13.23.22.512,-56.3,14.1,0,,,101419.9,9.86,-0.38,0.77,0.55,8.6,4.3,6.5,35.23,,,,,,,,,,
13.23.22.519,-56.5,14.1,0,,,101419.9,9.86,-0.16,0.68,0.51,13.2,14.4,-12.5,35.21,,,,,,,,,,
13.23.22.529,-66.9,16.7,0,,,101419.9,9.86,-0.14,0.44,0.37,-4.9,9.9,13.5,34.99,,,,,,,,,,
13.23.22.540,-63.9,16.0,0,,,101419.9,9.86,-0.42,0.77,0.38,11.9,34.2,-14.5,35.75,,,,,,,,,,
13.23.22.549,-80.1,20.0,0,,,101419.9,9.86,-0.22,0.72,0.49,-27.3,-4.6,-21.2,35.09,,,,,,,,,,
13.23.22.558,-75.3,18.8,0,,,101419.9,9.86,-0.21,0.56,0.51,1.1,9.9,-18.1,35.33,,,,,,,,,,
13.23.22.569,-65.7,16.4,0,,,101419.9,9.86,-0.17,0.61,0.56,19.9,10.3,-15.5,34.98,,,,,,,,,,
13.23.22.579,-77.9,19.5,0,,,101419.9,9.86,-0.21,0.8,0.4,1.9,-0.7,-18.8,35.04,,,,,,,,,,
13.23.22.587,-83.9,21.0,0,,,101419.9,9.86,-0.28,0.67,0.41,-16.4,4.8,11.4,35.44,,,,,,,,,,
13.23.22.596,-77.1,19.3,0,,,101419.9,9.86,-0.28,0.56,0.3,17.1,24.2,9.2,35.32,,,,,,,,,,
13.23.22.606,-90.0,22.5,0,,,101419.9,9.86,-0.25,0.8,0.59,17.6,-3.2,9.8,35.03,,,,,,,,,,
13.23.22.617,-72.8,18.2,0,,,101419.9,9.86,-0.24,0.52,0.49,6.1,8.5,7.4,35.13,,,,,,,,,,
13.23.22.624,-93.4,23.4,0,,,101419.9,9.86,-0.33,0.93,0.31,-10.5,15.3,-26.2,35.33,,,,,,,,,,
13.23.22.632,-91.4,22.8,0,,,101419.9,9.86,-0.36,0.63,0.46,15.9,-6.3,-7.7,35.07,,,,,,,,,,
13.23.22.641,-99.2,24.8,0,,,101419.9,9.86,-0.27,0.8,0.49,15.1,6.3,11.4,35.13,,,,,,,,,,
13.23.22.651,-105.7,26.4,0,,,101419.9,9.86,-0.32,0.48,0.38,7.3,1.2,-4.1,34.79,,,,,,,,,,
13.23.22.659,-101.0,25.2,0,,,101419.9,9.86,-0.16,0.64,0.43,-12.3,-5.5,-1.2,35.52,,,,,,,,,,
13.23.22.670,-89.8,22.4,0,,,101419.9,9.86,-0.04,0.63,0.3,15.7,0.2,12.9,35.34,,,,,,,,,,
13.23.22.680,-111.1,27.8,0,,,101419.9,9.86,-0.15,0.48,0.51,20.5,6.9,8.2,35.65,,,,,,,,,,
13.23.22.690,-122.7,30.7,0,,,101419.9,9.86,-0.22,0.87,0.42,-5.1,21.0,-10.7,35.66,,,,,,,,,,
13.23.22.699,-99.9,25.0,0,,,101419.9,9.86,-0.45,0.64,0.39,-13.9,9.6,-0.1,35.38,,,,,,,,,,
13.23.22.707,-124.5,31.1,0,,,101419.9,9.86,-0.29,0.77,0.49,7.3,30.0,13.7,35.29,,,,,,,,,,
13.23.22.717,-103.2,25.8,0,,,101317.1,9.87,-0.11,0.6,0.48,-0.9,7.9,19.5,34.81,,,,,,,,,,
13.23.22.729,-127.1,31.8,0,,,101317.1,9.87,-0.33,0.63,0.58,-6.4,11.6,0.2,35.11,,,,,,,,,,
13.23.22.740,-134.3,33.6,0,,,101317.1,9.87,-0.37,0.55,0.63,-10.7,5.5,-2.6,34.74,,,,,,,,,,
13.23.22.750,-130.2,32.6,0,,,101317.1,9.87,-0.24,0.75,0.36,0.0,12.9,7.8,34.82,,,,,,,,,,
13.23.22.761,1.4,0.4,0,,,101317.1,9.87,-0.35,0.73,0.38,-12.6,6.0,1.8,35.53,,,,,,,,,,
13.23.22.771,32.9,8.2,0,,,101317.1,9.87,-0.27,0.71,0.37,20.2,3.1,-9.1,35.66,,,,,,,,,,
13.23.22.779,72.0,18.0,0,,,101317.1,9.87,-0.29,0.62,0.56,-0.0,-10.2,-3.8,35.09,,,,,,,,,,
13.23.22.788,99.7,24.9,0,,,101317.1,9.87,-0.19,0.56,0.39,-11.7,-12.4,-10.7,35.43,,,,,,,,,,
13.23.22.799,122.0,30.5,0,,,101317.1,9.87,-0.28,0.63,0.42,0.3,-0.2,4.2,35.44,,,,,,,,,,
13.23.22.808,153.6,38.4,0,,,101317.1,9.87,-0.32,0.75,0.38,-10.1,-0.4,-5.4,35.07,,,,,,,,,,
13.23.22.816,172.9,43.2,0,,,101317.1,9.87,-0.18,0.74,0.5,15.3,-17.1,-13.0,35.34,,,,,,,,,,
13.23.22.826,194.3,48.6,0,,,101317.1,9.87,-0.18,0.83,0.48,-0.4,-5.5,-0.7,35.48,,,,,,,,,,
13.23.22.837,206.1,51.5,0,,,101317.1,9.87,-0.23,0.59,0.48,-15.1,6.5,10.1,35.34,,,,,,,,,,
13.23.22.847,240.6,60.2,0,,,101317.1,9.87,-0.3,0.66,0.44,8.0,-4.8,-1.9,35.4,,,,,,,,,,
13.23.22.857,256.2,64.0,0,,,101317.1,9.87,-0.38,0.64,0.5,4.2,11.0,1.2,35.15,,,,,,,,,,
13.23.22.867,254.6,63.6,0,,,101317.1,9.87,-0.28,0.52,0.51,8.7,4.7,3.9,35.46,,,,,,,,,,
13.23.22.878,256.4,64.1,0,,,101317.1,9.87,-0.3,0.49,0.55,28.6,31.9,0.0,35.19,,,,,,,,,,
13.23.22.889,278.4,69.6,0,,,101317.1,9.87,-0.1,0.77,0.39,-15.1,11.2,-14.2,35.5,,,,,,,,,,
13.23.22.897,283.9,71.0,0,,,101317.1,9.87,-0.22,0.63,0.45,-3.1,-10.7,2.5,35.24,,,,,,,,,,
13.23.22.906,305.7,76.4,0,,,101317.1,9.87,-0.23,0.73,0.34,6.5,17.6,-6.2,35.31,,,,,,,,,,
13.23.22.916,318.2,79.6,0,,,101317.1,9.87,-0.2,0.71,0.46,13.8,7.4,11.2,35.34,,,,,,,,,,
13.23.22.926,313.6,78.4,0,,,101317.1,9.87,-0.29,0.71,0.47,-2.4,7.0,-7.7,35.54,,,,,,,,,,
13.23.22.935,311.1,77.8,0,,,101317.1,9.87,-0.25,0.71,0.39,-18.4,13.8,-6.1,34.88,,,,,,,,,,
13.23.22.945,342.1,85.5,0,,,101317.1,9.87,-0.27,0.59,0.37,4.9,5.0,-3.2,35.12,,,,,,,,,,
13.23.22.955,329.2,82.3,0,,,101317.1,9.87,-0.25,0.69,0.45,3.5,-1.5,-10.0,35.56,,,,,,,,,,
13.23.22.964,268.3,67.1,0,,,101317.1,9.87,-0.22,0.66,0.44,5.3,9.1,-8.5,34.83,,,,,,,,,,
13.23.22.974,254.2,63.6,0,,,101317.1,9.87,-0.39,0.74,0.55,-5.0,4.6,-1.4,35.04,,,,,,,,,,
13.23.22.984,274.8,68.7,0,,,101317.1,9.87,-0.25,0.69,0.34,-14.1,-0.1,-11.0,35.17,,,,,,,,,,
13.23.22.994,269.1,67.3,1,7.0,61.1,101317.1,9.87,-0.21,0.72,0.35,24.4,6.8,-1.4,35.14,,,,,,,,,,
13.23.23.003,243.0,60.8,0,,,101317.1,9.87,-0.33,0.55,0.42,14.2,19.1,-10.6,35.29,,,,,,,,,,
13.23.23.013,213.1,53.3,0,,,101317.1,9.87,-0.37,0.48,0.46,6.0,-1.0,-4.4,35.0,,,,,,,,,,
13.23.23.025,190.1,47.5,0,,,101317.1,9.87,-0.22,0.7,0.43,-7.8,3.9,0.3,35.44,,,,,,,,,,
13.23.23.034,177.3,44.3,0,,,101317.1,9.87,-0.33,0.67,0.32,-1.6,4.2,21.2,35.01,,,,,,,,,,
13.23.23.043,130.9,32.7,0,,,101317.1,9.87,-0.19,0.79,0.27,8.2,4.2,-6.8,35.17,,,,,,,,,,
13.23.23.052,133.5,33.4,0,,,101317.1,9.87,-0.29,0.69,0.47,3.1,-1.3,-11.2,35.93,,,,,,,,,,
13.23.23.062,97.4,24.4,0,,,101317.1,9.87,-0.41,0.67,0.59,16.5,14.3,-1.8,35.1,,,,,,,,,,
13.23.23.071,69.5,17.4,0,,,101317.1,9.87,-0.25,0.62,0.35,10.5,-2.3,2.8,35.28,,,,,,,,,,
13.23.23.081,43.7,10.9,0,,,101317.1,9.87,-0.21,0.77,0.42,-14.3,20.9,-8.9,35.34,,,,,,,,,,
13.23.23.091,7.8,2.0,0,,,101317.1,9.87,-0.33,0.61,0.48,13.7,11.7,-12.8,35.34,,,,,,,,,,
13.23.23.101,9.6,2.4,0,,,101317.1,9.87,-0.25,0.57,0.57,-9.0,10.8,-14.5,35.08,,,,,,,,,,
13.23.23.111,12.4,3.1,0,,,101317.1,9.87,-0.18,0.79,0.45,-0.5,-3.7,-12.7,35.1,,,,,,,,,,
13.23.23.121,20.4,5.1,0,,,101317.1,9.87,-0.21,0.52,0.56,9.1,18.0,-11.8,35.04,,,,,,,,,,
13.23.23.129,35.2,8.8,0,,,101317.1,9.87,-0.29,0.64,0.38,8.5,-3.4,-7.2,34.94,,,,,,,,,,
13.23.23.135,41.3,10.3,0,,,101317.1,9.87,-0.17,0.64,0.44,7.4,2.9,12.1,35.08,,,,,,,,,,
13.23.23.146,40.1,10.0,0,,,101317.1,9.87,-0.37,0.54,0.44,-4.6,9.2,17.7,35.31,,,,,,,,,,
13.23.23.156,47.4,11.8,0,,,101317.1,9.87,-0.35,0.65,0.41,15.4,2.2,-2.3,35.29,,,,,,,,,,
13.23.23.167,43.5,10.9,0,,,101317.1,9.87,-0.28,0.71,0.4,14.4,13.6,-1.0,35.14,,,,,,,,,,
13.23.23.177,64.0,16.0,0,,,101419.9,9.86,-0.3,0.57,0.53,14.7,22.5,8.2,35.45,,,,,,,,,,
13.23.23.186,56.0,14.0,0,,,101419.9,9.86,-0.23,0.68,0.49,-7.3,-2.8,-6.0,35.19,,,,,,,,,,
13.23.23.195,50.5,12.6,0,,,101419.9,9.86,-0.35,0.63,0.36,5.6,3.7,-20.3,35.06,,,,,,,,,,
13.23.23.204,60.8,15.2,0,,,101419.9,9.86,-0.15,0.63,0.65,-24.9,8.1,12.6,34.98,,,,,,,,,,
13.23.23.213,62.7,15.7,0,,,101419.9,9.86,-0.19,0.64,0.38,-12.1,14.0,-4.7,35.45,,,,,,,,,,
13.23.23.222,50.9,12.7,0,,,101419.9,9.86,-0.32,0.63,0.38,2.6,-0.2,6.4,35.5,,,,,,,,,,
13.23.23.231,54.6,13.6,0,,,101419.9,9.86,-0.27,0.64,0.51,-1.9,6.6,10.0,35.1,,,,,,,,,,
13.23.23.241,53.1,13.3,0,,,101419.9,9.86,-0.23,0.64,0.45,18.5,4.4,1.6,34.63,,,,,,,,,,
13.23.23.254,32.2,8.0,0,,,101419.9,9.86,-0.22,0.47,0.49,-1.1,24.8,0.2,35.29,,,,,,,,,,
13.23.23.262,18.3,4.6,0,,,101419.9,9.86,-0.29,0.66,0.4,10.7,-6.8,-0.1,35.28,,,,,,,,,,
13.23.23.271,15.0,3.8,0,,,101419.9,9.86,-0.23,0.55,0.42,2.8,12.2,1.1,35.17,,,,,,,,,,
13.23.23.280,4.5,1.1,0,,,101419.9,9.86,-0.14,0.59,0.24,6.7,4.6,3.5,35.57,,,,,,,,,,
13.23.23.288,-5.0,1.2,0,,,101419.9,9.86,-0.26,0.53,0.58,2.9,18.8,9.6,35.22,,,,,,,,,,
13.23.23.299,-7.0,1.8,0,,,101419.9,9.86,-0.2,0.6,0.45,-12.3,20.4,15.9,35.11,,,,,,,,,,
13.23.23.309,0.6,0.2,0,,,101419.9,9.86,-0.19,0.7,0.54,18.6,6.6,-10.1,35.11,,,,,,,,,,
13.23.23.319,-7.0,1.8,0,,,101419.9,9.86,-0.3,0.49,0.43,-2.4,-8.1,-13.4,34.92,,,,,,,,,,
13.23.23.328,-2.1,0.5,0,,,101419.9,9.86,-0.21,0.66,0.48,12.4,11.8,-20.9,35.26,,,,,,,,,,
13.23.23.336,-11.6,2.9,0,,,101419.9,9.86,-0.38,0.63,0.31,-12.1,28.3,-7.8,35.53,,,,,,,,,,
13.23.23.346,-14.3,3.6,0,,,101419.9,9.86,-0.23,0.68,0.49,7.3,5.9,6.6,35.01,,,,,,,,,,
13.23.23.356,-17.1,4.3,0,,,101419.9,9.86,-0.34,0.82,0.32,6.2,18.2,-3.0,35.15,,,,,,,,,,
13.23.23.366,-24.2,6.0,0,,,101419.9,9.86,-0.39,0.53,0.3,-22.1,6.5,-7.0,35.13,,,,,,,,,,
13.23.23.376,-24.4,6.1,0,,,101419.9,9.86,-0.22,0.58,0.47,19.0,0.1,4.5,35.3,,,,,,,,,,
13.23.23.384,-35.4,8.8,0,,,101419.9,9.86,-0.28,0.83,0.48,16.5,-8.9,-7.6,35.43,,,,,,,,,,
13.23.23.395,-43.3,10.8,0,,,101419.9,9.86,-0.37,0.79,0.45,-13.8,4.8,4.2,35.36,,,,,,,,,,
13.23.23.405,-35.9,9.0,0,,,101419.9,9.86,-0.4,0.66,0.5,12.6,15.5,-2.2,35.51,,,,,,,,,,
13.23.23.415,-45.1,11.3,0,,,101419.9,9.86,-0.24,0.53,0.44,5.6,-3.2,-10.3,35.28,,,,,,,,,,
13.23.23.426,-34.7,8.7,0,,,101419.9,9.86,-0.23,0.57,0.47,9.7,4.1,-0.5,35.09,,,,,,,,,,
13.23.23.435,-46.0,11.5,0,,,101419.9,9.86,-0.2,0.93,0.44,9.2,4.0,-3.1,35.27,,,,,,,,,,
13.23.23.444,-44.7,11.2,0,,,101419.9,9.86,-0.25,0.7,0.38,14.2,1.3,2.4,34.8,,,,,,,,,,
13.23.23.453,-44.7,11.2,0,,,101419.9,9.86,-0.12,0.71,0.46,-11.7,11.4,8.0,35.59,,,,,,,,,,
13.23.23.462,-55.2,13.8,0,,,101419.9,9.86,-0.38,0.69,0.25,3.5,5.7,7.6,35.26,,,,,,,,,,
13.23.23.472,-45.6,11.4,0,,,101419.9,9.86,-0.32,0.78,0.37,21.2,23.6,15.9,35.13,,,,,,,,,,
13.23.23.480,-81.6,20.4,0,,,101419.9,9.86,-0.24,0.61,0.32,14.0,3.5,-8.5,35.38,,,,,,,,,,
13.23.23.492,-72.2,18.0,0,,,101419.9,9.86,-0.09,0.7,0.55,18.4,14.3,0.8,35.07,,,,,,,,,,
13.23.23.502,-73.9,18.5,0,,,101419.9,9.86,-0.06,0.5,0.45,19.4,-2.1,-1.7,34.7,,,,,,,,,,
13.23.23.513,-77.7,19.4,0,,,101419.9,9.86,-0.3,0.52,0.53,-8.8,-5.6,1.8,34.99,,,,,,,,,,
13.23.23.522,-74.4,18.6,0,,,101419.9,9.86,-0.25,0.71,0.37,-3.2,41.2,-7.2,35.19,,,,,,,,,,
13.23.23.532,-63.1,15.8,0,,,101419.9,9.86,-0.32,0.61,0.55,-24.7,32.8,-18.4,34.83,,,,,,,,,,
13.23.23.541,-76.9,19.2,0,,,101419.9,9.86,-0.21,0.61,0.32,-10.5,-7.8,-14.2,35.22,,,,,,,,,,
13.23.23.549,-72.9,18.2,0,,,101419.9,9.86,-0.08,0.65,0.4,24.1,3.8,-5.8,35.46,,,,,,,,,,
13.23.23.557,-82.0,20.5,0,,,101419.9,9.86,-0.1,0.67,0.44,-2.7,7.9,-1.3,35.18,,,,,,,,,,
13.23.23.565,-83.7,20.9,0,,,101419.9,9.86,-0.38,0.75,0.52,27.6,11.1,-6.5,35.29,,,,,,,,,,
13.23.23.575,-78.1,19.5,0,,,101419.9,9.86,-0.19,0.64,0.33,2.1,-2.9,-10.3,35.46,,,,,,,,,,
13.23.23.584,-91.6,22.9,0,,,101419.9,9.86,-0.21,0.74,0.5,6.0,3.8,-11.5,35.11,,,,,,,,,,
13.23.23.596,-98.0,24.5,0,,,101419.9,9.86,-0.15,0.69,0.46,-11.1,2.4,4.7,34.95,,,,,,,,,,
13.23.23.606,-87.2,21.8,0,,,101419.9,9.86,-0.3,0.58,0.48,-27.7,6.8,0.4,35.12,,,,,,,,,,
13.23.23.615,-91.5,22.9,0,,,101419.9,9.86,-0.24,0.64,0.46,-15.8,12.4,-12.9,35.34,,,,,,,,,,
13.23.23.623,-106.0,26.5,0,,,101419.9,9.86,-0.18,0.69,0.45,3.9,11.0,11.8,35.51,,,,,,,,,,
13.23.23.633,-108.9,27.2,0,,,101419.9,9.86,-0.36,0.67,0.53,-2.4,13.7,1.8,35.14,,,,,,,,,,
13.23.23.642,-100.8,25.2,0,,,101419.9,9.86,-0.28,0.54,0.38,8.4,22.9,-7.8,35.22,,,,,,,,,,
13.23.23.652,-109.2,27.3,0,,,101419.9,9.86,-0.38,0.72,0.48,-12.2,1.0,-8.5,35.47,,,,,,,,,,
13.23.23.663,-101.2,25.3,0,,,101419.9,9.86,-0.24,0.59,0.36,16.6,18.8,4.6,35.52,,,,,,,,,,
13.23.23.672,-104.4,26.1,0,,,101419.9,9.86,-0.28,0.69,0.45,-3.3,16.5,0.9,34.93,,,,,,,,,,
13.23.23.680,-116.0,29.0,0,,,101419.9,9.86,-0.1,0.7,0.44,4.8,15.2,-10.5,35.32,,,,,,,,,,
13.23.23.687,-110.5,27.6,0,,,101419.9,9.86,-0.16,0.67,0.35,17.5,7.3,1.6,35.24,,,,,,,,,,
13.23.23.695,-129.9,32.5,0,,,101419.9,9.86,-0.31,0.62,0.56,2.8,-2.9,10.4,35.3,,,,,,,,,,
13.23.23.705,-128.0,32.0,0,,,101419.9,9.86,-0.23,0.44,0.3,-14.1,-7.3,-4.3,35.36,,,,,,,,,,
13.23.23.715,-130.9,32.7,0,,,101419.9,9.86,-0.25,0.66,0.44,-21.6,9.4,0.9,35.09,,,,,,,,,,
13.23.23.725,14.0,3.5,0,,,101419.9,9.86,-0.21,0.6,0.53,9.1,12.2,7.4,35.12,,,,,,,,,,
13.23.23.733,31.7,7.9,0,,,101419.9,9.86,-0.24,0.64,0.54,-8.7,5.1,-7.0,35.24,,,,,,,,,,
13.23.23.743,68.2,17.0,0,,,101419.9,9.86,-0.29,0.65,0.55,-1.2,11.7,-1.9,34.98,,,,,,,,,,
13.23.23.753,75.8,19.0,0,,,101419.9,9.86,-0.19,0.65,0.31,9.4,0.9,-4.1,35.97,,,,,,,,,,
13.23.23.763,126.0,31.5,0,,,101419.9,9.86,-0.39,0.63,0.51,-1.7,6.6,16.2,35.37,,,,,,,,,,
13.23.23.774,154.0,38.5,0,,,101419.9,9.86,-0.23,0.77,0.46,-13.5,11.2,-9.3,35.44,,,,,,,,,,
13.23.23.784,173.8,43.4,0,,,101419.9,9.86,-0.34,0.49,0.45,3.0,19.9,6.2,35.02,,,,,,,,,,
13.23.23.793,190.0,47.5,0,,,101419.9,9.86,-0.27,0.67,0.41,-15.4,-1.6,3.9,35.36,,,,,,,,,,
13.23.23.802,217.7,54.4,0,,,101419.9,9.86,-0.22,0.47,0.38,7.8,18.1,-7.3,35.14,,,,,,,,,,
13.23.23.811,239.6,59.9,0,,,101419.9,9.86,-0.25,0.56,0.53,17.3,23.8,-0.5,35.17,,,,,,,,,,
13.23.23.823,270.3,67.6,0,,,101419.9,9.86,-0.17,0.61,0.52,-7.3,1.7,-1.5,34.97,,,,,,,,,,
13.23.23.830,286.3,71.6,0,,,101419.9,9.86,-0.27,0.61,0.41,-9.5,0.1,-10.4,35.06,,,,,,,,,,
13.23.23.840,300.5,75.1,0,,,101419.9,9.86,-0.33,0.74,0.63,-51.2,16.3,1.0,35.57,,,,,,,,,,
13.23.23.852,306.0,76.5,0,,,101419.9,9.86,-0.16,0.65,0.51,-2.7,10.6,-8.9,34.78,,,,,,,,,,
13.23.23.860,313.2,78.3,0,,,101419.9,9.86,-0.23,0.7,0.45,5.2,0.9,7.8,35.38,,,,,,,,,,
13.23.23.872,325.3,81.3,0,,,101419.9,9.86,-0.19,0.43,0.41,-1.4,18.0,-8.8,34.92,,,,,,,,,,
13.23.23.882,300.7,75.2,0,,,101419.9,9.86,-0.19,0.67,0.21,-11.6,1.7,-3.3,34.95,,,,,,,,,,
13.23.23.890,298.3,74.6,0,,,101419.9,9.86,-0.13,0.65,0.55,-4.0,-4.3,-8.7,35.2,,,,,,,,,,
13.23.23.898,313.5,78.4,0,,,101419.9,9.86,-0.22,0.7,0.46,-21.5,4.3,7.6,35.25,,,,,,,,,,
13.23.23.905,345.0,86.2,0,,,101419.9,9.86,-0.32,0.59,0.46,-4.4,14.0,-5.1,35.16,,,,,,,,,,
13.23.23.914,305.8,76.4,0,,,101419.9,9.86,-0.2,0.78,0.46,16.6,13.4,5.2,35.48,,,,,,,,,,
13.23.23.927,308.7,77.2,0,,,101419.9,9.86,-0.28,0.73,0.46,26.1,4.9,-6.4,35.61,,,,,,,,,,
13.23.23.935,291.3,72.8,0,,,101419.9,9.86,-0.26,0.57,0.41,-5.2,-5.4,1.6,34.79,,,,,,,,,,
13.23.23.945,273.2,68.3,0,,,101419.9,9.86,-0.34,0.62,0.31,11.5,11.8,-6.4,34.89,,,,,,,,,,
13.23.23.956,232.6,58.2,0,,,101419.9,9.86,-0.18,0.7,0.4,16.1,-2.7,-0.1,34.86,,,,,,,,,,
13.23.23.964,255.8,64.0,0,,,101419.9,9.86,-0.23,0.78,0.46,5.5,12.3,1.6,35.28,,,,,,,,,,
13.23.23.975,237.2,59.3,1,8.0,61.2,101419.9,9.86,-0.24,0.72,0.49,0.8,17.2,8.0,35.76,,,,,,,,,,
13.23.23.984,206.5,51.6,0,,,101419.9,9.86,-0.39,0.76,0.49,0.1,0.6,-10.1,35.13,,,,,,,,,,
13.23.23.994,195.2,48.8,0,,,101419.9,9.86,-0.29,0.58,0.37,24.6,6.0,-0.3,35.15,,,,,,,,,,
13.23.24.004,148.7,37.2,0,,,101419.9,9.86,-0.14,0.53,0.52,-6.8,4.8,2.0,34.89,,,,,,,,,,
13.23.24.014,125.1,31.3,0,,,101419.9,9.86,-0.26,0.76,0.5,-8.8,17.8,-0.9,34.88,,,,,,,,,,
13.23.24.021,119.3,29.8,0,,,101419.9,9.86,-0.26,0.44,0.42,1.4,5.8,-6.9,35.56,,,,,,,,,,
13.23.24.030,87.0,21.8,0,,,101419.9,9.86,-0.29,0.71,0.44,24.7,-0.1,5.1,35.03,,,,,,,,,,
13.23.24.039,65.7,16.4,0,,,101419.9,9.86,-0.18,0.69,0.43,14.4,11.7,-1.6,34.95,,,,,,,,,,
13.23.24.049,32.4,8.1,0,,,101419.9,9.86,-0.24,0.44,0.39,28.0,14.1,-3.2,34.85,,,,,,,,,,
13.23.24.059,0.6,0.2,0,,,101419.9,9.86,-0.22,0.66,0.41,16.7,13.8,11.4,35.04,,,,,,,,,,
13.23.24.069,13.1,3.3,0,,,101419.9,9.86,-0.34,0.5,0.37,-14.1,24.3,18.4,35.46,,,,,,,,,,
13.23.24.079,18.2,4.6,0,,,101419.9,9.86,-0.22,0.69,0.37,-10.5,-7.1,-7.0,35.42,,,,,,,,,,
13.23.24.089,27.5,6.9,0,,,101419.9,9.86,-0.38,0.57,0.26,-13.1,21.8,-4.4,35.09,,,,,,,,,,
13.23.24.098,28.9,7.2,0,,,101419.9,9.86,-0.16,0.71,0.55,10.4,3.3,-2.3,35.19,,,,,,,,,,
13.23.24.107,46.2,11.6,0,,,101419.9,9.86,-0.23,0.82,0.47,-16.4,19.5,-5.7,35.07,,,,,,,,,,
13.23.24.117,48.0,12.0,0,,,101419.9,9.86,-0.25,0.59,0.44,2.2,26.9,9.2,35.48,,,,,,,,,,
13.23.24.130,49.4,12.4,0,,,101419.9,9.86,-0.28,0.64,0.48,-6.0,1.1,-2.5,35.23,,,,,,,,,,
13.23.24.140,55.8,14.0,0,,,101419.9,9.86,-0.41,0.72,0.53,9.7,19.8,-4.1,34.91,,,,,,,,,,
13.23.24.150,46.9,11.7,0,,,101419.9,9.86,-0.17,0.56,0.38,11.9,25.3,-3.6,34.98,,,,,,,,,,
13.23.24.160,64.2,16.0,0,,,101419.9,9.86,-0.2,0.67,0.51,-16.9,-8.2,12.9,35.23,,,,,,,,,,
13.23.24.170,59.4,14.8,0,,,101419.9,9.86,-0.14,0.73,0.45,11.9,-2.1,-21.0,35.42,,,,,,,,,,
13.23.24.181,43.2,10.8,0,,,101419.9,9.86,-0.35,0.49,0.44,7.8,19.0,-3.5,35.13,,,,,,,,,,
13.23.24.191,52.2,13.0,0,,,101419.9,9.86,-0.25,0.67,0.5,-4.0,21.8,-9.7,35.67,,,,,,,,,,
13.23.24.199,48.4,12.1,0,,,101419.9,9.86,-0.01,0.67,0.41,-17.0,26.1,4.5,34.97,,,,,,,,,,
13.23.24.207,39.1,9.8,0,,,101419.9,9.86,-0.16,0.6,0.46,16.7,19.5,6.0,35.37,,,,,,,,,,
13.23.24.214,34.0,8.5,0,,,101419.9,9.86,-0.4,0.67,0.41,-9.4,-0.9,2.0,35.25,,,,,,,,,,
13.23.24.225,33.6,8.4,0,,,101419.9,9.86,-0.29,0.78,0.51,19.9,13.5,-10.5,34.82,,,,,,,,,,
13.23.24.236,17.6,4.4,0,,,101419.9,9.86,-0.28,0.61,0.35,18.4,3.1,6.2,35.19,,,,,,,,,,
13.23.24.247,4.1,1.0,0,,,101419.9,9.86,-0.18,0.65,0.41,-0.7,16.5,-7.8,35.17,,,,,,,,,,
13.23.24.255,-1.0,0.2,0,,,101419.9,9.86,-0.16,0.67,0.43,12.6,2.0,-2.4,35.35,,,,,,,,,,
13.23.24.266,-7.9,2.0,0,,,101522.8,9.85,-0.26,0.65,0.62,12.5,-7.7,6.8,35.57,,,,,,,,,,
13.23.24.277,-14.2,3.6,0,,,101522.8,9.85,-0.29,0.61,0.4,4.2,10.8,-16.4,34.95,,,,,,,,,,
13.23.24.287,-15.6,3.9,0,,,101522.8,9.85,-0.18,0.61,0.41,7.4,17.8,-12.7,35.3,,,,,,,,,,
13.23.24.298,-16.5,4.1,0,,,101522.8,9.85,-0.4,0.65,0.58,-18.1,4.9,-13.6,35.38,,,,,,,,,,
13.23.24.307,-16.9,4.2,0,,,101522.8,9.85,-0.3,0.59,0.38,10.8,-10.1,-12.0,35.64,,,,,,,,,,
13.23.24.319,-16.0,4.0,0,,,101522.8,9.85,-0.37,0.61,0.39,-15.0,17.3,-3.9,34.99,,,,,,,,,,
13.23.24.328,-22.7,5.7,0,,,101522.8,9.85,-0.19,0.53,0.47,-0.4,24.5,-14.4,34.94,,,,,,,,,,
13.23.24.336,-25.4,6.4,0,,,101522.8,9.85,-0.33,0.49,0.37,10.5,11.5,-2.0,35.44,,,,,,,,,,
13.23.24.347,-24.3,6.1,0,,,101522.8,9.85,-0.28,0.57,0.41,-5.2,16.3,-0.8,35.16,,,,,,,,,,
13.23.24.358,-37.1,9.3,0,,,101522.8,9.85,-0.28,0.56,0.46,5.4,-1.6,-8.6,35.59,,,,,,,,,,
13.23.24.366,-28.0,7.0,0,,,101522.8,9.85,-0.26,0.63,0.46,8.5,-0.6,6.4,34.9,,,,,,,,,,
13.23.24.375,-36.6,9.2,0,,,101522.8,9.85,-0.31,0.62,0.52,-6.9,18.6,-24.0,34.9,,,,,,,,,,
13.23.24.385,-40.7,10.2,0,,,101522.8,9.85,-0.23,0.62,0.48,1.2,5.2,-24.9,35.34,,,,,,,,,,
13.23.24.396,-49.3,12.3,0,,,101522.8,9.85,-0.18,0.52,0.48,-6.9,10.0,6.4,35.02,,,,,,,,,,
13.23.24.406,-48.2,12.0,0,,,101522.8,9.85,-0.15,0.61,0.48,-9.3,13.1,-2.8,35.34,,,,,,,,,,
13.23.24.413,-56.1,14.0,0,,,101522.8,9.85,-0.24,0.54,0.24,-11.6,1.6,-4.9,35.2,,,,,,,,,,
13.23.24.423,-49.7,12.4,0,,,101522.8,9.85,-0.31,0.71,0.47,-17.2,2.3,-11.3,35.32,,,,,,,,,,
13.23.24.431,-58.9,14.7,0,,,101522.8,9.85,-0.23,0.6,0.45,3.4,8.6,2.8,34.96,,,,,,,,,,
13.23.24.439,-55.3,13.8,0,,,101522.8,9.85,-0.27,0.65,0.44,32.6,3.6,10.2,34.88,,,,,,,,,,
13.23.24.451,-73.0,18.2,0,,,101522.8,9.85,-0.34,0.4,0.43,43.8,16.8,6.1,35.49,,,,,,,,,,
13.23.24.460,-67.3,16.8,0,,,101522.8,9.85,-0.31,0.7,0.43,-1.1,9.4,8.7,34.75,,,,,,,,,,
13.23.24.469,-69.3,17.3,0,,,101522.8,9.85,-0.32,0.68,0.51,-13.6,-22.1,-4.7,35.45,,,,,,,,,,
13.23.24.477,-68.4,17.1,0,,,101522.8,9.85,-0.22,0.75,0.37,7.9,-11.3,8.6,35.8,,,,,,,,,,
13.23.24.489,-77.5,19.4,0,,,101522.8,9.85,-0.23,0.62,0.48,8.0,2.1,-5.3,35.37,,,,,,,,,,
13.23.24.499,-75.5,18.9,0,,,101522.8,9.85,-0.25,0.68,0.39,-7.4,-11.1,-5.2,35.53,,,,,,,,,,
13.23.24.510,-73.8,18.4,0,,,101522.8,9.85,-0.31,0.74,0.29,15.6,17.2,-7.8,35.26,,,,,,,,,,
13.23.24.519,-75.8,19.0,0,,,101522.8,9.85,-0.22,0.55,0.51,2.3,9.4,-16.4,35.61,,,,,,,,,,
13.23.24.528,-75.0,18.8,0,,,101522.8,9.85,-0.34,0.8,0.43,-9.3,9.7,-13.9,35.23,,,,,,,,,,
13.23.24.538,-80.9,20.2,0,,,101522.8,9.85,-0.11,0.6,0.36,-15.0,17.9,11.7,35.09,,,,,,,,,,
13.23.24.547,-101.4,25.4,0,,,101522.8,9.85,-0.38,0.67,0.43,-9.4,15.0,-9.2,35.18,,,,,,,,,,
13.23.24.555,-82.5,20.6,0,,,101522.8,9.85,-0.34,0.7,0.53,12.5,-22.4,-5.7,35.12,,,,,,,,,,
13.23.24.564,-99.9,25.0,0,,,101522.8,9.85,-0.14,0.71,0.55,25.5,0.1,8.2,34.87,,,,,,,,,,
13.23.24.575,-96.6,24.2,0,,,101522.8,9.85,-0.38,0.54,0.41,8.1,-2.0,5.5,34.87,,,,,,,,,,
13.23.24.585,-95.9,24.0,0,,,101522.8,9.85,-0.14,0.71,0.36,8.3,21.5,-0.2,35.42,,,,,,,,,,
13.23.24.597,-102.3,25.6,0,,,101522.8,9.85,-0.27,0.6,0.48,10.5,-10.0,3.9,35.16,,,,,,,,,,
13.23.24.605,-115.8,29.0,0,,,101522.8,9.85,-0.24,0.62,0.39,-6.8,-2.2,-6.6,35.12,,,,,,,,,,
13.23.24.614,-90.0,22.5,0,,,101522.8,9.85,-0.14,0.8,0.37,4.7,23.6,-2.9,35.31,,,,,,,,,,
13.23.24.623,-106.6,26.6,0,,,101522.8,9.85,-0.22,0.42,0.47,-25.3,6.5,9.1,35.3,,,,,,,,,,
13.23.24.635,-112.6,28.2,0,,,101522.8,9.85,-0.31,0.4,0.29,5.5,-4.2,-8.6,35.28,,,,,,,,,,
13.23.24.643,-115.0,28.8,0,,,101522.8,9.85,-0.27,0.46,0.6,10.3,-2.6,4.2,35.28,,,,,,,,,,
13.23.24.653,-117.0,29.2,0,,,101522.8,9.85,-0.21,0.63,0.49,-0.9,-1.0,0.5,35.42,,,,,,,,,,
13.23.24.663,-119.1,29.8,0,,,101522.8,9.85,-0.18,0.67,0.46,4.9,-9.1,-0.2,35.12,,,,,,,,,,
13.23.24.672,-115.9,29.0,0,,,101522.8,9.85,-0.4,0.79,0.42,-0.3,7.3,-1.4,35.02,,,,,,,,,,
13.23.24.684,-117.2,29.3,0,,,101522.8,9.85,-0.16,0.79,0.49,9.9,12.8,-9.8,35.13,,,,,,,,,,
13.23.24.694,15.9,4.0,0,,,101522.8,9.85,-0.18,0.55,0.56,1.9,-11.3,-10.6,35.53,,,,,,,,,,
13.23.24.705,56.9,14.2,0,,,101522.8,9.85,-0.32,0.58,0.59,18.0,17.9,0.7,35.29,,,,,,,,,,
13.23.24.716,87.9,22.0,0,,,101522.8,9.85,-0.48,0.47,0.36,-15.7,1.8,0.9,35.16,,,,,,,,,,
13.23.24.724,98.3,24.6,0,,,101522.8,9.85,-0.25,0.83,0.53,9.9,7.7,-8.5,35.49,,,,,,,,,,
13.23.24.736,149.7,37.4,0,,,101522.8,9.85,-0.3,0.65,0.37,-3.1,13.3,-12.4,35.33,,,,,,,,,,
13.23.24.745,173.7,43.4,0,,,101522.8,9.85,-0.25,0.56,0.38,-20.7,18.5,5.6,35.36,,,,,,,,,,
13.23.24.757,203.7,50.9,0,,,101522.8,9.85,-0.35,0.76,0.35,-0.1,11.0,18.3,35.58,,,,,,,,,,
13.23.24.766,221.9,55.5,0,,,101522.8,9.85,-0.35,0.7,0.43,-20.1,-13.3,2.3,35.41,,,,,,,,,,
13.23.24.776,256.0,64.0,0,,,101522.8,9.85,-0.21,0.6,0.43,17.6,-11.2,6.7,35.03,,,,,,,,,,
13.23.24.787,237.7,59.4,0,,,101522.8,9.85,-0.17,0.53,0.49,-8.2,12.1,7.6,35.58,,,,,,,,,,
13.23.24.796,252.4,63.1,0,,,101522.8,9.85,-0.41,0.63,0.39,13.1,8.1,-6.1,35.48,,,,,,,,,,
13.23.24.805,285.2,71.3,0,,,101522.8,9.85,-0.31,0.59,0.33,1.3,11.9,-8.9,35.05,,,,,,,,,,
13.23.24.816,329.0,82.2,0,,,101522.8,9.85,-0.34,0.69,0.45,17.2,2.7,-9.2,35.08,,,,,,,,,,
13.23.24.826,310.1,77.5,0,,,101522.8,9.85,-0.2,0.81,0.46,-7.4,-3.0,4.6,35.04,,,,,,,,,,
13.23.24.833,348.7,87.2,0,,,101522.8,9.85,-0.27,0.75,0.38,5.0,-0.9,3.6,35.05,,,,,,,,,,
13.23.24.842,315.0,78.8,0,,,101522.8,9.85,-0.17,0.72,0.42,-1.2,11.7,0.3,35.37,,,,,,,,,,
13.23.24.851,338.8,84.7,0,,,101522.8,9.85,-0.29,0.64,0.49,-6.4,-3.3,-19.5,35.52,,,,,,,,,,
13.23.24.860,326.2,81.6,0,,,101522.8,9.85,-0.19,0.64,0.45,-14.0,4.2,-8.9,34.97,,,,,,,,,,
13.23.24.870,328.9,82.2,0,,,101522.8,9.85,-0.16,0.51,0.41,0.3,-12.4,-6.9,35.13,,,,,,,,,,
13.23.24.878,306.2,76.6,0,,,101522.8,9.85,-0.25,0.7,0.44,-9.3,3.2,5.5,35.95,,,,,,,,,,
13.23.24.887,309.7,77.4,0,,,101522.8,9.85,-0.18,0.63,0.52,-9.9,2.3,-12.8,35.33,,,,,,,,,,
13.23.24.897,277.3,69.3,0,,,101522.8,9.85,-0.23,0.54,0.5,-3.5,0.8,0.2,35.19,,,,,,,,,,
13.23.24.906,282.1,70.5,0,,,101522.8,9.85,-0.37,0.61,0.36,6.0,14.9,-6.1,35.36,,35.21,,,,,,,,
13.23.24.914,272.6,68.2,0,,,101522.8,9.85,-0.17,0.74,0.38,13.5,8.6,-1.4,35.08,,,,,,,,,,
13.23.24.925,228.2,57.0,0,,,101522.8,9.85,-0.32,0.72,0.55,1.6,4.1,15.3,35.18,,,,,,,,,,
13.23.24.936,215.9,54.0,1,9.0,62.4,101522.8,9.85,-0.29,0.73,0.51,-3.4,10.9,2.0,35.14,,,,,,,,,,
13.23.24.947,216.7,54.2,0,,,101522.8,9.85,-0.32,0.59,0.48,8.6,3.1,-4.1,35.12,,,,,,,,,,
13.23.24.957,191.9,48.0,0,,,101522.8,9.85,-0.29,0.69,0.39,-7.9,3.5,-0.7,34.95,,,,,,,,,,
13.23.24.966,173.5,43.4,0,,,101522.8,9.85,-0.18,0.7,0.44,3.0,-2.3,-0.5,35.53,,,,,,,,,,
13.23.24.974,134.6,33.6,0,,,101522.8,9.85,-0.29,0.7,0.52,-23.6,26.5,5.7,35.0,,,,,,,,,,
13.23.24.983,123.5,30.9,0,,,101522.8,9.85,-0.46,0.59,0.49,-8.9,10.0,4.8,35.1,,,,,,,,,,
13.23.24.994,82.2,20.6,0,,,101522.8,9.85,-0.13,0.58,0.45,-20.0,22.2,-4.8,35.11,,,,,,,,,,
13.23.25.003,58.7,14.7,0,,,101522.8,9.85,-0.27,0.75,0.44,5.9,2.7,9.1,35.26,,,,,,,,,,
13.23.25.012,29.0,7.2,0,,,101522.8,9.85,-0.24,0.58,0.5,13.5,14.4,-4.2,34.7,,,,,,,,,,
13.23.25.022,5.1,1.3,0,,,101522.8,9.85,-0.22,0.51,0.41,-11.7,7.4,1.6,35.12,,,,,,,,,,
13.23.25.031,16.2,4.0,0,,,101522.8,9.85,-0.38,0.76,0.48,3.8,11.8,-15.5,35.23,,,,,,,,,,
13.23.25.041,7.3,1.8,0,,,101522.8,9.85,-0.27,0.61,0.52,2.2,14.4,16.7,35.05,,,,,,,,,,
13.23.25.051,22.4,5.6,0,,,101522.8,9.85,-0.26,0.6,0.42,11.1,-6.5,6.4,35.23,,,,,,,,,,
13.23.25.061,40.5,10.1,0,,,101522.8,9.85,-0.21,0.61,0.4,-27.2,-20.7,-4.6,35.0,,,,,,,,,,
13.23.25.071,36.4,9.1,0,,,101522.8,9.85,-0.32,0.76,0.48,-19.7,-1.8,-7.2,35.26,,,,,,,,,,
13.23.25.079,45.4,11.4,0,,,101522.8,9.85,-0.11,0.72,0.53,7.6,1.6,19.4,35.41,,,,,,,,,,
13.23.25.088,43.3,10.8,0,,,101522.8,9.85,-0.22,0.85,0.53,11.4,5.8,-16.9,35.19,,,,,,,,,,
13.23.25.097,48.4,12.1,0,,,101522.8,9.85,-0.15,0.79,0.36,15.8,19.3,-6.3,35.05,,,,,,,,,,
13.23.25.102,56.3,14.1,0,,,101522.8,9.85,-0.29,0.63,0.37,1.8,-10.8,-21.4,34.82,,,,,,,,,,
13.23.25.112,49.5,12.4,0,,,101522.8,9.85,-0.2,0.51,0.31,8.4,6.1,0.0,35.6,,,,,,,,,,
13.23.25.124,56.2,14.0,0,,,101522.8,9.85,-0.19,0.74,0.3,-6.2,-19.9,-8.0,35.31,,,,,,,,,,
13.23.25.133,62.5,15.6,0,,,101522.8,9.85,-0.28,0.59,0.47,-3.5,21.2,-1.6,35.36,,,,,,,,,,
13.23.25.142,56.4,14.1,0,,,101522.8,9.85,-0.13,0.6,0.47,6.4,14.2,5.5,34.79,,,,,,,,,,
13.23.25.153,48.3,12.1,0,,,101522.8,9.85,-0.16,0.58,0.31,-18.4,26.8,-11.9,35.62,,,,,,,,,,
13.23.25.163,39.4,9.8,0,,,101522.8,9.85,-0.34,0.56,0.43,10.1,31.2,4.8,35.4,,,,,,,,,,
13.23.25.173,31.0,7.8,0,,,101522.8,9.85,-0.36,0.65,0.46,-8.9,6.2,-6.4,35.59,,,,,,,,,,
13.23.25.180,31.6,7.9,0,,,101522.8,9.85,-0.1,0.71,0.47,3.7,-0.7,-3.7,35.32,,,,,,,,,,
13.23.25.192,14.5,3.6,0,,,101522.8,9.85,-0.36,0.66,0.5,-27.7,-1.1,2.1,35.11,,,,,,,,,,
13.23.25.203,14.8,3.7,0,,,101522.8,9.85,-0.2,0.73,0.4,-2.4,15.8,-0.9,35.65,,,,,,,,,,
13.23.25.214,-0.9,0.2,0,,,101522.8,9.85,-0.25,0.61,0.36,-9.6,13.3,7.9,34.31,,,,,,,,,,
13.23.25.223,6.2,1.6,0,,,101522.8,9.85,-0.18,0.75,0.44,-0.1,9.9,-2.3,35.32,,,,,,,,,,
13.23.25.233,-8.1,2.0,0,,,101522.8,9.85,-0.29,0.75,0.39,-3.3,23.2,5.9,35.48,,,,,,,,,,
13.23.25.241,-18.7,4.7,0,,,101522.8,9.85,-0.15,0.79,0.38,2.1,6.2,6.1,34.96,,,,,,,,,,
13.23.25.249,-7.9,2.0,0,,,101522.8,9.85,-0.18,0.69,0.34,30.5,5.9,-6.8,35.24,,,,,,,,,,
13.23.25.258,-15.4,3.8,0,,,101522.8,9.85,-0.22,0.58,0.4,20.1,19.7,-14.7,35.24,,,,,,,,,,
13.23.25.267,-13.4,3.4,0,,,101522.8,9.85,-0.16,0.69,0.58,-23.5,0.0,-15.9,35.4,,,,,,,,,,
13.23.25.275,-17.1,4.3,0,,,101522.8,9.85,-0.26,0.65,0.44,20.7,-2.3,-3.7,35.05,,,,,,,,,,
13.23.25.284,-23.7,5.9,0,,,101522.8,9.85,-0.25,0.65,0.35,-6.6,2.8,17.8,35.51,,,,,,,,,,
13.23.25.293,-24.3,6.1,0,,,101522.8,9.85,-0.25,0.64,0.46,-1.0,19.2,7.8,35.13,,,,,,,,,,
13.23.25.302,-10.7,2.7,0,,,101522.8,9.85,-0.24,0.78,0.53,10.8,0.8,-1.8,35.32,,,,,,,,,,
13.23.25.309,-34.7,8.7,0,,,101522.8,9.85,-0.24,0.6,0.51,-5.9,15.7,-14.5,35.12,,,,,,,,,,
13.23.25.320,-26.7,6.7,0,,,101522.8,9.85,-0.15,0.68,0.35,9.6,21.1,-23.1,35.45,,,,,,,,,,
13.23.25.330,-26.6,6.6,0,,,101522.8,9.85,-0.26,0.62,0.39,-21.2,-22.3,-10.1,34.99,,,,,,,,,,
13.23.25.340,-43.2,10.8,0,,,101522.8,9.85,-0.41,0.67,0.56,21.1,10.7,2.3,35.27,,,,,,,,,,
13.23.25.351,-47.3,11.8,0,,,101522.8,9.85,-0.24,0.74,0.43,-3.6,18.5,2.3,35.03,,,,,,,,,,
13.23.25.361,-27.4,6.8,0,,,101522.8,9.85,-0.14,0.71,0.35,23.3,16.0,7.8,35.42,,,,,,,,,,
13.23.25.371,-32.3,8.1,0,,,101522.8,9.85,-0.23,0.69,0.31,1.4,33.7,-4.9,35.28,,,,,,,,,,
13.23.25.381,-49.4,12.4,0,,,101522.8,9.85,-0.17,0.59,0.61,6.9,-5.1,8.7,35.42,,,,,,,,,,
13.23.25.394,-49.0,12.2,0,,,101522.8,9.85,-0.34,0.72,0.45,-26.7,17.1,-5.2,35.16,,,,,,,,,,
13.23.25.404,-61.2,15.3,0,,,101522.8,9.85,-0.26,0.59,0.46,17.7,7.8,-9.7,35.08,,,,,,,,,,
13.23.25.414,-51.5,12.9,0,,,101522.8,9.85,-0.21,0.59,0.57,-1.3,2.8,-20.2,35.35,,,,,,,,,,
13.23.25.423,-74.4,18.6,0,,,101522.8,9.85,-0.26,0.62,0.4,2.7,9.2,-6.8,35.47,,,,,,,,,,
13.23.25.434,-61.0,15.2,0,,,101522.8,9.85,-0.41,0.5,0.41,1.3,5.4,-12.8,35.5,,,,,,,,,,
13.23.25.444,-66.8,16.7,0,,,101522.8,9.85,-0.29,0.63,0.41,-6.5,12.2,0.6,34.54,,,,,,,,,,
13.23.25.454,-59.4,14.8,0,,,101522.8,9.85,-0.37,0.6,0.45,0.4,6.3,2.6,35.31,,,,,,,,,,
13.23.25.463,-62.7,15.7,0,,,101522.8,9.85,-0.13,0.59,0.49,7.2,-10.5,-5.0,35.6,,,,,,,,,,
13.23.25.471,-76.0,19.0,0,,,101522.8,9.85,-0.25,0.78,0.52,27.7,6.3,-9.6,35.39,,,,,,,,,,
13.23.25.479,-75.3,18.8,0,,,101522.8,9.85,-0.22,0.57,0.43,12.6,14.3,-5.4,35.13,,,,,,,,,,
13.23.25.488,-93.0,23.2,0,,,101522.8,9.85,-0.18,0.6,0.53,-3.8,16.4,2.5,35.54,,,,,,,,,,
13.23.25.497,-80.2,20.0,0,,,101522.8,9.85,-0.24,0.69,0.29,-6.5,9.5,8.9,35.01,,,,,,,,,,
13.23.25.507,-86.3,21.6,0,,,101522.8,9.85,-0.23,0.53,0.36,-5.7,8.9,-3.6,34.95,,,,,,,,,,
13.23.25.517,-93.4,23.4,0,,,101522.8,9.85,-0.21,0.74,0.32,7.9,-14.1,-8.0,34.74,,,,,,,,,,
13.23.25.525,-97.4,24.4,0,,,101522.8,9.85,-0.23,0.65,0.44,4.0,-9.2,4.5,35.46,,,,,,,,,,
13.23.25.534,-106.1,26.5,0,,,101522.8,9.85,-0.23,0.56,0.35,24.0,2.4,2.0,35.3,,,,,,,,,,
13.23.25.543,-95.9,24.0,0,,,101522.8,9.85,-0.13,0.58,0.41,-13.4,22.5,-3.0,35.26,,,,,,,,,,
13.23.25.554,-106.0,26.5,0,,,101522.8,9.85,-0.36,0.53,0.37,-24.1,-2.7,15.0,34.92,,,,,,,,,,
13.23.25.563,-98.6,24.6,0,,,101522.8,9.85,-0.32,0.74,0.41,-13.6,-2.1,-4.1,35.47,,,,,,,,,,
13.23.25.572,-94.6,23.6,0,,,101522.8,9.85,-0.26,0.63,0.29,17.2,4.9,-2.8,35.45,,,,,,,,,,
13.23.25.581,-114.6,28.6,0,,,101522.8,9.85,-0.39,0.8,0.46,-20.0,7.7,7.9,35.26,,,,,,,,,,
13.23.25.590,-117.3,29.3,0,,,101522.8,9.85,-0.2,0.75,0.46,-41.5,-3.2,-6.4,35.31,,,,,,,,,,
13.23.25.600,-109.4,27.4,0,,,101522.8,9.85,-0.15,0.44,0.38,6.9,-2.0,6.1,35.3,,,,,,,,,,
13.23.25.607,-112.9,28.2,0,,,101522.8,9.85,-0.39,0.71,0.52,7.1,-2.2,1.3,35.09,,,,,,,,,,
13.23.25.617,-120.2,30.0,0,,,101522.8,9.85,-0.21,0.65,0.39,13.5,6.7,-10.2,35.32,,,,,,,,,,
13.23.25.626,-139.3,34.8,0,,,101522.8,9.85,-0.29,0.65,0.59,6.9,0.8,-23.4,35.57,,,,,,,,,,
13.23.25.637,-125.3,31.3,0,,,101522.8,9.85,-0.28,0.56,0.38,-1.7,-12.0,10.4,35.23,,,,,,,,,,
13.23.25.648,-114.7,28.7,0,,,101522.8,9.85,-0.34,0.62,0.44,-8.5,3.7,3.3,35.4,,,,,,,,,,
13.23.25.656,18.7,4.7,0,,,101522.8,9.85,-0.43,0.85,0.4,-5.0,7.8,-14.3,34.79,,,,,,,,,,
13.23.25.665,39.5,9.9,0,,,101522.8,9.85,-0.31,0.83,0.48,8.2,14.1,-11.3,35.2,,,,,,,,,,
13.23.25.675,81.4,20.4,0,,,101522.8,9.85,-0.36,0.62,0.59,14.6,14.4,14.6,34.92,,,,,,,,,,
13.23.25.683,96.9,24.2,0,,,101522.8,9.85,-0.22,0.76,0.34,18.8,13.6,-5.8,35.18,,,,,,,,,,
13.23.25.693,119.2,29.8,0,,,101522.8,9.85,-0.16,0.62,0.34,-5.2,16.5,8.5,35.39,,,,,,,,,,
13.23.25.703,142.0,35.5,0,,,101522.8,9.85,-0.39,0.86,0.49,-23.8,3.5,-0.4,35.12,,,,,,,,,,
13.23.25.712,179.6,44.9,0,,,101522.8,9.85,-0.23,0.62,0.41,10.1,21.4,-0.9,35.32,,,,,,,,,,
13.23.25.722,208.8,52.2,0,,,101522.8,9.85,-0.22,0.57,0.49,22.6,-17.9,2.4,35.35,,,,,,,,,,
13.23.25.732,238.9,59.7,0,,,101522.8,9.85,-0.11,0.88,0.5,9.6,-11.8,7.0,34.81,,,,,,,,,,
13.23.25.742,230.7,57.7,0,,,101522.8,9.85,-0.23,0.72,0.44,16.3,14.0,-7.9,35.32,,,,,,,,,,
13.23.25.752,259.9,65.0,0,,,101522.8,9.85,-0.34,0.67,0.36,13.7,10.3,2.0,35.65,,,,,,,,,,
13.23.25.764,286.2,71.6,0,,,101522.8,9.85,-0.23,0.63,0.34,-16.9,-15.4,-3.6,35.0,,,,,,,,,,
13.23.25.772,290.1,72.5,0,,,101522.8,9.85,-0.16,0.56,0.32,6.9,8.8,15.6,34.85,,,,,,,,,,
13.23.25.781,327.1,81.8,0,,,101522.8,9.85,-0.11,0.76,0.44,-11.3,11.9,-5.0,34.98,,,,,,,,,,
13.23.25.792,286.0,71.5,0,,,101522.8,9.85,-0.18,0.53,0.35,-16.1,13.7,-4.1,35.45,,,,,,,,,,
13.23.25.801,350.0,87.5,0,,,101522.8,9.85,-0.38,0.61,0.36,6.6,8.4,-15.7,35.15,,,,,,,,,,
13.23.25.810,308.5,77.1,0,,,101522.8,9.85,-0.25,0.56,0.53,7.8,4.6,4.1,35.45,,,,,,,,,,
13.23.25.821,320.0,80.0,0,,,101522.8,9.85,-0.18,0.67,0.4,22.7,-0.4,-11.2,35.32,,,,,,,,,,
13.23.25.829,336.6,84.2,0,,,101522.8,9.85,-0.35,0.63,0.54,-5.9,2.7,-10.3,35.35,,,,,,,,,,
13.23.25.840,335.8,84.0,0,,,101522.8,9.85,-0.2,0.55,0.51,-9.9,8.3,-5.4,35.37,,,,,,,,,,
13.23.25.848,312.5,78.1,0,,,101522.8,9.85,-0.2,0.57,0.57,-6.2,5.1,-0.6,35.2,,,,,,,,,,
13.23.25.858,321.5,80.4,0,,,101522.8,9.85,-0.24,0.61,0.52,6.7,-5.3,-1.5,35.21,,,,,,,,,,
13.23.25.869,281.9,70.5,0,,,101522.8,9.85,-0.26,0.57,0.41,-7.0,11.3,-2.4,34.97,,,,,,,,,,
13.23.25.878,287.1,71.8,0,,,101522.8,9.85,-0.18,0.57,0.36,-3.8,-10.3,-13.3,35.25,,,,,,,,,,
13.23.25.889,262.5,65.6,0,,,101522.8,9.85,-0.25,0.77,0.39,-13.3,1.0,9.0,35.74,,,,,,,,,,
13.23.25.899,235.3,58.8,1,10.0,62.3,101522.8,9.85,-0.21,0.62,0.39,-2.0,1.1,0.8,34.99,,,,,,,,,,
13.23.25.908,214.4,53.6,0,,,101522.8,9.85,-0.26,0.71,0.36,-13.8,7.9,-15.2,35.26,,,,,,,,,,
13.23.25.919,198.9,49.7,0,,,101522.8,9.85,-0.23,0.66,0.44,9.5,-7.1,-16.8,35.36,,,,,,,,,,
13.23.25.928,163.1,40.8,0,,,101522.8,9.85,-0.22,0.7,0.44,-14.4,3.9,-9.5,35.08,,,,,,,,,,
13.23.25.939,145.4,36.4,0,,,101522.8,9.85,-0.35,0.77,0.51,11.5,10.2,-5.0,34.83,,,,,,,,,,
13.23.25.949,121.3,30.3,0,,,101522.8,9.85,-0.23,0.68,0.38,-13.2,14.3,-3.7,34.99,,,,,,,,,,
13.23.25.959,82.5,20.6,0,,,101522.8,9.85,-0.17,0.58,0.45,11.5,6.4,4.8,35.23,,,,,,,,,,
13.23.25.969,43.9,11.0,0,,,101522.8,9.85,-0.2,0.52,0.55,-5.6,8.3,1.0,35.1,,,,,,,,,,
13.23.25.978,36.5,9.1,0,,,101522.8,9.85,-0.21,0.6,0.57,22.4,-9.0,-13.7,34.98,,,,,,,,,,
13.23.25.986,1.6,0.4,0,,,101522.8,9.85,-0.13,0.68,0.59,-0.1,26.0,0.6,35.25,,,,,,,,,,
13.23.25.996,2.1,0.5,0,,,101522.8,9.85,-0.3,0.75,0.62,-9.4,11.5,10.1,34.97,,,,,,,,,,
13.23.26.007,16.9,4.2,0,,,101522.8,9.85,-0.26,0.66,0.43,0.0,1.4,0.5,34.99,62.2,,,,,,,,,
13.23.26.017,25.7,6.4,0,,,101522.8,9.85,-0.25,0.62,0.5,-7.6,-13.1,-5.5,34.8,,,,,,,,,,
13.23.26.026,30.1,7.5,0,,,101522.8,9.85,-0.26,0.37,0.39,-2.1,-0.7,9.5,35.02,,,,,,,,,,
13.23.26.035,39.4,9.8,0,,,101522.8,9.85,-0.33,0.81,0.39,-24.6,1.5,2.4,35.45,,,,,,,,,,
13.23.26.044,43.3,10.8,0,,,101522.8,9.85,-0.16,0.82,0.56,2.3,4.5,0.3,35.56,,,,,,,,,,
13.23.26.053,55.0,13.8,0,,,101522.8,9.85,-0.33,0.69,0.31,2.0,10.1,-0.3,35.38,,,,,,,,,,
13.23.26.064,54.2,13.6,0,,,101522.8,9.85,-0.26,0.37,0.51,6.6,-2.3,5.3,35.01,,,,,,,,,,
13.23.26.076,60.5,15.1,0,,,101522.8,9.85,-0.28,0.48,0.37,-12.4,-7.9,2.7,35.05,,,,,,,,,,
13.23.26.086,60.5,15.1,0,,,101522.8,9.85,-0.22,0.58,0.52,10.5,23.1,3.8,34.75,,,,,,,,,,
13.23.26.094,57.0,14.2,0,,,101522.8,9.85,-0.23,0.64,0.45,11.3,4.7,2.5,34.86,,,,,,,,,,
13.23.26.103,53.4,13.4,0,,,101522.8,9.85,-0.22,0.69,0.41,-1.4,14.3,8.4,35.2,,,,,,,,,,
13.23.26.112,47.1,11.8,0,,,101522.8,9.85,-0.27,0.65,0.41,22.0,23.4,0.9,35.14,,,,,,,,,,
13.23.26.123,41.4,10.4,0,,,101522.8,9.85,-0.42,0.7,0.42,10.1,17.8,1.5,35.26,,,,,,,,,,
13.23.26.134,41.3,10.3,0,,,101522.8,9.85,-0.12,0.78,0.44,-7.0,16.6,-5.2,35.4,,,,,,,,,,
13.23.26.143,33.3,8.3,0,,,101522.8,9.85,-0.12,0.68,0.37,-4.5,5.3,-7.5,35.03,,,,,,,,,,
13.23.26.152,23.3,5.8,0,,,101522.8,9.85,-0.26,0.45,0.45,7.7,10.4,-1.4,35.03,,,,,,,,,,
13.23.26.163,21.3,5.3,0,,,101522.8,9.85,-0.36,0.68,0.45,1.8,3.5,3.1,35.13,,,,,,,,,,
13.23.26.172,15.1,3.8,0,,,101522.8,9.85,-0.23,0.6,0.39,-0.5,9.7,-3.0,35.11,,,,,,,,,,
13.23.26.183,-2.7,0.7,0,,,101522.8,9.85,-0.38,0.6,0.4,-10.6,-2.2,-7.3,35.07,,,,,,,,,,
13.23.26.192,2.4,0.6,0,,,101522.8,9.85,-0.05,0.54,0.52,9.9,0.4,-5.9,35.12,,,,,,,,,,
13.23.26.200,-9.4,2.4,0,,,101522.8,9.85,-0.16,0.44,0.34,1.0,20.7,-9.2,35.25,,,,,,,,,,
13.23.26.208,-8.3,2.1,0,,,101522.8,9.85,-0.2,0.79,0.4,-12.5,22.1,-7.2,34.82,,,,,,,,,,
13.23.26.219,-17.8,4.4,0,,,101522.8,9.85,-0.24,0.66,0.2,-10.1,-12.2,5.4,34.77,,,,,,,,,,
13.23.26.229,-10.0,2.5,0,,,101522.8,9.85,-0.37,0.78,0.39,14.2,10.5,-5.3,35.07,,,,,,,,,,
13.23.26.237,-24.1,6.0,0,,,101522.8,9.85,-0.34,0.58,0.44,-11.9,11.3,-10.2,35.34,,,,,,,,,,
13.23.26.247,-16.4,4.1,0,,,101522.8,9.85,-0.16,0.78,0.47,0.4,7.2,9.9,35.41,,,,,,,,,,
13.23.26.258,-18.9,4.7,0,,,101522.8,9.85,-0.27,0.57,0.5,-3.9,-1.6,-0.5,35.68,,,,,,,,,,
13.23.26.266,-29.9,7.5,0,,,101522.8,9.85,-0.37,0.74,0.43,8.1,16.2,-8.7,35.1,,,,,,,,,,
13.23.26.275,-19.3,4.8,0,,,101522.8,9.85,-0.29,0.58,0.58,-7.9,2.5,-12.1,35.04,,,,,,,,,,
13.23.26.288,-30.9,7.7,0,,,101522.8,9.85,-0.27,0.79,0.42,-18.4,8.8,-8.5,35.55,,,,,,,,,,
13.23.26.297,-38.5,9.6,0,,,101522.8,9.85,-0.28,0.87,0.48,-5.2,-6.3,0.8,35.71,,,,,,,,,,
13.23.26.307,-37.6,9.4,0,,,101522.8,9.85,-0.31,0.61,0.43,-0.6,15.1,10.0,34.97,,,,,,,,,,
13.23.26.315,-34.0,8.5,0,,,101522.8,9.85,-0.24,0.66,0.57,-18.7,17.7,-9.9,35.13,,,,,,,,,,
13.23.26.327,-62.2,15.6,0,,,101522.8,9.85,-0.21,0.71,0.48,-7.4,11.5,13.4,35.04,,,,,,,,,,
13.23.26.336,-57.5,14.4,0,,,101522.8,9.85,-0.21,0.76,0.33,-16.1,18.9,-8.9,35.45,,,,,,,,,,
13.23.26.346,-49.7,12.4,0,,,101522.8,9.85,-0.31,0.59,0.44,2.3,-4.9,11.4,35.18,,,,,,,,,,
13.23.26.355,-48.0,12.0,0,,,101522.8,9.85,-0.35,0.71,0.36,12.1,5.7,-1.5,35.3,,,,,,,,,,
13.23.26.365,-62.1,15.5,0,,,101522.8,9.85,-0.31,0.74,0.55,11.8,5.0,3.5,35.12,,,,,,,,,,
13.23.26.372,-56.4,14.1,0,,,101522.8,9.85,-0.17,0.58,0.51,-25.2,2.8,8.4,34.9,,,,,,,,,,
13.23.26.378,-51.6,12.9,0,,,101522.8,9.85,-0.34,0.77,0.51,15.6,-13.3,2.3,35.75,,,,,,,,,,
13.23.26.387,-51.7,12.9,0,,,101522.8,9.85,-0.18,0.56,0.39,-1.2,-2.5,-5.0,34.87,,,,,,,,,,
13.23.26.398,-65.8,16.4,0,,,101522.8,9.85,-0.3,0.76,0.32,5.2,-10.2,9.8,35.01,,,,,,,,,,
13.23.26.409,-67.8,17.0,0,,,101522.8,9.85,-0.2,0.47,0.4,2.4,5.6,8.4,35.11,,,,,,,,,,
13.23.26.418,-73.6,18.4,0,,,101522.8,9.85,-0.11,0.83,0.3,13.4,4.3,-10.6,35.22,,,,,,,,,,
13.23.26.428,-73.2,18.3,0,,,101522.8,9.85,-0.25,0.58,0.44,-6.7,1.6,-14.1,35.29,,,,,,,,,,
13.23.26.436,-81.6,20.4,0,,,101522.8,9.85,-0.36,0.64,0.34,-14.6,25.1,-7.4,35.05,,,,,,,,,,
13.23.26.444,-74.1,18.5,0,,,101522.8,9.85,-0.21,0.63,0.43,-1.8,12.5,6.6,35.55,,,,,,,,,,
13.23.26.455,-83.7,20.9,0,,,101522.8,9.85,-0.22,0.54,0.48,-7.4,8.6,20.7,35.09,,,,,,,,,,
13.23.26.468,-85.2,21.3,0,,,101522.8,9.85,-0.17,0.69,0.58,13.0,1.0,10.4,35.14,,,,,,,,,,
13.23.26.477,-85.1,21.3,0,,,101522.8,9.85,-0.17,0.68,0.41,12.3,12.1,-5.9,35.07,,,,,,,,,,
13.23.26.487,-86.1,21.5,0,,,101522.8,9.85,-0.22,0.58,0.56,-15.0,-5.7,-7.6,35.35,,,,,,,,,,
13.23.26.494,-94.9,23.7,0,,,101522.8,9.85,-0.37,0.75,0.47,4.0,4.6,-10.0,35.64,,,,,,,,,,
13.23.26.505,-88.5,22.1,0,,,101522.8,9.85,-0.35,0.48,0.44,16.9,-14.9,0.1,35.09,,,,,,,,,,
13.23.26.514,-105.9,26.5,0,,,101522.8,9.85,-0.22,0.51,0.48,-11.3,-10.5,11.0,35.17,,,,,,,,,,
13.23.26.526,-111.2,27.8,0,,,101522.8,9.85,-0.21,0.6,0.49,18.0,-13.0,-10.4,35.39,,,,,,,,,,
13.23.26.535,-95.9,24.0,0,,,101522.8,9.85,-0.2,0.55,0.52,12.2,11.5,18.7,34.84,,,,,,,,,,
13.23.26.545,-104.6,26.2,0,,,101522.8,9.85,-0.37,0.71,0.52,-1.2,4.8,20.0,35.43,,,,,,,,,,
13.23.26.553,-116.9,29.2,0,,,101522.8,9.85,-0.17,0.77,0.5,-14.7,11.0,3.3,35.17,,,,,,,,,,
13.23.26.561,-109.4,27.4,0,,,101522.8,9.85,-0.31,0.67,0.48,20.7,3.9,-1.5,35.34,,,,,,,,,,
13.23.26.570,-124.9,31.2,0,,,101522.8,9.85,-0.31,0.38,0.56,1.2,-5.7,0.9,34.89,,,,,,,,,,
13.23.26.580,-113.5,28.4,0,,,101522.8,9.85,-0.17,0.7,0.46,-3.1,9.7,4.4,35.0,,,,,,,,,,
13.23.26.588,-107.9,27.0,0,,,101522.8,9.85,-0.24,0.71,0.56,4.5,8.6,-5.9,35.32,,,,,,,,,,
13.23.26.600,-114.0,28.5,0,,,101522.8,9.85,-0.32,0.79,0.31,-4.5,-22.1,-4.2,35.15,,,,,,,,,,
13.23.26.610,-139.4,34.8,0,,,101522.8,9.85,-0.26,0.72,0.32,1.8,3.7,-2.5,34.9,,,,,,,,,,
13.23.26.619,13.0,3.2,0,,,101522.8,9.85,-0.17,0.74,0.36,3.9,-1.5,-15.7,35.54,,,,,,,,,,
13.23.26.630,44.2,11.0,0,,,101522.8,9.85,-0.1,0.55,0.57,2.8,-6.0,-4.0,35.41,,,,,,,,,,
13.23.26.639,65.0,16.2,0,,,101522.8,9.85,-0.38,0.45,0.38,-9.0,35.7,9.1,34.69,,,,,,,,,,
13.23.26.650,100.2,25.0,0,,,101522.8,9.85,-0.41,0.62,0.48,-29.7,-7.1,-3.3,34.79,,,,,,,,,,
13.23.26.659,131.6,32.9,0,,,101522.8,9.85,-0.23,0.69,0.55,19.5,-2.4,2.2,35.02,,,,,,,,,,
13.23.26.669,155.3,38.8,0,,,101522.8,9.85,-0.26,0.73,0.32,6.1,7.4,-2.5,34.96,,,,,,,,,,
13.23.26.678,185.8,46.4,0,,,101522.8,9.85,-0.31,0.67,0.28,9.2,-3.3,7.0,34.95,,,,,,,,,,
13.23.26.686,178.0,44.5,0,,,101522.8,9.85,-0.19,0.78,0.62,10.9,-16.4,-14.6,35.33,,,,,,,,,,
13.23.26.695,224.9,56.2,0,,,101522.8,9.85,-0.27,0.62,0.34,12.0,4.7,-3.8,35.15,,,,,,,,,,
13.23.26.705,227.4,56.8,0,,,101522.8,9.85,-0.29,0.61,0.45,-13.5,7.9,-5.2,35.17,,,,,,,,,,
13.23.26.715,251.7,62.9,0,,,101522.8,9.85,-0.3,0.79,0.48,-5.1,9.3,4.3,35.42,,,,,,,,,,
13.23.26.725,268.8,67.2,0,,,101522.8,9.85,-0.2,0.83,0.38,17.8,7.8,1.3,35.26,,,,,,,,,,
13.23.26.734,299.5,74.9,0,,,101522.8,9.85,-0.37,0.61,0.55,-23.9,19.3,-8.3,35.19,,,,,,,,,,
13.23.26.744,297.6,74.4,0,,,101522.8,9.85,-0.25,0.54,0.35,11.3,0.5,4.9,35.26,,,,,,,,,,
13.23.26.752,273.0,68.2,0,,,101522.8,9.85,-0.25,0.68,0.56,2.4,3.1,4.4,35.01,,,,,,,,,,
13.23.26.762,285.8,71.4,0,,,101522.8,9.85,-0.44,0.42,0.42,4.2,-3.5,-10.4,35.29,,,,,,,,,,
13.23.26.772,319.5,79.9,0,,,101522.8,9.85,-0.26,0.57,0.47,9.4,-13.3,2.6,35.11,,,,,,,,,,
13.23.26.782,326.9,81.7,0,,,101522.8,9.85,-0.28,0.84,0.44,38.6,10.0,3.3,35.18,,,,,,,,,,
13.23.26.792,339.4,84.8,0,,,101522.8,9.85,-0.36,0.87,0.37,-18.4,11.3,6.6,35.19,,,,,,,,,,
13.23.26.803,313.0,78.2,0,,,101522.8,9.85,-0.36,0.66,0.44,-19.0,-4.6,-11.2,35.18,,,,,,,,,,
13.23.26.811,308.0,77.0,0,,,101522.8,9.85,-0.35,0.83,0.52,0.4,9.9,-12.8,35.36,,,,,,,,,,
13.23.26.820,311.9,78.0,0,,,101522.8,9.85,-0.26,0.7,0.43,-6.4,34.1,-0.7,35.12,,,,,,,,,,
13.23.26.829,262.8,65.7,0,,,101522.8,9.85,-0.39,0.67,0.53,-33.1,4.2,9.8,34.95,,,,,,,,,,
13.23.26.841,287.1,71.8,0,,,101522.8,9.85,-0.34,0.63,0.36,20.7,1.6,12.6,34.92,,,,,,,,,,
13.23.26.850,239.7,59.9,0,,,101522.8,9.85,-0.31,0.63,0.36,8.3,-12.8,-3.6,35.08,,,,,,,,,,
13.23.26.859,267.2,66.8,0,,,101522.8,9.85,-0.12,0.66,0.48,2.5,-24.7,-17.2,35.08,,,,,,,,,,
13.23.26.868,222.4,55.6,1,11.0,61.9,101522.8,9.85,-0.37,0.79,0.36,-24.7,24.5,-15.3,35.31,,,,,,,,,,
13.23.26.879,201.4,50.4,0,,,101522.8,9.85,-0.38,0.68,0.45,3.3,22.4,14.4,35.09,,,,,,,,,,
13.23.26.888,169.9,42.5,0,,,101522.8,9.85,-0.29,0.66,0.39,-16.2,-7.1,-26.3,35.21,,,,,,,,,,
13.23.26.897,163.6,40.9,0,,,101522.8,9.85,-0.33,0.65,0.36,1.0,4.6,2.9,35.29,,,,,,,,,,
13.23.26.905,125.8,31.4,0,,,101522.8,9.85,-0.09,0.51,0.46,32.4,-25.7,23.0,35.58,,,,,,,,,,
13.23.26.914,106.7,26.7,0,,,101522.8,9.85,-0.11,0.59,0.42,-32.1,7.9,16.9,35.3,,,,,,,,,,
13.23.26.924,86.3,21.6,0,,,101522.8,9.85,-0.24,0.58,0.52,-8.8,9.7,-9.6,35.21,,,,,,,,,,
13.23.26.935,43.4,10.8,0,,,101522.8,9.85,-0.2,0.5,0.36,0.3,3.5,-13.7,35.36,,,,,,,,,,
13.23.26.945,26.2,6.6,0,,,101522.8,9.85,-0.19,0.7,0.62,-0.2,12.6,-4.9,35.03,,,,,,,,,,
13.23.26.954,-4.9,1.2,0,,,101522.8,9.85,-0.2,0.6,0.39,9.8,3.6,3.2,34.91,,,,,,,,,,
13.23.26.965,19.7,4.9,0,,,101522.8,9.85,-0.27,0.68,0.35,16.4,11.4,0.2,35.07,,,,,,,,,,
13.23.26.974,15.3,3.8,0,,,101522.8,9.85,-0.24,0.58,0.5,8.4,19.0,1.4,35.18,,,,,,,,,,
13.23.26.982,23.7,5.9,0,,,101522.8,9.85,-0.23,0.69,0.58,13.5,-5.6,7.3,35.27,,,,,,,,,,
13.23.26.990,24.3,6.1,0,,,101522.8,9.85,-0.14,0.63,0.31,-6.3,12.9,6.8,35.16,,,,,,,,,,
13.23.26.997,33.1,8.3,0,,,101522.8,9.85,-0.22,0.62,0.47,-4.6,-12.4,7.0,35.61,,,,,,,,,,
13.23.27.007,55.3,13.8,0,,,101522.8,9.85,-0.28,0.8,0.47,4.2,-9.4,8.6,35.24,,,,,,,,,,
13.23.27.017,44.1,11.0,0,,,101522.8,9.85,-0.22,0.64,0.51,-10.2,-11.6,-0.4,35.24,,,,,,,,,,
13.23.27.029,59.5,14.9,0,,,101522.8,9.85,-0.17,0.65,0.36,17.3,8.4,-6.2,35.06,,,,,,,,,,
13.23.27.038,50.7,12.7,0,,,101626.0,9.84,-0.43,0.67,0.47,-3.9,13.4,1.5,35.22,,,,,,,,,,
13.23.27.044,64.5,16.1,0,,,101626.0,9.84,-0.18,0.55,0.49,-21.5,4.7,-2.5,35.16,,,,,,,,,,
13.23.27.054,54.1,13.5,0,,,101626.0,9.84,-0.37,0.6,0.51,11.4,13.3,3.2,35.5,,,,,,,,,,
13.23.27.063,,,0,,,,,,,,,,,,,,,,,,,,,
13.23.27.071,53.0,13.2,0,,,101626.0,9.84,-0.2,0.73,0.58,11.4,15.1,5.6,35.54,,,,,,,,,,
13.23.27.081,46.2,11.6,0,,,101626.0,9.84,-0.29,0.63,0.43,-16.4,-0.6,4.2,35.3,,,,,,,,,,
13.23.27.092,50.9,12.7,0,,,101626.0,9.84,-0.31,0.83,0.48,-2.0,-6.6,-0.5,35.75,,,,,,,,,,
13.23.27.100,29.5,7.4,0,,,101626.0,9.84,-0.23,0.81,0.41,8.4,-4.4,8.1,34.87,,,,,,,,,,
13.23.27.109,35.8,9.0,0,,,101626.0,9.84,-0.09,0.61,0.55,-0.5,-7.2,4.1,34.87,,,,,,,,,,
13.23.27.120,18.5,4.6,0,,,101626.0,9.84,-0.1,0.59,0.38,31.6,10.9,-9.8,35.58,,,,,,,,,,
13.23.27.131,6.0,1.5,0,,,101626.0,9.84,-0.38,0.65,0.42,0.2,10.0,19.9,35.47,,,,,,,,,,
13.23.27.138,3.9,1.0,0,,,101626.0,9.84,-0.28,0.72,0.48,-6.3,-4.1,-1.2,35.37,,,,,,,,,,
13.23.27.147,-4.5,1.1,0,,,101626.0,9.84,-0.37,0.62,0.45,3.4,17.0,11.0,35.26,,,,,,,,,,
13.23.27.157,-7.7,1.9,0,,,101626.0,9.84,-0.32,0.66,0.52,-4.5,32.1,-4.2,34.94,,,,,,,,,,
13.23.27.166,-10.8,2.7,0,,,101626.0,9.84,-0.24,0.61,0.38,-2.1,9.0,24.9,35.06,,,,,,,,,,
13.23.27.176,-18.3,4.6,0,,,101626.0,9.84,-0.31,0.79,0.34,24.4,-5.6,-2.8,35.52,,,,,,,,,,
13.23.27.185,-20.1,5.0,0,,,101626.0,9.84,-0.17,0.59,0.5,-27.0,8.0,6.8,35.15,,,,,,,,,,
13.23.27.193,-18.6,4.6,0,,,101626.0,9.84,-0.36,0.55,0.37,11.6,2.9,-5.1,35.04,,,,,,,,,,
13.23.27.202,-13.0,3.2,0,,,101626.0,9.84,-0.25,0.58,0.41,-3.2,18.2,3.3,35.14,,,,,,,,,,
13.23.27.212,-29.7,7.4,0,,,101626.0,9.84,-0.28,0.74,0.19,-1.7,-7.8,2.5,34.81,,,,,,,,,,
13.23.27.221,-21.3,5.3,0,,,101626.0,9.84,-0.2,0.6,0.5,10.3,-5.4,-6.0,35.12,,,,,,,,,,
13.23.27.232,-22.0,5.5,0,,,101626.0,9.84,-0.23,0.66,0.48,-4.8,2.0,5.0,35.27,,,,,,,,,,
13.23.27.243,-29.7,7.4,0,,,101626.0,9.84,-0.23,0.61,0.56,-15.5,24.8,2.9,35.49,,,,,,,,,,
13.23.27.253,-28.4,7.1,0,,,101626.0,9.84,-0.32,0.72,0.35,1.7,21.8,16.4,34.95,,,,,,,,,,
13.23.27.263,-33.6,8.4,0,,,101626.0,9.84,-0.22,0.71,0.5,2.0,24.7,-13.2,35.14,,,,,,,,,,
13.23.27.272,-48.1,12.0,0,,,101626.0,9.84,-0.26,0.91,0.24,9.7,11.0,-4.2,35.26,,,,,,,,,,
13.23.27.282,-39.2,9.8,0,,,101626.0,9.84,-0.27,0.86,0.37,-17.9,2.9,7.1,35.34,,,,,,,,,,
13.23.27.292,-44.7,11.2,0,,,101626.0,9.84,-0.19,0.87,0.47,-18.4,-2.4,4.7,34.95,,,,,,,,,,
13.23.27.300,-52.0,13.0,0,,,101626.0,9.84,-0.38,0.74,0.41,2.4,12.5,5.5,35.26,,,,,,,,,,
13.23.27.310,-46.1,11.5,0,,,101626.0,9.84,-0.23,0.79,0.41,13.4,17.2,7.9,34.92,,,,,,,,,,
13.23.27.319,-52.4,13.1,0,,,101626.0,9.84,-0.11,0.72,0.41,12.2,-0.8,-2.6,35.22,,,,,,,,,,
13.23.27.329,-55.9,14.0,0,,,101626.0,9.84,-0.29,0.66,0.5,2.2,10.2,3.6,35.31,,,,,,,,,,
13.23.27.341,-60.6,15.2,0,,,101626.0,9.84,-0.22,0.53,0.5,-4.5,11.9,-2.6,35.19,,,,,,,,,,
13.23.27.349,-63.2,15.8,0,,,101626.0,9.84,-0.27,0.67,0.45,1.0,13.2,5.3,35.35,,,,,,,,,,
13.23.27.361,-53.0,13.2,0,,,101626.0,9.84,-0.36,0.58,0.46,26.6,13.8,-7.4,34.93,,,,,,,,,,
13.23.27.370,-62.8,15.7,0,,,101626.0,9.84,-0.18,0.91,0.37,20.8,-3.1,-8.0,34.9,,,,,,,,,,
13.23.27.379,-64.6,16.2,0,,,101626.0,9.84,-0.33,0.7,0.31,-0.7,-3.2,-2.7,35.23,,,,,,,,,,
13.23.27.390,-69.1,17.3,0,,,101626.0,9.84,-0.17,0.45,0.45,-14.2,-9.5,8.2,34.78,,,,,,,,,,
13.23.27.398,-76.0,19.0,0,,,101626.0,9.84,-0.33,0.75,0.46,9.8,-7.4,6.2,35.36,,,,,,,,,,
13.23.27.406,-69.4,17.4,0,,,101626.0,9.84,-0.24,0.76,0.4,-0.3,4.8,-12.7,34.61,,,,,,,,,,
13.23.27.418,-79.8,20.0,0,,,101626.0,9.84,-0.19,0.62,0.4,-0.3,3.2,-0.1,35.34,,,,,,,,,,
13.23.27.430,-93.1,23.3,0,,,101626.0,9.84,-0.26,0.59,0.47,-12.6,-10.3,-9.3,35.24,,,,,,,,,,
13.23.27.440,-78.9,19.7,0,,,101626.0,9.84,-0.26,0.97,0.43,0.6,25.9,-8.2,35.14,,,,,,,,,,
13.23.27.451,-85.0,21.2,0,,,101626.0,9.84,-0.32,0.57,0.61,6.4,-5.4,-1.4,35.45,,,,,,,,,,
13.23.27.463,-99.6,24.9,0,,,101626.0,9.84,-0.22,0.74,0.31,-23.3,35.1,0.6,35.36,,,,,,,,,,
13.23.27.472,-103.5,25.9,0,,,101626.0,9.84,-0.22,0.6,0.44,-7.6,10.0,2.5,34.91,,,,,,,,,,
13.23.27.481,-92.3,23.1,0,,,101626.0,9.84,-0.18,0.62,0.46,-13.5,-7.8,-20.0,35.01,,,,,,,,,,
13.23.27.492,-108.8,27.2,0,,,101626.0,9.84,-0.41,0.53,0.61,0.4,7.4,8.4,35.43,,,,,,,,,,
13.23.27.502,-92.1,23.0,0,,,101626.0,9.84,-0.28,0.54,0.32,-5.7,-1.5,-0.4,35.63,,,,,,,,,,
13.23.27.513,-103.8,26.0,0,,,101626.0,9.84,-0.26,0.76,0.44,-9.7,8.5,-10.1,35.01,,,,,,,,,,
13.23.27.522,-110.4,27.6,0,,,101626.0,9.84,-0.37,0.72,0.4,-7.7,-0.8,-4.8,35.72,,,,,,,,,,
13.23.27.532,-111.7,27.9,0,,,101626.0,9.84,-0.22,0.66,0.49,-18.6,-4.3,-0.9,35.28,,,,,,,,,,
13.23.27.541,-112.5,28.1,0,,,101626.0,9.84,-0.26,0.65,0.53,2.0,-0.5,-17.7,35.05,,,,,,,,,,
13.23.27.551,-116.2,29.0,0,,,101626.0,9.84,-0.25,0.54,0.46,12.6,9.1,-10.7,34.76,,,,,,,,,,
13.23.27.561,-121.6,30.4,0,,,101626.0,9.84,-0.39,0.46,0.53,-24.8,0.6,-5.7,35.15,,,,,,,,,,
13.23.27.571,-128.6,32.2,0,,,101626.0,9.84,-0.12,0.73,0.49,-3.0,10.2,1.2,35.3,,,,,,,,,,
13.23.27.583,6.9,1.7,0,,,101626.0,9.84,-0.46,0.66,0.47,-36.6,2.0,7.7,35.21,,,,,,,,,,
13.23.27.596,47.3,11.8,0,,,101626.0,9.84,-0.11,0.52,0.46,1.3,10.7,7.7,34.97,,,,,,,,,,
13.23.27.605,88.3,22.1,0,,,101626.0,9.84,-0.26,0.72,0.41,4.3,13.5,-2.0,34.53,,,,,,,,,,
13.23.27.616,105.1,26.3,0,,,101626.0,9.84,-0.13,0.47,0.39,-1.6,5.4,-14.1,35.04,,,,,,,,,,
13.23.27.625,129.6,32.4,0,,,101626.0,9.84,-0.14,0.45,0.4,3.4,9.6,1.6,35.2,,,,,,,,,,
13.23.27.636,169.0,42.2,0,,,101626.0,9.84,-0.19,0.56,0.5,-3.7,5.0,-6.7,35.26,,,,,,,,,,
13.23.27.645,171.7,42.9,0,,,101626.0,9.84,-0.29,0.6,0.47,6.8,-13.0,6.3,35.1,,,,,,,,,,
13.23.27.654,208.8,52.2,0,,,101626.0,9.84,-0.25,0.77,0.44,3.2,-15.0,-8.3,34.99,,,,,,,,,,
13.23.27.663,222.0,55.5,0,,,101626.0,9.84,-0.23,0.66,0.4,4.7,19.2,8.9,35.17,,,,,,,,,,
13.23.27.670,244.8,61.2,0,,,101626.0,9.84,-0.35,0.47,0.62,-14.2,20.3,4.5,35.3,,,,,,,,,,
13.23.27.680,248.6,62.2,0,,,101626.0,9.84,-0.18,0.65,0.38,19.2,5.4,-12.2,35.38,,,,,,,,,,
13.23.27.688,277.1,69.3,0,,,101626.0,9.84,-0.31,0.61,0.41,17.1,-1.1,-0.0,35.19,,,,,,,,,,
13.23.27.698,284.8,71.2,0,,,101626.0,9.84,-0.36,0.56,0.38,-12.0,6.8,-11.9,35.67,,,,,,,,,,
13.23.27.708,315.1,78.8,0,,,101626.0,9.84,-0.3,0.54,0.38,-6.7,-1.7,5.5,34.88,,,,,,,,,,
13.23.27.714,292.4,73.1,0,,,101626.0,9.84,-0.32,0.64,0.56,-1.7,14.8,-20.7,35.13,,,,,,,,,,
13.23.27.723,312.0,78.0,0,,,101626.0,9.84,-0.3,0.7,0.49,-6.1,6.0,-17.1,35.07,,,,,,,,,,
13.23.27.733,301.7,75.4,0,,,101626.0,9.84,-0.3,0.69,0.29,-11.0,-1.8,13.0,35.55,,,,,,,,,,
13.23.27.743,298.7,74.7,0,,,101626.0,9.84,-0.24,0.49,0.33,-17.0,33.5,-14.3,35.41,,,,,,,,,,
13.23.27.754,329.9,82.5,0,,,101626.0,9.84,-0.3,0.81,0.45,-26.1,6.1,2.5,35.76,,,,,,,,,,
13.23.27.765,317.7,79.4,0,,,101626.0,9.84,-0.28,0.57,0.48,-3.2,-1.1,6.5,35.36,,,,,,,,,,
13.23.27.776,347.9,87.0,0,,,101626.0,9.84,-0.14,0.53,0.44,-17.8,7.2,-1.9,35.46,,,,,,,,,,
13.23.27.784,311.1,77.8,0,,,101626.0,9.84,-0.27,0.76,0.42,16.4,8.7,-5.6,34.87,,,,,,,,,,
13.23.27.796,296.9,74.2,0,,,101626.0,9.84,-0.21,0.56,0.33,16.6,-4.3,-2.3,35.45,,,,,,,,,,
13.23.27.805,290.2,72.6,0,,,101626.0,9.84,-0.32,0.82,0.41,-2.3,-5.7,-5.9,35.28,,,,,,,,,,
13.23.27.814,247.2,61.8,0,,,101626.0,9.84,-0.27,0.57,0.51,2.8,10.1,1.3,35.3,,,,,,,,,,
13.23.27.821,227.6,56.9,0,,,101626.0,9.84,-0.27,0.66,0.45,-20.7,-19.6,1.4,35.21,,,,,,,,,,
13.23.27.834,209.9,52.5,0,,,101626.0,9.84,-0.22,0.77,0.45,29.9,-1.0,6.6,35.06,,,,,,,,,,
13.23.27.845,214.3,53.6,1,12.0,61.4,101626.0,9.84,-0.22,0.63,0.45,-18.4,18.7,3.4,35.31,,,,,,,,,,
13.23.27.854,189.7,47.4,0,,,101626.0,9.84,-0.22,0.53,0.39,1.1,-6.1,-2.1,34.98,,,,,,,,,,
13.23.27.861,157.9,39.5,0,,,101626.0,9.84,-0.01,0.67,0.43,5.9,-9.7,11.2,35.13,,,,,,,,,,
13.23.27.871,147.7,36.9,0,,,101626.0,9.84,-0.14,0.69,0.4,4.9,3.7,14.6,35.25,,,,,,,,,,
13.23.27.880,106.3,26.6,0,,,101626.0,9.84,-0.22,0.73,0.58,10.6,8.9,-8.1,35.37,,,,,,,,,,
13.23.27.891,80.7,20.2,0,,,101626.0,9.84,-0.23,0.6,0.33,12.9,9.7,-5.8,35.1,,,,,,,,,,
13.23.27.900,52.9,13.2,0,,,101626.0,9.84,-0.24,0.75,0.52,-12.5,16.4,13.3,35.09,,,,,,,,,,
13.23.27.908,31.5,7.9,0,,,101626.0,9.84,-0.31,0.71,0.52,8.1,-11.2,-2.7,35.18,,,,,,,,,,
13.23.27.919,14.0,3.5,0,,,101626.0,9.84,-0.29,0.7,0.5,-4.4,30.4,2.4,34.99,,,,,,,,,,
13.23.27.932,12.2,3.0,0,,,101626.0,9.84,-0.14,0.54,0.37,2.4,19.8,-5.3,35.14,,,,,,,,,,
13.23.27.940,25.8,6.4,0,,,101626.0,9.84,-0.19,0.65,0.53,-13.8,0.9,7.8,34.99,,,,,,,,,,
13.23.27.949,32.5,8.1,0,,,101626.0,9.84,-0.17,0.68,0.53,-3.2,7.3,-18.9,34.9,,,,,,,,,,
13.23.27.959,32.0,8.0,0,,,101626.0,9.84,-0.21,0.61,0.42,5.7,10.3,9.4,35.0,,,,,,,,,,
13.23.27.969,35.4,8.8,0,,,101626.0,9.84,-0.11,0.69,0.47,1.1,8.7,-20.4,35.06,,,,,,,,,,
13.23.27.977,52.8,13.2,0,,,101626.0,9.84,-0.26,0.8,0.5,-3.6,23.8,18.2,35.1,,,,,,,,,,
13.23.27.988,45.8,11.4,0,,,101626.0,9.84,-0.1,0.87,0.36,1.8,3.4,3.9,35.38,,,,,,,,,,
13.23.27.998,53.8,13.4,0,,,101626.0,9.84,-0.22,0.56,0.56,10.3,3.4,8.0,35.24,,,,,,,,,,
13.23.28.009,52.7,13.2,0,,,101626.0,9.84,-0.32,0.61,0.49,8.1,6.0,-2.5,35.14,,,,,,,,,,
13.23.28.021,45.2,11.3,0,,,101626.0,9.84,-0.32,0.69,0.55,14.8,8.2,-1.7,35.63,,,,,,,,,,
13.23.28.028,52.2,13.0,0,,,101626.0,9.84,-0.22,0.65,0.55,-2.6,-17.2,9.9,35.25,,,,,,,,,,
13.23.28.039,48.8,12.2,0,,,101626.0,9.84,-0.39,0.71,0.54,4.6,-10.0,13.3,35.38,,,,,,,,,,
13.23.28.048,52.6,13.2,0,,,101626.0,9.84,-0.27,0.69,0.38,-0.8,-1.3,-3.0,35.12,,,,,,,,,,
13.23.28.058,46.0,11.5,0,,,101626.0,9.84,-0.22,0.67,0.43,7.1,-0.2,-31.1,35.02,,,,,,,,,,
13.23.28.067,44.8,11.2,0,,,101626.0,9.84,-0.33,0.96,0.49,-24.6,13.6,14.4,34.98,,,,,,,,,,
13.23.28.076,36.7,9.2,0,,,101626.0,9.84,-0.28,0.73,0.47,-7.5,15.3,5.4,35.03,,,,,,,,,,
13.23.28.083,24.9,6.2,0,,,101626.0,9.84,-0.22,0.55,0.41,-6.8,7.7,2.3,34.79,,,,,,,,,,
13.23.28.092,16.1,4.0,0,,,101626.0,9.84,-0.27,0.53,0.42,-6.9,15.2,0.3,34.95,,,,,,,,,,
13.23.28.101,-1.2,0.3,0,,,101626.0,9.84,-0.27,0.81,0.54,-6.3,-2.7,-8.3,35.34,,,,,,,,,,
13.23.28.113,-11.4,2.8,0,,,101626.0,9.84,-0.24,0.82,0.42,6.2,-0.1,0.2,35.16,,,,,,,,,,
13.23.28.121,-7.3,1.8,0,,,101626.0,9.84,-0.29,0.7,0.57,-21.6,-0.0,-11.1,35.49,,,,,,,,,,
13.23.28.130,-4.1,1.0,0,,,101626.0,9.84,-0.28,0.59,0.53,9.3,18.5,-0.1,35.41,,,,,,,,,,
13.23.28.138,-5.3,1.3,0,,,101626.0,9.84,-0.29,0.65,0.44,0.1,-28.5,0.6,34.66,,,,,,,,,,
13.23.28.147,-7.1,1.8,0,,,101626.0,9.84,-0.27,0.62,0.45,-11.6,-1.5,8.9,35.52,,,,,,,,,,
13.23.28.158,-15.8,4.0,0,,,101626.0,9.84,-0.38,0.69,0.53,10.1,11.5,-11.9,35.19,,,,,,,,,,
13.23.28.169,-14.1,3.5,0,,,101626.0,9.84,-0.3,0.69,0.33,10.8,11.0,0.4,35.32,,,,,,,,,,
13.23.28.178,-15.9,4.0,0,,,101626.0,9.84,-0.17,0.85,0.46,3.5,15.1,11.0,35.27,,,,,,,,,,
13.23.28.188,-22.0,5.5,0,,,101626.0,9.84,-0.24,0.61,0.48,-1.9,11.5,-0.7,35.42,,,,,,,,,,
13.23.28.199,-27.4,6.8,0,,,101626.0,9.84,-0.12,0.7,0.46,6.0,15.9,-11.2,35.16,,,,,,,,,,
13.23.28.207,-25.6,6.4,0,,,101626.0,9.84,-0.31,0.77,0.5,8.9,8.0,-4.1,35.3,,,,,,,,,,
13.23.28.217,-40.9,10.2,0,,,101626.0,9.84,-0.36,0.54,0.27,-0.0,11.1,-3.3,34.75,,,,,,,,,,
13.23.28.226,-33.2,8.3,0,,,101626.0,9.84,-0.23,0.65,0.42,-8.7,-2.4,-8.3,34.55,,,,,,,,,,
13.23.28.236,-41.7,10.4,0,,,101626.0,9.84,-0.29,0.62,0.48,-0.1,-13.5,17.1,35.05,,,,,,,,,,
13.23.28.245,-38.5,9.6,0,,,101626.0,9.84,-0.37,0.67,0.6,7.2,-3.7,6.1,35.38,,,,,,,,,,
13.23.28.256,-42.3,10.6,0,,,101626.0,9.84,-0.27,0.58,0.48,40.2,-4.3,10.6,35.13,,,,,,,,,,
13.23.28.266,-50.4,12.6,0,,,101626.0,9.84,-0.2,0.71,0.34,8.9,9.4,4.8,35.04,,,,,,,,,,
13.23.28.278,-49.2,12.3,0,,,101626.0,9.84,-0.21,0.67,0.39,-11.0,11.3,-1.5,35.24,,,,,,,,,,
13.23.28.290,-55.8,14.0,0,,,101626.0,9.84,-0.26,0.75,0.42,11.9,-16.6,1.3,35.18,,,,,,,,,,
13.23.28.300,-54.8,13.7,0,,,101626.0,9.84,-0.21,0.59,0.34,-18.2,6.0,-9.6,35.14,,,,,,,,,,
13.23.28.310,-66.2,16.6,0,,,101626.0,9.84,-0.36,0.42,0.32,20.8,8.6,-18.4,34.91,,,,,,,,,,
13.23.28.318,-63.4,15.8,0,,,101626.0,9.84,-0.31,0.66,0.39,-10.1,-0.0,-2.9,35.45,,,,,,,,,,
13.23.28.327,-54.2,13.6,0,,,101626.0,9.84,-0.37,0.74,0.37,22.3,25.2,-11.8,35.0,,,,,,,,,,
13.23.28.338,-57.7,14.4,0,,,101626.0,9.84,-0.28,0.79,0.43,-6.5,9.5,10.2,35.24,,,,,,,,,,
13.23.28.348,-71.0,17.8,0,,,101626.0,9.84,-0.13,0.7,0.41,-24.5,8.3,-14.7,35.33,,,,,,,,,,
13.23.28.357,-79.9,20.0,0,,,101626.0,9.84,-0.18,0.58,0.39,3.4,9.6,2.3,35.29,,,,,,,,,,
13.23.28.366,-80.6,20.2,0,,,101626.0,9.84,-0.21,0.78,0.4,3.7,0.6,-3.9,35.55,,,,,,,,,,
13.23.28.376,-84.4,21.1,0,,,101626.0,9.84,-0.26,0.58,0.41,19.2,5.1,7.1,35.07,,,,,,,,,,
13.23.28.385,-78.3,19.6,0,,,101626.0,9.84,-0.35,0.48,0.54,7.8,-3.1,4.2,35.4,,,,,,,,,,
13.23.28.395,-90.0,22.5,0,,,101626.0,9.84,-0.39,0.78,0.52,3.5,32.2,8.1,35.48,,,,,,,,,,
13.23.28.405,-80.2,20.0,0,,,101626.0,9.84,-0.23,0.53,0.39,-9.0,15.3,-3.3,35.33,,,,,,,,,,
13.23.28.416,-97.4,24.4,0,,,101626.0,9.84,-0.26,0.81,0.5,-3.2,10.9,-3.0,35.4,,,,,,,,,,
13.23.28.424,-87.0,21.8,0,,,101626.0,9.84,-0.31,0.79,0.49,-4.1,19.8,-5.7,34.7,,,,,,,,,,
13.23.28.435,-105.4,26.4,0,,,101626.0,9.84,-0.3,0.55,0.45,-1.3,-0.3,-10.3,35.36,,,,,,,,,,
13.23.28.445,-90.3,22.6,0,,,101626.0,9.84,-0.23,0.52,0.58,3.8,19.2,7.5,35.15,,,,,,,,,,
13.23.28.454,-104.4,26.1,0,,,101626.0,9.84,-0.21,0.61,0.46,-18.3,-3.6,7.1,35.05,,,,,,,,,,
13.23.28.464,-121.4,30.4,0,,,101626.0,9.84,-0.33,0.7,0.42,-27.9,24.3,-5.3,34.98,,,,,,,,,,
13.23.28.471,-109.2,27.3,0,,,101626.0,9.84,-0.35,0.47,0.43,2.6,-7.3,-7.1,35.05,,,,,,,,,,
13.23.28.482,-115.9,29.0,0,,,101626.0,9.84,-0.3,0.77,0.53,-1.1,-3.3,11.8,35.51,,,,,,,,,,
13.23.28.490,-112.5,28.1,0,,,101626.0,9.84,-0.2,0.53,0.4,-0.3,2.2,4.2,35.47,,,,,,,,,,
13.23.28.501,-125.2,31.3,0,,,101626.0,9.84,-0.21,0.59,0.34,-1.1,20.0,10.2,35.5,,,,,,,,,,
13.23.28.511,-126.1,31.5,0,,,101626.0,9.84,-0.3,0.5,0.47,-6.7,16.4,4.6,35.07,,,,,,,,,,
13.23.28.521,-120.7,30.2,0,,,101626.0,9.84,-0.38,0.6,0.46,16.3,12.6,-6.1,35.55,,,,,,,,,,
13.23.28.531,-124.4,31.1,0,,,101626.0,9.84,-0.21,0.57,0.52,7.8,10.0,-9.2,35.05,,,,,,,,,,
13.23.28.542,-118.5,29.6,0,,,101626.0,9.84,-0.06,0.76,0.54,10.5,25.3,-5.9,34.95,,,,,,,,,,
13.23.28.552,14.4,3.6,0,,,101626.0,9.84,-0.19,0.74,0.4,8.3,-0.0,7.9,35.31,,,,,,,,,,
13.23.28.562,63.3,15.8,0,,,101626.0,9.84,-0.2,0.67,0.37,-14.8,-3.6,-0.3,35.08,,,,,,,,,,
13.23.28.569,76.0,19.0,0,,,101626.0,9.84,-0.4,0.56,0.34,23.9,5.6,-0.7,35.27,,,,,,,,,,
13.23.28.581,120.6,30.2,0,,,101626.0,9.84,-0.17,0.68,0.45,-15.9,5.3,-10.3,35.25,,,,,,,,,,
13.23.28.590,137.9,34.5,0,,,101626.0,9.84,-0.28,0.47,0.38,5.0,1.7,-7.8,35.15,,,,,,,,,,
13.23.28.602,171.1,42.8,0,,,101626.0,9.84,-0.19,0.82,0.35,-5.8,13.3,13.2,35.24,,,,,,,,,,
13.23.28.612,187.5,46.9,0,,,101626.0,9.84,-0.25,0.63,0.47,31.2,19.3,-4.4,35.1,,,,,,,,,,
13.23.28.623,197.1,49.3,0,,,101626.0,9.84,-0.32,0.51,0.38,0.8,12.5,2.3,34.97,,,,,,,,,,
13.23.28.632,217.3,54.3,0,,,101626.0,9.84,-0.28,0.6,0.49,-3.9,-11.8,-9.4,35.22,,,,,,,,,,
13.23.28.640,272.8,68.2,0,,,101626.0,9.84,-0.24,0.52,0.31,9.1,14.3,2.7,35.28,,,,,,,,,,
13.23.28.650,293.9,73.5,0,,,101626.0,9.84,-0.33,0.5,0.53,-16.1,6.2,-5.2,35.12,,,,,,,,,,
13.23.28.661,295.0,73.8,0,,,101626.0,9.84,-0.27,0.74,0.44,-24.8,2.8,18.9,35.03,,,,,,,,,,
13.23.28.669,294.0,73.5,0,,,101626.0,9.84,-0.22,0.55,0.53,-9.3,4.0,-6.3,35.24,,,,,,,,,,
13.23.28.678,304.7,76.2,0,,,101626.0,9.84,-0.4,0.72,0.5,14.2,25.1,2.0,35.06,,,,,,,,,,
13.23.28.689,295.6,73.9,0,,,101626.0,9.84,-0.45,0.65,0.41,-10.7,12.2,14.0,35.15,,,,,,,,,,
13.23.28.700,274.4,68.6,0,,,101626.0,9.84,-0.25,0.68,0.5,5.1,12.5,10.9,35.23,,,,,,,,,,
13.23.28.709,349.1,87.3,0,,,101626.0,9.84,-0.22,0.62,0.49,-6.0,-4.6,-1.8,35.18,,,,,,,,,,
13.23.28.717,316.0,79.0,0,,,101626.0,9.84,-0.28,0.77,0.35,-15.3,9.5,-15.3,35.15,,,,,,,,,,
13.23.28.727,314.6,78.6,0,,,101626.0,9.84,-0.31,0.7,0.32,1.3,11.5,-4.3,35.05,,,,,,,,,,
13.23.28.737,293.1,73.3,0,,,101626.0,9.84,-0.14,0.61,0.51,0.6,23.9,11.1,35.06,,,,,,,,,,
13.23.28.747,314.9,78.7,0,,,101626.0,9.84,-0.16,0.73,0.35,19.5,14.9,-4.0,35.01,,,,,,,,,,
13.23.28.759,279.1,69.8,0,,,101626.0,9.84,-0.43,0.55,0.53,-7.8,1.7,-7.2,35.26,,,,,,,,,,
13.23.28.769,270.8,67.7,0,,,101626.0,9.84,-0.24,0.68,0.39,-19.7,6.8,5.5,35.25,,,,,,,,,,
13.23.28.779,268.5,67.1,0,,,101626.0,9.84,-0.38,0.62,0.42,4.8,1.2,6.5,35.35,,,,,,,,,,
13.23.28.788,233.2,58.3,0,,,101626.0,9.84,-0.46,0.49,0.42,17.5,7.2,-16.3,36.1,,,,,,,,,,
13.23.28.798,214.4,53.6,0,,,101626.0,9.84,-0.21,0.67,0.43,3.3,9.0,-12.8,35.31,,,,,,,,,,
13.23.28.806,222.1,55.5,0,,,101626.0,9.84,-0.29,0.55,0.51,-3.8,22.7,5.7,34.92,,,,,,,,,,
13.23.28.816,187.6,46.9,1,13.0,61.8,101626.0,9.84,-0.34,0.69,0.4,7.2,19.2,12.4,35.59,,,,,,,,,,
13.23.28.825,139.2,34.8,0,,,101626.0,9.84,-0.16,0.76,0.47,4.6,-15.7,-2.6,35.34,,,,,,,,,,
13.23.28.835,129.0,32.2,0,,,101729.4,9.83,-0.18,0.6,0.42,-10.8,2.4,5.4,35.17,,,,,,,,,,
13.23.28.844,103.6,25.9,0,,,101729.4,9.83,-0.29,0.64,0.53,8.3,23.2,1.6,35.3,,,,,,,,,,
13.23.28.854,86.7,21.7,0,,,101729.4,9.83,-0.27,0.55,0.4,-9.5,8.3,-5.3,34.81,,,,,,,,,,
13.23.28.863,50.7,12.7,0,,,101729.4,9.83,-0.36,0.73,0.5,-3.2,12.5,-5.4,34.72,,,,,,,,,,
13.23.28.873,19.1,4.8,0,,,101729.4,9.83,-0.26,0.58,0.5,-10.9,2.8,5.0,35.6,,,,,,,,,,
13.23.28.882,2.9,0.7,0,,,101729.4,9.83,-0.32,0.68,0.39,1.9,20.5,-1.6,35.21,,,,,,,,,,
13.23.28.890,6.0,1.5,0,,,101729.4,9.83,-0.48,0.72,0.31,-10.8,-7.7,4.6,35.13,,,,,,,,,,
13.23.28.901,25.8,6.4,0,,,101729.4,9.83,-0.27,0.64,0.54,-5.1,10.9,-21.2,35.23,,,,,,,,,,
13.23.28.910,28.2,7.0,0,,,101729.4,9.83,-0.25,0.42,0.31,22.5,2.1,-11.4,35.22,,,,,,,,,,
13.23.28.919,33.8,8.4,0,,,101729.4,9.83,-0.24,0.68,0.46,22.8,-6.8,12.2,35.17,,,,,,,,,,
13.23.28.930,35.4,8.8,0,,,101729.4,9.83,-0.28,0.7,0.56,1.3,1.7,-0.4,34.65,,,,,,,,,,
13.23.28.939,48.7,12.2,0,,,101729.4,9.83,-0.3,0.71,0.5,-3.5,16.9,8.2,35.51,,,,,,,,,,
13.23.28.946,53.8,13.4,0,,,101729.4,9.83,-0.37,0.55,0.37,-16.7,8.5,16.7,35.4,,,,,,,,,,
13.23.28.956,50.6,12.6,0,,,101729.4,9.83,-0.19,0.65,0.55,15.5,-7.1,2.5,35.24,,,,,,,,,,
13.23.28.966,58.2,14.6,0,,,101729.4,9.83,-0.25,0.56,0.56,9.8,1.6,-1.7,35.5,,,,,,,,,,
13.23.28.974,52.9,13.2,0,,,101729.4,9.83,-0.38,0.6,0.56,-0.4,3.0,-9.3,34.99,,,,,,,,,,
13.23.28.984,52.7,13.2,0,,,101729.4,9.83,-0.03,0.58,0.6,-17.3,-8.1,0.5,35.32,,,,,,,,,,
13.23.28.995,54.0,13.5,0,,,101729.4,9.83,-0.27,0.67,0.26,19.5,10.4,-7.7,34.83,,,,,,,,,,
13.23.29.004,50.4,12.6,0,,,101729.4,9.83,-0.15,0.59,0.36,-12.0,4.3,-2.4,35.6,,,,,,,,,,
13.23.29.013,47.9,12.0,0,,,101729.4,9.83,-0.28,0.7,0.46,2.7,-16.1,-4.0,35.43,,,,,,,,,,
13.23.29.023,36.5,9.1,0,,,101729.4,9.83,-0.3,0.6,0.39,-9.5,20.0,3.6,35.31,,,,,,,,,,
13.23.29.033,46.8,11.7,0,,,101729.4,9.83,-0.31,0.66,0.4,11.9,14.4,1.5,35.29,,,,,,,,,,
13.23.29.045,30.6,7.6,0,,,101729.4,9.83,-0.33,0.65,0.41,-7.0,22.4,1.9,35.59,,,,,,,,,,
13.23.29.055,15.2,3.8,0,,,101729.4,9.83,-0.04,0.56,0.49,10.9,10.5,8.3,35.29,,,,,,,,,,
13.23.29.064,9.0,2.2,0,,,101729.4,9.83,-0.38,0.73,0.4,4.1,-6.1,14.2,35.66,,,,,,,,,,
13.23.29.075,0.4,0.1,0,,,101729.4,9.83,-0.29,0.56,0.36,25.9,-2.0,-4.8,35.39,,,,,,,,,,
13.23.29.084,1.3,0.3,0,,,101729.4,9.83,-0.22,0.7,0.47,-14.2,2.2,-17.4,35.2,,,,,,,,,,
13.23.29.093,-9.4,2.4,0,,,101729.4,9.83,-0.32,0.51,0.56,0.2,1.7,-4.0,35.8,,,,,,,,,,
13.23.29.100,-5.5,1.4,0,,,101729.4,9.83,-0.26,0.64,0.58,4.7,23.9,10.6,35.42,,,,,,,,,,
13.23.29.109,-11.5,2.9,0,,,101729.4,9.83,-0.2,0.57,0.33,-5.9,-0.5,-9.5,35.19,,,,,,,,,,
13.23.29.118,-27.9,7.0,0,,,101729.4,9.83,-0.23,0.64,0.38,-1.3,7.5,7.9,35.31,,,,,,,,,,
13.23.29.127,-24.5,6.1,0,,,101729.4,9.83,-0.19,0.62,0.52,4.3,-1.1,-0.9,35.03,,,,,,,,,,
13.23.29.135,-17.1,4.3,0,,,101729.4,9.83,-0.32,0.64,0.31,4.9,5.7,10.8,35.2,,,,,,,,,,
13.23.29.146,-18.5,4.6,0,,,101729.4,9.83,-0.28,0.51,0.38,-3.6,13.3,4.7,34.95,,,,,,,,,,
13.23.29.156,-30.8,7.7,0,,,101729.4,9.83,-0.14,0.84,0.43,-2.7,3.6,-1.6,34.88,,,,,,,,,,
13.23.29.165,-22.5,5.6,0,,,101729.4,9.83,-0.33,0.53,0.41,7.4,19.3,-11.4,35.04,,,,,,,,,,
13.23.29.175,-27.1,6.8,0,,,101729.4,9.83,-0.26,0.84,0.49,-10.6,16.9,-18.8,34.88,,,,,,,,,,
13.23.29.186,-28.4,7.1,0,,,101729.4,9.83,-0.23,0.77,0.57,-21.1,-0.2,0.1,35.4,,,,,,,,,,
13.23.29.196,-37.5,9.4,0,,,101729.4,9.83,-0.24,0.65,0.43,12.6,8.9,-19.9,35.04,,,,,,,,,,
13.23.29.207,-44.4,11.1,0,,,101729.4,9.83,-0.24,0.74,0.5,-2.0,-5.2,-8.7,34.71,,,,,,,,,,
