timestamp,ppg,threshold,beat,beat_count,inst_bpm,gsr_resistance_ohm,gsr_conductance_us,accel_x,accel_y,accel_z,gyro_x,gyro_y,gyro_z,temp_c,window_bpm,window_temp_c,status_message,SpO2,bmi,age,height,weight,env_temp_c,env_humidity_pct
15.19.00.000,0.0,0.0,0,,,86505.2,11.56,-0.19,-0.25,-0.57,-5.2,15.0,11.5,35.5,79.2,,,,21.1,20.0,172.72,63.0,31.44,45.0
15.19.00.010,63.9,16.0,0,,,86505.2,11.56,-0.95,0.14,0.14,-17.3,-0.6,9.1,35.0,,,,,,,,,,
15.19.00.021,107.5,26.9,0,,,86505.2,11.56,-0.44,0.2,-0.39,-23.2,33.8,-14.7,35.19,,,,,,,,,,
15.19.00.028,142.9,35.7,0,,,86505.2,11.56,-0.88,-0.06,-0.38,6.2,-16.9,8.7,35.11,,,,,,,,,,
15.19.00.039,172.5,43.1,0,,,86505.2,11.56,-0.81,0.11,-0.36,25.2,2.0,8.8,35.26,,,,,,,,,,
15.19.00.048,206.8,51.7,0,,,86505.2,11.56,-0.55,0.3,-0.13,-38.9,4.3,-0.5,35.58,,,,,,,,,,
15.19.00.058,275.3,68.8,0,,,86505.2,11.56,-0.54,-0.31,-0.01,23.4,5.2,-24.2,35.36,,,,,,,,,,
15.19.00.067,255.1,63.8,0,,,86505.2,11.56,-0.61,0.03,0.06,-9.4,-36.5,-16.8,35.2,,,,,,,,,,
15.19.00.075,306.5,76.6,0,,,86505.2,11.56,-0.67,0.1,-0.53,13.6,-4.3,-3.2,35.55,,,,,,,,,,
15.19.00.085,326.0,81.5,0,,,86505.2,11.56,-0.8,0.08,-0.09,12.6,13.8,-17.8,35.15,,,,,,,,,,
15.19.00.093,350.2,87.6,0,,,86505.2,11.56,-0.6,-0.07,0.43,47.2,13.2,-15.5,35.13,,,,,,,,,,
15.19.00.101,379.4,94.8,0,,,86505.2,11.56,-0.94,0.34,-0.47,44.7,-2.8,-0.8,35.47,,,,,,,,,,
15.19.00.111,379.9,95.0,0,,,86505.2,11.56,-0.71,0.04,-0.19,11.1,10.7,10.9,35.29,,,,,,,,,,
15.19.00.122,408.5,102.1,0,,,86505.2,11.56,-0.75,-0.26,0.02,-23.3,-3.2,8.6,35.09,,,,,,,,,,
15.19.00.133,414.0,103.5,0,,,86505.2,11.56,-0.71,-0.1,0.12,16.7,0.3,15.8,35.0,,,,,,,,,,
15.19.00.141,399.5,99.9,0,,,86505.2,11.56,-0.65,-0.28,0.14,11.0,-1.7,10.9,34.94,,,,,,,,,,
15.19.00.150,401.4,100.4,0,,,86505.2,11.56,-0.86,0.07,-0.0,-45.1,-3.4,-10.5,34.79,,,,,,,,,,
15.19.00.160,411.5,102.9,0,,,86505.2,11.56,-0.46,0.13,-0.37,-2.3,-8.6,19.0,35.15,,,,,,,,,,
15.19.00.170,332.8,83.2,0,,,86505.2,11.56,-0.4,-0.03,0.11,48.9,-14.4,19.0,34.73,,,,,,,,,,
15.19.00.181,354.4,88.6,0,,,86505.2,11.56,-0.9,-0.73,-0.07,-15.3,31.9,31.2,35.5,,,,,,,,,,
15.19.00.191,321.9,80.5,0,,,86505.2,11.56,-0.47,0.03,-0.18,-37.5,-6.4,9.9,35.24,,,,,,,,,,
15.19.00.202,276.1,69.0,0,,,86505.2,11.56,-0.61,-0.84,-0.12,-26.5,19.1,-4.0,35.01,,,,,,,,,,
15.19.00.211,261.3,65.3,0,,,86505.2,11.56,-0.63,-0.13,-0.12,-51.8,-20.2,-12.4,35.4,,,,,,,,,,
15.19.00.220,189.3,47.3,0,,,86505.2,11.56,-0.54,0.05,-0.22,30.6,-11.8,29.9,35.15,,,,,,,,,,
15.19.00.231,161.7,40.4,0,,,86505.2,11.56,-0.27,-0.06,-0.51,-6.7,12.8,-1.7,35.73,,,,,,,,,,
15.19.00.242,89.5,22.4,0,,,86505.2,11.56,-0.45,-0.34,-0.77,9.0,-3.4,-20.4,35.35,,,,,,,,,,
15.19.00.252,78.7,19.7,0,,,86430.4,11.57,-0.51,-0.22,0.02,5.7,3.3,8.7,34.97,,,,,,,,,,
15.19.00.263,9.2,2.3,0,,,86430.4,11.57,-0.69,-0.51,-0.37,40.7,23.1,-9.0,35.12,,,,,,,,,,
15.19.00.271,11.4,2.8,0,,,86430.4,11.57,-0.31,-0.33,-0.48,42.8,16.9,14.7,34.94,,,,,,,,,,
15.19.00.281,20.6,5.2,0,,,86430.4,11.57,-0.48,-0.38,-0.93,0.8,14.8,-16.1,35.31,,,,,,,,,,
15.19.00.292,18.2,4.6,0,,,86430.4,11.57,-0.54,-0.43,-0.23,-30.3,8.6,7.1,35.17,,,,,,,,,,
15.19.00.303,32.0,8.0,0,,,86430.4,11.57,-0.43,-0.33,-0.38,-19.7,-21.0,-0.3,35.38,,,,,,,,,,
15.19.00.312,58.6,14.6,0,,,86430.4,11.57,-0.59,0.27,-0.66,21.8,38.2,-10.2,35.18,,,,,,,,,,
15.19.00.320,49.0,12.2,0,,,86430.4,11.57,-0.42,-0.55,-0.43,-20.1,-3.0,-13.0,35.38,,,,,,,,,,
15.19.00.331,65.8,16.4,0,,,86430.4,11.57,-0.47,-0.08,0.08,43.1,14.7,20.0,35.16,,,,,,,,,,
15.19.00.342,87.5,21.9,0,,,86430.4,11.57,-0.57,-0.38,-0.46,-35.5,33.4,0.9,35.61,,,,,,,,,,
15.19.00.351,64.7,16.2,0,,,86430.4,11.57,-0.74,-0.14,-0.91,-12.1,7.8,-31.2,34.9,,,,,,,,,,
15.19.00.358,62.5,15.6,0,,,86430.4,11.57,-0.49,-0.8,-0.51,14.8,21.8,-16.6,34.95,,,,,,,,,,
15.19.00.370,60.3,15.1,0,,,86430.4,11.57,-0.48,-0.05,0.26,2.7,16.0,-21.5,34.86,,,,,,,,,,
15.19.00.379,77.8,19.4,0,,,86430.4,11.57,-0.68,-0.1,-0.81,-13.3,17.5,18.1,35.4,,,,,,,,,,
15.19.00.387,56.8,14.2,0,,,86430.4,11.57,-0.92,-0.49,-0.69,-6.7,8.4,7.3,34.83,,,,,,,,,,
15.19.00.396,18.7,4.7,0,,,86430.4,11.57,-0.74,-0.08,-0.35,10.6,17.8,-7.4,35.33,,,,,,,,,,
15.19.00.407,-6.2,1.6,0,,,86430.4,11.57,-0.69,-0.63,-0.55,-14.0,-21.7,3.5,35.62,,,,,,,,,,
15.19.00.420,17.2,4.3,0,,,86430.4,11.57,-0.78,-0.09,-0.69,-21.2,2.1,2.5,35.04,,,,,,,,,,
15.19.00.430,17.0,4.2,0,,,86430.4,11.57,-0.84,-0.72,-0.36,-7.4,-3.7,-9.0,35.28,,,,,,,,,,
15.19.00.439,7.2,1.8,0,,,86430.4,11.57,-0.39,-0.44,-0.75,0.1,-17.5,9.5,35.29,,,,,,,,,,
15.19.00.450,-17.2,4.3,0,,,86430.4,11.57,-0.26,-0.08,-0.26,11.5,-19.9,-14.5,35.25,,,,,,,,,,
15.19.00.459,-25.9,6.5,0,,,86430.4,11.57,-0.65,-0.51,0.04,-22.7,45.2,-0.6,34.83,,,,,,,,,,
15.19.00.466,-27.4,6.8,0,,,86430.4,11.57,-0.44,-0.09,-0.21,4.2,12.5,-6.2,35.15,,,,,,,,,,
15.19.00.475,-49.2,12.3,0,,,86430.4,11.57,-0.69,-0.29,-0.08,28.3,21.7,-7.3,35.36,,,,,,,,,,
15.19.00.485,-30.6,7.6,0,,,86430.4,11.57,-0.65,-0.09,-0.04,25.5,-12.2,12.4,35.34,,,,,,,,,,
15.19.00.495,-69.3,17.3,0,,,86430.4,11.57,-1.04,-0.35,0.06,9.3,-4.9,11.7,35.38,,,,,,,,,,
15.19.00.503,-55.7,13.9,0,,,86430.4,11.57,-0.56,-0.42,-0.13,-30.6,4.0,-1.1,35.35,,,,,,,,,,
15.19.00.514,-42.7,10.7,0,,,86430.4,11.57,-0.67,-0.07,0.1,10.8,-14.3,11.6,35.21,,,,,,,,,,
15.19.00.524,-27.7,6.9,0,,,86430.4,11.57,-0.74,0.05,-0.27,-27.1,25.3,-21.2,35.0,,,,,,,,,,
15.19.00.535,-64.1,16.0,0,,,86430.4,11.57,-0.91,-0.34,-0.41,22.7,39.1,-14.8,35.38,,,,,,,,,,
15.19.00.545,-45.8,11.4,0,,,86430.4,11.57,-0.7,-0.49,-0.69,34.3,-22.2,0.4,34.86,,,,,,,,,,
15.19.00.554,-47.4,11.8,0,,,86430.4,11.57,-0.57,0.03,0.02,10.7,4.4,37.4,35.32,,,,,,,,,,
15.19.00.564,-54.6,13.6,0,,,86430.4,11.57,-0.46,-0.36,-0.23,0.4,-4.7,-1.5,35.31,,,,,,,,,,
15.19.00.573,-59.4,14.8,0,,,86430.4,11.57,-0.98,-0.19,-0.52,-24.3,-35.0,-0.5,35.33,,,,,,,,,,
15.19.00.583,-57.6,14.4,0,,,86430.4,11.57,-0.59,-0.17,-0.16,-34.1,3.4,-31.1,35.22,,,,,,,,,,
15.19.00.592,-115.9,29.0,0,,,86430.4,11.57,-0.73,-0.39,-0.05,2.9,15.8,35.0,35.28,,,,,,,,,,
15.19.00.600,-74.6,18.6,0,,,86430.4,11.57,-1.04,-0.3,0.36,40.1,8.4,-18.0,35.29,,,,,,,,,,
15.19.00.606,-89.2,22.3,0,,,86430.4,11.57,-0.74,-0.33,-0.12,-16.5,-25.1,-12.1,35.21,,,,,,,,,,
15.19.00.617,-88.2,22.0,0,,,86430.4,11.57,-0.68,-0.4,0.33,-23.3,41.4,6.5,35.17,,,,,,,,,,
15.19.00.628,-112.5,28.1,0,,,86430.4,11.57,-1.11,0.14,-0.28,-54.8,7.8,10.8,35.18,,,,,,,,,,
15.19.00.637,-113.7,28.4,0,,,86430.4,11.57,-0.68,-0.23,-0.34,26.1,32.1,-1.3,35.58,,,,,,,,,,
15.19.00.648,-136.6,34.2,0,,,86430.4,11.57,-0.66,-0.51,-0.25,-41.4,-15.1,-14.6,35.2,,,,,,,,,,
15.19.00.658,-132.0,33.0,0,,,86430.4,11.57,-0.87,0.45,-0.21,-45.8,2.7,-33.1,34.93,,,,,,,,,,
15.19.00.666,-97.7,24.4,0,,,86430.4,11.57,-0.72,0.18,-0.73,49.2,29.6,0.0,35.26,,,,,,,,,,
15.19.00.673,-138.8,34.7,0,,,86430.4,11.57,-0.63,-0.13,-0.48,20.6,-5.8,-1.2,35.43,,,,,,,,,,
15.19.00.682,-123.1,30.8,0,,,86430.4,11.57,-0.83,-0.25,-0.57,42.4,0.7,-2.6,35.28,,,,,,,,,,
15.19.00.693,-123.9,31.0,0,,,86430.4,11.57,-0.76,-0.19,-0.91,-28.4,24.1,7.7,35.08,,,,,,,,,,
15.19.00.702,-139.0,34.8,0,,,86430.4,11.57,-0.55,-0.07,-0.34,-7.3,12.7,-15.7,35.17,,,,,,,,,,
15.19.00.711,-142.9,35.7,0,,,86430.4,11.57,-0.64,-0.23,-0.19,27.2,38.3,-5.0,35.07,,,,,,,,,,
15.19.00.722,-171.0,42.8,0,,,86430.4,11.57,-1.12,0.24,-0.35,10.7,21.7,1.4,35.56,,,,,,,,,,
15.19.00.731,-159.1,39.8,0,,,86430.4,11.57,-0.9,-0.26,-0.34,31.2,31.7,5.2,35.28,,,,,,,,,,
15.19.00.740,-145.3,36.3,0,,,86430.4,11.57,-0.64,-0.35,-0.56,5.7,18.9,-13.0,35.23,,,,,,,,,,
15.19.00.750,-146.8,36.7,0,,,86430.4,11.57,-0.57,0.38,-0.36,-32.1,6.4,15.6,35.32,,,,,,,,,,
15.19.00.760,-177.0,44.2,0,,,86430.4,11.57,-0.77,0.07,-0.34,-37.8,26.1,-31.4,35.1,,,,,,,,,,
15.19.00.769,-13.9,3.5,1,1.0,,86430.4,11.57,-0.7,-0.13,-0.32,-10.0,38.9,-4.1,35.05,,,,,,,,,,
15.19.00.780,46.9,11.7,0,,,86430.4,11.57,-0.96,0.07,-0.71,20.6,-5.1,2.0,35.41,,,,,,,,,,
15.19.00.790,110.1,27.5,0,,,86430.4,11.57,-0.81,-0.02,-0.5,-28.7,-2.9,-2.8,35.0,,,,,,,,,,
15.19.00.801,129.5,32.4,0,,,86430.4,11.57,-0.38,-0.48,-0.68,44.3,-24.5,-20.1,34.73,,,,,,,,,,
15.19.00.810,181.6,45.4,0,,,86430.4,11.57,-1.0,-0.1,-0.5,-28.5,7.8,3.2,35.04,,,,,,,,,,
15.19.00.821,228.3,57.1,0,,,86430.4,11.57,-0.76,0.32,-0.09,4.1,45.8,-7.1,34.97,,,,,,,,,,
15.19.00.829,255.3,63.8,0,,,86430.4,11.57,-0.66,-0.03,-0.02,27.3,7.5,2.0,34.89,,,,,,,,,,
15.19.00.839,257.5,64.4,0,,,86430.4,11.57,-0.94,0.41,-0.24,-33.0,17.7,-13.5,35.35,,,,,,,,,,
15.19.00.849,332.4,83.1,0,,,86430.4,11.57,-0.85,-0.1,-0.06,34.4,-9.0,-3.4,35.09,,,,,,,,,,
15.19.00.858,312.7,78.2,0,,,86430.4,11.57,-0.91,0.3,-0.44,-0.8,5.4,-28.2,34.56,,,,,,,,,,
15.19.00.869,391.5,97.9,0,,,86430.4,11.57,-0.73,0.45,-0.4,13.1,-18.8,-5.5,35.8,,,,,,,,,,
15.19.00.878,402.7,100.7,0,,,86430.4,11.57,-0.51,0.07,-0.44,8.3,6.5,4.6,35.38,,,,,,,,,,
15.19.00.886,436.9,109.2,0,,,86430.4,11.57,-0.71,0.01,-0.23,-1.6,1.1,-5.7,34.74,,,,,,,,,,
15.19.00.897,390.4,97.6,0,,,86430.4,11.57,-1.24,-0.42,-0.48,-30.2,-33.8,-16.2,35.51,,,,,,,,,,
15.19.00.909,393.5,98.4,0,,,86430.4,11.57,-0.9,-0.12,-0.14,-3.2,22.4,-1.9,35.49,,,,,,,,,,
15.19.00.919,379.9,95.0,0,,,86430.4,11.57,-1.06,-0.07,-0.4,-11.9,-11.7,34.4,35.23,,,,,,,,,,
15.19.00.931,432.6,108.2,0,,,86430.4,11.57,-0.47,-0.46,0.06,-16.3,-1.2,13.9,34.87,,,,,,,,,,
15.19.00.942,357.8,89.4,0,,,86430.4,11.57,-0.61,0.35,-0.36,20.5,-3.5,23.4,35.02,,,,,,,,,,
15.19.00.952,316.0,79.0,0,,,86430.4,11.57,-0.46,-0.05,0.38,28.6,16.2,-11.9,34.97,,,,,,,,,,
15.19.00.962,286.9,71.7,0,,,86430.4,11.57,-0.5,0.02,-0.32,28.1,5.2,20.6,35.21,,,,,,,,,,
15.19.00.973,282.6,70.6,0,,,86430.4,11.57,-0.98,0.36,0.14,-2.7,15.9,6.1,35.21,,,,,,,,,,
15.19.00.983,242.7,60.7,0,,,86430.4,11.57,-0.57,-0.26,-0.46,-45.3,13.3,-4.4,34.73,,,,,,,,,,
15.19.00.992,188.5,47.1,0,,,86430.4,11.57,-0.61,0.04,-0.13,48.0,-3.4,-8.6,35.45,,,,,,,,,,
15.19.01.002,179.9,45.0,0,,,86430.4,11.57,-0.37,0.21,-0.36,-37.0,41.6,-12.8,35.17,,,,,,,,,,
15.19.01.013,119.7,29.9,0,,,86430.4,11.57,-0.5,0.19,-0.25,11.3,23.2,-3.0,35.16,,,,,,,,,,
15.19.01.025,42.4,10.6,0,,,86430.4,11.57,-0.59,0.57,0.1,8.3,-28.3,-0.9,35.16,,,,,,,,,,
15.19.01.034,19.4,4.8,0,,,86430.4,11.57,-0.68,0.21,-0.23,-19.4,-7.8,-36.1,35.28,,,,,,,,,,
15.19.01.043,38.1,9.5,0,,,86430.4,11.57,-0.45,-0.23,-0.39,17.1,1.3,-22.6,35.29,,,,,,,,,,
15.19.01.053,38.0,9.5,0,,,86430.4,11.57,-0.39,0.31,-0.21,6.4,17.2,-16.5,35.09,,,,,,,,,,
15.19.01.061,39.7,9.9,0,,,86430.4,11.57,-0.45,-0.18,-0.01,55.2,11.9,6.8,35.15,,,,,,,,,,
15.19.01.071,69.2,17.3,0,,,86430.4,11.57,-0.08,0.07,0.09,-1.1,-3.9,-20.6,35.34,,,,,,,,,,
15.19.01.078,22.0,5.5,0,,,86430.4,11.57,-0.39,-0.82,-0.24,25.2,7.4,13.0,35.44,,,,,,,,,,
15.19.01.087,65.5,16.4,0,,,86430.4,11.57,-0.6,-0.16,-0.35,54.2,-2.4,-1.9,34.76,,,,,,,,,,
15.19.01.097,75.8,19.0,0,,,86430.4,11.57,-0.15,0.11,-0.3,-5.2,-3.0,-22.8,35.21,,,,,,,,,,
15.19.01.106,115.4,28.8,0,,,86430.4,11.57,-0.62,0.15,-0.11,34.6,-6.3,10.0,35.14,,,,,,,,,,
15.19.01.117,85.8,21.4,0,,,86430.4,11.57,-0.38,-0.04,-0.39,3.6,53.6,-6.2,35.32,,,,,,,,,,
15.19.01.126,59.5,14.9,0,,,86430.4,11.57,-0.69,-0.02,-0.72,-13.1,-13.7,-3.6,35.16,,,,,,,,,,
15.19.01.138,59.5,14.9,0,,,86430.4,11.57,-0.44,-0.3,-0.54,-34.4,-29.1,8.2,35.4,,,,,,,,,,
15.19.01.146,105.4,26.4,0,,,86430.4,11.57,-0.52,-0.32,-0.2,-31.7,-5.2,0.8,35.46,,,,,,,,,,
15.19.01.154,42.2,10.6,0,,,86430.4,11.57,-0.69,-0.4,-0.39,-20.5,2.8,-29.7,34.87,,,,,,,,,,
15.19.01.165,46.8,11.7,0,,,86355.8,11.58,-0.35,-0.11,-0.53,-14.0,7.2,-12.7,35.08,,,,,,,,,,
15.19.01.177,-5.3,1.3,0,,,86355.8,11.58,-0.61,-0.05,-0.35,25.7,5.3,20.8,35.05,,,,,,,,,,
15.19.01.187,-22.3,5.6,0,,,86355.8,11.58,-0.65,-0.22,-0.28,-3.5,15.5,0.4,35.77,,,,,,,,,,
15.19.01.198,-13.5,3.4,0,,,86355.8,11.58,-0.66,-0.38,-0.16,-15.5,26.4,-11.0,35.21,,,,,,,,,,
15.19.01.208,18.3,4.6,0,,,86355.8,11.58,-0.63,-0.59,-0.03,-17.7,-21.4,15.9,35.44,,,,,,,,,,
15.19.01.218,22.1,5.5,0,,,86355.8,11.58,-0.56,-0.23,-0.76,-22.0,-5.6,-1.1,35.04,,,,,,,,,,
15.19.01.229,-30.6,7.6,0,,,86355.8,11.58,-0.67,-0.54,-0.5,4.0,17.1,-24.7,34.81,,,,,,,,,,
15.19.01.239,-20.5,5.1,0,,,86355.8,11.58,-0.81,-0.6,-0.3,-11.4,10.1,-13.5,35.03,,,,,,,,,,
15.19.01.249,-59.7,14.9,0,,,86355.8,11.58,-0.35,-0.62,-0.64,-16.3,1.1,-17.0,35.66,,,,,,,,,,
15.19.01.256,-40.3,10.1,0,,,86355.8,11.58,-0.4,-0.39,-0.2,-7.0,-7.4,7.6,34.76,,,,,,,,,,
15.19.01.266,-68.1,17.0,0,,,86355.8,11.58,-0.55,-0.59,-0.83,-26.1,9.2,-25.0,35.47,,,,,,,,,,
15.19.01.273,-42.1,10.5,0,,,86355.8,11.58,-0.91,-0.68,0.06,-21.6,15.0,10.2,35.04,,,,,,,,,,
15.19.01.280,-47.3,11.8,0,,,86355.8,11.58,-0.26,-0.22,-0.28,27.1,35.0,-13.2,35.17,,,,,,,,,,
15.19.01.291,-45.7,11.4,0,,,86355.8,11.58,-0.63,-0.18,-0.63,3.3,-17.7,19.0,35.2,,,,,,,,,,
15.19.01.301,-45.1,11.3,0,,,86355.8,11.58,-0.73,-0.39,-0.2,-3.1,24.5,-16.6,35.02,,,,,,,,,,
15.19.01.312,-68.5,17.1,0,,,86355.8,11.58,-0.84,-0.49,-0.7,31.2,24.7,6.8,35.49,,,,,,,,,,
15.19.01.322,-56.6,14.2,0,,,86355.8,11.58,-0.45,-0.92,-0.59,-17.1,23.8,22.8,35.15,,,,,,,,,,
15.19.01.330,-80.9,20.2,0,,,86355.8,11.58,-0.76,-0.43,-0.58,14.3,30.1,4.1,34.96,,,,,,,,,,
15.19.01.340,-46.8,11.7,0,,,86355.8,11.58,-0.46,-0.03,-0.3,-39.5,-0.8,9.7,35.35,,,,,,,,,,
15.19.01.350,-52.8,13.2,0,,,86355.8,11.58,-0.79,-0.11,-0.73,12.9,-6.6,-0.9,35.44,,,,,,,,,,
15.19.01.363,-81.9,20.5,0,,,86355.8,11.58,-0.6,-0.16,-0.55,53.0,-1.7,-36.3,35.31,,,,,,,,,,
15.19.01.374,-111.5,27.9,0,,,86355.8,11.58,-0.7,0.02,-0.37,-48.5,42.6,5.3,35.27,,,,,,,,,,
15.19.01.383,-124.0,31.0,0,,,86355.8,11.58,-0.56,-0.23,-0.53,30.4,27.3,7.2,35.55,,,,,,,,,,
15.19.01.394,-93.3,23.3,0,,,86355.8,11.58,-0.73,-0.62,-0.33,-34.0,7.3,-0.2,35.8,,,,,,,,,,
15.19.01.404,-74.2,18.6,0,,,86355.8,11.58,-0.71,-0.3,0.01,-12.6,-3.9,-11.7,35.22,,,,,,,,,,
15.19.01.415,-104.7,26.2,0,,,86355.8,11.58,-1.0,-0.58,0.46,-21.1,-4.8,7.6,34.94,,,,,,,,,,
15.19.01.424,-131.7,32.9,0,,,86355.8,11.58,-0.94,-0.7,-0.02,28.4,16.8,-15.7,35.32,,,,,,,,,,
15.19.01.435,-125.1,31.3,0,,,86355.8,11.58,-0.64,-0.47,0.29,2.5,7.9,7.3,34.9,,,,,,,,,,
15.19.01.444,-112.5,28.1,0,,,86355.8,11.58,-1.0,-0.38,-0.15,29.4,2.5,-20.7,35.12,,,,,,,,,,
15.19.01.453,-106.7,26.7,0,,,86355.8,11.58,-0.78,-0.41,-0.35,-10.5,-12.2,-4.7,35.17,,,,,,,,,,
15.19.01.463,-116.2,29.0,0,,,86355.8,11.58,-0.63,-0.12,0.12,-26.6,-25.1,4.3,35.51,,,,,,,,,,
15.19.01.473,-142.7,35.7,0,,,86355.8,11.58,-0.98,-0.06,-0.03,-6.6,-14.6,21.7,35.07,,,,,,,,,,
15.19.01.482,-135.9,34.0,0,,,86355.8,11.58,-0.73,-0.12,0.16,-0.6,27.9,0.9,34.9,,,,,,,,,,
15.19.01.491,-140.7,35.2,0,,,86355.8,11.58,-0.53,-0.74,-0.56,9.6,7.6,-0.8,35.17,,,,,,,,,,
15.19.01.500,-153.7,38.4,0,,,86355.8,11.58,-0.65,-0.71,0.47,6.2,14.6,0.1,35.74,,,,,,,,,,
15.19.01.512,-167.1,41.8,0,,,86355.8,11.58,-0.66,-0.27,0.06,-49.5,-5.7,-19.4,35.07,,,,,,,,,,
15.19.01.522,-179.3,44.8,1,2.0,79.7,86355.8,11.58,-0.66,-0.15,-0.81,-23.4,32.4,-5.1,35.72,,,,,,,,,,
15.19.01.532,-170.8,42.7,0,,,86355.8,11.58,-0.98,-0.3,0.09,29.4,38.0,10.7,35.18,,,,,,,,,,
15.19.01.542,37.0,9.2,0,,,86355.8,11.58,-0.7,-0.55,-0.04,-24.1,26.2,-23.4,34.83,,,,,,,,,,
15.19.01.554,109.0,27.2,0,,,86355.8,11.58,-1.02,-0.51,-0.4,-37.4,-13.2,16.5,35.1,,,,,,,,,,
15.19.01.564,114.5,28.6,0,,,86355.8,11.58,-1.08,-0.09,-0.48,35.1,20.2,-11.2,35.47,,,,,,,,,,
15.19.01.573,166.1,41.5,0,,,86355.8,11.58,-1.0,0.24,-0.44,-9.1,-14.8,-20.7,35.79,,,,,,,,,,
15.19.01.584,202.5,50.6,0,,,86355.8,11.58,-0.63,0.01,-0.38,19.5,-24.5,2.8,34.86,,,,,,,,,,
15.19.01.595,286.4,71.6,0,,,86355.8,11.58,-0.35,-0.06,-0.07,-26.3,30.4,20.3,34.99,,,,,,,,,,
15.19.01.604,262.1,65.5,0,,,86355.8,11.58,-0.64,-0.1,-0.09,-46.8,29.1,-2.1,35.52,,,,,,,,,,
15.19.01.614,311.4,77.8,0,,,86355.8,11.58,-0.89,-0.19,-0.55,-13.6,10.4,-13.1,35.22,,,,,,,,,,
15.19.01.623,390.2,97.6,0,,,86355.8,11.58,-0.58,-0.08,-0.68,21.7,17.7,-13.7,35.67,,,,,,,,,,
15.19.01.633,418.4,104.6,0,,,86355.8,11.58,-0.59,0.51,-0.53,1.2,34.4,-1.4,35.02,,,,,,,,,,
15.19.01.643,398.2,99.6,0,,,86355.8,11.58,-0.71,0.31,0.04,4.5,22.7,21.5,35.51,,,,,,,,,,
15.19.01.653,414.0,103.5,0,,,86355.8,11.58,-0.67,0.15,-0.59,30.8,1.9,-10.8,34.79,,,,,,,,,,
15.19.01.666,428.6,107.2,0,,,86355.8,11.58,-0.82,0.21,-0.7,26.2,-11.5,15.0,35.51,,,,,,,,,,
15.19.01.675,423.0,105.8,0,,,86355.8,11.58,-0.81,-0.35,-0.45,-16.0,-35.3,-17.4,35.2,,,,,,,,,,
15.19.01.685,464.7,116.2,0,,,86355.8,11.58,-0.58,-0.38,-0.96,-14.0,8.6,-10.5,34.85,,,,,,,,,,
15.19.01.697,393.1,98.3,0,,,86355.8,11.58,-0.86,0.3,0.11,-33.0,-5.6,16.6,34.9,,,,,,,,,,
15.19.01.708,359.0,89.8,0,,,86355.8,11.58,-0.46,0.35,-0.4,-10.5,2.3,-7.2,35.06,,,,,,,,,,
15.19.01.717,378.3,94.6,0,,,86355.8,11.58,-0.84,0.08,-0.67,9.6,7.1,0.2,35.46,,,,,,,,,,
15.19.01.727,337.2,84.3,0,,,86355.8,11.58,-0.28,-0.29,-0.94,15.2,-33.8,1.5,35.48,,,,,,,,,,
15.19.01.737,277.8,69.4,0,,,86355.8,11.58,-0.87,-0.26,-0.44,-8.4,19.2,-21.4,35.13,,,,,,,,,,
15.19.01.748,266.2,66.6,0,,,86355.8,11.58,-0.56,-0.05,-0.32,17.3,5.6,2.1,35.1,,,,,,,,,,
15.19.01.756,188.9,47.2,0,,,86355.8,11.58,-0.86,-0.04,-0.3,15.6,9.4,-10.3,35.67,,,,,,,,,,
15.19.01.764,186.1,46.5,0,,,86355.8,11.58,-1.15,0.02,-0.23,-32.4,17.3,-4.8,35.02,,,,,,,,,,
15.19.01.775,108.9,27.2,0,,,86355.8,11.58,-0.63,0.44,-0.37,6.9,25.0,19.3,35.38,,,,,,,,,,
15.19.01.784,69.7,17.4,0,,,86355.8,11.58,-0.77,0.25,-0.74,11.4,30.4,-2.9,35.78,,,,,,,,,,
15.19.01.794,24.5,6.1,0,,,86355.8,11.58,-0.49,0.11,0.18,-6.3,1.6,-0.4,35.25,,,,,,,,,,
15.19.01.804,3.3,0.8,0,,,86355.8,11.58,-0.78,-0.09,-0.43,5.1,-14.1,20.9,35.22,,,,,,,,,,
15.19.01.814,70.3,17.6,0,,,86355.8,11.58,-0.97,0.04,-0.52,-1.8,5.7,30.5,35.22,,,,,,,,,,
15.19.01.823,24.7,6.2,0,,,86355.8,11.58,-0.97,0.12,-0.63,-6.4,9.4,-20.5,35.54,,,,,,,,,,
15.19.01.834,50.6,12.6,0,,,86355.8,11.58,-0.94,0.06,-0.56,-42.2,-6.7,-1.0,35.7,,,,,,,,,,
15.19.01.844,32.4,8.1,0,,,86355.8,11.58,-0.82,0.43,-0.05,-43.3,0.4,-4.1,34.88,,,,,,,,,,
15.19.01.855,67.9,17.0,0,,,86355.8,11.58,-0.55,0.02,-0.03,-84.3,12.0,0.1,35.28,,,,,,,,,,
15.19.01.862,52.3,13.1,0,,,86355.8,11.58,-0.25,0.04,-0.7,-24.6,-15.9,13.9,35.24,,,,,,,,,,
15.19.01.873,65.6,16.4,0,,,86355.8,11.58,-0.74,-0.22,-0.36,-16.2,-0.8,-4.5,35.11,,,,,,,,,,
15.19.01.883,66.6,16.6,0,,,86355.8,11.58,-0.72,-0.14,0.01,48.9,5.5,-1.9,35.14,,,,,,,,,,
15.19.01.893,73.2,18.3,0,,,86355.8,11.58,-0.5,-0.22,0.09,14.4,-2.8,1.3,35.48,,,,,,,,,,
15.19.01.903,45.0,11.2,0,,,86355.8,11.58,-0.11,0.54,0.22,14.5,4.2,21.1,35.18,,,,,,,,,,
15.19.01.914,71.7,17.9,0,,,86355.8,11.58,-0.82,0.15,-0.49,37.0,-25.6,19.8,35.64,,,,,,,,,,
15.19.01.924,46.2,11.6,0,,,86355.8,11.58,-0.62,-0.17,-0.59,27.3,24.6,-6.1,35.47,,,,,,,,,,
15.19.01.934,6.9,1.7,0,,,86355.8,11.58,-0.35,-0.17,0.1,-10.0,10.7,-13.8,34.92,,,,,,,,,,
15.19.01.944,26.2,6.6,0,,,86355.8,11.58,-0.67,-0.31,-0.2,-59.4,33.3,-15.4,34.94,,,,,,,,,,
15.19.01.955,-15.4,3.8,0,,,86355.8,11.58,-0.59,0.02,-0.04,-18.7,-6.3,11.7,35.09,,,,,,,,,,
15.19.01.965,10.8,2.7,0,,,86355.8,11.58,-0.83,0.12,0.19,-42.6,-20.9,-3.0,35.7,,,,,,,,,,
15.19.01.975,33.2,8.3,0,,,86355.8,11.58,-0.15,0.02,-0.48,-5.0,-11.7,-10.3,35.23,,,,,,,,,,
15.19.01.983,-21.3,5.3,0,,,86355.8,11.58,-0.44,0.14,-0.49,-49.9,2.8,-22.4,35.32,,,,,,,,,,
15.19.01.993,-15.2,3.8,0,,,86355.8,11.58,-0.52,0.24,-0.23,-6.4,-24.9,24.4,34.65,,,,,,,,,,
15.19.02.002,5.3,1.3,0,,,86281.3,11.59,-0.35,-0.12,-0.25,16.3,9.0,3.6,35.04,,,,,,,,,,
15.19.02.013,-46.5,11.6,0,,,86281.3,11.59,-0.26,0.18,0.09,-2.4,-21.6,4.7,35.65,,,,,,,,,,
15.19.02.023,-35.1,8.8,0,,,86281.3,11.59,-0.52,0.02,-0.46,16.2,20.1,11.3,34.91,,,,,,,,,,
15.19.02.032,-23.8,6.0,0,,,86281.3,11.59,-0.44,0.46,-0.56,8.9,21.1,-8.3,35.15,,,,,,,,,,
15.19.02.042,-58.4,14.6,0,,,86281.3,11.59,-0.69,0.37,-0.74,25.0,6.5,-5.4,35.53,,,,,,,,,,
15.19.02.053,-45.1,11.3,0,,,86281.3,11.59,-0.46,-0.15,-0.87,9.3,-5.8,1.6,35.29,,,,,,,,,,
15.19.02.063,-66.9,16.7,0,,,86281.3,11.59,-0.72,-0.52,-0.35,-36.6,7.4,-48.3,35.19,,,,,,,,,,
15.19.02.073,-60.4,15.1,0,,,86281.3,11.59,-0.37,-0.24,-0.41,0.7,9.8,25.9,35.3,,,,,,,,,,
15.19.02.083,-39.7,9.9,0,,,86281.3,11.59,-0.37,0.42,-0.41,45.0,-3.6,-0.3,35.34,,,,,,,,,,
15.19.02.092,-60.9,15.2,0,,,86281.3,11.59,-0.15,0.21,-0.68,46.7,15.6,4.0,35.14,,,,,,,,,,
15.19.02.103,-50.9,12.7,0,,,86281.3,11.59,-0.42,-0.04,-0.42,-4.7,15.2,-20.8,35.49,,,,,,,,,,
15.19.02.112,-53.8,13.4,0,,,86281.3,11.59,-0.67,-0.71,-0.6,-17.5,20.6,-4.2,35.15,,,,,,,,,,
15.19.02.122,-44.3,11.1,0,,,86281.3,11.59,-0.17,0.41,-0.29,-6.7,-9.1,-18.2,34.96,,,,,,,,,,
15.19.02.134,-93.4,23.4,0,,,86281.3,11.59,-0.07,-0.56,-0.18,-19.5,-10.4,33.3,35.2,,,,,,,,,,
15.19.02.144,-95.2,23.8,0,,,86281.3,11.59,-0.66,-0.34,-0.47,50.0,10.9,-10.9,35.55,,,,,,,,,,
15.19.02.152,-91.8,23.0,0,,,86281.3,11.59,-0.66,-0.36,-0.29,18.3,58.2,-19.6,35.03,,,,,,,,,,
15.19.02.161,-87.3,21.8,0,,,86281.3,11.59,-0.6,-0.39,-0.21,-1.1,11.7,2.5,34.86,,,,,,,,,,
15.19.02.171,-101.8,25.4,0,,,86281.3,11.59,-0.43,-0.32,-0.41,-32.8,8.7,-2.0,35.01,,,,,,,,,,
15.19.02.180,-116.3,29.1,0,,,86281.3,11.59,-0.63,0.13,-1.11,6.4,-14.9,14.4,35.7,,,,,,,,,,
15.19.02.190,-80.4,20.1,0,,,86281.3,11.59,-0.54,0.15,-0.46,27.3,-16.6,3.5,35.64,,,,,,,,,,
15.19.02.197,-110.7,27.7,0,,,86281.3,11.59,-0.6,-0.74,-0.09,50.8,8.2,8.6,35.62,,,,,,,,,,
15.19.02.207,-114.5,28.6,0,,,86281.3,11.59,-0.4,-1.1,-0.39,-22.4,72.6,-22.4,34.95,,,,,,,,,,
15.19.02.216,-143.3,35.8,0,,,86281.3,11.59,-0.29,-0.44,-0.32,-11.5,-4.8,22.8,35.35,,,,,,,,,,
15.19.02.223,-109.4,27.4,0,,,86281.3,11.59,-0.61,0.09,-0.66,12.0,2.4,-9.7,34.9,,,,,,,,,,
15.19.02.232,-143.2,35.8,0,,,86281.3,11.59,-0.89,-0.36,-0.02,-5.8,37.8,-8.1,35.24,,,,,,,,,,
15.19.02.242,-175.4,43.8,0,,,86281.3,11.59,-0.58,-0.1,-0.81,45.1,0.8,22.2,35.48,,,,,,,,,,
15.19.02.253,-161.4,40.4,0,,,86281.3,11.59,-0.82,-0.6,-0.35,23.8,11.5,-22.5,35.15,,,,,,,,,,
15.19.02.262,-168.0,42.0,0,,,86281.3,11.59,-0.56,-1.0,-0.42,-11.0,26.8,-19.0,35.11,,,,,,,,,,
15.19.02.271,-160.2,40.0,0,,,86281.3,11.59,-0.78,-0.46,-0.34,-2.0,33.9,-24.2,34.8,,,,,,,,,,
15.19.02.283,-121.9,30.5,0,,,86281.3,11.59,-0.54,-0.3,-0.19,-17.6,-7.4,3.6,35.32,,,,,,,,,,
15.19.02.290,-152.5,38.1,0,,,86281.3,11.59,-0.96,-0.01,-0.14,4.4,14.7,0.3,35.78,,,,,,,,,,
15.19.02.299,-181.7,45.4,0,,,86281.3,11.59,-0.7,-0.7,-0.32,7.9,10.4,-17.6,35.3,,,,,,,,,,
15.19.02.309,35.2,8.8,1,3.0,76.2,86281.3,11.59,-0.65,-0.67,-0.02,-22.5,-19.6,21.2,35.02,,,,,,,,,,
15.19.02.318,116.6,29.2,0,,,86281.3,11.59,-1.18,-0.17,-0.25,2.7,9.9,-5.6,35.16,,,,,,,,,,
15.19.02.328,123.7,30.9,0,,,86281.3,11.59,-0.74,0.03,-0.03,30.5,-5.1,26.2,35.24,,,,,,,,,,
15.19.02.338,159.9,40.0,0,,,86281.3,11.59,-0.89,-0.24,-0.02,3.2,25.3,-17.8,35.03,,,,,,,,,,
15.19.02.349,216.7,54.2,0,,,86281.3,11.59,-0.49,-0.61,-0.15,43.7,25.8,-16.4,34.82,,,,,,,,,,
15.19.02.357,236.3,59.1,0,,,86281.3,11.59,-0.9,0.09,-0.77,-30.9,0.7,4.2,35.15,,,,,,,,,,
15.19.02.366,273.6,68.4,0,,,86281.3,11.59,-0.88,0.2,-0.09,8.3,-21.0,9.6,35.13,,,,,,,,,,
15.19.02.374,326.2,81.6,0,,,86281.3,11.59,-0.8,0.23,-0.37,-42.7,26.4,2.7,35.45,,,,,,,,,,
15.19.02.385,355.3,88.8,0,,,86281.3,11.59,-0.95,-0.25,-0.1,2.6,-4.8,-20.7,35.44,,,,,,,,,,
15.19.02.395,393.2,98.3,0,,,86281.3,11.59,-0.77,0.05,-0.42,-26.5,-0.3,-2.1,35.36,,,,,,,,,,
15.19.02.404,355.7,88.9,0,,,86281.3,11.59,-0.7,0.33,-0.35,-35.1,-7.8,25.4,35.98,,,,,,,,,,
15.19.02.414,422.0,105.5,0,,,86281.3,11.59,-0.72,-0.26,-0.5,-29.6,0.1,2.5,35.31,,,,,,,,,,
15.19.02.424,408.7,102.2,0,,,86281.3,11.59,-0.78,-0.2,-0.41,28.2,24.1,29.3,35.15,,,,,,,,,,
15.19.02.432,408.2,102.0,0,,,86281.3,11.59,-0.55,-0.02,0.18,34.8,-47.4,-4.1,35.56,,,,,,,,,,
15.19.02.442,393.2,98.3,0,,,86281.3,11.59,-0.81,-0.02,-0.51,30.1,-8.1,26.5,34.96,,,,,,,,,,
15.19.02.451,407.0,101.8,0,,,86281.3,11.59,-0.93,0.15,0.12,16.7,17.6,-15.3,35.19,,,,,,,,,,
15.19.02.462,413.9,103.5,0,,,86281.3,11.59,-0.15,0.53,-0.69,-5.7,-10.6,-0.3,35.24,,,,,,,,,,
15.19.02.473,359.7,89.9,0,,,86281.3,11.59,-0.83,-0.15,0.08,45.8,-10.4,13.7,35.4,,,,,,,,,,
15.19.02.484,369.9,92.5,0,,,86281.3,11.59,-0.66,0.31,-0.32,-5.7,-43.3,9.9,35.27,,,,,,,,,,
15.19.02.494,324.8,81.2,0,,,86281.3,11.59,-1.09,-0.08,-0.16,-37.6,10.2,25.1,35.06,,,,,,,,,,
15.19.02.505,313.2,78.3,0,,,86281.3,11.59,-0.63,0.25,-0.74,-32.9,6.4,-5.1,34.99,,,,,,,,,,
15.19.02.513,282.2,70.6,0,,,86281.3,11.59,-1.0,0.16,-0.15,36.1,2.6,23.2,34.83,,,,,,,,,,
15.19.02.524,199.2,49.8,0,,,86281.3,11.59,-0.75,-0.38,-0.12,19.2,-5.5,11.4,34.99,,,,,,,,,,
15.19.02.534,141.8,35.4,0,,,86281.3,11.59,-1.01,0.15,-0.16,-1.3,-12.3,8.4,35.27,,,,,,,,,,
15.19.02.542,150.8,37.7,0,,,86281.3,11.59,-0.68,-0.05,-1.09,26.6,1.9,-3.1,35.24,,,,,,,,,,
15.19.02.552,93.8,23.4,0,,,86281.3,11.59,-0.93,0.56,-0.87,0.5,11.6,-3.8,34.85,,,,,,,,,,
15.19.02.561,44.7,11.2,0,,,86281.3,11.59,-0.49,-0.07,-0.71,14.7,28.8,-19.9,35.1,,,,,,,,,,
15.19.02.571,30.2,7.6,0,,,86281.3,11.59,-0.62,0.04,-0.97,-36.2,12.2,30.1,34.68,,,,,,,,,,
15.19.02.582,10.6,2.6,0,,,86281.3,11.59,-0.72,0.18,-0.34,-10.9,3.2,-16.1,35.67,,,,,,,,,,
15.19.02.591,32.9,8.2,0,,,86281.3,11.59,-0.94,-0.37,-0.25,-33.3,13.7,0.4,35.7,,,,,,,,,,
15.19.02.601,20.4,5.1,0,,,86281.3,11.59,-0.76,0.02,-0.82,-10.4,8.2,16.1,35.31,,,,,,,,,,
15.19.02.612,61.0,15.2,0,,,86281.3,11.59,-1.08,-0.39,-0.45,56.6,-35.8,-1.3,35.28,,,,,,,,,,
15.19.02.621,56.8,14.2,0,,,86281.3,11.59,-0.98,-0.1,-0.46,14.7,-8.2,-22.0,35.08,,,,,,,,,,
15.19.02.630,66.1,16.5,0,,,86206.9,11.6,-0.7,0.23,-0.32,-24.9,41.6,0.7,35.07,,,,,,,,,,
15.19.02.642,71.2,17.8,0,,,86206.9,11.6,-0.66,0.27,-0.26,-4.2,34.1,3.7,35.01,,,,,,,,,,
15.19.02.648,81.2,20.3,0,,,86206.9,11.6,-0.82,0.24,-0.26,-22.1,6.0,-19.0,34.9,,,,,,,,,,
15.19.02.657,108.3,27.1,0,,,86206.9,11.6,-0.76,0.21,-0.33,-38.6,21.0,-15.2,35.08,,,,,,,,,,
15.19.02.665,59.0,14.8,0,,,86206.9,11.6,-0.78,-0.34,-0.5,2.0,42.2,-2.4,35.36,,,,,,,,,,
15.19.02.674,78.7,19.7,0,,,86206.9,11.6,-0.68,-0.11,-0.4,50.6,-1.6,36.0,35.32,,,,,,,,,,
15.19.02.682,84.6,21.2,0,,,86206.9,11.6,-0.62,0.41,-0.51,-0.3,15.0,-14.7,35.1,,,,,,,,,,
15.19.02.691,32.6,8.2,0,,,86206.9,11.6,-0.71,-0.47,-0.38,40.3,24.1,-12.3,35.0,,,,,,,,,,
15.19.02.702,15.1,3.8,0,,,86206.9,11.6,-0.57,-0.02,-0.2,-6.4,24.1,-15.7,35.18,,,,,,,,,,
15.19.02.712,25.8,6.4,0,,,86206.9,11.6,-1.03,0.36,-0.3,-23.8,-41.8,-6.9,34.66,,,,,,,,,,
15.19.02.721,18.2,4.6,0,,,86206.9,11.6,-0.65,0.41,-0.45,4.2,1.6,4.5,35.26,,,,,,,,,,
15.19.02.732,6.3,1.6,0,,,86206.9,11.6,-0.71,-0.41,0.22,24.0,-12.9,11.3,34.77,,,,,,,,,,
15.19.02.741,-1.6,0.4,0,,,86206.9,11.6,-0.66,-0.17,-0.3,-42.3,20.4,-10.7,35.13,,,,,,,,,,
15.19.02.752,-13.2,3.3,0,,,86206.9,11.6,-0.55,0.05,-0.24,-24.9,-22.3,7.8,35.04,,,,,,,,,,
15.19.02.761,-32.0,8.0,0,,,86206.9,11.6,-0.64,-0.27,-0.55,-7.7,-28.4,6.6,35.04,,,,,,,,,,
15.19.02.771,-34.1,8.5,0,,,86206.9,11.6,-0.8,-0.23,0.1,39.9,-5.7,-39.0,35.46,,,,,,,,,,
15.19.02.780,-32.7,8.2,0,,,86206.9,11.6,-0.7,-0.15,-0.24,30.8,-3.3,-4.4,35.26,,,,,,,,,,
15.19.02.790,-31.5,7.9,0,,,86206.9,11.6,-0.66,-0.15,-0.2,-7.0,26.9,3.3,35.16,,,,,,,,,,
15.19.02.801,-18.6,4.6,0,,,86206.9,11.6,-0.74,-0.44,0.01,20.7,5.9,-4.5,35.3,,,,,,,,,,
15.19.02.811,-63.3,15.8,0,,,86206.9,11.6,-0.77,-0.16,-0.06,-40.9,14.5,-28.2,35.1,,,,,,,,,,
15.19.02.820,-37.1,9.3,0,,,86206.9,11.6,-0.79,-0.03,-0.35,-21.8,-17.3,-0.3,35.19,,,,,,,,,,
15.19.02.829,-43.7,10.9,0,,,86206.9,11.6,-0.45,-0.03,-0.23,6.3,9.5,-10.7,35.61,,,,,,,,,,
15.19.02.838,-39.8,10.0,0,,,86206.9,11.6,-0.36,0.08,0.32,3.2,-0.7,16.2,34.93,,,,,,,,,,
15.19.02.847,-61.1,15.3,0,,,86206.9,11.6,-0.36,0.39,-0.65,15.8,-21.5,22.1,35.2,,,,,,,,,,
15.19.02.856,-65.0,16.2,0,,,86206.9,11.6,-0.74,-0.01,-0.03,21.7,24.8,-12.7,35.37,,,,,,,,,,
15.19.02.865,-67.1,16.8,0,,,86206.9,11.6,-1.23,-0.05,-0.4,7.2,-23.2,-10.0,34.98,,,,,,,,,,
15.19.02.876,-67.2,16.8,0,,,86206.9,11.6,-0.62,-0.15,-0.04,-6.6,32.0,20.8,35.54,,,,,,,,,,
15.19.02.886,-91.6,22.9,0,,,86206.9,11.6,-0.53,0.06,-0.66,32.5,-14.0,5.7,34.93,,,,,,,,,,
15.19.02.896,-90.0,22.5,0,,,86206.9,11.6,-0.38,-0.44,-0.31,16.5,22.5,-20.7,35.41,,,,,,,,,,
15.19.02.906,-84.4,21.1,0,,,86206.9,11.6,-0.65,-0.64,-0.05,-34.6,-15.4,-5.9,35.51,,,,,,,,,,
15.19.02.915,-123.7,30.9,0,,,86206.9,11.6,-0.59,-0.01,-0.98,-13.6,-5.3,-7.1,35.46,,,,,,,,,,
15.19.02.924,-85.7,21.4,0,,,86206.9,11.6,-0.48,0.33,-0.44,-39.4,1.5,4.8,35.13,,,,,,,,,,
15.19.02.934,-79.0,19.8,0,,,86206.9,11.6,-0.29,0.11,-0.61,-4.1,4.7,-6.6,35.01,,,,,,,,,,
15.19.02.944,,,0,,,,,,,,,,,,,,,,,,,,,
15.19.02.955,-129.1,32.3,0,,,86206.9,11.6,-0.33,-0.41,-0.33,-11.5,2.6,-9.5,35.21,,,,,,,,,,
15.19.02.964,-122.6,30.6,0,,,86206.9,11.6,-0.64,-0.04,-0.25,2.6,-9.2,-45.3,34.9,,,,,,,,,,
15.19.02.973,-146.5,36.6,0,,,86206.9,11.6,-0.49,0.0,-0.74,5.4,11.2,-4.3,34.92,,,,,,,,,,
15.19.02.984,-134.5,33.6,0,,,86206.9,11.6,-0.45,-0.07,-0.54,-24.0,-9.0,9.2,35.23,,,,,,,,,,
15.19.02.992,-125.7,31.4,0,,,86206.9,11.6,-0.63,-0.28,-0.51,26.5,3.0,10.7,35.29,,,,,,,,,,
15.19.03.003,-132.7,33.2,0,,,86206.9,11.6,-0.63,-0.88,-0.55,-27.0,-23.4,17.0,35.47,,,,,,,,,,
15.19.03.015,-106.3,26.6,0,,,86206.9,11.6,-0.62,-0.36,-0.66,4.7,-2.4,-5.8,35.09,,,,,,,,,,
15.19.03.024,-163.1,40.8,0,,,86206.9,11.6,-1.28,-0.35,-0.57,-14.4,47.6,37.8,35.26,,,,,,,,,,
15.19.03.035,-138.9,34.7,0,,,86206.9,11.6,-0.39,-0.9,-1.01,12.9,-9.3,5.2,35.35,,,,,,,,,,
15.19.03.045,-185.0,46.2,0,,,86206.9,11.6,-0.68,-0.59,-0.47,-4.3,11.5,2.4,35.37,,,,,,,,,,
15.19.03.054,-170.0,42.5,0,,,86206.9,11.6,-0.57,-0.27,-0.3,-10.4,16.6,-32.9,35.1,,,,,,,,,,
15.19.03.063,-174.8,43.7,0,,,86206.9,11.6,-0.46,-0.14,-0.66,-1.3,4.9,14.2,35.25,,,,,,,,,,
15.19.03.074,62.4,15.6,0,,,86206.9,11.6,-0.37,-0.59,-0.68,-8.8,-14.0,23.3,35.03,,,,,,,,,,
15.19.03.083,52.2,13.0,0,,,86206.9,11.6,-0.67,-0.21,-0.11,1.5,6.1,-25.6,35.1,,,,,,,,,,
15.19.03.093,137.9,34.5,0,,,86206.9,11.6,-0.48,-0.43,-0.22,20.6,-4.0,-0.1,35.46,,,,,,,,,,
15.19.03.103,139.3,34.8,0,,,86206.9,11.6,-0.65,-0.78,-0.19,11.4,18.2,-2.6,34.89,,,,,,,,,,
15.19.03.112,221.7,55.4,0,,,86206.9,11.6,-0.56,-0.22,-0.31,-50.3,3.1,1.3,35.44,,,,,,,,,,
15.19.03.120,257.9,64.5,1,4.0,74.0,86206.9,11.6,-0.8,-0.46,0.1,-45.9,37.7,9.1,35.45,,,,,,,,,,
15.19.03.130,294.7,73.7,0,,,86206.9,11.6,-0.78,-0.62,-0.09,27.3,0.3,15.3,35.52,,,,,,,,,,
15.19.03.138,304.5,76.1,0,,,86206.9,11.6,-0.48,0.1,0.09,-20.1,-7.8,20.6,35.22,,,,,,,,,,
15.19.03.148,378.4,94.6,0,,,86206.9,11.6,-0.6,0.03,0.17,4.2,16.9,-14.7,35.2,,,,,,,,,,
15.19.03.158,354.5,88.6,0,,,86206.9,11.6,-0.43,-0.2,0.07,24.4,38.6,-24.6,35.13,,,,,,,,,,
15.19.03.166,413.9,103.5,0,,,86206.9,11.6,-1.25,-0.61,-0.34,-3.5,31.9,25.9,35.42,,,,,,,,,,
15.19.03.177,430.7,107.7,0,,,86206.9,11.6,-0.62,-0.13,-0.55,15.9,-14.2,-35.8,35.37,,,,,,,,,,
15.19.03.188,443.3,110.8,0,,,86206.9,11.6,-0.87,-0.29,-0.05,10.9,28.7,-16.4,35.5,,,,,,,,,,
15.19.03.197,418.9,104.7,0,,,86206.9,11.6,-0.52,-0.26,0.03,-12.9,-23.2,-26.2,34.94,,,,,,,,,,
15.19.03.205,415.6,103.9,0,,,86206.9,11.6,-0.75,-0.13,-0.34,-1.9,0.6,-9.0,35.58,,,,,,,,,,
15.19.03.215,438.5,109.6,0,,,86206.9,11.6,-0.54,-0.34,-0.01,-3.2,0.4,-11.5,35.0,,,,,,,,,,
15.19.03.226,358.3,89.6,0,,,86206.9,11.6,-1.03,-0.17,-0.03,11.5,7.1,5.0,35.35,,,,,,,,,,
15.19.03.237,351.8,88.0,0,,,86206.9,11.6,-0.96,-0.35,-0.11,18.5,19.5,-3.8,35.26,,,,,,,,,,
15.19.03.246,383.7,95.9,0,,,86206.9,11.6,-0.89,0.05,-0.79,1.7,24.5,11.3,35.44,,,,,,,,,,
15.19.03.255,328.7,82.2,0,,,86206.9,11.6,-0.85,0.34,-0.22,6.4,8.4,-23.0,34.94,,,,,,,,,,
15.19.03.267,260.7,65.2,0,,,86206.9,11.6,-0.89,-0.65,0.02,-26.5,11.1,1.5,35.19,,,,,,,,,,
15.19.03.277,262.5,65.6,0,,,86206.9,11.6,-0.85,-0.23,-0.06,-55.5,24.1,-7.1,34.96,,,,,,,,,,
15.19.03.287,233.0,58.2,0,,,86206.9,11.6,-0.83,-0.16,-0.08,8.1,9.4,21.3,35.1,,,,,,,,,,
15.19.03.296,161.8,40.4,0,,,86206.9,11.6,-0.85,-0.3,-0.4,4.0,-13.9,-10.6,35.46,,,,,,,,,,
15.19.03.307,83.5,20.9,0,,,86206.9,11.6,-0.72,-0.34,-0.18,45.8,4.2,-4.0,35.53,,,,,,,,,,
15.19.03.317,73.1,18.3,0,,,86206.9,11.6,-0.96,-0.38,0.13,5.0,20.3,-13.2,34.92,,,,,,,,,,
15.19.03.326,50.7,12.7,0,,,86206.9,11.6,-0.66,-0.07,-0.55,-0.1,-11.4,-25.7,35.55,,,,,,,,,,
15.19.03.337,14.5,3.6,0,,,86206.9,11.6,-1.18,-0.53,-0.32,2.5,9.8,25.1,35.04,,,,,,,,,,
15.19.03.345,28.1,7.0,0,,,86206.9,11.6,-0.55,0.17,-0.35,13.0,0.6,-7.5,35.53,,,,,,,,,,
15.19.03.356,57.8,14.4,0,,,86206.9,11.6,-0.83,-0.28,-0.26,-9.5,9.5,-14.5,34.85,,,,,,,,,,
15.19.03.364,14.8,3.7,0,,,86206.9,11.6,-0.46,0.02,-0.37,-21.9,7.8,9.1,35.55,,,,,,,,,,
15.19.03.374,48.4,12.1,0,,,86206.9,11.6,-0.93,0.08,-0.09,16.8,5.4,-20.1,35.15,,,,,,,,,,
15.19.03.384,48.1,12.0,0,,,86206.9,11.6,-0.86,0.12,-0.8,-21.8,11.6,-2.0,35.29,,,,,,,,,,
15.19.03.393,67.4,16.8,0,,,86206.9,11.6,-0.67,0.06,-0.67,-2.3,20.8,-3.8,35.09,,,,,,,,,,
15.19.03.401,69.5,17.4,0,,,86206.9,11.6,-0.59,-0.09,-0.57,1.2,15.6,-4.8,35.04,,,,,,,,,,
15.19.03.410,81.9,20.5,0,,,86206.9,11.6,-0.65,0.38,-0.46,29.1,-12.9,-14.5,35.49,,,,,,,,,,
15.19.03.420,74.2,18.6,0,,,86206.9,11.6,-0.36,0.15,-0.8,41.2,-21.4,5.0,35.04,,,,,,,,,,
15.19.03.432,94.0,23.5,0,,,86206.9,11.6,-0.8,0.57,-0.63,15.1,26.2,-3.1,35.45,,,,,,,,,,
15.19.03.438,76.7,19.2,0,,,86206.9,11.6,-0.5,-0.5,-0.52,-18.7,4.0,10.9,34.95,,,,,,,,,,
15.19.03.447,62.9,15.7,0,,,86206.9,11.6,-0.58,0.02,-0.23,27.6,-13.0,6.7,35.43,,,,,,,,,,
15.19.03.458,39.4,9.8,0,,,86206.9,11.6,-0.8,0.13,-0.94,-8.2,1.1,-7.3,34.94,,,,,,,,,,
15.19.03.467,-2.3,0.6,0,,,86206.9,11.6,-0.82,0.22,-0.93,60.1,-2.3,-22.1,35.21,,,,,,,,,,
15.19.03.475,-11.3,2.8,0,,,86206.9,11.6,-0.48,-0.23,-0.81,-35.5,-15.6,-4.9,35.3,,,,,,,,,,
15.19.03.485,32.7,8.2,0,,,86206.9,11.6,-0.99,-0.34,-0.51,-8.7,12.4,14.5,35.68,,,,,,,,,,
15.19.03.495,1.3,0.3,0,,,86206.9,11.6,-0.65,-0.09,0.04,24.2,24.5,-19.1,34.86,,,,,,,,,,
15.19.03.505,-31.5,7.9,0,,,86206.9,11.6,-0.44,-0.09,-0.96,-15.0,14.3,2.2,35.22,,,,,,,,,,
15.19.03.516,20.0,5.0,0,,,86206.9,11.6,-0.79,0.41,-0.86,-26.5,-14.4,-10.0,35.23,,,,,,,,,,
15.19.03.529,-43.4,10.8,0,,,86206.9,11.6,-0.66,-0.11,-0.43,-12.4,6.6,20.3,35.31,,,,,,,,,,
15.19.03.539,-33.2,8.3,0,,,86206.9,11.6,-0.77,0.28,-0.53,-3.3,-7.3,10.2,35.35,,,,,,,,,,
15.19.03.550,-32.2,8.0,0,,,86206.9,11.6,-0.51,0.25,-0.02,-23.6,25.1,-12.6,35.43,,,,,,,,,,
15.19.03.560,-6.4,1.6,0,,,86206.9,11.6,-0.93,0.03,-0.65,3.9,2.2,-35.6,35.26,,,,,,,,,,
15.19.03.570,-24.7,6.2,0,,,86206.9,11.6,-0.77,0.22,-0.27,31.4,-3.2,3.4,35.42,,,,,,,,,,
15.19.03.580,-55.7,13.9,0,,,86206.9,11.6,-0.76,0.14,-0.08,-17.2,1.1,-26.2,35.0,,,,,,,,,,
15.19.03.588,-18.0,4.5,0,,,86206.9,11.6,-0.41,0.56,0.01,7.7,23.4,5.6,35.74,,,,,,,,,,
15.19.03.598,-51.7,12.9,0,,,86206.9,11.6,-0.89,0.52,-0.15,-39.4,4.2,-14.2,35.44,,,,,,,,,,
15.19.03.607,-45.2,11.3,0,,,86206.9,11.6,-0.65,-0.43,-0.08,2.0,-3.9,-4.8,34.9,,,,,,,,,,
15.19.03.619,-88.0,22.0,0,,,86206.9,11.6,-0.87,0.39,-0.08,-1.8,-10.1,5.8,35.39,,,,,,,,,,
15.19.03.630,-32.6,8.2,0,,,86206.9,11.6,-0.63,0.07,0.39,11.6,11.1,-13.9,35.32,,,,,,,,,,
15.19.03.638,-81.9,20.5,0,,,86206.9,11.6,-0.51,0.09,0.22,20.8,-5.4,2.3,35.04,,,,,,,,,,
15.19.03.648,-86.8,21.7,0,,,86206.9,11.6,-0.52,0.04,-0.35,20.3,8.9,-5.9,35.66,,,,,,,,,,
15.19.03.656,-42.9,10.7,0,,,86206.9,11.6,-0.48,-0.04,0.04,33.8,11.0,13.3,34.93,,,,,,,,,,
15.19.03.668,-89.7,22.4,0,,,86206.9,11.6,-0.79,-0.05,-0.19,-21.4,13.4,25.3,35.17,,,,,,,,,,
15.19.03.678,-76.0,19.0,0,,,86206.9,11.6,-0.32,0.11,0.13,-54.7,-19.3,4.5,35.14,,,,,,,,,,
15.19.03.688,-70.9,17.7,0,,,86206.9,11.6,-0.53,0.43,-0.44,-40.5,-14.0,38.0,35.25,,,,,,,,,,
15.19.03.698,-108.2,27.0,0,,,86206.9,11.6,-0.42,-0.19,-0.38,-12.1,-1.5,10.7,35.06,,,,,,,,,,
15.19.03.708,-88.0,22.0,0,,,86206.9,11.6,-0.71,-0.22,-0.62,19.4,-8.8,-21.3,35.11,,,,,,,,,,
15.19.03.718,-133.9,33.5,0,,,86206.9,11.6,-0.36,-0.1,-0.36,-11.0,-29.4,8.3,35.14,,,,,,,,,,
15.19.03.728,-118.0,29.5,0,,,86132.6,11.61,-0.43,0.08,-0.47,12.7,-17.9,13.4,34.85,,,,,,,,,,
15.19.03.738,-97.7,24.4,0,,,86132.6,11.61,-0.97,0.01,-0.61,7.2,-17.5,-20.9,35.55,,,,,,,,,,
15.19.03.749,-123.0,30.8,0,,,86132.6,11.61,-0.47,-0.14,-0.12,21.0,-32.1,15.7,35.18,,,,,,,,,,
15.19.03.760,-140.1,35.0,0,,,86132.6,11.61,-0.7,0.03,-0.37,24.2,6.6,8.4,35.2,,,,,,,,,,
15.19.03.768,-141.0,35.2,0,,,86132.6,11.61,-0.87,0.1,-0.29,7.5,-9.9,-6.1,35.17,,,,,,,,,,
15.19.03.776,-137.8,34.4,0,,,86132.6,11.61,-0.43,0.19,-0.53,-8.0,24.4,12.3,35.05,,,,,,,,,,
15.19.03.786,-138.8,34.7,0,,,86132.6,11.61,-0.78,-0.37,-0.26,-33.3,2.1,-6.8,35.34,,,,,,,,,,
15.19.03.792,-116.7,29.2,0,,,86132.6,11.61,-0.74,0.09,-0.14,-0.1,43.1,5.5,35.2,,,,,,,,,,
15.19.03.802,-153.1,38.3,0,,,86132.6,11.61,-0.5,0.19,-0.49,33.0,7.9,-2.0,35.1,,,,,,,,,,
15.19.03.811,-143.4,35.8,0,,,86132.6,11.61,-0.83,0.02,-0.07,-16.3,-16.7,7.3,35.17,,,,,,,,,,
15.19.03.821,-155.3,38.8,0,,,86132.6,11.61,-0.47,-0.52,-0.81,-9.8,-0.4,10.3,34.79,,,,,,,,,,
15.19.03.830,-169.7,42.4,0,,,86132.6,11.61,-0.72,-0.13,-0.24,-20.3,-0.6,-4.8,35.16,,,,,,,,,,
15.19.03.842,65.3,16.3,0,,,86132.6,11.61,-0.06,-0.09,-0.64,10.2,25.4,-13.3,34.94,,,,,,,,,,
15.19.03.850,45.7,11.4,0,,,86132.6,11.61,-0.58,-0.32,-0.78,-33.0,16.6,1.1,35.03,,,,,,,,,,
15.19.03.861,100.2,25.0,0,,,86132.6,11.61,-0.62,-0.53,-0.75,-1.0,23.0,15.1,34.98,,,,,,,,,,
15.19.03.870,180.7,45.2,1,5.0,80.0,86132.6,11.61,-0.94,-0.16,-0.53,-25.7,-19.5,-18.4,35.48,,,,,,,,,,
15.19.03.878,211.6,52.9,0,,,86132.6,11.61,-0.59,-0.83,-0.28,-28.9,-13.9,-6.8,35.48,,,,,,,,,,
15.19.03.888,262.9,65.7,0,,,86132.6,11.61,-0.7,-0.29,-0.73,-8.7,-6.9,23.5,34.77,,,,,,,,,,
15.19.03.896,243.4,60.8,0,,,86132.6,11.61,-1.08,-0.27,-0.34,-19.7,7.9,-11.0,35.04,,,,,,,,,,
15.19.03.905,344.7,86.2,0,,,86132.6,11.61,-0.68,0.32,-0.32,-13.6,-13.5,-6.2,35.36,,,,,,,,,,
15.19.03.913,356.2,89.0,0,,,86132.6,11.61,-0.9,0.04,-0.44,5.9,30.0,-11.7,35.02,,,,,,,,,,
15.19.03.922,364.9,91.2,0,,,86132.6,11.61,-0.77,-0.28,-0.76,1.1,-26.2,20.2,35.2,,,,,,,,,,
15.19.03.930,375.1,93.8,0,,,86132.6,11.61,-0.41,-0.29,-0.69,-16.4,0.7,21.0,35.04,,,,,,,,,,
15.19.03.940,362.4,90.6,0,,,86132.6,11.61,-0.7,-0.29,-0.55,-13.8,8.6,9.7,35.13,,,,,,,,,,
15.19.03.950,376.1,94.0,0,,,86132.6,11.61,-0.72,-0.38,-0.15,-25.0,3.7,17.9,35.12,,,,,,,,,,
15.19.03.961,390.5,97.6,0,,,86132.6,11.61,-0.55,-0.23,-0.33,-12.7,-12.9,1.8,35.67,,,,,,,,,,
15.19.03.971,372.7,93.2,0,,,86132.6,11.61,-0.83,-0.1,-0.31,-23.7,-22.3,-11.7,35.18,,,,,,,,,,
15.19.03.980,463.9,116.0,0,,,86132.6,11.61,-0.46,-0.64,-0.43,-18.9,2.7,-4.6,35.32,,,,,,,,,,
15.19.03.990,377.1,94.3,0,,,86132.6,11.61,-1.06,-0.25,-0.39,19.5,-11.9,11.4,35.12,,,,,,,,,,
15.19.03.998,416.8,104.2,0,,,86132.6,11.61,-0.67,-0.52,-0.51,8.4,-6.5,10.8,35.35,,,,,,,,,,
15.19.04.008,360.1,90.0,0,,,86132.6,11.61,-0.79,-0.4,-0.27,-10.3,26.1,50.3,35.2,,,,,,,,,,
15.19.04.016,280.3,70.1,0,,,86132.6,11.61,-0.49,-0.22,-0.41,21.5,14.6,-1.9,35.39,,,,,,,,,,
15.19.04.028,292.9,73.2,0,,,86132.6,11.61,-1.16,-0.94,-0.16,34.9,-4.0,-0.6,34.37,,,,,,,,,,
15.19.04.037,305.7,76.4,0,,,86132.6,11.61,-0.6,-0.31,0.17,-10.3,-2.8,-6.2,35.46,,,,,,,,,,
15.19.04.046,222.1,55.5,0,,,86132.6,11.61,-0.48,-0.94,0.16,-35.2,4.9,-17.4,35.12,,,,,,,,,,
15.19.04.056,172.6,43.2,0,,,86132.6,11.61,-0.85,-0.44,0.16,-29.0,33.9,3.5,35.34,,,,,,,,,,
15.19.04.068,140.1,35.0,0,,,86132.6,11.61,-0.76,-0.08,-0.42,2.3,-10.2,-34.9,35.42,,,,,,,,,,
15.19.04.078,99.4,24.8,0,,,86132.6,11.61,-0.72,-0.61,0.12,-24.3,19.6,-8.6,34.83,,,,,,,,,,
15.19.04.090,38.6,9.6,0,,,86132.6,11.61,-0.7,-0.16,-0.04,-20.0,-4.6,4.5,34.93,,,,,,,,,,
15.19.04.100,32.4,8.1,0,,,86132.6,11.61,-0.62,-0.3,-0.06,-19.7,36.0,-9.4,35.69,,,,,,,,,,
15.19.04.109,18.4,4.6,0,,,86132.6,11.61,-0.76,-0.25,-0.11,-44.4,19.4,-3.7,35.12,,,,,,,,,,
15.19.04.117,52.1,13.0,0,,,86132.6,11.61,-0.8,-0.49,0.35,8.5,-13.5,49.7,34.97,,,,,,,,,,
15.19.04.126,40.2,10.0,0,,,86132.6,11.61,-0.62,-0.09,-0.44,6.9,-7.1,4.8,35.02,,,,,,,,,,
15.19.04.136,34.8,8.7,0,,,86132.6,11.61,-0.59,0.34,0.16,-15.1,-4.1,-10.0,35.57,,,,,,,,,,
15.19.04.145,70.5,17.6,0,,,86132.6,11.61,-0.62,-0.15,-0.26,6.0,18.3,-4.6,35.42,,,,,,,,,,
15.19.04.155,91.5,22.9,0,,,86132.6,11.61,-0.71,-0.23,-0.06,-0.6,-2.1,0.0,35.0,,,,,,,,,,
15.19.04.163,81.5,20.4,0,,,86132.6,11.61,-0.55,-0.7,-0.1,4.0,47.5,30.8,34.97,,,,,,,,,,
15.19.04.172,83.2,20.8,0,,,86132.6,11.61,-0.5,-0.5,0.11,23.9,0.8,-14.3,35.35,,,,,,,,,,
15.19.04.182,91.7,22.9,0,,,86132.6,11.61,-0.64,-0.28,-0.31,25.4,-15.0,7.9,35.45,,,,,,,,,,
15.19.04.192,60.0,15.0,0,,,86132.6,11.61,-0.89,0.39,-0.5,23.5,-17.9,1.9,35.01,,,,,,,,,,
15.19.04.201,57.6,14.4,0,,,86132.6,11.61,-1.06,0.11,-0.33,-35.8,-6.5,3.0,34.84,,,,,,,,,,
15.19.04.210,31.4,7.8,0,,,86132.6,11.61,-0.8,-0.25,-0.56,-1.0,38.0,37.7,35.39,,,,,,,,,,
15.19.04.220,46.8,11.7,0,,,86132.6,11.61,-0.75,-0.03,-0.35,-35.7,16.8,-8.1,35.44,,,,,,,,,,
15.19.04.230,54.2,13.6,0,,,86132.6,11.61,-0.66,0.03,-0.67,-26.1,13.0,12.3,35.36,,,,,,,,,,
15.19.04.240,34.4,8.6,0,,,86132.6,11.61,-0.82,0.13,-0.42,-4.2,39.2,-19.8,35.45,,,,,,,,,,
15.19.04.249,-10.3,2.6,0,,,86132.6,11.61,-0.77,-0.59,-0.38,-1.2,17.6,14.1,35.15,,,,,,,,,,
15.19.04.258,-8.8,2.2,0,,,86132.6,11.61,-0.49,-0.47,-0.61,-48.1,16.2,4.8,35.44,,,,,,,,,,
15.19.04.267,-37.0,9.2,0,,,86132.6,11.61,-0.77,0.4,-0.45,10.9,-3.2,7.5,35.09,,,,,,,,,,
15.19.04.279,-25.6,6.4,0,,,86132.6,11.61,-0.9,0.0,-0.18,33.9,4.1,2.0,35.17,,,,,,,,,,
15.19.04.288,-19.6,4.9,0,,,86132.6,11.61,-0.97,0.0,-0.28,-11.0,5.6,45.4,35.0,,,,,,,,,,
15.19.04.298,-23.5,5.9,0,,,86132.6,11.61,-0.7,-0.16,-0.81,6.4,29.4,-7.7,35.36,,,,,,,,,,
15.19.04.307,-30.8,7.7,0,,,86132.6,11.61,-1.0,-0.05,0.03,-0.6,9.0,-15.7,35.16,,,,,,,,,,
15.19.04.315,-10.4,2.6,0,,,86132.6,11.61,-0.88,0.11,-0.43,-17.9,-3.4,23.8,34.96,,,,,,,,,,
15.19.04.323,-48.2,12.0,0,,,86132.6,11.61,-1.04,-0.24,-0.59,-36.4,-5.7,-3.5,36.15,,,,,,,,,,
15.19.04.333,-19.6,4.9,0,,,86132.6,11.61,-0.4,0.11,-0.41,-10.3,5.8,2.6,35.31,,,,,,,,,,
15.19.04.343,-44.7,11.2,0,,,86132.6,11.61,-0.73,0.22,-0.17,32.4,-5.2,-3.4,35.3,,,,,,,,,,
15.19.04.352,-46.3,11.6,0,,,86132.6,11.61,-0.97,0.13,-0.61,-8.0,22.9,31.0,34.98,,,,,,,,,,
15.19.04.360,-51.1,12.8,0,,,86132.6,11.61,-0.19,0.27,-0.46,32.9,45.9,-34.7,35.28,,,,,,,,,,
15.19.04.370,-102.4,25.6,0,,,86132.6,11.61,-0.55,0.06,-0.63,-6.8,16.2,11.5,35.05,,,,,,,,,,
15.19.04.379,-54.0,13.5,0,,,86058.5,11.62,-0.26,0.17,-0.34,30.6,37.4,-8.8,34.81,,,,,,,,,,
15.19.04.388,-68.0,17.0,0,,,86058.5,11.62,-0.67,0.4,-0.43,-19.9,31.4,5.1,34.95,,,,,,,,,,
15.19.04.399,-79.0,19.8,0,,,86058.5,11.62,-0.35,0.39,-0.17,29.9,5.4,8.5,35.6,,,,,,,,,,
15.19.04.406,-100.0,25.0,0,,,86058.5,11.62,-0.6,0.15,-0.27,31.2,-18.5,14.1,35.18,,,,,,,,,,
15.19.04.415,-86.2,21.6,0,,,86058.5,11.62,-0.57,-0.11,-0.06,42.9,-9.2,7.8,34.95,,,,,,,,,,
15.19.04.424,-105.4,26.4,0,,,86058.5,11.62,-0.72,-0.16,-0.3,-50.2,-12.1,0.3,35.02,,,,,,,,,,
15.19.04.434,-81.0,20.2,0,,,86058.5,11.62,-0.61,0.86,-0.18,-9.5,-12.8,5.0,35.04,,,,,,,,,,
15.19.04.444,-112.0,28.0,0,,,86058.5,11.62,-0.55,-0.23,0.08,-13.9,24.5,-7.3,35.04,,,,,,,,,,
15.19.04.454,-128.6,32.2,0,,,86058.5,11.62,-0.41,0.21,0.14,-11.9,19.1,15.3,34.86,,,,,,,,,,
15.19.04.465,-93.9,23.5,0,,,86058.5,11.62,-0.98,-0.29,-0.23,-12.8,-21.0,4.1,35.28,,,,,,,,,,
15.19.04.475,-104.3,26.1,0,,,86058.5,11.62,-0.67,0.01,0.17,-27.3,-13.7,-1.1,35.37,,,,,,,,,,
15.19.04.484,-119.3,29.8,0,,,86058.5,11.62,-0.4,0.01,0.06,33.7,10.9,18.9,34.98,,,,,,,,,,
15.19.04.493,-132.1,33.0,0,,,86058.5,11.62,-0.75,0.08,-0.24,10.7,-18.6,-0.1,34.95,,,,,,,,,,
15.19.04.503,-74.7,18.7,0,,,86058.5,11.62,-0.41,0.32,-0.0,7.6,23.0,5.6,35.21,,,,,,,,,,
15.19.04.513,-120.5,30.1,0,,,86058.5,11.62,-0.66,0.32,0.04,11.8,28.0,5.0,35.31,,,,,,,,,,
15.19.04.521,-114.9,28.7,0,,,86058.5,11.62,-0.43,-0.09,-0.53,-19.6,-7.2,24.4,35.01,,,,,,,,,,
15.19.04.532,-108.7,27.2,0,,,86058.5,11.62,-0.86,-0.43,0.07,21.0,-19.4,0.5,35.72,,,,,,,,,,
15.19.04.541,-112.4,28.1,0,,,86058.5,11.62,-0.71,-0.02,-0.13,8.3,0.4,25.1,35.24,,,,,,,,,,
15.19.04.551,-154.9,38.7,0,,,86058.5,11.62,-0.61,-0.14,-0.51,-21.5,-21.4,13.5,34.81,,,,,,,,,,
15.19.04.562,-169.9,42.5,0,,,86058.5,11.62,-0.71,-0.12,-0.08,39.9,2.3,27.5,35.23,,,,,,,,,,
15.19.04.572,-92.1,23.0,0,,,86058.5,11.62,-0.51,-0.05,0.24,13.6,25.1,-28.0,35.55,,,,,,,,,,
15.19.04.583,-173.8,43.4,0,,,86058.5,11.62,-0.82,-0.08,-0.36,1.0,28.8,-21.6,35.0,,,,,,,,,,
15.19.04.595,17.4,4.4,0,,,86058.5,11.62,-0.74,-0.2,-0.26,17.3,35.6,-25.2,35.28,,,,,,,,,,
15.19.04.605,74.8,18.7,0,,,86058.5,11.62,-0.2,-0.74,-0.44,30.2,-6.1,-21.8,35.36,,,,,,,,,,
15.19.04.613,90.4,22.6,0,,,86058.5,11.62,-0.65,-0.12,-0.2,24.1,6.7,-4.9,34.89,,,,,,,,,,
15.19.04.623,133.0,33.2,0,,,86058.5,11.62,-0.5,-0.13,-0.42,-34.2,-3.3,-38.9,35.25,,,,,,,,,,
15.19.04.632,170.4,42.6,0,,,86058.5,11.62,-1.01,0.12,-0.04,7.3,12.8,1.3,35.17,,,,,,,,,,
15.19.04.642,245.7,61.4,1,6.0,77.7,86058.5,11.62,-0.4,0.09,0.22,27.2,37.4,-31.6,35.4,,,,,,,,,,
15.19.04.653,269.8,67.4,0,,,86058.5,11.62,-0.69,-0.16,-1.18,30.3,24.4,12.0,35.38,,,,,,,,,,
15.19.04.663,306.7,76.7,0,,,86058.5,11.62,-0.9,0.03,-0.37,-3.8,5.7,20.8,35.21,,,,,,,,,,
15.19.04.672,363.2,90.8,0,,,86058.5,11.62,-0.6,-0.02,-0.72,28.6,25.0,-6.8,35.81,,,,,,,,,,
15.19.04.683,412.4,103.1,0,,,86058.5,11.62,-0.4,-0.04,-0.44,-16.3,28.4,-31.6,34.91,,,,,,,,,,
15.19.04.693,361.9,90.5,0,,,86058.5,11.62,-0.24,-0.21,-0.6,73.8,4.1,-16.4,35.15,,,,,,,,,,
15.19.04.704,379.3,94.8,0,,,86058.5,11.62,-0.17,0.15,-0.57,-2.7,-13.0,12.8,35.32,,,,,,,,,,
15.19.04.714,442.0,110.5,0,,,86058.5,11.62,-0.34,-0.02,-0.35,14.6,-3.3,7.3,35.46,,,,,,,,,,
15.19.04.725,354.1,88.5,0,,,86058.5,11.62,-1.04,-0.19,-0.84,2.6,8.1,1.6,35.41,,,,,,,,,,
15.19.04.734,446.9,111.7,0,,,86058.5,11.62,-0.55,-0.7,-0.74,-13.9,-5.9,21.5,35.11,,,,,,,,,,
15.19.04.743,392.0,98.0,0,,,86058.5,11.62,-0.33,0.25,-0.43,9.4,-16.9,22.6,35.03,,,,,,,,,,
15.19.04.752,383.2,95.8,0,,,86058.5,11.62,-0.96,-0.22,-0.56,4.1,7.8,-36.7,35.12,,,,,,,,,,
15.19.04.762,332.6,83.2,0,,,86058.5,11.62,-0.67,-0.1,-0.05,-17.0,-23.6,-16.4,35.03,,,,,,,,,,
15.19.04.771,339.2,84.8,0,,,86058.5,11.62,-0.9,-0.24,-0.85,1.5,31.8,-6.5,34.91,,,,,,,,,,
15.19.04.781,334.1,83.5,0,,,86058.5,11.62,-0.74,-0.59,-0.83,-13.8,-21.7,-6.0,35.35,,,,,,,,,,
15.19.04.789,299.6,74.9,0,,,86058.5,11.62,-0.69,-0.22,-0.45,-36.2,-5.7,6.0,34.94,,,,,,,,,,
15.19.04.798,253.8,63.4,0,,,86058.5,11.62,-0.69,-0.62,-0.12,-40.0,-10.1,-0.6,35.13,,,,,,,,,,
15.19.04.810,207.3,51.8,0,,,86058.5,11.62,-0.49,-0.84,-0.37,7.1,19.1,-0.0,35.33,,,,,,,,,,
15.19.04.820,158.2,39.6,0,,,85984.5,11.63,-0.63,-0.24,-0.03,-12.0,-6.3,26.8,35.24,,,,,,,,,,
15.19.04.829,163.1,40.8,0,,,85984.5,11.63,-0.51,-0.24,-0.39,16.7,-16.2,0.6,35.19,,,,,,,,,,
15.19.04.840,106.2,26.6,0,,,85984.5,11.63,-0.7,-0.43,-0.33,6.7,24.3,-34.0,35.47,,,,,,,,,,
15.19.04.852,26.8,6.7,0,,,85984.5,11.63,-0.87,-0.24,-0.17,28.2,5.7,-19.2,35.0,,,,,,,,,,
15.19.04.861,10.2,2.6,0,,,85984.5,11.63,-0.73,-0.72,-0.42,-47.8,16.8,-11.3,35.4,,,,,,,,,,
15.19.04.870,10.9,2.7,0,,,85984.5,11.63,-0.76,-0.62,-0.66,17.6,-0.6,-0.9,35.13,,,,,,,,,,
15.19.04.878,28.0,7.0,0,,,85984.5,11.63,-0.51,-0.5,0.3,-10.8,5.4,10.6,35.46,,,,,,,,,,
15.19.04.885,33.3,8.3,0,,,85984.5,11.63,-0.75,-0.53,-0.44,-8.9,12.2,2.0,34.98,,,,,,,,,,
15.19.04.893,27.8,7.0,0,,,85984.5,11.63,-0.53,-0.18,-0.37,-33.0,22.6,-15.7,35.21,,,,,,,,,,
15.19.04.903,47.1,11.8,0,,,85984.5,11.63,-0.47,0.32,-0.45,-9.9,16.2,-3.9,34.8,,,,,,,,,,
15.19.04.910,61.6,15.4,0,,,85984.5,11.63,-0.77,-0.14,-0.23,-23.1,-24.5,2.1,35.3,,,,,,,,,,
15.19.04.918,84.4,21.1,0,,,85984.5,11.63,-0.46,-0.48,-0.73,-25.7,31.3,-18.6,35.34,,,,,,,,,,
15.19.04.928,76.4,19.1,0,,,85984.5,11.63,-0.66,-0.4,0.35,11.7,15.2,33.8,35.25,,,,,,,,,,
15.19.04.939,53.2,13.3,0,,,85984.5,11.63,-0.45,-0.18,-0.1,29.2,-10.5,-20.9,35.34,,,,,,,,,,
15.19.04.946,74.5,18.6,0,,,85984.5,11.63,-0.72,-0.38,-0.21,16.8,13.7,7.0,35.59,,,,,,,,,,
15.19.04.955,50.7,12.7,0,,,85984.5,11.63,-0.84,0.17,0.13,12.3,10.9,1.9,35.1,,,,,,,,,,
15.19.04.966,14.2,3.6,0,,,85984.5,11.63,-0.63,-0.11,-0.16,29.1,16.2,13.9,35.18,,,,,,,,,,
15.19.04.976,43.7,10.9,0,,,85984.5,11.63,-0.88,-0.4,0.03,12.2,9.9,-5.6,34.68,,,,,,,,,,
15.19.04.985,56.0,14.0,0,,,85984.5,11.63,-0.8,-0.07,-0.02,-12.6,2.8,-11.8,35.62,,,,,,,,,,
15.19.04.994,57.6,14.4,0,,,85984.5,11.63,-0.24,-0.4,0.03,38.5,7.6,-6.8,34.98,,,,,,,,,,
15.19.05.002,-8.1,2.0,0,,,85984.5,11.63,-0.63,-0.25,-0.26,-18.6,28.1,-6.6,34.9,79.6,,,,,,,,,
15.19.05.011,21.3,5.3,0,,,85984.5,11.63,-0.58,0.09,-0.08,-29.2,11.6,11.8,35.65,,,,,,,,,,
15.19.05.018,17.4,4.4,0,,,85984.5,11.63,-0.98,0.11,0.06,3.3,-16.9,10.7,35.32,,,,,,,,,,
15.19.05.030,-26.7,6.7,0,,,85984.5,11.63,-0.72,0.27,-0.23,4.8,-11.5,-16.9,35.06,,,,,,,,,,
15.19.05.039,-8.2,2.0,0,,,85984.5,11.63,-0.83,-0.27,-0.58,28.6,25.5,-0.8,35.25,,,,,,,,,,
15.19.05.051,-26.1,6.5,0,,,85984.5,11.63,-0.74,-0.21,-0.3,33.3,-22.4,-9.0,35.06,,,,,,,,,,
15.19.05.060,-0.5,0.1,0,,,85984.5,11.63,-0.91,0.05,-0.71,-20.6,17.9,-4.0,35.03,,,,,,,,,,
15.19.05.069,-45.5,11.4,0,,,85984.5,11.63,-0.6,-0.29,-0.7,3.2,1.1,3.2,35.17,,,,,,,,,,
15.19.05.079,-36.0,9.0,0,,,85984.5,11.63,-0.95,0.03,-0.46,-4.8,34.9,-9.1,35.37,,,,,,,,,,
15.19.05.088,-68.9,17.2,0,,,85984.5,11.63,-0.57,0.62,-0.22,8.1,5.2,0.0,35.11,,,,,,,,,,
15.19.05.100,-24.0,6.0,0,,,85984.5,11.63,-1.08,0.18,-0.34,19.8,14.3,-14.5,34.52,,,,,,,,,,
15.19.05.112,-53.6,13.4,0,,,85984.5,11.63,-0.93,-0.34,-0.75,8.6,8.1,-6.0,35.1,,,,,,,,,,
15.19.05.123,-77.9,19.5,0,,,85984.5,11.63,-0.85,0.15,-0.37,-40.3,37.8,35.7,35.25,,,,,,,,,,
15.19.05.133,-79.3,19.8,0,,,85984.5,11.63,-0.6,0.3,-1.06,-9.2,-19.7,-4.7,35.47,,,,,,,,,,
15.19.05.143,-19.6,4.9,0,,,85984.5,11.63,-0.63,0.88,-0.82,4.7,-11.2,-4.7,35.24,,,,,,,,,,
15.19.05.150,-61.5,15.4,0,,,85984.5,11.63,-1.01,-0.04,-0.07,-13.8,9.0,-9.4,35.0,,,,,,,,,,
15.19.05.159,-31.2,7.8,0,,,85984.5,11.63,-1.06,-0.25,-0.74,0.0,-3.4,15.5,35.24,,,,,,,,,,
15.19.05.168,-94.6,23.6,0,,,85984.5,11.63,-1.37,-0.09,-0.89,-28.4,7.1,9.5,35.15,,,,,,,,,,
15.19.05.181,-94.1,23.5,0,,,85984.5,11.63,-0.66,-0.21,-0.58,2.4,-9.6,11.4,35.39,,,,,,,,,,
15.19.05.191,-92.7,23.2,0,,,85984.5,11.63,-0.91,-0.16,-0.46,-45.5,-1.3,-0.5,35.5,,,,,,,,,,
15.19.05.201,-85.3,21.3,0,,,85984.5,11.63,-0.51,-0.41,-0.6,-12.7,14.6,-15.8,34.85,,,,,,,,,,
15.19.05.211,-69.7,17.4,0,,,85984.5,11.63,-0.73,0.19,-0.49,-34.7,7.8,-28.5,35.25,,,,,,,,,,
15.19.05.220,-141.9,35.5,0,,,85984.5,11.63,-1.2,-0.23,0.02,-16.4,37.7,-10.4,35.16,,,,,,,,,,
15.19.05.229,-73.1,18.3,0,,,85984.5,11.63,-0.72,0.18,-0.51,-55.1,25.8,-4.3,34.46,,,,,,,,,,
15.19.05.240,-66.4,16.6,0,,,85984.5,11.63,-0.65,-0.03,-0.32,-12.0,21.7,-6.2,35.8,,,,,,,,,,
15.19.05.248,-104.7,26.2,0,,,85984.5,11.63,-0.96,0.25,-0.58,3.2,-12.3,-13.7,35.38,,,,,,,,,,
15.19.05.260,-102.2,25.6,0,,,85984.5,11.63,-0.97,-0.21,-0.66,-4.4,7.4,6.5,35.38,,,,,,,,,,
15.19.05.268,-111.4,27.8,0,,,85984.5,11.63,-0.38,0.22,0.02,40.9,4.7,-5.3,35.4,,,,,,,,,,
15.19.05.277,-114.0,28.5,0,,,85984.5,11.63,-0.87,0.12,-1.09,13.5,-0.7,-26.5,34.83,,,,,,,,,,
15.19.05.286,-132.8,33.2,0,,,85984.5,11.63,-0.39,0.35,-0.74,21.1,0.7,-37.6,35.28,,,,,,,,,,
15.19.05.295,-126.0,31.5,0,,,85984.5,11.63,-0.64,-0.13,-0.34,15.0,19.6,1.7,34.93,,,,,,,,,,
15.19.05.304,-152.8,38.2,0,,,85984.5,11.63,-0.56,-0.04,-0.68,-22.9,18.4,8.3,35.51,,,,,,,,,,
15.19.05.312,-89.6,22.4,0,,,85984.5,11.63,-0.51,-0.05,-0.28,18.9,-5.9,-9.4,35.46,,,,,,,,,,
15.19.05.322,-164.8,41.2,0,,,85984.5,11.63,-0.5,0.18,0.37,0.8,28.5,-28.7,34.83,,,,,,,,,,
15.19.05.331,-138.0,34.5,0,,,85984.5,11.63,-0.65,0.39,0.18,-3.4,-5.9,-32.0,35.51,,,,,,,,,,
15.19.05.342,-147.8,37.0,0,,,85984.5,11.63,-0.87,-0.05,-0.1,14.2,-24.2,-5.2,35.67,,,,,,,,,,
15.19.05.352,-145.1,36.3,0,,,85910.7,11.64,-0.83,-0.08,0.16,-7.0,13.0,-25.5,35.24,,,,,,,,,,
15.19.05.361,42.0,10.5,1,7.0,83.4,85910.7,11.64,-1.03,0.09,-0.12,6.2,-9.2,2.2,35.38,,,,,,,,,,
15.19.05.372,76.5,19.1,0,,,85910.7,11.64,-0.45,-0.31,0.45,46.7,41.4,-18.8,35.09,,,,,,,,,,
15.19.05.382,148.8,37.2,0,,,85910.7,11.64,-0.54,-0.21,-0.11,2.6,-5.6,4.6,35.16,,,,,,,,,,
15.19.05.392,178.2,44.6,0,,,85910.7,11.64,-0.71,-0.12,-0.85,19.9,51.6,-4.5,35.25,,,,,,,,,,
15.19.05.402,220.4,55.1,0,,,85910.7,11.64,-0.64,0.13,-0.72,21.2,11.2,-5.4,35.6,,,,,,,,,,
15.19.05.411,282.1,70.5,0,,,85910.7,11.64,-0.24,0.07,0.23,13.2,-25.2,13.1,35.1,,,,,,,,,,
15.19.05.420,273.7,68.4,0,,,85910.7,11.64,-0.36,-0.51,-0.1,7.6,-10.4,-3.1,35.12,,,,,,,,,,
15.19.05.429,340.2,85.0,0,,,85910.7,11.64,-0.47,0.09,-0.04,24.1,17.4,-16.5,35.2,,,,,,,,,,
15.19.05.440,322.2,80.6,0,,,85910.7,11.64,-0.54,0.13,-0.13,-55.8,12.2,-4.0,35.18,,,,,,,,,,
15.19.05.450,356.7,89.2,0,,,85910.7,11.64,-0.28,-0.11,-0.21,3.4,12.7,-4.1,34.58,,,,,,,,,,
15.19.05.459,366.7,91.7,0,,,85910.7,11.64,-0.7,-0.44,-0.46,19.8,10.1,8.2,35.44,,,,,,,,,,
15.19.05.471,384.4,96.1,0,,,85910.7,11.64,-0.65,-0.16,0.04,-5.4,29.2,-18.5,34.86,,,,,,,,,,
15.19.05.480,405.0,101.2,0,,,85910.7,11.64,-0.47,-0.43,-0.43,17.3,-7.6,-2.0,35.15,,,,,,,,,,
15.19.05.489,429.1,107.3,0,,,85910.7,11.64,-0.61,-0.14,-0.19,-7.2,8.4,11.5,34.82,,,,,,,,,,
15.19.05.498,438.0,109.5,0,,,85910.7,11.64,-0.47,-0.12,-0.37,5.2,-4.0,-15.1,35.52,,,,,,,,,,
15.19.05.507,410.8,102.7,0,,,85910.7,11.64,-0.39,0.61,-0.42,4.3,-6.4,-3.2,34.65,,,,,,,,,,
15.19.05.517,388.3,97.1,0,,,85910.7,11.64,-0.52,-0.47,-0.62,24.0,-5.9,13.3,35.4,,,,,,,,,,
15.19.05.527,337.1,84.3,0,,,85910.7,11.64,-0.72,0.12,-0.22,-16.7,-20.6,-23.0,34.67,,,,,,,,,,
15.19.05.538,364.1,91.0,0,,,85910.7,11.64,-0.77,-0.43,-0.12,-9.8,6.3,-11.5,34.74,,,,,,,,,,
15.19.05.547,300.3,75.1,0,,,85910.7,11.64,-0.65,-0.02,-0.01,-11.5,-23.6,17.2,35.37,,,,,,,,,,
15.19.05.557,250.6,62.6,0,,,85910.7,11.64,-0.59,-0.69,-0.59,1.9,1.4,-14.7,35.64,,,,,,,,,,
15.19.05.568,253.1,63.3,0,,,85910.7,11.64,-0.95,-0.14,-0.23,-19.5,5.9,-0.3,35.12,,,,,,,,,,
15.19.05.575,223.9,56.0,0,,,85910.7,11.64,-0.59,-0.2,-0.17,-7.0,7.7,5.6,35.14,,,,,,,,,,
15.19.05.584,136.0,34.0,0,,,85910.7,11.64,-0.27,-0.16,-0.1,-3.6,17.5,-10.5,34.98,,,,,,,,,,
15.19.05.594,125.6,31.4,0,,,85910.7,11.64,-0.73,0.17,-0.45,36.9,26.8,10.6,35.46,,,,,,,,,,
15.19.05.604,63.6,15.9,0,,,85910.7,11.64,-0.15,-0.04,-0.48,-8.6,-0.9,9.9,35.13,,,,,,,,,,
15.19.05.613,45.6,11.4,0,,,85910.7,11.64,-0.56,-0.17,-0.85,-21.1,-25.8,-12.0,35.13,,,,,,,,,,
15.19.05.621,-15.6,3.9,0,,,85910.7,11.64,-0.51,-0.36,-0.3,-3.6,-2.2,-9.5,35.34,,,,,,,,,,
15.19.05.632,20.6,5.2,0,,,85910.7,11.64,-0.46,-0.07,-0.45,-45.8,2.1,16.9,35.25,,,,,,,,,,
15.19.05.641,40.9,10.2,0,,,85910.7,11.64,-0.56,-0.41,-0.6,-25.8,-20.7,-16.8,35.14,,,,,,,,,,
15.19.05.649,35.0,8.8,0,,,85910.7,11.64,-0.51,-0.22,-0.35,0.1,-25.3,8.4,35.08,,,,,,,,,,
15.19.05.658,40.6,10.2,0,,,85910.7,11.64,-0.48,-0.37,-0.33,-7.2,25.3,-20.4,35.27,,,,,,,,,,
15.19.05.667,51.1,12.8,0,,,85910.7,11.64,-0.78,-0.22,-0.24,15.5,17.5,-13.5,35.25,,,,,,,,,,
15.19.05.675,67.4,16.8,0,,,85910.7,11.64,-0.69,-0.62,0.1,21.7,23.6,0.5,34.89,,,,,,,,,,
15.19.05.683,69.8,17.4,0,,,85910.7,11.64,-0.45,-0.37,-0.19,-23.1,35.8,-5.7,34.65,,,,,,,,,,
15.19.05.693,48.7,12.2,0,,,85910.7,11.64,-0.78,-0.18,-0.59,11.8,27.7,-14.2,35.24,,,,,,,,,,
15.19.05.703,88.3,22.1,0,,,85910.7,11.64,-0.63,0.09,-0.34,0.9,22.0,-12.0,35.36,,,,,,,,,,
15.19.05.713,104.6,26.2,0,,,85910.7,11.64,-0.43,-0.16,-0.05,2.8,34.4,8.5,35.12,,,,,,,,,,
15.19.05.722,106.8,26.7,0,,,85910.7,11.64,-0.56,-0.3,-0.09,30.3,-1.6,13.6,35.28,,,,,,,,,,
15.19.05.730,41.2,10.3,0,,,85910.7,11.64,-0.6,-0.29,-0.34,-35.8,0.2,5.8,35.59,,,,,,,,,,
15.19.05.737,62.4,15.6,0,,,85910.7,11.64,-0.42,-0.37,-0.26,13.0,-16.8,-4.7,35.51,,,,,,,,,,
15.19.05.746,54.8,13.7,0,,,85910.7,11.64,-0.61,-0.22,-0.47,-33.9,-5.5,-7.3,34.83,,,,,,,,,,
15.19.05.754,11.2,2.8,0,,,85910.7,11.64,-0.89,-0.42,-0.34,-2.8,18.0,13.5,35.22,,,,,,,,,,
15.19.05.764,-15.6,3.9,0,,,85910.7,11.64,-0.85,-0.68,-0.0,39.5,17.4,-5.1,35.3,,,,,,,,,,
15.19.05.772,1.9,0.5,0,,,85910.7,11.64,-0.53,0.06,-0.04,-9.1,7.9,17.1,34.94,,,,,,,,,,
15.19.05.781,-16.1,4.0,0,,,85910.7,11.64,-0.33,-0.19,-0.35,-45.5,6.2,-41.3,35.37,,,,,,,,,,
15.19.05.788,-44.0,11.0,0,,,85910.7,11.64,-0.74,-0.22,-0.52,-34.6,23.4,9.2,35.17,,,,,,,,,,
15.19.05.799,-34.6,8.6,0,,,85910.7,11.64,-0.7,0.32,0.44,-15.1,30.0,1.7,34.92,,,,,,,,,,
15.19.05.809,-38.3,9.6,0,,,85910.7,11.64,-0.92,-0.47,0.34,21.4,14.6,9.2,35.16,,,,,,,,,,
15.19.05.818,2.8,0.7,0,,,85910.7,11.64,-0.59,0.01,-0.1,-23.4,8.3,18.0,35.08,,,,,,,,,,
15.19.05.828,-9.9,2.5,0,,,85910.7,11.64,-0.46,0.17,-0.34,22.3,-4.3,-7.4,35.68,,,,,,,,,,
15.19.05.837,-19.8,5.0,0,,,85910.7,11.64,-0.88,-0.15,-0.02,9.8,14.1,-16.8,35.16,,,,,,,,,,
15.19.05.846,-25.2,6.3,0,,,85910.7,11.64,-0.33,0.07,0.19,4.4,23.9,0.3,35.16,,,,,,,,,,
15.19.05.856,-49.9,12.5,0,,,85910.7,11.64,-0.9,-0.09,-0.29,-41.9,9.9,-11.4,35.24,,,,,,,,,,
15.19.05.866,-47.8,12.0,0,,,85910.7,11.64,-0.42,-0.47,-0.16,4.1,31.5,-2.1,35.27,,,,,,,,,,
15.19.05.876,-43.8,11.0,0,,,85910.7,11.64,-0.78,-0.19,-0.28,8.2,-5.1,-9.0,34.91,,,,,,,,,,
15.19.05.887,-19.8,5.0,0,,,85910.7,11.64,-0.92,-0.06,-0.14,-28.8,-4.0,19.7,35.2,,,,,,,,,,
15.19.05.897,-71.5,17.9,0,,,85910.7,11.64,-0.59,-0.4,-0.2,35.9,6.1,-8.8,34.84,,,,,,,,,,
15.19.05.906,-74.4,18.6,0,,,85910.7,11.64,-0.88,-0.31,-0.26,-17.8,-3.1,20.6,34.54,,,,,,,,,,
15.19.05.914,-82.8,20.7,0,,,85910.7,11.64,-0.74,-0.21,-0.2,-17.9,7.5,-27.9,35.24,,,,,,,,,,
15.19.05.923,-79.0,19.8,0,,,85910.7,11.64,-1.14,-0.07,-0.45,-8.9,-7.4,7.1,35.02,,,,,,,,,,
15.19.05.931,-71.9,18.0,0,,,85836.9,11.65,-0.9,-0.57,-0.33,39.0,19.3,-8.9,35.05,,,,,,,,,,
15.19.05.940,-78.0,19.5,0,,,85836.9,11.65,-0.84,0.35,-0.09,-0.3,18.6,37.7,35.36,,,,,,,,,,
15.19.05.947,-73.4,18.4,0,,,85836.9,11.65,-1.07,-0.4,-0.62,-1.5,8.5,5.2,35.25,,,,,,,,,,
15.19.05.957,-81.2,20.3,0,,,85836.9,11.65,-0.6,0.25,0.01,-29.7,-0.0,-17.0,35.08,,,,,,,,,,
15.19.05.963,-99.4,24.8,0,,,85836.9,11.65,-0.95,0.09,-0.56,3.6,28.3,2.5,35.11,,,,,,,,,,
15.19.05.972,-103.1,25.8,0,,,85836.9,11.65,-0.83,0.26,-0.22,0.8,22.6,-21.0,34.81,,,,,,,,,,
15.19.05.983,-83.1,20.8,0,,,85836.9,11.65,-0.64,0.45,-0.41,30.3,6.2,-14.3,35.69,,,,,,,,,,
15.19.05.992,-138.0,34.5,0,,,85836.9,11.65,-0.79,0.33,-0.17,10.6,7.6,-0.5,35.0,,,,,,,,,,
15.19.06.002,-137.2,34.3,0,,,85836.9,11.65,-0.95,-0.46,-0.47,19.1,-26.0,2.3,35.91,,,,,,,,,,
15.19.06.013,-138.1,34.5,0,,,85836.9,11.65,-1.15,-0.34,-0.15,7.0,-1.7,-47.9,34.78,,,,,,,,,,
15.19.06.025,-125.1,31.3,0,,,85836.9,11.65,-0.8,0.12,-0.18,4.3,2.0,-14.6,34.96,,,,,,,,,,
15.19.06.034,-123.5,30.9,0,,,85836.9,11.65,-0.89,0.34,-0.26,1.7,11.7,2.1,34.87,,,,,,,,,,
15.19.06.042,-130.5,32.6,0,,,85836.9,11.65,-0.79,-0.16,-0.27,4.5,1.4,24.9,35.33,,,,,,,,,,
15.19.06.051,-130.4,32.6,0,,,85836.9,11.65,-0.57,-0.01,-0.37,-22.7,-11.9,18.5,35.14,,,,,,,,,,
15.19.06.062,-103.6,25.9,1,8.0,85.6,85836.9,11.65,-1.04,-0.1,-0.51,8.4,8.6,-1.0,35.58,,,,,,,,,,
15.19.06.071,-171.0,42.8,0,,,85836.9,11.65,-0.65,-0.57,-0.37,9.4,19.6,-2.1,35.28,,,,,,,,,,
15.19.06.081,-167.2,41.8,0,,,85836.9,11.65,-0.87,0.45,-1.17,11.5,-14.2,-22.4,35.12,,,,,,,,,,
15.19.06.091,-121.1,30.3,0,,,85836.9,11.65,-0.59,-0.26,-0.87,7.9,16.0,30.7,35.14,,,,,,,,,,
15.19.06.099,-141.8,35.4,0,,,85836.9,11.65,-0.6,0.1,0.12,32.1,-14.0,-22.2,35.34,,,,,,,,,,
15.19.06.109,-168.2,42.0,0,,,85836.9,11.65,-0.52,0.15,-0.35,-47.7,-10.3,-41.1,35.68,,,,,,,,,,
15.19.06.119,44.3,11.1,0,,,85836.9,11.65,-0.51,0.32,-0.52,1.2,-8.3,13.5,35.29,,,,,,,,,,
15.19.06.130,79.5,19.9,0,,,85836.9,11.65,-0.58,0.5,-0.82,30.1,9.7,-3.9,35.09,,,,,,,,,,
15.19.06.139,122.1,30.5,0,,,85836.9,11.65,-0.44,0.13,-0.21,-4.6,-24.1,27.2,34.83,,,,,,,,,,
15.19.06.150,142.5,35.6,0,,,85836.9,11.65,-0.73,0.06,-0.4,-34.5,25.5,-24.7,35.15,,,,,,,,,,
15.19.06.159,219.9,55.0,0,,,85836.9,11.65,-0.92,0.11,-0.27,27.0,15.7,-26.6,35.25,,,,,,,,,,
15.19.06.171,296.4,74.1,0,,,85836.9,11.65,-0.76,-0.28,-0.49,-2.8,19.6,8.1,35.37,,,,,,,,,,
15.19.06.181,283.0,70.8,0,,,85836.9,11.65,-0.64,0.31,-0.33,-37.3,14.9,24.2,35.37,,,,,,,,,,
15.19.06.190,321.4,80.4,0,,,85836.9,11.65,-0.22,0.2,-0.16,-25.1,-11.2,6.5,34.33,,,,,,,,,,
15.19.06.199,379.0,94.8,0,,,85836.9,11.65,-0.82,0.42,-0.14,-1.9,4.0,8.1,35.66,,,,,,,,,,
15.19.06.210,369.7,92.4,0,,,85836.9,11.65,-0.83,0.15,-0.32,0.3,10.1,16.6,35.0,,,,,,,,,,
15.19.06.219,446.0,111.5,0,,,85836.9,11.65,-0.42,0.39,-0.04,21.8,-2.7,16.2,35.26,,,,,,,,,,
15.19.06.227,398.5,99.6,0,,,85836.9,11.65,-0.54,0.04,-0.01,-35.6,-9.8,-9.4,35.22,,,,,,,,,,
15.19.06.237,371.8,93.0,0,,,85836.9,11.65,-0.46,-0.12,-0.5,-25.5,21.3,-8.4,34.89,,,,,,,,,,
15.19.06.248,435.7,108.9,0,,,85836.9,11.65,-0.39,-0.19,-0.14,39.7,-11.1,-18.3,35.31,,,,,,,,,,
15.19.06.258,427.3,106.8,0,,,85836.9,11.65,-0.56,-0.2,-0.55,7.6,3.2,27.4,35.29,,,,,,,,,,
15.19.06.270,428.4,107.1,0,,,85836.9,11.65,-0.92,-0.12,-0.44,-9.2,-2.1,-27.5,35.08,,,,,,,,,,
15.19.06.279,393.1,98.3,0,,,85836.9,11.65,-1.02,-0.24,-0.06,16.3,-9.3,20.7,35.54,,,,,,,,,,
15.19.06.289,364.9,91.2,0,,,85836.9,11.65,-0.49,-0.01,-0.93,-24.5,28.3,11.9,35.39,,,,,,,,,,
15.19.06.300,346.9,86.7,0,,,85836.9,11.65,-0.89,0.28,0.27,-11.5,-21.8,6.1,34.82,,,,,,,,,,
15.19.06.310,273.2,68.3,0,,,85836.9,11.65,-0.75,-0.03,-0.15,0.9,19.2,-0.3,35.3,,,,,,,,,,
15.19.06.318,264.2,66.0,0,,,85836.9,11.65,-0.84,0.24,-0.74,9.6,4.2,12.2,34.95,,,,,,,,,,
15.19.06.330,233.6,58.4,0,,,85836.9,11.65,-0.59,-0.28,-0.54,-6.4,23.4,-10.0,35.6,,,,,,,,,,
15.19.06.337,180.6,45.2,0,,,85836.9,11.65,-0.71,0.15,-0.14,34.8,-30.3,-17.3,35.25,,,,,,,,,,
15.19.06.348,117.9,29.5,0,,,85836.9,11.65,-0.67,-0.01,-0.61,-25.5,10.1,17.4,34.92,,,,,,,,,,
15.19.06.356,103.0,25.8,0,,,85836.9,11.65,-0.55,-0.36,-0.3,-14.1,12.4,16.7,34.85,,,,,,,,,,
15.19.06.365,68.2,17.0,0,,,85836.9,11.65,-0.12,0.41,0.17,6.1,11.7,34.3,35.16,,,,,,,,,,
15.19.06.374,29.7,7.4,0,,,85836.9,11.65,-0.16,-0.1,-0.63,19.1,22.2,25.0,35.28,,,,,,,,,,
15.19.06.386,34.4,8.6,0,,,85836.9,11.65,-0.77,-0.06,-0.31,-15.0,17.1,-22.4,34.83,,,,,,,,,,
15.19.06.394,47.7,11.9,0,,,85836.9,11.65,-0.69,-0.13,-1.28,21.0,0.9,16.9,35.72,,,,,,,,,,
15.19.06.403,25.2,6.3,0,,,85836.9,11.65,-0.71,-0.18,-0.32,2.1,-8.1,-13.0,35.32,,,,,,,,,,
15.19.06.412,29.5,7.4,0,,,85836.9,11.65,-0.48,-0.13,-0.98,1.2,-10.8,10.3,35.16,,,,,,,,,,
15.19.06.421,57.4,14.4,0,,,85836.9,11.65,-0.37,-0.02,-0.45,-7.3,-10.7,2.7,35.01,,,,,,,,,,
15.19.06.434,42.6,10.6,0,,,85836.9,11.65,-0.29,0.06,-0.4,23.5,-11.2,-15.5,35.06,,,,,,,,,,
15.19.06.444,80.5,20.1,0,,,85836.9,11.65,-0.7,-0.76,-0.84,-5.5,-23.7,7.4,34.89,,,,,,,,,,
15.19.06.454,71.9,18.0,0,,,85836.9,11.65,-0.6,-0.22,0.05,15.0,-4.7,-9.8,35.71,,,,,,,,,,
15.19.06.465,66.2,16.6,0,,,85836.9,11.65,-0.61,0.08,-0.51,9.4,6.1,-27.3,35.23,,,,,,,,,,
15.19.06.474,56.4,14.1,0,,,85836.9,11.65,-0.35,-0.58,-0.93,-21.4,-1.4,-6.5,35.02,,,,,,,,,,
15.19.06.484,75.1,18.8,0,,,85836.9,11.65,-0.59,-0.35,0.19,15.9,17.9,-23.6,34.98,,,,,,,,,,
15.19.06.493,29.8,7.4,0,,,85836.9,11.65,-0.44,-0.35,-0.44,13.9,-7.0,10.9,34.98,,,,,,,,,,
15.19.06.502,25.1,6.3,0,,,85836.9,11.65,-0.58,-0.65,-0.53,1.2,-12.2,-6.2,35.16,,,,,,,,,,
15.19.06.510,6.8,1.7,0,,,85836.9,11.65,-0.67,-0.69,-0.36,-29.8,2.5,12.2,35.23,,,,,,,,,,
15.19.06.520,10.7,2.7,0,,,85836.9,11.65,-0.82,-0.35,-0.64,47.9,-15.4,-18.1,35.41,,,,,,,,,,
15.19.06.531,29.1,7.3,0,,,85836.9,11.65,-0.4,-0.25,-0.89,7.5,6.6,11.2,35.67,,,,,,,,,,
15.19.06.542,12.4,3.1,0,,,85836.9,11.65,-0.91,-0.51,-0.27,43.8,30.2,6.6,35.75,,,,,,,,,,
15.19.06.552,-33.6,8.4,0,,,85836.9,11.65,-0.84,-0.71,-0.85,-43.4,8.5,6.0,34.86,,,,,,,,,,
15.19.06.566,-35.6,8.9,0,,,85836.9,11.65,-0.45,0.05,-0.63,3.3,-1.6,0.0,35.23,,,,,,,,,,
15.19.06.577,-32.2,8.0,0,,,85836.9,11.65,-0.38,-0.51,-0.48,-34.5,0.2,11.5,35.41,,,,,,,,,,
15.19.06.587,-26.9,6.7,0,,,85836.9,11.65,-0.22,-0.35,-0.28,2.0,1.9,1.6,35.32,,,,,,,,,,
15.19.06.598,-5.0,1.2,0,,,85836.9,11.65,-0.43,-0.34,-0.21,-14.8,50.4,24.7,35.37,,,,,,,,,,
15.19.06.609,-56.8,14.2,0,,,85836.9,11.65,-0.56,-0.03,-0.11,-13.6,6.8,-22.1,35.03,,,,,,,,,,
15.19.06.618,-45.8,11.4,0,,,85836.9,11.65,-1.05,-0.25,0.2,-24.0,6.7,-3.3,34.85,,,,,,,,,,
15.19.06.628,-25.6,6.4,0,,,85836.9,11.65,-0.69,-0.4,-0.19,14.5,18.2,17.6,35.44,,,,,,,,,,
15.19.06.638,-56.1,14.0,0,,,85836.9,11.65,-0.83,-0.52,-0.37,19.3,-5.8,-10.2,35.49,,,,,,,,,,
15.19.06.647,-54.1,13.5,0,,,85836.9,11.65,-0.74,-0.5,-0.36,-6.7,44.7,-23.2,35.24,,,,,,,,,,
15.19.06.655,-84.9,21.2,0,,,85836.9,11.65,-0.64,-0.33,0.2,0.1,-13.3,22.7,34.96,,,,,,,,,,
15.19.06.665,-63.6,15.9,0,,,85836.9,11.65,-0.53,-0.11,-0.15,21.1,24.5,21.2,35.07,,,,,,,,,,
15.19.06.677,-90.3,22.6,0,,,85836.9,11.65,-0.6,-0.76,-0.19,-1.7,15.8,7.5,35.18,,,,,,,,,,
15.19.06.686,-59.3,14.8,0,,,85836.9,11.65,-0.92,-0.66,-0.25,27.5,-19.4,13.5,35.28,,,,,,,,,,
15.19.06.698,-64.5,16.1,0,,,85836.9,11.65,-0.71,-0.3,-0.39,17.0,29.4,-7.3,34.9,,,,,,,,,,
15.19.06.707,-98.4,24.6,0,,,85836.9,11.65,-0.61,-0.39,0.04,40.9,-23.7,3.7,35.42,,,,,,,,,,
15.19.06.716,-65.9,16.5,0,,,85836.9,11.65,-1.01,-0.11,0.05,-17.4,2.6,24.9,34.97,,,,,,,,,,
15.19.06.725,-78.7,19.7,0,,,85836.9,11.65,-0.5,-0.73,-0.42,46.6,-8.9,6.4,35.39,,,,,,,,,,
15.19.06.737,-103.1,25.8,0,,,85836.9,11.65,-0.84,-0.27,0.05,27.9,3.2,7.2,35.29,,,,,,,,,,
15.19.06.747,-137.9,34.5,0,,,85836.9,11.65,-0.58,0.16,-0.67,-7.1,24.8,17.4,35.91,,,,,,,,,,
15.19.06.759,-127.0,31.8,0,,,85836.9,11.65,-0.46,0.14,-0.24,-9.9,7.2,-3.2,35.39,,,,,,,,,,
15.19.06.769,-104.6,26.2,0,,,85836.9,11.65,-0.86,-0.4,-0.09,8.0,-1.8,-1.2,35.04,,,,,,,,,,
15.19.06.778,-131.7,32.9,0,,,85836.9,11.65,-0.79,-0.71,-0.6,-19.8,40.4,3.3,35.66,,,,,,,,,,
15.19.06.787,-117.5,29.4,1,9.0,82.8,85836.9,11.65,-0.84,-0.6,-0.33,-19.3,32.4,25.7,35.69,,,,,,,,,,
15.19.06.798,-144.5,36.1,0,,,85836.9,11.65,-0.51,-0.31,-0.26,-14.3,-5.5,22.4,35.21,,,,,,,,,,
15.19.06.808,-138.2,34.6,0,,,85836.9,11.65,-0.65,0.14,-0.52,-18.9,15.5,-2.1,35.43,,,,,,,,,,
15.19.06.817,-160.5,40.1,0,,,85836.9,11.65,-0.72,0.0,0.19,-59.6,14.1,-10.9,35.49,,,,,,,,,,
15.19.06.827,-146.8,36.7,0,,,85836.9,11.65,-0.68,-0.27,0.36,34.5,-2.8,25.2,35.31,,,,,,,,,,
15.19.06.838,-125.8,31.4,0,,,85836.9,11.65,-1.12,-0.02,-0.24,-0.8,9.8,-0.7,34.9,,,,,,,,,,
15.19.06.846,-159.5,39.9,0,,,85836.9,11.65,-0.9,-0.31,-0.43,30.7,3.3,29.6,35.1,,,,,,,,,,
15.19.06.856,-162.7,40.7,0,,,85836.9,11.65,-0.99,-0.58,-0.61,-29.4,-42.5,10.3,35.02,,,,,,,,,,
15.19.06.869,-167.4,41.8,0,,,85836.9,11.65,-1.0,-0.07,-0.45,65.3,-12.0,-24.7,35.13,,,,,,,,,,
15.19.06.880,35.2,8.8,0,,,85836.9,11.65,-0.73,0.02,-0.49,-22.1,5.7,-5.2,35.16,,,,,,,,,,
15.19.06.890,83.9,21.0,0,,,85836.9,11.65,-0.76,-0.58,-0.18,22.6,-12.1,-5.2,35.94,,,,,,,,,,
15.19.06.899,143.4,35.8,0,,,85836.9,11.65,-0.77,-0.39,-0.66,6.6,-21.0,22.9,35.11,,,,,,,,,,
15.19.06.907,194.5,48.6,0,,,85836.9,11.65,-0.88,0.17,-0.59,4.8,7.9,-26.1,35.22,,,,,,,,,,
15.19.06.917,199.6,49.9,0,,,85836.9,11.65,-0.57,0.2,-0.51,29.3,7.9,28.3,35.09,,,,,,,,,,
15.19.06.927,238.4,59.6,0,,,85836.9,11.65,-0.44,-0.07,-0.12,-15.7,29.0,-7.3,35.23,,,,,,,,,,
15.19.06.937,287.5,71.9,0,,,85836.9,11.65,-0.75,-0.31,-0.49,-45.9,23.1,20.7,35.24,,,,,,,,,,
15.19.06.947,319.8,80.0,0,,,85836.9,11.65,-0.84,0.2,-0.62,19.5,35.1,-6.1,35.0,,,,,,,,,,
15.19.06.958,330.0,82.5,0,,,85836.9,11.65,-1.05,0.15,-0.01,-35.6,29.5,-0.7,35.56,,,,,,,,,,
15.19.06.968,380.4,95.1,0,,,85836.9,11.65,-0.85,0.27,-0.41,-46.3,17.7,-31.9,35.13,,,,,,,,,,
15.19.06.979,393.1,98.3,0,,,85836.9,11.65,-0.87,0.36,-0.96,-5.9,18.2,18.6,35.07,,,,,,,,,,
15.19.06.988,382.2,95.6,0,,,85836.9,11.65,-0.7,-0.59,-0.81,-16.0,12.1,7.4,35.29,,,,,,,,,,
15.19.07.000,368.4,92.1,0,,,85836.9,11.65,-0.93,-0.17,-0.44,8.0,-25.4,5.4,35.51,,,,,,,,,,
15.19.07.010,421.3,105.3,0,,,85836.9,11.65,-0.47,0.57,-0.81,14.5,1.2,-5.2,34.95,,,,,,,,,,
15.19.07.020,390.1,97.5,0,,,85836.9,11.65,-0.71,0.47,-0.77,-12.4,-16.3,-2.8,34.72,,,,,,,,,,
15.19.07.030,351.6,87.9,0,,,85836.9,11.65,-0.53,-0.41,0.0,-16.1,24.0,-0.6,35.2,,,,,,,,,,
15.19.07.040,421.5,105.4,0,,,85836.9,11.65,-0.73,-0.31,-0.11,-27.2,40.1,-3.0,34.76,,,,,,,,,,
15.19.07.049,356.4,89.1,0,,,85836.9,11.65,-1.12,-0.16,-0.43,-19.3,44.2,-6.8,34.98,,,,,,,,,,
15.19.07.059,325.3,81.3,0,,,85836.9,11.65,-0.8,-0.36,-0.11,21.2,15.9,-5.6,35.3,,,,,,,,,,
15.19.07.069,271.8,68.0,0,,,85836.9,11.65,-0.61,0.06,-0.19,-34.7,12.7,14.5,34.85,,,,,,,,,,
15.19.07.079,282.3,70.6,0,,,85836.9,11.65,-0.41,0.43,-0.38,-15.4,-20.6,-16.8,35.11,,,,,,,,,,
15.19.07.087,170.9,42.7,0,,,85836.9,11.65,-0.54,-0.18,0.3,-22.1,31.9,-19.2,35.3,,,,,,,,,,
15.19.07.095,181.7,45.4,0,,,85836.9,11.65,-0.96,0.35,-0.55,-30.4,3.7,-11.4,35.05,,,,,,,,,,
15.19.07.103,128.9,32.2,0,,,85836.9,11.65,-0.41,0.27,-0.25,-9.1,5.2,24.9,35.32,,,,,,,,,,
15.19.07.112,117.5,29.4,0,,,85836.9,11.65,-0.27,0.52,-0.09,-10.9,3.0,-34.6,35.38,,,,,,,,,,
15.19.07.121,110.9,27.7,0,,,85836.9,11.65,-0.79,0.39,0.13,-18.7,-3.1,9.4,35.6,,,,,,,,,,
15.19.07.131,44.8,11.2,0,,,85836.9,11.65,-0.53,-0.05,-0.11,18.0,2.4,-21.1,35.44,,,,,,,,,,
15.19.07.140,19.9,5.0,0,,,85836.9,11.65,-0.43,0.1,-0.2,-9.2,31.0,-8.1,34.73,,,,,,,,,,
15.19.07.148,-4.8,1.2,0,,,85836.9,11.65,-0.67,-0.15,0.02,23.8,-16.0,-18.4,35.08,,,,,,,,,,
15.19.07.159,39.8,10.0,0,,,85836.9,11.65,-0.74,-0.17,0.65,27.8,16.2,2.1,35.34,,,,,,,,,,
15.19.07.169,15.6,3.9,0,,,85836.9,11.65,-0.57,0.18,0.25,-30.6,5.8,12.8,35.13,,,,,,,,,,
15.19.07.179,98.5,24.6,0,,,85836.9,11.65,-0.48,0.31,-0.54,-17.7,20.1,17.8,35.33,,,,,,,,,,
15.19.07.190,93.1,23.3,0,,,85836.9,11.65,-0.66,-0.34,-0.07,-8.2,0.6,-0.5,35.59,,,,,,,,,,
15.19.07.202,82.1,20.5,0,,,85836.9,11.65,-0.04,0.18,-0.03,8.4,10.4,4.3,35.22,,,,,,,,,,
15.19.07.213,71.1,17.8,0,,,85836.9,11.65,-0.79,0.06,-0.06,-40.9,-2.9,-20.3,35.35,,,,,,,,,,
15.19.07.223,91.8,23.0,0,,,85836.9,11.65,-0.54,0.3,-0.69,-32.6,-19.9,-3.8,35.23,,,,,,,,,,
15.19.07.232,107.4,26.8,0,,,85836.9,11.65,-0.43,-0.2,-0.08,-2.7,-11.8,-2.4,35.5,,,,,,,,,,
15.19.07.241,80.4,20.1,0,,,85836.9,11.65,-0.58,0.1,-0.26,-8.7,3.6,15.2,35.04,,,,,,,,,,
15.19.07.251,75.8,19.0,0,,,85836.9,11.65,-0.35,-0.3,-0.09,-15.9,-12.1,39.0,34.89,,,,,,,,,,
15.19.07.261,45.4,11.4,0,,,85836.9,11.65,-0.48,-0.55,-0.27,40.9,-2.4,-3.7,35.33,,,,,,,,,,
15.19.07.270,29.4,7.4,0,,,85836.9,11.65,-0.41,-0.23,-0.45,-13.5,33.7,-11.2,35.0,,,,,,,,,,
15.19.07.279,6.6,1.6,0,,,85836.9,11.65,-0.82,-0.45,-0.32,-14.8,-9.0,-22.5,35.41,,,,,,,,,,
15.19.07.287,-4.1,1.0,0,,,85836.9,11.65,-0.8,-0.37,-0.13,-5.2,43.6,-21.6,34.91,,,,,,,,,,
15.19.07.297,26.8,6.7,0,,,85836.9,11.65,-0.92,0.13,-0.14,-41.8,-13.0,0.3,35.2,,,,,,,,,,
15.19.07.309,21.5,5.4,0,,,85763.3,11.66,-0.61,-0.35,-0.72,24.7,6.4,6.1,35.56,,,,,,,,,,
15.19.07.319,4.5,1.1,0,,,85763.3,11.66,-0.16,-0.06,-0.63,48.2,22.2,11.9,35.08,,,,,,,,,,
15.19.07.329,-3.9,1.0,0,,,85763.3,11.66,-0.42,-0.57,-0.75,8.8,-8.3,8.2,35.06,,,,,,,,,,
15.19.07.339,-55.1,13.8,0,,,85763.3,11.66,-0.46,0.02,-0.93,72.8,-15.0,9.6,35.14,,,,,,,,,,
15.19.07.348,-14.6,3.6,0,,,85763.3,11.66,-0.45,0.17,-0.44,-22.7,-25.8,9.8,35.04,,,,,,,,,,
15.19.07.358,-37.4,9.4,0,,,85763.3,11.66,-0.49,-0.24,-0.8,-15.7,18.4,-14.4,35.23,,,,,,,,,,
15.19.07.369,-34.2,8.6,0,,,85763.3,11.66,-0.74,-0.19,-0.56,-25.5,23.3,-12.8,34.78,,,,,,,,,,
15.19.07.379,-14.0,3.5,0,,,85763.3,11.66,-0.57,0.43,-1.08,0.3,12.8,-5.4,35.06,,,,,,,,,,
15.19.07.388,-44.7,11.2,0,,,85763.3,11.66,-0.86,-0.14,-0.98,-2.3,9.0,-7.0,34.84,,,,,,,,,,
15.19.07.395,-65.9,16.5,0,,,85763.3,11.66,-0.73,-0.17,-0.54,-13.0,38.4,-28.1,35.06,,,,,,,,,,
15.19.07.405,-62.5,15.6,0,,,85763.3,11.66,-0.17,-0.09,-0.53,75.7,17.4,-28.5,35.21,,,,,,,,,,
15.19.07.411,-66.9,16.7,0,,,85763.3,11.66,-0.38,0.11,-0.36,47.1,8.7,-13.2,35.2,,,,,,,,,,
15.19.07.421,-46.0,11.5,0,,,85763.3,11.66,-0.6,-0.67,0.2,9.3,10.5,11.3,35.36,,,,,,,,,,
15.19.07.431,-73.5,18.4,0,,,85763.3,11.66,-0.58,-0.4,-0.36,7.4,10.2,2.2,35.24,,,,,,,,,,
15.19.07.442,-90.1,22.5,0,,,85763.3,11.66,-0.53,-0.42,-0.28,26.5,-12.3,-7.3,35.32,,,,,,,,,,
15.19.07.456,-87.4,21.8,0,,,85763.3,11.66,-0.61,-0.2,-0.46,36.2,-12.0,15.1,35.06,,,,,,,,,,
15.19.07.464,-94.5,23.6,0,,,85763.3,11.66,-0.4,-0.37,-0.35,21.0,3.0,-23.1,35.39,,,,,,,,,,
15.19.07.474,-85.5,21.4,0,,,85763.3,11.66,-0.7,-0.17,-0.99,-39.7,11.4,10.7,35.19,,,,,,,,,,
15.19.07.484,-111.7,27.9,0,,,85763.3,11.66,-1.08,-0.33,-0.45,-11.9,7.3,-3.0,35.24,,,,,,,,,,
15.19.07.494,-111.6,27.9,0,,,85763.3,11.66,-0.64,-0.26,-0.33,25.8,-40.1,-17.4,34.78,,,,,,,,,,
15.19.07.504,-88.9,22.2,0,,,85763.3,11.66,-0.68,-0.24,-0.12,7.6,-6.5,-17.2,35.37,,,,,,,,,,
15.19.07.513,-106.6,26.6,0,,,85763.3,11.66,-0.28,-0.6,-0.55,-33.6,-7.7,-3.3,35.21,,,,,,,,,,
15.19.07.523,-119.4,29.8,0,,,85763.3,11.66,-0.95,0.04,-0.26,-34.5,23.3,11.5,35.38,,,,,,,,,,
15.19.07.530,-96.1,24.0,0,,,85763.3,11.66,-0.86,-0.66,0.02,-21.3,-5.2,-1.0,35.08,,,,,,,,,,
15.19.07.540,-131.3,32.8,0,,,85763.3,11.66,-0.63,-0.24,0.63,-20.1,26.8,31.7,35.1,,,,,,,,,,
15.19.07.551,-152.4,38.1,0,,,85763.3,11.66,-0.92,-0.34,-0.26,-9.2,40.5,13.3,35.46,,,,,,,,,,
15.19.07.560,-142.3,35.6,1,10.0,77.6,85763.3,11.66,-0.7,-0.52,-0.12,39.7,5.7,17.4,35.15,,,,,,,,,,
15.19.07.569,-115.4,28.8,0,,,85763.3,11.66,-0.76,-0.18,-0.13,-9.0,15.1,18.2,35.06,,,,,,,,,,
15.19.07.579,-125.9,31.5,0,,,85763.3,11.66,-0.52,-0.01,-0.48,-24.7,-16.2,22.3,35.32,,,,,,,,,,
15.19.07.589,-137.0,34.2,0,,,85763.3,11.66,-0.79,-0.1,0.02,3.8,-22.3,-0.1,35.09,,,,,,,,,,
15.19.07.599,-129.2,32.3,0,,,85763.3,11.66,-0.34,-0.22,-0.56,18.0,-5.1,-22.8,35.09,,,,,,,,,,
15.19.07.610,-148.3,37.1,0,,,85763.3,11.66,-0.81,-0.26,-0.21,-10.3,9.8,2.6,35.27,,,,,,,,,,
15.19.07.621,-164.0,41.0,0,,,85763.3,11.66,-0.8,-0.24,-0.21,5.3,-5.7,8.1,35.44,,,,,,,,,,
15.19.07.631,-26.9,6.7,0,,,85763.3,11.66,-0.96,-0.07,0.21,-12.8,38.0,-6.7,35.39,,,,,,,,,,
15.19.07.641,53.7,13.4,0,,,85763.3,11.66,-1.01,0.23,-0.52,-21.7,-2.5,-15.1,35.61,,,,,,,,,,
15.19.07.651,113.6,28.4,0,,,85763.3,11.66,-0.57,-0.41,-0.28,-26.4,8.8,-22.8,35.29,,,,,,,,,,
15.19.07.661,140.3,35.1,0,,,85763.3,11.66,-0.9,-0.02,-0.99,-9.1,19.7,28.2,34.91,,,,,,,,,,
15.19.07.671,155.6,38.9,0,,,85763.3,11.66,-0.61,-0.25,-0.2,7.1,16.8,10.3,35.23,,,,,,,,,,
15.19.07.681,218.1,54.5,0,,,85763.3,11.66,-0.68,-0.39,-0.23,-8.2,-3.9,8.4,35.11,,,,,,,,,,
15.19.07.688,230.0,57.5,0,,,85763.3,11.66,-1.03,-0.19,-0.57,-1.4,12.6,-3.2,35.42,,,,,,,,,,
15.19.07.697,293.0,73.2,0,,,85763.3,11.66,-0.56,-0.06,-0.35,23.4,29.7,-8.9,35.12,,,,,,,,,,
15.19.07.705,316.4,79.1,0,,,85763.3,11.66,-0.68,-0.33,0.02,6.1,-1.4,5.2,34.85,,,,,,,,,,
15.19.07.714,319.5,79.9,0,,,85763.3,11.66,-0.84,0.22,-0.39,-64.1,11.5,12.0,35.08,,,,,,,,,,
15.19.07.720,353.8,88.4,0,,,85763.3,11.66,-0.59,0.02,-0.47,49.5,-1.3,25.9,35.22,,,,,,,,,,
15.19.07.732,383.9,96.0,0,,,85763.3,11.66,-0.55,-0.16,-0.63,-16.1,-16.9,19.0,35.29,,,,,,,,,,
15.19.07.741,389.2,97.3,0,,,85763.3,11.66,-0.64,-0.31,-0.62,-19.8,11.1,4.2,34.97,,,,,,,,,,
15.19.07.749,399.6,99.9,0,,,85763.3,11.66,-1.1,0.2,-0.38,45.1,9.8,36.3,35.74,,,,,,,,,,
15.19.07.759,423.9,106.0,0,,,85763.3,11.66,-0.45,0.13,-0.51,11.9,10.4,-12.1,35.45,,,,,,,,,,
15.19.07.767,432.9,108.2,0,,,85763.3,11.66,-0.77,0.13,-0.57,-16.8,15.8,-0.8,35.02,,,,,,,,,,
15.19.07.776,447.8,112.0,0,,,85763.3,11.66,-0.53,0.13,-0.69,-15.6,20.4,-3.6,35.38,,,,,,,,,,
15.19.07.786,386.4,96.6,0,,,85763.3,11.66,-0.52,-0.18,-0.66,-10.9,5.8,16.3,35.36,,,,,,,,,,
15.19.07.797,382.1,95.5,0,,,85763.3,11.66,-1.17,-0.23,-0.27,14.9,37.6,27.3,34.73,,,,,,,,,,
15.19.07.806,378.0,94.5,0,,,85763.3,11.66,-0.74,0.07,-0.19,-9.8,13.3,-18.8,35.23,,,,,,,,,,
15.19.07.816,334.4,83.6,0,,,85763.3,11.66,-1.05,0.25,-0.44,-0.2,20.7,-12.7,35.17,,,,,,,,,,
15.19.07.826,310.9,77.7,0,,,85763.3,11.66,-0.79,-0.18,-0.29,-14.9,21.9,4.2,35.08,,,,,,,,,,
15.19.07.835,265.0,66.2,0,,,85763.3,11.66,-0.77,0.37,-0.8,21.8,13.0,2.5,35.2,,,,,,,,,,
15.19.07.845,211.0,52.8,0,,,85763.3,11.66,-0.63,-0.35,-0.37,11.6,20.0,5.3,35.18,,,,,,,,,,
15.19.07.856,138.9,34.7,0,,,85763.3,11.66,-0.86,0.46,-0.52,21.8,-17.5,18.9,35.55,,,,,,,,,,
15.19.07.865,176.0,44.0,0,,,85763.3,11.66,-0.54,0.09,-0.48,-4.5,25.2,-8.6,35.37,,,,,,,,,,
15.19.07.875,107.7,26.9,0,,,85763.3,11.66,-0.61,0.42,-0.34,3.2,2.8,-0.9,35.39,,,,,,,,,,
15.19.07.886,41.8,10.4,0,,,85763.3,11.66,-0.85,0.32,0.04,12.0,-4.0,24.4,35.36,,,,,,,,,,
15.19.07.896,-9.3,2.3,0,,,85763.3,11.66,-0.86,-0.71,-0.37,-5.6,4.3,2.3,35.1,,,,,,,,,,
15.19.07.902,30.0,7.5,0,,,85763.3,11.66,-0.52,-0.25,-0.66,-38.5,-14.9,11.3,35.15,,,,,,,,,,
15.19.07.909,45.1,11.3,0,,,85763.3,11.66,-0.49,-0.26,0.08,3.1,8.6,8.5,35.13,,,,,,,,,,
15.19.07.916,44.7,11.2,0,,,85763.3,11.66,-1.05,0.07,-0.62,-6.0,21.2,3.3,35.43,,,,,,,,,,
15.19.07.926,52.8,13.2,0,,,85763.3,11.66,-0.29,-0.05,-0.29,-42.7,21.5,8.0,35.31,,,,,,,,,,
15.19.07.936,80.7,20.2,0,,,85763.3,11.66,-0.62,0.38,-0.35,-21.1,11.8,17.4,34.92,,,,,,,,,,
15.19.07.946,,,0,,,,,,,,,,,,,,,,,,,,,
15.19.07.954,70.2,17.6,0,,,85763.3,11.66,-0.48,0.3,-0.59,33.2,-4.0,6.1,35.05,,,,,,,,,,
15.19.07.965,32.3,8.1,0,,,85763.3,11.66,-0.41,0.17,-0.09,20.4,-34.2,-8.7,35.37,,,,,,,,,,
15.19.07.976,61.1,15.3,0,,,85763.3,11.66,-0.1,-0.12,-0.22,36.4,-3.6,9.5,34.82,,,,,,,,,,
15.19.07.984,76.9,19.2,0,,,85763.3,11.66,-0.67,0.25,-0.24,-21.8,14.7,-7.6,35.56,,,,,,,,,,
15.19.07.993,76.2,19.0,0,,,85763.3,11.66,-0.71,-0.43,-0.12,10.4,3.4,-3.2,35.08,,,,,,,,,,
15.19.08.001,56.8,14.2,0,,,85689.8,11.67,-0.62,-0.09,0.04,0.2,-19.7,-17.3,35.2,,,,,,,,,,
15.19.08.012,35.7,8.9,0,,,85689.8,11.67,-0.77,0.19,-0.41,-17.4,1.2,-6.4,35.26,,,,,,,,,,
15.19.08.022,34.0,8.5,0,,,85689.8,11.67,-0.83,-0.08,-0.48,-4.8,38.4,25.5,35.32,,,,,,,,,,
15.19.08.031,13.9,3.5,0,,,85689.8,11.67,-0.49,0.24,-0.34,-2.6,18.9,20.1,35.14,,,,,,,,,,
15.19.08.040,-14.5,3.6,0,,,85689.8,11.67,-0.51,0.0,0.05,3.2,1.3,-0.3,35.54,,,,,,,,,,
15.19.08.050,22.6,5.6,0,,,85689.8,11.67,-0.38,-0.43,-0.53,9.8,-7.8,-6.6,34.98,,,,,,,,,,
15.19.08.061,-7.8,2.0,0,,,85689.8,11.67,-0.32,0.07,-0.6,-0.5,7.6,14.6,35.2,,,,,,,,,,
15.19.08.068,-8.1,2.0,0,,,85689.8,11.67,-0.53,-0.15,-0.25,-2.4,-7.5,-16.9,35.01,,,,,,,,,,
15.19.08.076,31.6,7.9,0,,,85689.8,11.67,-0.73,0.33,-0.06,-18.0,-7.4,-15.1,35.14,,,,,,,,,,
15.19.08.083,-5.9,1.5,0,,,85689.8,11.67,-0.41,0.42,0.17,29.9,22.5,8.7,35.25,,,,,,,,,,
15.19.08.093,-6.8,1.7,0,,,85689.8,11.67,-0.55,-0.58,-0.18,-22.7,36.6,-1.7,35.18,,,,,,,,,,
15.19.08.101,-19.0,4.8,0,,,85689.8,11.67,-0.76,-0.3,-0.26,-10.7,-28.8,-8.8,35.48,,,,,,,,,,
15.19.08.111,-14.4,3.6,0,,,85689.8,11.67,-0.38,-0.49,-0.47,-8.4,-3.5,5.4,35.41,,,,,,,,,,
15.19.08.121,-84.7,21.2,0,,,85689.8,11.67,-0.38,-0.55,-0.26,9.6,28.2,-8.8,34.99,,,,,,,,,,
15.19.08.131,-51.6,12.9,0,,,85689.8,11.67,-0.41,-0.34,-0.19,-22.6,-6.1,10.2,35.13,,,,,,,,,,
15.19.08.143,-65.3,16.3,0,,,85689.8,11.67,-0.29,-0.06,-0.56,-23.5,-13.9,19.9,34.81,,,,,,,,,,
15.19.08.154,-56.0,14.0,0,,,85689.8,11.67,-0.67,-0.21,-0.02,-23.8,-15.4,11.6,35.47,,,,,,,,,,
15.19.08.163,-50.2,12.6,0,,,85689.8,11.67,-0.44,0.27,-0.5,20.9,16.7,35.0,35.31,,,,,,,,,,
15.19.08.173,-62.4,15.6,0,,,85689.8,11.67,-0.77,-0.49,-0.52,-5.1,-7.1,-6.6,35.44,,,,,,,,,,
15.19.08.181,-62.0,15.5,0,,,85689.8,11.67,-0.5,-0.1,0.22,-23.6,11.6,5.7,35.03,,,,,,,,,,
15.19.08.193,-73.1,18.3,0,,,85689.8,11.67,-0.41,-0.21,-0.38,-5.3,2.4,3.7,35.67,,,,,,,,,,
15.19.08.203,-99.2,24.8,0,,,85689.8,11.67,-0.52,-0.34,-0.65,-13.8,25.2,-32.6,35.08,,,,,,,,,,
15.19.08.215,-90.3,22.6,0,,,85689.8,11.67,-0.58,-0.52,-0.69,13.7,21.9,6.7,35.26,,,,,,,,,,
15.19.08.225,-99.5,24.9,0,,,85689.8,11.67,-0.64,-0.12,-0.74,-13.5,11.4,-0.3,34.71,,,,,,,,,,
15.19.08.235,-92.8,23.2,0,,,85689.8,11.67,-0.59,-0.36,-0.45,-1.4,-26.8,17.7,35.01,,,,,,,,,,
15.19.08.246,-95.7,23.9,0,,,85689.8,11.67,-0.91,-0.3,-0.98,-38.9,44.5,2.2,35.48,,,,,,,,,,
15.19.08.255,-75.5,18.9,0,,,85689.8,11.67,-0.44,-0.25,-0.8,10.7,24.5,5.7,35.32,,,,,,,,,,
15.19.08.266,-103.5,25.9,0,,,85689.8,11.67,-0.33,-0.8,-0.37,-19.6,13.2,6.3,35.48,,,,,,,,,,
15.19.08.276,-57.5,14.4,0,,,85689.8,11.67,-0.75,0.05,-0.06,0.8,-4.6,-4.3,35.5,,,,,,,,,,
15.19.08.284,-111.9,28.0,0,,,85689.8,11.67,-0.85,-0.4,-0.35,-5.8,-10.3,-12.1,35.49,,,,,,,,,,
15.19.08.294,-77.0,19.2,0,,,85689.8,11.67,-0.86,-0.72,-0.8,24.9,-4.2,-16.6,34.98,,,,,,,,,,
15.19.08.304,-145.5,36.4,0,,,85689.8,11.67,-0.81,0.02,-0.67,-33.2,25.3,-24.6,35.14,,,,,,,,,,
15.19.08.312,-121.7,30.4,0,,,85689.8,11.67,-0.41,-0.51,-0.39,-12.9,20.4,-25.3,35.33,,,,,,,,,,
15.19.08.319,-145.1,36.3,0,,,85689.8,11.67,-0.79,-0.32,0.16,19.5,-0.1,21.2,35.55,,,,,,,,,,
15.19.08.328,-118.3,29.6,0,,,85689.8,11.67,-0.7,-0.36,-0.2,21.3,7.7,7.7,35.43,,,,,,,,,,
15.19.08.339,-153.3,38.3,0,,,85689.8,11.67,-0.77,-0.6,0.19,16.3,1.6,10.7,35.24,,,,,,,,,,
15.19.08.350,-183.0,45.8,0,,,85689.8,11.67,-0.6,-0.03,-0.49,4.3,14.7,-13.5,35.13,,,,,,,,,,
15.19.08.361,-116.6,29.2,0,,,85689.8,11.67,-0.62,-0.4,-0.7,-14.2,-13.5,-5.4,35.48,,,,,,,,,,
15.19.08.370,-138.1,34.5,0,,,85689.8,11.67,-0.56,-0.08,-0.06,-27.6,20.2,16.7,35.28,,,,,,,,,,
15.19.08.381,-180.9,45.2,0,,,85689.8,11.67,-0.45,-0.42,-0.34,-11.3,9.7,-12.0,35.19,,,,,,,,,,
15.19.08.389,-15.2,3.8,0,,,85689.8,11.67,-0.59,-0.09,-0.7,2.8,-3.8,-16.3,35.09,,,,,,,,,,
15.19.08.399,99.4,24.8,0,,,85689.8,11.67,-0.62,-0.38,-0.1,19.4,23.7,3.5,34.87,,,,,,,,,,
15.19.08.408,97.5,24.4,1,11.0,70.8,85689.8,11.67,-0.81,-0.04,-0.24,-25.8,3.7,8.6,35.44,,,,,,,,,,
15.19.08.417,165.4,41.4,0,,,85689.8,11.67,-0.63,-0.49,-0.11,59.3,-5.7,-29.3,35.53,,,,,,,,,,
15.19.08.429,200.5,50.1,0,,,85689.8,11.67,-0.58,0.02,-0.3,19.6,8.9,-18.4,35.09,,,,,,,,,,
15.19.08.438,287.9,72.0,0,,,85689.8,11.67,-0.86,0.06,-0.7,-19.4,-5.1,-3.8,34.94,,,,,,,,,,
15.19.08.449,279.6,69.9,0,,,85689.8,11.67,-0.75,-0.31,-0.38,-1.8,-11.1,-9.0,35.06,,,,,,,,,,
15.19.08.457,297.7,74.4,0,,,85689.8,11.67,-0.58,-0.5,-0.2,4.3,3.2,-27.4,35.36,,,,,,,,,,
15.19.08.467,323.5,80.9,0,,,85689.8,11.67,-0.72,0.18,-0.05,-35.7,10.1,6.0,35.05,,,,,,,,,,
15.19.08.477,362.0,90.5,0,,,85689.8,11.67,-0.6,-0.06,0.48,19.1,33.2,-6.6,35.26,,,,,,,,,,
15.19.08.486,368.9,92.2,0,,,85689.8,11.67,-0.77,-0.58,-0.09,27.4,23.7,10.1,35.27,,,,,,,,,,
15.19.08.494,447.8,112.0,0,,,85689.8,11.67,-0.86,-0.48,0.23,30.3,-7.9,-2.8,35.36,,,,,,,,,,
15.19.08.504,366.2,91.6,0,,,85689.8,11.67,-1.07,0.25,0.2,-17.9,36.1,2.3,34.91,,,,,,,,,,
15.19.08.515,421.8,105.4,0,,,85689.8,11.67,-0.4,-0.07,0.01,-15.5,-3.4,-14.3,34.92,,,,,,,,,,
15.19.08.525,390.4,97.6,0,,,85689.8,11.67,-0.46,-0.25,-0.61,27.0,7.9,-13.7,35.17,,,,,,,,,,
15.19.08.534,395.6,98.9,0,,,85689.8,11.67,-0.94,-0.4,-0.11,-4.6,11.3,23.0,35.35,,,,,,,,,,
15.19.08.544,399.2,99.8,0,,,85689.8,11.67,-0.53,-0.12,-0.48,4.7,19.2,12.5,35.3,,,,,,,,,,
15.19.08.553,369.1,92.3,0,,,85689.8,11.67,-0.75,-0.21,-0.63,17.2,1.1,7.7,34.88,,,,,,,,,,
15.19.08.561,364.7,91.2,0,,,85689.8,11.67,-0.75,0.02,-0.71,28.8,-27.2,-6.0,35.58,,,,,,,,,,
15.19.08.571,297.7,74.4,0,,,85689.8,11.67,-0.8,-0.42,-0.61,-33.3,-0.3,-15.2,34.9,,,,,,,,,,
15.19.08.582,319.8,80.0,0,,,85689.8,11.67,-0.46,-0.3,-0.07,-6.9,6.4,6.0,35.45,,,,,,,,,,
15.19.08.592,298.1,74.5,0,,,85689.8,11.67,-0.61,-0.05,-0.79,38.5,10.1,-35.6,35.0,,,,,,,,,,
15.19.08.602,186.6,46.6,0,,,85689.8,11.67,-0.66,0.34,-0.74,-2.5,6.8,14.9,35.21,,,,,,,,,,
15.19.08.614,181.1,45.3,0,,,85689.8,11.67,-0.92,0.01,-0.78,27.7,-11.0,9.1,34.55,,,,,,,,,,
15.19.08.624,97.2,24.3,0,,,85689.8,11.67,-1.25,0.11,-0.04,7.5,7.0,-30.4,35.57,,,,,,,,,,
15.19.08.634,116.7,29.2,0,,,85689.8,11.67,-0.92,0.07,-0.36,-25.2,0.6,20.2,35.18,,,,,,,,,,
15.19.08.645,19.8,5.0,0,,,85689.8,11.67,-0.68,-0.51,-0.87,14.8,-22.3,0.4,35.47,,,,,,,,,,
15.19.08.655,0.8,0.2,0,,,85689.8,11.67,-0.99,-0.03,-0.42,4.6,0.5,17.7,35.49,,,,,,,,,,
15.19.08.663,-20.2,5.0,0,,,85689.8,11.67,-1.08,-0.23,-0.92,21.2,-1.5,17.9,35.08,,,,,,,,,,
15.19.08.673,29.7,7.4,0,,,85689.8,11.67,-0.71,0.39,-0.45,-19.7,-2.1,-13.3,35.03,,,,,,,,,,
15.19.08.683,36.6,9.2,0,,,85689.8,11.67,-0.99,0.19,-0.52,-9.1,20.8,8.8,34.7,,,,,,,,,,
15.19.08.691,37.8,9.4,0,,,85689.8,11.67,-0.63,0.21,-1.47,-2.4,14.4,-25.5,34.96,,,,,,,,,,
15.19.08.702,65.6,16.4,0,,,85689.8,11.67,-1.06,-0.35,-0.39,3.6,-3.2,-38.7,35.13,,,,,,,,,,
15.19.08.713,96.9,24.2,0,,,85689.8,11.67,-0.8,-0.05,-0.81,30.2,14.2,-32.9,35.33,,,,,,,,,,
15.19.08.721,83.6,20.9,0,,,85689.8,11.67,-0.85,0.49,-0.62,10.3,17.7,5.9,35.07,,,,,,,,,,
15.19.08.731,74.9,18.7,0,,,85689.8,11.67,-0.45,0.12,-0.52,-5.3,-30.1,1.4,35.05,,,,,,,,,,
15.19.08.741,81.0,20.2,0,,,85689.8,11.67,-0.62,-0.27,-0.36,-4.0,50.0,4.7,35.18,,,,,,,,,,
15.19.08.751,61.4,15.4,0,,,85689.8,11.67,-0.38,-0.08,-0.67,18.7,7.7,-22.2,35.56,,,,,,,,,,
15.19.08.760,32.1,8.0,0,,,85689.8,11.67,-0.56,0.49,-0.64,12.7,39.5,3.0,35.11,,,,,,,,,,
15.19.08.771,59.0,14.8,0,,,85689.8,11.67,-0.73,0.1,0.08,19.3,-15.3,-1.6,35.27,,,,,,,,,,
15.19.08.780,24.1,6.0,0,,,85689.8,11.67,-0.75,0.34,-0.72,-9.4,-39.8,-4.2,35.68,,,,,,,,,,
15.19.08.789,0.1,0.0,0,,,85689.8,11.67,-0.54,0.04,-0.26,0.4,4.2,-1.9,35.17,,,,,,,,,,
15.19.08.798,13.2,3.3,0,,,85689.8,11.67,-0.63,0.12,-0.18,-9.1,-20.2,19.7,35.13,,,,,,,,,,
15.19.08.807,6.5,1.6,0,,,85689.8,11.67,-0.57,-0.14,-0.46,3.4,6.0,-16.1,35.12,,,,,,,,,,
15.19.08.817,-33.7,8.4,0,,,85689.8,11.67,-0.58,0.21,-0.12,-21.6,14.5,-9.8,35.38,,,,,,,,,,
15.19.08.828,-21.0,5.2,0,,,85689.8,11.67,-1.0,0.14,-0.63,33.8,-10.5,-14.2,35.41,,,,,,,,,,
15.19.08.839,-16.0,4.0,0,,,85689.8,11.67,-0.47,-0.23,-0.02,37.9,-4.2,8.8,35.13,,,,,,,,,,
15.19.08.849,-26.2,6.6,0,,,85689.8,11.67,-0.44,0.58,-0.48,-25.2,23.6,12.3,35.18,,,,,,,,,,
15.19.08.858,-35.0,8.8,0,,,85689.8,11.67,-0.29,0.19,-0.13,-12.3,7.8,-0.1,35.5,,,,,,,,,,
15.19.08.868,-0.8,0.2,0,,,85689.8,11.67,-0.54,0.24,0.18,-34.9,22.9,-11.1,35.4,,,,,,,,,,
15.19.08.878,-31.6,7.9,0,,,85689.8,11.67,-0.6,0.27,-0.24,31.3,45.3,10.6,35.28,,,,,,,,,,
15.19.08.888,-51.7,12.9,0,,,85689.8,11.67,-0.9,0.1,-0.15,-15.8,9.5,-16.8,35.12,,,,,,,,,,
15.19.08.899,-49.3,12.3,0,,,85689.8,11.67,-0.56,-0.2,-0.34,-0.7,0.1,2.8,35.1,,,,,,,,,,
15.19.08.909,-78.1,19.5,0,,,85689.8,11.67,-0.71,0.15,-0.56,16.0,6.4,-3.1,35.25,,35.21,,,,,,,,
15.19.08.918,-45.4,11.4,0,,,85689.8,11.67,-0.98,-0.06,-0.59,20.0,4.3,12.7,35.33,,,,,,,,,,
15.19.08.929,-2.2,0.6,0,,,85689.8,11.67,-0.88,0.05,-0.23,2.2,-3.1,-20.9,35.1,,,,,,,,,,
15.19.08.940,-57.5,14.4,0,,,85689.8,11.67,-0.5,-0.23,-0.44,-25.9,-13.2,-15.1,34.86,,,,,,,,,,
15.19.08.950,-39.9,10.0,0,,,85689.8,11.67,-0.6,-0.26,-0.26,-29.0,22.5,17.4,34.88,,,,,,,,,,
15.19.08.961,-73.4,18.4,0,,,85689.8,11.67,-0.67,0.32,-0.18,38.8,28.6,3.5,35.43,,,,,,,,,,
15.19.08.970,-63.5,15.9,0,,,85689.8,11.67,-0.81,0.11,-0.34,-3.6,6.3,2.7,35.17,,,,,,,,,,
15.19.08.979,-121.0,30.2,0,,,85689.8,11.67,-0.35,-0.25,-0.19,1.9,2.2,5.2,35.48,,,,,,,,,,
15.19.08.989,-101.8,25.4,0,,,85689.8,11.67,-0.28,0.1,-0.49,-9.4,-38.0,9.6,34.99,,,,,,,,,,
15.19.08.999,-117.9,29.5,0,,,85689.8,11.67,-0.62,0.23,-0.57,54.6,10.2,-6.4,35.44,,,,,,,,,,
15.19.09.008,-94.0,23.5,0,,,85689.8,11.67,-0.38,-0.36,-0.58,-16.9,-10.9,1.7,34.99,,,,,,,,,,
15.19.09.016,-120.2,30.0,0,,,85689.8,11.67,-0.39,0.33,0.01,-6.1,-19.2,-8.3,35.51,,,,,,,,,,
15.19.09.026,-102.7,25.7,0,,,85689.8,11.67,-0.76,-0.1,-0.57,47.2,14.5,-15.7,35.21,,,,,,,,,,
15.19.09.036,-148.5,37.1,0,,,85689.8,11.67,-0.45,-0.48,-0.16,-5.9,8.0,21.6,35.5,,,,,,,,,,
15.19.09.046,-106.6,26.6,0,,,85689.8,11.67,-0.7,-0.33,-0.08,-28.8,8.5,-13.0,34.93,,,,,,,,,,
15.19.09.055,-144.8,36.2,0,,,85689.8,11.67,-0.7,-0.05,-0.11,-1.0,8.1,-11.5,35.45,,,,,,,,,,
15.19.09.065,-96.8,24.2,0,,,85689.8,11.67,-0.28,0.27,-0.7,-21.7,-6.5,-17.5,35.52,,,,,,,,,,
15.19.09.075,-101.4,25.4,0,,,85689.8,11.67,-0.63,0.01,-0.36,4.2,-18.2,31.4,34.89,,,,,,,,,,
15.19.09.084,-118.2,29.6,0,,,85689.8,11.67,-0.67,-0.13,-0.51,-19.9,-3.7,5.1,35.3,,,,,,,,,,
15.19.09.095,-151.5,37.9,0,,,85689.8,11.67,-0.56,-0.58,-0.92,-18.1,8.9,0.5,35.05,,,,,,,,,,
15.19.09.105,-134.9,33.7,0,,,85689.8,11.67,-0.56,-0.3,-0.04,38.5,-9.1,13.0,35.13,,,,,,,,,,
15.19.09.116,-157.0,39.2,0,,,85689.8,11.67,-0.41,0.03,-0.63,26.0,-11.2,-0.0,35.06,,,,,,,,,,
15.19.09.125,-151.7,37.9,0,,,85689.8,11.67,-0.19,-0.43,-0.96,-37.0,4.0,-3.0,35.14,,,,,,,,,,
15.19.09.135,-146.2,36.6,0,,,85689.8,11.67,-0.5,-0.24,-0.35,26.8,9.1,-19.4,35.64,,,,,,,,,,
15.19.09.144,6.3,1.6,0,,,85689.8,11.67,-0.35,0.12,-0.45,29.8,-19.5,0.4,34.65,,,,,,,,,,
15.19.09.155,88.6,22.2,0,,,85689.8,11.67,-0.69,0.13,-0.38,-3.8,12.6,0.2,35.14,,,,,,,,,,
15.19.09.165,92.8,23.2,0,,,85689.8,11.67,-0.43,-0.44,0.18,-5.1,4.2,3.0,35.33,,,,,,,,,,
15.19.09.176,165.9,41.5,0,,,85689.8,11.67,-0.57,0.45,-0.56,-1.3,-8.8,-10.7,35.4,,,,,,,,,,
15.19.09.183,193.1,48.3,0,,,85689.8,11.67,-0.46,0.01,-0.49,-23.6,15.9,2.9,35.01,,,,,,,,,,
15.19.09.192,197.2,49.3,1,12.0,76.5,85689.8,11.67,-0.66,-0.22,-0.29,38.8,37.9,5.8,34.89,,,,,,,,,,
15.19.09.203,304.3,76.1,0,,,85689.8,11.67,-0.69,-0.6,-0.66,-9.7,8.8,-7.1,35.36,,,,,,,,,,
15.19.09.212,299.8,75.0,0,,,85689.8,11.67,-0.34,-0.36,-0.52,-4.1,0.3,-13.3,35.12,,,,,,,,,,
15.19.09.220,338.8,84.7,0,,,85689.8,11.67,-0.56,-0.48,-0.22,-12.7,-4.2,-23.1,35.16,,,,,,,,,,
15.19.09.228,350.8,87.7,0,,,85689.8,11.67,-0.78,-0.78,-0.69,-9.2,5.8,-15.6,34.87,,,,,,,,,,
15.19.09.237,373.2,93.3,0,,,85689.8,11.67,-0.68,0.09,-0.79,1.1,22.7,-9.9,35.1,,,,,,,,,,
15.19.09.246,377.3,94.3,0,,,85689.8,11.67,-0.67,-0.79,-0.36,-19.3,-1.9,-5.6,34.54,,,,,,,,,,
15.19.09.257,405.9,101.5,0,,,85689.8,11.67,-0.69,0.01,-0.28,-17.4,29.3,5.8,35.53,,,,,,,,,,
15.19.09.266,389.4,97.4,0,,,85689.8,11.67,-0.55,-0.2,-0.09,-16.3,16.5,7.9,35.09,,,,,,,,,,
15.19.09.274,404.6,101.2,0,,,85689.8,11.67,-0.55,-0.26,-0.18,-2.1,12.6,40.7,34.94,,,,,,,,,,
15.19.09.285,431.6,107.9,0,,,85689.8,11.67,-0.76,-0.4,-0.08,-10.6,29.5,7.1,34.97,,,,,,,,,,
15.19.09.296,471.8,118.0,0,,,85689.8,11.67,-1.0,-0.25,-0.65,-4.7,-3.5,-1.2,34.99,,,,,,,,,,
15.19.09.304,385.4,96.4,0,,,85689.8,11.67,-0.93,-0.82,-0.34,-29.2,-28.9,7.1,35.02,,,,,,,,,,
15.19.09.315,389.1,97.3,0,,,85689.8,11.67,-0.78,-0.39,-0.5,-37.5,1.7,6.4,35.18,,,,,,,,,,
15.19.09.325,347.7,86.9,0,,,85689.8,11.67,-0.71,-0.96,-0.29,-38.1,2.8,-7.1,35.57,,,,,,,,,,
15.19.09.334,293.1,73.3,0,,,85689.8,11.67,-0.68,0.09,0.17,23.3,-11.7,-0.2,35.11,,,,,,,,,,
15.19.09.345,284.9,71.2,0,,,85689.8,11.67,-0.96,-0.12,-0.29,19.3,1.3,1.2,35.71,,,,,,,,,,
15.19.09.353,209.4,52.4,0,,,85689.8,11.67,-0.89,-0.46,0.1,-22.4,13.2,-17.0,35.45,,,,,,,,,,
15.19.09.364,216.4,54.1,0,,,85689.8,11.67,-1.23,0.05,-0.09,10.5,-17.2,-13.7,35.53,,,,,,,,,,
15.19.09.373,154.9,38.7,0,,,85689.8,11.67,-0.81,-0.36,-0.69,-16.7,9.2,-8.5,35.47,,,,,,,,,,
15.19.09.383,80.9,20.2,0,,,85689.8,11.67,-0.87,0.13,0.22,-0.2,54.1,-36.7,34.97,,,,,,,,,,
15.19.09.392,38.2,9.6,0,,,85689.8,11.67,-0.67,0.19,-0.23,27.7,-7.4,-9.7,35.27,,,,,,,,,,
15.19.09.401,3.8,1.0,0,,,85689.8,11.67,-0.65,-0.26,-0.3,2.4,-10.8,-7.8,35.27,,,,,,,,,,
15.19.09.413,2.9,0.7,0,,,85689.8,11.67,-0.71,-0.86,0.05,44.0,32.1,-27.9,35.38,,,,,,,,,,
15.19.09.425,30.0,7.5,0,,,85689.8,11.67,-0.96,-0.3,0.11,-13.6,-7.6,-16.8,35.42,,,,,,,,,,
15.19.09.438,1.0,0.2,0,,,85689.8,11.67,-0.99,0.36,-0.6,-62.2,4.4,30.0,34.85,,,,,,,,,,
15.19.09.448,60.1,15.0,0,,,85689.8,11.67,-0.62,-0.44,-0.49,46.1,-21.1,-16.1,34.94,,,,,,,,,,
15.19.09.458,41.4,10.4,0,,,85689.8,11.67,-0.93,-0.52,-0.43,6.6,20.4,-12.6,35.35,,,,,,,,,,
15.19.09.467,72.5,18.1,0,,,85689.8,11.67,-0.65,0.17,0.01,-10.7,-5.0,-36.9,34.77,,,,,,,,,,
15.19.09.476,57.3,14.3,0,,,85689.8,11.67,-0.72,0.23,-0.28,4.6,23.4,-0.6,35.23,,,,,,,,,,
15.19.09.484,34.6,8.6,0,,,85616.4,11.68,-0.81,-0.11,-0.0,28.6,42.9,-18.3,34.97,,,,,,,,,,
15.19.09.494,43.8,11.0,0,,,85616.4,11.68,-0.89,-0.09,-0.37,-7.5,-2.7,-5.3,34.99,,,,,,,,,,
15.19.09.505,73.7,18.4,0,,,85616.4,11.68,-0.91,0.09,-0.51,-33.1,19.4,7.4,35.35,,,,,,,,,,
15.19.09.513,46.0,11.5,0,,,85616.4,11.68,-0.45,-0.5,-0.4,2.3,-7.4,-21.1,35.13,,,,,,,,,,
15.19.09.526,70.2,17.6,0,,,85616.4,11.68,-0.61,0.32,-1.18,-28.1,4.0,-24.8,35.2,,,,,,,,,,
15.19.09.534,43.6,10.9,0,,,85616.4,11.68,-0.7,0.17,-0.65,-32.0,34.9,9.8,35.11,,,,,,,,,,
15.19.09.545,28.2,7.0,0,,,85616.4,11.68,-0.73,0.27,-0.22,-20.8,-7.8,-14.1,35.33,,,,,,,,,,
15.19.09.555,19.0,4.8,0,,,85616.4,11.68,-0.95,-0.16,-0.58,16.9,-6.4,-6.2,35.33,,,,,,,,,,
15.19.09.564,4.2,1.0,0,,,85616.4,11.68,-0.97,0.15,-0.9,0.2,22.6,5.3,35.19,,,,,,,,,,
15.19.09.573,-3.2,0.8,0,,,85616.4,11.68,-0.8,-0.12,-0.31,-31.4,10.9,-3.4,35.21,,,,,,,,,,
15.19.09.582,-27.7,6.9,0,,,85616.4,11.68,-0.76,-0.13,-0.9,-45.6,4.2,-3.4,34.62,,,,,,,,,,
15.19.09.593,-42.9,10.7,0,,,85616.4,11.68,-0.67,0.24,-0.36,51.4,7.0,5.7,35.11,,,,,,,,,,
15.19.09.603,-5.7,1.4,0,,,85616.4,11.68,-0.71,0.03,-0.2,-2.0,-23.0,16.7,34.8,,,,,,,,,,
15.19.09.614,-40.2,10.0,0,,,85616.4,11.68,-0.55,0.14,-0.6,6.5,15.9,-20.5,35.4,,,,,,,,,,
15.19.09.622,-35.3,8.8,0,,,85616.4,11.68,-0.98,-0.53,-0.85,4.0,8.5,-21.1,35.28,,,,,,,,,,
15.19.09.631,-13.1,3.3,0,,,85616.4,11.68,-0.6,-0.33,-0.88,58.2,1.0,-13.2,34.93,,,,,,,,,,
15.19.09.640,-58.1,14.5,0,,,85616.4,11.68,-0.49,0.12,-0.44,37.4,18.5,12.6,34.99,,,,,,,,,,
15.19.09.648,-24.8,6.2,0,,,85616.4,11.68,-0.62,-0.2,-0.41,43.8,11.9,-14.1,35.18,,,,,,,,,,
15.19.09.658,-26.0,6.5,0,,,85616.4,11.68,-0.77,0.43,-0.19,23.3,5.8,-4.9,35.35,,,,,,,,,,
15.19.09.666,-48.4,12.1,0,,,85616.4,11.68,-0.67,0.87,-0.41,-15.9,35.7,-25.4,34.88,,,,,,,,,,
15.19.09.674,-57.8,14.4,0,,,85616.4,11.68,-0.59,0.05,-0.37,-14.3,4.6,-16.2,35.14,,,,,,,,,,
15.19.09.686,-49.4,12.4,0,,,85616.4,11.68,-0.63,-0.47,-0.21,-10.0,-22.1,7.4,35.21,,,,,,,,,,
15.19.09.696,-46.0,11.5,0,,,85616.4,11.68,-0.67,0.29,-0.01,-7.9,-22.3,-10.9,35.18,,,,,,,,,,
15.19.09.705,-62.0,15.5,0,,,85616.4,11.68,-0.5,0.02,-0.55,-26.5,17.2,23.8,35.04,,,,,,,,,,
15.19.09.715,-76.8,19.2,0,,,85616.4,11.68,-0.51,-0.06,-0.71,6.4,-4.6,13.6,35.54,,,,,,,,,,
15.19.09.725,-52.1,13.0,0,,,85616.4,11.68,-0.35,0.33,-0.2,2.0,3.1,-38.7,35.44,,,,,,,,,,
15.19.09.735,-95.0,23.8,0,,,85616.4,11.68,-0.36,0.23,-0.05,-7.3,13.3,15.7,35.16,,,,,,,,,,
15.19.09.746,,,0,,,,,,,,,,,,,,,,,,,,,
15.19.09.755,-79.1,19.8,0,,,85616.4,11.68,-0.76,0.12,-0.07,9.1,7.5,-32.7,35.36,,,,,,,,,,
15.19.09.764,-103.6,25.9,0,,,85616.4,11.68,-0.46,-0.04,0.07,11.6,6.6,-5.1,35.01,,,,,,,,,,
15.19.09.774,-82.5,20.6,0,,,85616.4,11.68,-0.41,0.03,-0.44,40.7,-18.6,1.6,35.34,,,,,,,,,,
15.19.09.784,-151.0,37.8,0,,,85616.4,11.68,-0.71,-0.01,-0.52,8.8,-1.6,-27.1,35.12,,,,,,,,,,
15.19.09.793,-146.4,36.6,0,,,85616.4,11.68,-0.28,0.1,-0.02,6.5,23.3,-3.4,35.09,,,,,,,,,,
15.19.09.802,-112.3,28.1,0,,,85616.4,11.68,-0.77,-0.37,0.25,-20.1,-1.6,7.3,35.47,,,,,,,,,,
15.19.09.812,-178.1,44.5,0,,,85616.4,11.68,-0.49,-0.3,-0.19,16.5,24.2,7.3,35.24,,,,,,,,,,
15.19.09.823,-144.6,36.2,0,,,85616.4,11.68,-0.52,0.35,-0.21,-29.4,-35.3,-14.2,34.7,,,,,,,,,,
15.19.09.832,-111.7,27.9,0,,,85616.4,11.68,-0.23,0.17,-0.58,14.8,10.7,-6.8,35.29,,,,,,,,,,
15.19.09.842,-149.7,37.4,0,,,85616.4,11.68,-0.71,0.04,-0.11,38.1,1.8,-3.3,34.97,,,,,,,,,,
15.19.09.853,-161.3,40.3,0,,,85616.4,11.68,-0.8,0.61,0.09,31.8,-2.0,-16.6,35.03,,,,,,,,,,
15.19.09.863,-171.9,43.0,0,,,85616.4,11.68,-0.3,0.02,-0.15,-6.9,15.2,-0.5,35.44,,,,,,,,,,
15.19.09.873,-143.1,35.8,0,,,85616.4,11.68,-0.29,-0.1,-0.42,21.2,14.5,22.6,35.2,,,,,,,,,,
15.19.09.884,-172.8,43.2,0,,,85616.4,11.68,-0.59,-0.28,-0.6,14.3,3.5,9.1,34.99,,,,,,,,,,
15.19.09.892,-171.1,42.8,0,,,85616.4,11.68,-0.59,0.06,-0.82,-11.1,-11.5,13.0,35.18,,,,,,,,,,
15.19.09.903,39.8,10.0,0,,,85616.4,11.68,-0.56,-0.32,-0.39,4.9,14.2,-5.8,34.99,,,,,,,,,,
15.19.09.916,100.0,25.0,1,13.0,82.9,85616.4,11.68,-0.72,-0.11,-0.21,-8.6,9.8,-0.5,35.44,,,,,,,,,,
15.19.09.927,172.2,43.0,0,,,85616.4,11.68,-0.47,-0.41,-0.2,3.2,31.1,-31.6,35.63,,,,,,,,,,
15.19.09.939,188.0,47.0,0,,,85616.4,11.68,-0.8,0.02,-0.77,16.5,-4.2,-9.2,35.09,,,,,,,,,,
15.19.09.949,228.6,57.2,0,,,85616.4,11.68,-0.83,-0.59,-0.01,-36.9,11.9,7.5,34.98,,,,,,,,,,
15.19.09.959,275.4,68.8,0,,,85616.4,11.68,-0.69,0.12,-0.89,1.6,17.2,-5.7,35.39,,,,,,,,,,
15.19.09.967,295.4,73.8,0,,,85616.4,11.68,-0.39,-0.57,-0.13,6.7,33.1,-6.7,34.93,,,,,,,,,,
15.19.09.978,359.1,89.8,0,,,85616.4,11.68,-0.76,0.25,-0.3,-4.5,-5.3,-2.2,35.09,,,,,,,,,,
15.19.09.986,371.4,92.8,0,,,85616.4,11.68,-0.26,-0.06,-0.67,7.9,38.2,-2.5,34.73,,,,,,,,,,
15.19.09.995,404.0,101.0,0,,,85616.4,11.68,-0.4,-0.57,-0.72,27.5,4.8,20.3,35.28,,,,,,,,,,
15.19.10.004,451.8,113.0,0,,,85616.4,11.68,-0.44,-0.28,-1.15,-27.4,-9.7,3.2,35.61,80.8,,,,,,,,,
15.19.10.016,376.4,94.1,0,,,85616.4,11.68,-0.59,-0.19,-0.22,-24.6,3.6,-15.8,35.42,,,,,,,,,,
15.19.10.026,425.3,106.3,0,,,85616.4,11.68,-0.67,0.08,-0.72,2.4,-10.4,4.2,35.44,,,,,,,,,,
15.19.10.035,378.1,94.5,0,,,85616.4,11.68,-0.53,-0.12,-0.82,-26.9,-5.6,8.8,34.88,,,,,,,,,,
15.19.10.044,385.9,96.5,0,,,85616.4,11.68,-0.43,0.14,-0.07,3.2,-24.9,13.3,35.55,,,,,,,,,,
15.19.10.054,409.3,102.3,0,,,85616.4,11.68,-0.58,0.14,-0.2,-51.5,21.9,10.9,35.79,,,,,,,,,,
15.19.10.063,409.5,102.4,0,,,85616.4,11.68,-0.18,0.16,-0.25,17.0,-9.2,18.7,35.0,,,,,,,,,,
15.19.10.073,347.7,86.9,0,,,85543.2,11.69,-1.0,-0.27,-0.32,0.2,32.2,1.0,34.95,,,,,,,,,,
15.19.10.082,325.8,81.4,0,,,85543.2,11.69,-0.31,-0.13,-0.42,-6.4,33.0,16.0,35.38,,,,,,,,,,
15.19.10.091,292.6,73.2,0,,,85543.2,11.69,-0.86,0.1,-0.55,-2.1,22.9,-28.4,35.63,,,,,,,,,,
15.19.10.101,299.0,74.8,0,,,85543.2,11.69,-0.79,-0.16,-0.57,-14.5,15.9,7.7,35.48,,,,,,,,,,
15.19.10.109,235.4,58.8,0,,,85543.2,11.69,-0.65,-0.5,0.21,-9.3,-16.3,-10.4,35.26,,,,,,,,,,
15.19.10.120,159.7,39.9,0,,,85543.2,11.69,-0.45,-0.24,-0.51,17.1,-6.6,0.3,34.84,,,,,,,,,,
15.19.10.130,140.5,35.1,0,,,85543.2,11.69,-0.93,-0.63,-0.45,-5.7,5.9,-3.4,35.31,,,,,,,,,,
15.19.10.141,64.8,16.2,0,,,85543.2,11.69,-0.37,-0.09,-0.13,-27.9,20.7,-23.1,34.94,,,,,,,,,,
15.19.10.150,31.6,7.9,0,,,85543.2,11.69,-0.33,-0.48,-0.11,33.9,12.2,-7.8,35.24,,,,,,,,,,
15.19.10.160,-18.3,4.6,0,,,85543.2,11.69,-0.54,-0.75,-0.5,11.0,-38.6,7.5,35.56,,,,,,,,,,
15.19.10.168,7.9,2.0,0,,,85543.2,11.69,-0.84,-0.03,-0.35,-18.1,-42.1,19.9,34.84,,,,,,,,,,
15.19.10.179,51.6,12.9,0,,,85543.2,11.69,-0.54,-0.46,0.36,-32.0,14.8,2.7,35.22,,,,,,,,,,
15.19.10.189,28.0,7.0,0,,,85543.2,11.69,-0.65,-0.33,-0.09,7.2,18.6,5.7,35.2,,,,,,,,,,
15.19.10.198,49.4,12.4,0,,,85543.2,11.69,-0.6,-0.22,0.07,-14.0,18.8,0.7,35.04,,,,,,,,,,
15.19.10.210,80.4,20.1,0,,,85543.2,11.69,-0.61,-0.16,-0.37,-23.7,16.8,-21.0,35.27,,,,,,,,,,
15.19.10.220,73.7,18.4,0,,,85543.2,11.69,-0.83,0.25,0.21,2.5,-1.2,15.7,34.94,,,,,,,,,,
15.19.10.229,114.8,28.7,0,,,85543.2,11.69,-0.78,-0.17,-0.11,-3.3,-2.5,-0.7,35.53,,,,,,,,,,
15.19.10.241,78.1,19.5,0,,,85543.2,11.69,-0.84,-0.81,-0.35,46.9,-12.7,-11.7,35.44,,,,,,,,,,
15.19.10.253,72.7,18.2,0,,,85543.2,11.69,-0.69,0.14,-0.5,12.5,12.5,6.6,35.19,,,,,,,,,,
15.19.10.263,63.1,15.8,0,,,85543.2,11.69,-0.74,-0.22,-0.01,-15.9,-19.4,22.0,34.89,,,,,,,,,,
15.19.10.271,49.1,12.3,0,,,85543.2,11.69,-0.55,0.27,-0.22,16.7,-2.1,15.3,35.38,,,,,,,,,,
15.19.10.282,50.1,12.5,0,,,85543.2,11.69,-0.52,-0.17,-0.27,-11.7,-2.3,-9.6,35.32,,,,,,,,,,
15.19.10.293,15.8,4.0,0,,,85543.2,11.69,-0.56,-0.06,-0.17,-35.5,15.4,0.2,35.07,,,,,,,,,,
15.19.10.305,15.2,3.8,0,,,85543.2,11.69,-0.71,-0.2,-0.21,-11.6,45.0,21.3,35.04,,,,,,,,,,
15.19.10.314,-1.0,0.2,0,,,85543.2,11.69,-0.72,-0.07,-0.29,-3.5,-10.7,-2.9,35.6,,,,,,,,,,
15.19.10.325,-3.5,0.9,0,,,85543.2,11.69,-0.94,-0.09,-0.37,24.0,18.9,7.1,35.29,,,,,,,,,,
15.19.10.334,-22.4,5.6,0,,,85543.2,11.69,-0.74,0.24,-0.57,-4.2,2.0,12.1,35.16,,,,,,,,,,
15.19.10.343,-4.7,1.2,0,,,85543.2,11.69,-0.97,0.15,0.09,13.6,44.8,-11.1,35.63,,,,,,,,,,
15.19.10.352,-45.4,11.4,0,,,85543.2,11.69,-0.89,-0.35,-0.21,20.4,-23.7,8.3,34.86,,,,,,,,,,
15.19.10.361,-43.6,10.9,0,,,85543.2,11.69,-0.74,0.23,-0.29,-12.5,-3.3,-9.3,35.24,,,,,,,,,,
15.19.10.371,-28.4,7.1,0,,,85543.2,11.69,-1.05,-0.44,-0.68,27.7,3.3,-0.7,34.83,,,,,,,,,,
15.19.10.382,-22.7,5.7,0,,,85543.2,11.69,-1.03,-0.01,-0.2,-3.9,-3.6,-11.6,34.85,,,,,,,,,,
15.19.10.390,-63.1,15.8,0,,,85543.2,11.69,-0.85,-0.16,-0.26,-37.1,22.9,-34.4,35.15,,,,,,,,,,
15.19.10.400,-45.2,11.3,0,,,85543.2,11.69,-0.54,0.22,-0.57,6.8,11.1,-10.3,35.08,,,,,,,,,,
15.19.10.410,-46.8,11.7,0,,,85543.2,11.69,-0.66,0.09,-0.58,-2.5,-14.1,-19.8,35.4,,,,,,,,,,
15.19.10.422,-76.2,19.0,0,,,85543.2,11.69,-0.91,-0.33,-0.39,2.7,-10.8,9.8,35.37,,,,,,,,,,
15.19.10.433,-42.7,10.7,0,,,85543.2,11.69,-0.77,-0.4,-0.58,5.1,49.9,2.4,35.49,,,,,,,,,,
15.19.10.441,-49.4,12.4,0,,,85543.2,11.69,-0.3,-0.16,-0.31,37.2,13.4,-21.1,35.37,,,,,,,,,,
15.19.10.452,-89.7,22.4,0,,,85543.2,11.69,-0.78,0.26,-0.41,0.1,-13.9,0.9,35.08,,,,,,,,,,
15.19.10.462,-58.9,14.7,0,,,85543.2,11.69,-0.44,0.07,-0.4,-8.5,-7.3,-18.6,35.34,,,,,,,,,,
15.19.10.473,-77.7,19.4,0,,,85543.2,11.69,-0.65,0.08,0.08,27.5,19.4,-27.1,35.51,,,,,,,,,,
15.19.10.481,-49.7,12.4,0,,,85543.2,11.69,-0.74,-0.59,-0.58,41.9,19.4,-10.9,35.04,,,,,,,,,,
15.19.10.494,-66.3,16.6,0,,,85543.2,11.69,-0.45,0.47,-0.18,10.3,-10.9,-13.6,35.07,,,,,,,,,,
15.19.10.502,-115.1,28.8,0,,,85543.2,11.69,-0.6,0.26,-0.59,35.3,-2.5,1.6,34.95,,,,,,,,,,
15.19.10.511,-125.5,31.4,0,,,85543.2,11.69,-0.66,-0.38,-0.45,54.1,-15.3,-24.8,35.22,,,,,,,,,,
15.19.10.518,-112.0,28.0,0,,,85543.2,11.69,-0.64,-0.04,-0.35,4.8,-11.4,-15.8,35.51,,,,,,,,,,
15.19.10.526,-85.7,21.4,0,,,85543.2,11.69,-1.0,0.02,0.03,42.7,2.5,-6.2,35.69,,,,,,,,,,
15.19.10.537,-120.2,30.0,0,,,85543.2,11.69,-0.43,-0.52,-0.56,3.8,15.0,-10.5,34.77,,,,,,,,,,
15.19.10.545,-104.6,26.2,0,,,85543.2,11.69,-0.68,-0.06,-0.65,-6.1,-20.3,-5.8,35.29,,,,,,,,,,
15.19.10.553,-124.0,31.0,0,,,85543.2,11.69,-0.55,0.05,-0.61,-8.6,8.3,-8.3,35.65,,,,,,,,,,
15.19.10.565,-131.8,33.0,0,,,85543.2,11.69,-0.75,-0.0,-0.85,-15.3,25.8,37.7,35.36,,,,,,,,,,
15.19.10.576,-126.4,31.6,0,,,85543.2,11.69,-1.16,-0.04,-0.37,29.3,41.7,2.8,35.3,,,,,,,,,,
15.19.10.587,-123.7,30.9,0,,,85543.2,11.69,-0.84,0.37,-0.89,-22.0,12.6,12.5,35.41,,,,,,,,,,
15.19.10.596,-151.1,37.8,0,,,85543.2,11.69,-0.91,0.43,-0.3,4.7,7.3,-23.6,35.36,,,,,,,,,,
15.19.10.606,-165.5,41.4,0,,,85543.2,11.69,-0.44,0.03,-0.36,-37.5,13.7,-0.8,35.4,,,,,,,,,,
15.19.10.618,-137.1,34.3,1,14.0,85.5,85543.2,11.69,-0.34,0.06,-0.69,2.3,16.2,12.4,35.14,,,,,,,,,,
15.19.10.629,-172.8,43.2,0,,,85543.2,11.69,-0.55,0.08,-0.2,-44.1,-6.7,23.3,35.32,,,,,,,,,,
15.19.10.641,-141.4,35.4,0,,,85543.2,11.69,-0.66,-0.44,-0.5,12.9,24.7,-20.3,34.95,,,,,,,,,,
15.19.10.650,12.8,3.2,0,,,85543.2,11.69,-0.42,0.34,0.49,-3.5,7.5,4.6,35.38,,,,,,,,,,
15.19.10.660,47.0,11.8,0,,,85543.2,11.69,-0.47,0.13,-0.12,-44.8,7.4,3.1,35.34,,,,,,,,,,
15.19.10.670,114.1,28.5,0,,,85543.2,11.69,-0.78,0.54,0.16,28.1,-15.8,-12.2,34.96,,,,,,,,,,
15.19.10.681,183.9,46.0,0,,,85543.2,11.69,-0.53,-0.42,-0.05,-28.3,-5.8,14.0,35.26,,,,,,,,,,
15.19.10.692,246.9,61.7,0,,,85543.2,11.69,-0.22,0.07,0.02,38.0,6.7,12.9,35.4,,,,,,,,,,
15.19.10.701,253.3,63.3,0,,,85543.2,11.69,-0.42,0.01,-0.14,58.3,23.5,-1.4,35.34,,,,,,,,,,
15.19.10.711,297.5,74.4,0,,,85543.2,11.69,-0.46,-0.16,0.2,-16.6,25.7,6.9,35.01,,,,,,,,,,
15.19.10.722,300.3,75.1,0,,,85543.2,11.69,-0.76,-0.01,-0.65,6.5,-3.6,-22.9,34.84,,,,,,,,,,
15.19.10.730,322.5,80.6,0,,,85543.2,11.69,-0.32,0.27,-0.48,-27.4,23.1,0.2,35.21,,,,,,,,,,
15.19.10.740,397.3,99.3,0,,,85543.2,11.69,-0.45,-0.27,-0.43,22.2,32.0,-5.9,35.11,,,,,,,,,,
15.19.10.749,431.8,108.0,0,,,85543.2,11.69,-0.8,-0.29,-0.11,-26.7,12.3,-6.6,34.69,,,,,,,,,,
15.19.10.759,407.8,102.0,0,,,85470.1,11.7,-0.48,-0.2,-0.53,34.8,-52.6,11.4,35.23,,,,,,,,,,
15.19.10.767,357.2,89.3,0,,,85470.1,11.7,-0.29,-0.09,-0.31,3.9,26.8,31.4,35.21,,,,,,,,,,
15.19.10.777,380.8,95.2,0,,,85470.1,11.7,-0.45,0.24,-0.33,12.7,44.6,-1.5,35.79,,,,,,,,,,
15.19.10.787,368.8,92.2,0,,,85470.1,11.7,-0.29,-0.2,-0.39,-1.4,10.3,15.5,35.14,,,,,,,,,,
15.19.10.797,405.2,101.3,0,,,85470.1,11.7,-0.16,-0.02,0.18,-33.8,6.2,2.1,34.9,,,,,,,,,,
15.19.10.808,415.5,103.9,0,,,85470.1,11.7,-0.68,0.27,0.06,10.0,42.3,-14.0,35.23,,,,,,,,,,
15.19.10.816,330.6,82.6,0,,,85470.1,11.7,-0.54,-0.43,-0.67,-6.1,-4.3,-4.7,35.27,,,,,,,,,,
15.19.10.826,380.5,95.1,0,,,85470.1,11.7,-0.44,0.28,-0.32,-18.8,-19.7,15.0,34.81,,,,,,,,,,
15.19.10.835,339.0,84.8,0,,,85470.1,11.7,-0.43,-0.39,-0.35,28.1,29.8,9.7,35.08,,,,,,,,,,
15.19.10.844,328.7,82.2,0,,,85470.1,11.7,-0.38,-0.69,-0.34,2.7,-4.0,-10.0,34.84,,,,,,,,,,
15.19.10.853,255.1,63.8,0,,,85470.1,11.7,-0.22,-0.52,-0.75,-4.0,8.3,-17.5,35.07,,,,,,,,,,
15.19.10.862,202.8,50.7,0,,,85470.1,11.7,-0.62,-0.07,0.03,-8.3,-12.2,0.2,35.8,,,,,,,,,,
15.19.10.872,180.3,45.1,0,,,85470.1,11.7,-0.56,-0.01,-0.24,34.1,20.4,11.4,35.6,,,,,,,,,,
15.19.10.879,129.8,32.4,0,,,85470.1,11.7,-0.36,-0.35,-0.59,-20.9,-8.5,22.7,34.91,,,,,,,,,,
15.19.10.889,117.5,29.4,0,,,85470.1,11.7,-0.61,-0.47,-0.74,-3.7,-20.8,5.1,35.29,,,,,,,,,,
15.19.10.897,66.5,16.6,0,,,85470.1,11.7,-0.22,0.23,-0.66,-35.4,0.1,23.2,35.28,,,,,,,,,,
15.19.10.906,29.5,7.4,0,,,85470.1,11.7,-0.78,-0.13,-0.44,17.9,-6.8,-28.4,35.16,,,,,,,,,,
15.19.10.918,-9.4,2.4,0,,,85470.1,11.7,-0.38,-0.24,-0.51,9.0,31.3,-17.0,35.34,,,,,,,,,,
15.19.10.927,15.6,3.9,0,,,85470.1,11.7,-0.43,-0.21,-0.17,9.7,6.3,-35.8,35.3,,,,,,,,,,
15.19.10.937,9.0,2.2,0,,,85470.1,11.7,-0.75,0.05,-1.04,-2.9,55.7,1.0,35.75,,,,,,,,,,
15.19.10.949,40.1,10.0,0,,,85470.1,11.7,-0.42,-0.16,-0.63,12.5,9.4,-3.7,35.36,,,,,,,,,,
15.19.10.959,60.2,15.0,0,,,85470.1,11.7,-0.49,-0.64,-0.36,17.2,14.1,-28.1,35.11,,,,,,,,,,
15.19.10.969,65.7,16.4,0,,,85470.1,11.7,-0.99,-0.07,-0.78,0.0,7.8,-8.0,34.74,,,,,,,,,,
15.19.10.980,70.3,17.6,0,,,85470.1,11.7,-0.65,-0.13,-0.76,-13.4,13.8,-14.6,35.53,,,,,,,,,,
15.19.10.989,93.8,23.4,0,,,85470.1,11.7,-0.22,-0.81,-0.18,-10.2,-11.3,9.8,35.45,,,,,,,,,,
15.19.11.000,81.3,20.3,0,,,85470.1,11.7,-0.51,-0.79,-0.14,-27.6,26.8,-6.0,35.16,,,,,,,,,,
15.19.11.009,35.2,8.8,0,,,85470.1,11.7,-1.03,-0.6,0.13,41.2,30.9,0.7,35.0,,,,,,,,,,
15.19.11.018,37.4,9.4,0,,,85470.1,11.7,-0.64,-0.35,-0.57,-3.4,12.4,1.2,34.84,,,,,,,,,,
15.19.11.028,49.7,12.4,0,,,85470.1,11.7,-0.51,-0.15,-0.06,-4.0,20.3,-14.8,35.05,,,,,,,,,,
15.19.11.039,20.6,5.2,0,,,85470.1,11.7,-0.77,-0.56,0.57,-4.5,24.9,13.8,35.16,,,,,,,,,,
15.19.11.048,-22.7,5.7,0,,,85470.1,11.7,-0.55,-0.63,-0.62,-13.7,-9.8,-19.6,35.09,,,,,,,,,,
15.19.11.058,-23.0,5.8,0,,,85470.1,11.7,-0.77,-0.55,-0.12,-26.5,0.4,24.2,35.4,,,,,,,,,,
15.19.11.067,19.3,4.8,0,,,85470.1,11.7,-1.07,-0.22,-0.39,24.7,-2.8,9.6,35.27,,,,,,,,,,
15.19.11.076,-3.5,0.9,0,,,85470.1,11.7,-0.88,-0.17,0.04,-44.5,-0.7,-2.9,35.26,,,,,,,,,,
15.19.11.087,9.7,2.4,0,,,85470.1,11.7,-0.82,-0.26,-0.16,-10.4,24.0,-1.2,35.76,,,,,,,,,,
15.19.11.096,-2.3,0.6,0,,,85470.1,11.7,-0.31,0.09,0.14,3.4,0.9,-16.7,35.49,,,,,,,,,,
15.19.11.104,-48.0,12.0,0,,,85470.1,11.7,-0.89,-0.53,-0.38,16.2,-28.9,1.8,35.14,,,,,,,,,,
15.19.11.115,-17.6,4.4,0,,,85470.1,11.7,-0.72,-0.8,-0.09,12.2,-2.3,9.8,34.94,,,,,,,,,,
15.19.11.123,-31.6,7.9,0,,,85470.1,11.7,-0.85,-0.54,-0.13,-6.0,2.6,-12.5,35.63,,,,,,,,,,
15.19.11.132,-23.4,5.8,0,,,85470.1,11.7,-0.75,-0.28,-0.58,8.4,21.7,-20.4,35.08,,,,,,,,,,
15.19.11.143,-63.2,15.8,0,,,85470.1,11.7,-0.75,-0.4,-0.34,-4.9,-13.1,-5.8,35.18,,,,,,,,,,
15.19.11.153,-58.9,14.7,0,,,85470.1,11.7,-0.59,-0.52,-0.52,-22.0,9.2,-30.6,35.42,,,,,,,,,,
15.19.11.165,-59.7,14.9,0,,,85470.1,11.7,-0.82,0.05,-0.24,-12.4,8.0,-7.2,35.51,,,,,,,,,,
15.19.11.175,-80.0,20.0,0,,,85470.1,11.7,-0.81,-0.07,0.12,5.3,34.7,14.7,34.96,,,,,,,,,,
15.19.11.181,-52.4,13.1,0,,,85470.1,11.7,-0.91,-0.43,-0.1,10.5,-32.2,6.6,35.04,,,,,,,,,,
15.19.11.191,-82.4,20.6,0,,,85470.1,11.7,-0.87,-0.5,-0.2,-23.1,2.9,-12.8,35.06,,,,,,,,,,
15.19.11.200,-80.0,20.0,0,,,85470.1,11.7,-0.79,-0.35,-0.06,-1.4,-21.6,-30.5,34.78,,,,,,,,,,
15.19.11.209,-101.0,25.2,0,,,85470.1,11.7,-0.66,-0.31,-0.31,39.7,14.9,-2.9,35.63,,,,,,,,,,
15.19.11.219,-55.4,13.8,0,,,85470.1,11.7,-0.77,-0.21,-0.08,-4.4,-15.7,3.1,34.77,,,,,,,,,,
15.19.11.230,-108.8,27.2,0,,,85470.1,11.7,-0.83,-0.52,-0.74,20.8,33.0,-14.0,35.11,,,,,,,,,,
15.19.11.240,-94.1,23.5,0,,,85470.1,11.7,-1.17,-0.35,-0.13,-1.7,-7.1,-0.9,35.1,,,,,,,,,,
15.19.11.250,,,0,,,,,,,,,,,,,,,,,,,,,
15.19.11.261,-65.9,16.5,0,,,85470.1,11.7,-1.09,-0.25,-0.49,-1.0,-0.5,-10.2,35.4,,,,,,,,,,
15.19.11.273,-101.3,25.3,0,,,85470.1,11.7,-1.15,-0.22,0.03,64.1,-6.7,6.6,35.31,,,,,,,,,,
15.19.11.281,-106.3,26.6,0,,,85470.1,11.7,-0.7,-0.31,-0.43,5.0,3.8,-6.5,35.18,,,,,,,,,,
15.19.11.293,-78.7,19.7,0,,,85470.1,11.7,-0.54,0.08,-1.0,-36.4,4.9,-2.1,34.99,,,,,,,,,,
15.19.11.302,-112.9,28.2,0,,,85470.1,11.7,-0.55,0.61,-1.03,-3.1,-12.2,-8.4,35.55,,,,,,,,,,
15.19.11.313,-122.2,30.6,1,15.0,86.3,85470.1,11.7,-0.68,-0.08,-0.05,-15.3,12.5,25.1,34.94,,,,,,,,,,
15.19.11.323,-109.7,27.4,0,,,85470.1,11.7,-0.59,0.05,-0.01,23.9,-28.0,-16.9,35.19,,,,,,,,,,
15.19.11.333,-167.6,41.9,0,,,85470.1,11.7,-1.14,0.46,-0.56,39.4,19.6,-15.2,35.09,,,,,,,,,,
15.19.11.342,-134.7,33.7,0,,,85470.1,11.7,-0.95,0.35,-0.57,4.2,-11.1,-7.6,35.15,,,,,,,,,,
15.19.11.354,-177.3,44.3,0,,,85470.1,11.7,-0.84,0.09,-0.38,-15.3,15.2,-24.7,35.29,,,,,,,,,,
15.19.11.365,-119.4,29.8,0,,,85470.1,11.7,-0.86,-0.11,-0.57,6.2,27.5,29.5,34.9,,,,,,,,,,
15.19.11.375,-184.3,46.1,0,,,85470.1,11.7,-1.07,0.05,-0.83,11.6,36.6,-20.5,34.75,,,,,,,,,,
15.19.11.386,-185.9,46.5,0,,,85470.1,11.7,-0.53,-0.11,-0.47,-53.8,-40.7,-4.2,34.86,,,,,,,,,,
15.19.11.395,-171.4,42.8,0,,,85470.1,11.7,-0.67,0.08,-0.55,-55.1,24.7,20.8,34.83,,,,,,,,,,
15.19.11.403,14.0,3.5,0,,,85470.1,11.7,-0.98,-0.04,-0.3,-4.4,13.5,26.0,35.38,,,,,,,,,,
15.19.11.414,35.4,8.8,0,,,85470.1,11.7,-0.79,0.36,-0.17,-23.5,16.7,9.4,35.31,,,,,,,,,,
15.19.11.424,101.1,25.3,0,,,85470.1,11.7,-0.89,0.34,-0.21,5.6,14.1,-2.1,34.89,,,,,,,,,,
15.19.11.433,174.0,43.5,0,,,85470.1,11.7,-1.02,0.33,-0.4,38.8,9.8,-7.6,35.03,,,,,,,,,,
15.19.11.442,228.7,57.2,0,,,85470.1,11.7,-0.65,-0.03,-0.82,-16.1,-16.0,-11.6,35.06,,,,,,,,,,
15.19.11.451,227.7,56.9,0,,,85470.1,11.7,-0.77,0.08,0.14,16.7,30.2,9.1,35.11,,,,,,,,,,
15.19.11.461,284.5,71.1,0,,,85470.1,11.7,-0.88,0.17,-0.64,-26.0,23.1,20.6,35.22,,,,,,,,,,
15.19.11.470,286.7,71.7,0,,,85470.1,11.7,-0.49,-0.22,-0.43,10.3,43.6,33.7,35.5,,,,,,,,,,
15.19.11.480,322.4,80.6,0,,,85470.1,11.7,-0.75,0.04,-0.86,31.3,-7.5,25.6,35.35,,,,,,,,,,
15.19.11.490,357.0,89.2,0,,,85470.1,11.7,-0.87,-0.12,-0.49,7.7,24.9,8.9,35.35,,,,,,,,,,
15.19.11.499,330.8,82.7,0,,,85470.1,11.7,-0.53,-0.38,-0.01,3.7,23.4,3.0,35.42,,,,,,,,,,
15.19.11.508,427.2,106.8,0,,,85470.1,11.7,-0.69,-0.2,-0.5,25.7,-9.8,-20.2,35.44,,,,,,,,,,
15.19.11.517,399.1,99.8,0,,,85470.1,11.7,-0.62,0.25,-0.23,27.6,16.1,-2.6,34.72,,,,,,,,,,
15.19.11.527,381.0,95.2,0,,,85470.1,11.7,-0.41,0.47,0.13,-5.0,-0.9,-8.9,35.63,,,,,,,,,,
15.19.11.538,400.0,100.0,0,,,85470.1,11.7,-0.66,0.04,0.16,-1.3,23.0,30.6,34.88,,,,,,,,,,
15.19.11.547,403.6,100.9,0,,,85470.1,11.7,-0.76,-0.33,-0.31,15.6,5.3,20.5,35.67,,,,,,,,,,
15.19.11.559,380.5,95.1,0,,,85470.1,11.7,-1.2,0.17,-0.5,16.8,30.2,-11.8,35.13,,,,,,,,,,
15.19.11.568,430.0,107.5,0,,,85470.1,11.7,-0.74,-0.0,-0.36,57.2,-10.9,-3.9,35.28,,,,,,,,,,
15.19.11.576,355.1,88.8,0,,,85470.1,11.7,-0.22,-0.02,-0.37,-19.1,-28.2,16.8,35.75,,,,,,,,,,
15.19.11.586,299.7,74.9,0,,,85470.1,11.7,-0.69,0.45,-0.55,18.6,16.9,16.0,35.06,,,,,,,,,,
15.19.11.596,297.7,74.4,0,,,85470.1,11.7,-0.24,-0.15,0.14,10.0,25.0,-19.5,35.24,,,,,,,,,,
15.19.11.607,264.4,66.1,0,,,85470.1,11.7,-0.72,0.0,-0.19,40.7,7.4,-10.0,34.83,,,,,,,,,,
15.19.11.617,183.4,45.8,0,,,85470.1,11.7,-0.56,0.13,-0.5,-29.5,27.3,-13.3,35.09,,,,,,,,,,
15.19.11.627,167.0,41.8,0,,,85470.1,11.7,-0.49,0.37,-0.13,-13.5,24.1,-19.2,35.26,,,,,,,,,,
15.19.11.636,115.9,29.0,0,,,85470.1,11.7,-0.76,-0.1,-0.08,42.9,-7.0,-6.5,34.98,,,,,,,,,,
15.19.11.645,69.6,17.4,0,,,85470.1,11.7,-0.71,-0.16,-0.58,-3.2,-1.2,-14.8,35.53,,,,,,,,,,
15.19.11.656,64.4,16.1,0,,,85470.1,11.7,-0.63,0.13,-0.2,-34.5,-1.7,-29.0,35.47,,,,,,,,,,
15.19.11.665,-4.9,1.2,0,,,85470.1,11.7,-0.62,0.12,-0.46,1.4,19.8,-23.1,35.03,,,,,,,,,,
15.19.11.676,11.2,2.8,0,,,85470.1,11.7,-0.5,0.36,-0.5,-35.4,22.8,5.0,35.09,,,,,,,,,,
15.19.11.685,60.5,15.1,0,,,85470.1,11.7,-0.45,-0.54,-0.34,23.1,27.8,-37.3,35.38,,,,,,,,,,
15.19.11.692,71.7,17.9,0,,,85470.1,11.7,-0.35,-0.42,-0.21,-1.9,15.6,-16.2,35.34,,,,,,,,,,
15.19.11.701,73.5,18.4,0,,,85470.1,11.7,-0.61,0.46,-0.88,-0.8,16.5,-8.5,35.61,,,,,,,,,,
15.19.11.711,50.8,12.7,0,,,85470.1,11.7,-0.67,-0.14,-0.61,-28.9,-18.0,8.7,35.61,,,,,,,,,,
15.19.11.719,89.2,22.3,0,,,85470.1,11.7,-0.57,-0.05,-0.72,21.2,3.6,-3.9,35.42,,,,,,,,,,
15.19.11.727,60.5,15.1,0,,,85470.1,11.7,-0.43,0.18,-0.39,-13.2,13.0,4.4,35.24,,,,,,,,,,
15.19.11.736,68.1,17.0,0,,,85470.1,11.7,-0.52,-0.19,-0.43,9.7,13.1,16.5,34.99,,,,,,,,,,
15.19.11.746,80.8,20.2,0,,,85470.1,11.7,-0.78,-0.68,-0.34,0.2,9.3,17.6,35.13,,,,,,,,,,
15.19.11.755,98.9,24.7,0,,,85470.1,11.7,-0.43,0.04,-0.75,3.3,15.4,-26.8,35.25,,,,,,,,,,
15.19.11.766,77.3,19.3,0,,,85470.1,11.7,-0.74,0.06,-0.78,-2.2,-8.3,-30.9,34.89,,,,,,,,,,
15.19.11.775,77.0,19.2,0,,,85470.1,11.7,-0.71,-0.16,-1.03,-37.9,-0.3,-3.9,35.25,,,,,,,,,,
15.19.11.785,74.4,18.6,0,,,85470.1,11.7,-0.51,-0.25,-0.32,-39.7,23.2,-4.3,35.0,,,,,,,,,,
15.19.11.794,5.8,1.4,0,,,85470.1,11.7,-0.24,0.0,-0.18,17.7,52.8,-5.9,35.16,,,,,,,,,,
15.19.11.804,16.8,4.2,0,,,85470.1,11.7,-0.68,0.11,-0.52,-20.0,-15.6,5.1,35.59,,,,,,,,,,
15.19.11.813,-12.2,3.0,0,,,85470.1,11.7,-0.64,0.22,-0.59,1.8,-2.9,3.6,35.21,,,,,,,,,,
15.19.11.824,-4.5,1.1,0,,,85470.1,11.7,-0.7,-0.65,-0.65,26.2,-0.2,-35.6,35.06,,,,,,,,,,
15.19.11.834,-5.7,1.4,0,,,85470.1,11.7,-0.36,-0.35,-0.55,-3.3,23.1,-3.5,35.44,,,,,,,,,,
15.19.11.844,10.9,2.7,0,,,85470.1,11.7,-0.23,0.2,-0.24,8.4,12.9,1.3,35.23,,,,,,,,,,
15.19.11.853,-55.0,13.8,0,,,85470.1,11.7,-0.57,0.38,-0.62,23.9,36.4,8.4,35.34,,,,,,,,,,
15.19.11.862,-49.1,12.3,0,,,85470.1,11.7,-0.3,-0.6,-0.09,-1.7,-20.3,-13.7,35.66,,,,,,,,,,
15.19.11.871,-35.7,8.9,0,,,85470.1,11.7,-0.26,-0.46,-0.22,-4.1,31.3,3.1,35.22,,,,,,,,,,
15.19.11.882,-3.8,1.0,0,,,85470.1,11.7,-0.56,-0.17,-0.1,10.5,26.0,8.3,34.83,,,,,,,,,,
15.19.11.892,-37.6,9.4,0,,,85470.1,11.7,-0.7,-0.59,-0.55,11.6,45.0,-25.9,35.57,,,,,,,,,,
15.19.11.902,-38.1,9.5,0,,,85470.1,11.7,-0.73,-0.29,-0.15,8.3,5.1,18.9,35.03,,,,,,,,,,
15.19.11.910,-28.8,7.2,0,,,85470.1,11.7,-0.53,0.1,-0.4,-4.5,-4.5,-6.6,35.17,,,,,,,,,,
15.19.11.919,-56.0,14.0,0,,,85470.1,11.7,-0.57,-0.44,-0.19,7.4,23.9,-0.7,35.27,,,,,,,,,,
15.19.11.928,-70.8,17.7,0,,,85470.1,11.7,-0.51,-0.37,-0.63,26.8,-4.5,-30.1,35.53,,,,,,,,,,
15.19.11.936,-47.9,12.0,0,,,85470.1,11.7,-0.71,0.24,-0.06,-25.3,-11.6,5.9,35.12,,,,,,,,,,
15.19.11.947,-57.0,14.2,0,,,85470.1,11.7,-0.46,-0.4,0.16,-0.1,29.6,-6.7,35.21,,,,,,,,,,
15.19.11.957,-66.8,16.7,0,,,85470.1,11.7,-0.71,-0.14,0.15,21.4,-8.9,-14.6,34.91,,,,,,,,,,
15.19.11.965,-85.6,21.4,0,,,85470.1,11.7,-0.59,-0.09,-0.5,3.2,10.1,24.5,35.6,,,,,,,,,,
15.19.11.974,-97.2,24.3,0,,,85470.1,11.7,-0.86,-0.23,0.14,-2.0,39.4,16.6,35.14,,,,,,,,,,
15.19.11.983,-96.0,24.0,0,,,85470.1,11.7,-0.98,-0.51,0.05,-10.5,0.2,6.7,35.24,,,,,,,,,,
15.19.11.994,-68.4,17.1,0,,,85470.1,11.7,-0.62,0.29,-0.2,-19.0,13.5,-30.5,35.07,,,,,,,,,,
15.19.12.004,-134.1,33.5,0,,,85470.1,11.7,-0.69,-0.68,-0.44,-5.2,25.7,10.2,35.68,,,,,,,,,,
15.19.12.012,-96.4,24.1,0,,,85470.1,11.7,-1.03,-0.53,-0.06,-11.9,-1.1,6.3,35.08,,,,,,,,,,
15.19.12.022,-105.9,26.5,1,16.0,84.6,85470.1,11.7,-0.86,0.23,-0.54,-28.1,-10.4,-10.7,35.26,,,,,,,,,,
15.19.12.033,-92.0,23.0,0,,,85470.1,11.7,-0.46,-0.2,0.17,1.8,2.9,20.4,35.13,,,,,,,,,,
15.19.12.045,-110.7,27.7,0,,,85470.1,11.7,-0.72,-0.49,0.03,38.4,20.1,-9.2,35.18,,,,,,,,,,
15.19.12.055,-117.6,29.4,0,,,85470.1,11.7,-0.71,-0.19,-0.23,-16.4,3.1,-3.1,35.46,,,,,,,,,,
15.19.12.065,,,0,,,,,,,,,,,,,,,,,,,,,
15.19.12.075,-152.5,38.1,0,,,85470.1,11.7,-1.15,0.09,0.2,-34.1,51.3,5.2,34.97,,,,,,,,,,
15.19.12.085,-121.3,30.3,0,,,85470.1,11.7,-0.72,-0.44,-0.19,-35.3,18.0,-15.1,34.92,,,,,,,,,,
15.19.12.096,-121.1,30.3,0,,,85470.1,11.7,-0.57,0.14,-0.17,6.7,0.3,-20.3,35.1,,,,,,,,,,
15.19.12.105,-130.8,32.7,0,,,85470.1,11.7,-0.85,-0.17,-0.65,-0.3,-14.6,-6.4,34.81,,,,,,,,,,
15.19.12.116,-117.4,29.4,0,,,85470.1,11.7,-1.05,-0.4,-0.5,-37.2,16.5,13.0,35.17,,,,,,,,,,
15.19.12.126,-190.3,47.6,0,,,85470.1,11.7,-0.78,-0.12,-0.42,3.9,-1.9,-1.8,34.91,,,,,,,,,,
15.19.12.135,-148.7,37.2,0,,,85470.1,11.7,-0.6,0.08,-0.65,-11.8,4.6,-27.5,35.57,,,,,,,,,,
15.19.12.144,-142.7,35.7,0,,,85470.1,11.7,-0.78,0.54,-0.39,14.8,-5.6,-10.6,35.67,,,,,,,,,,
15.19.12.154,24.7,6.2,0,,,85470.1,11.7,-0.69,0.38,-0.99,12.4,-15.8,6.9,35.11,,,,,,,,,,
15.19.12.165,100.8,25.2,0,,,85470.1,11.7,-0.74,0.55,-0.24,-15.0,-13.1,2.5,35.22,,,,,,,,,,
15.19.12.174,95.8,24.0,0,,,85470.1,11.7,-0.91,-0.12,-0.27,19.6,-15.5,2.4,35.25,,,,,,,,,,
15.19.12.184,164.9,41.2,0,,,85470.1,11.7,-0.97,-0.11,-0.98,17.2,22.9,18.9,35.22,,,,,,,,,,
15.19.12.193,199.5,49.9,0,,,85470.1,11.7,-0.7,0.06,-0.74,-25.9,13.7,-2.0,34.97,,,,,,,,,,
15.19.12.204,239.1,59.8,0,,,85470.1,11.7,-1.02,0.11,-0.44,23.2,11.7,-12.4,34.94,,,,,,,,,,
15.19.12.216,292.2,73.0,0,,,85470.1,11.7,-0.71,-0.58,-0.79,2.9,1.1,37.0,35.26,,,,,,,,,,
15.19.12.226,340.5,85.1,0,,,85470.1,11.7,-0.51,0.04,-0.57,20.1,5.0,-7.6,35.07,,,,,,,,,,
15.19.12.235,362.2,90.6,0,,,85470.1,11.7,-0.58,-0.16,-0.99,36.4,46.6,-6.0,35.31,,,,,,,,,,
15.19.12.244,353.7,88.4,0,,,85470.1,11.7,-0.67,-0.18,-0.54,-5.1,-0.7,10.4,34.98,,,,,,,,,,
15.19.12.254,420.6,105.2,0,,,85470.1,11.7,-0.68,0.03,-0.47,-30.7,10.6,-11.4,34.37,,,,,,,,,,
15.19.12.262,418.8,104.7,0,,,85470.1,11.7,-0.84,-0.02,-0.19,8.6,29.4,-8.6,35.28,,,,,,,,,,
15.19.12.274,384.8,96.2,0,,,85470.1,11.7,-0.64,-0.33,-0.61,-9.0,31.6,12.3,35.4,,,,,,,,,,
15.19.12.284,376.9,94.2,0,,,85470.1,11.7,-0.62,-0.12,-0.48,-8.5,5.4,-6.4,35.64,,,,,,,,,,
15.19.12.292,444.1,111.0,0,,,85470.1,11.7,-0.45,-0.1,-0.85,-9.7,18.1,13.7,35.22,,,,,,,,,,
15.19.12.300,416.3,104.1,0,,,85470.1,11.7,-0.63,0.32,-0.21,-7.0,-8.3,11.9,35.31,,,,,,,,,,
15.19.12.311,382.6,95.6,0,,,85470.1,11.7,-1.01,-0.16,-0.54,-4.0,11.7,10.0,35.45,,,,,,,,,,
15.19.12.322,366.9,91.7,0,,,85470.1,11.7,-0.9,0.3,-0.69,-10.7,19.3,3.0,35.01,,,,,,,,,,
15.19.12.331,352.1,88.0,0,,,85470.1,11.7,-0.68,-0.31,-0.25,-2.5,-15.5,-3.0,35.11,,,,,,,,,,
15.19.12.339,297.2,74.3,0,,,85470.1,11.7,-1.28,-0.36,-0.89,-13.1,-5.9,-8.4,34.87,,,,,,,,,,
15.19.12.348,281.9,70.5,0,,,85470.1,11.7,-0.46,-0.09,-0.1,30.9,22.8,-8.8,35.48,,,,,,,,,,
15.19.12.358,281.0,70.2,0,,,85470.1,11.7,-0.88,0.08,-0.36,2.9,30.8,-30.4,35.03,,,,,,,,,,
15.19.12.368,178.5,44.6,0,,,85470.1,11.7,-0.78,0.39,-0.82,-3.8,-11.4,-0.6,35.13,,,,,,,,,,
15.19.12.377,192.1,48.0,0,,,85470.1,11.7,-0.74,0.33,-0.16,74.1,29.8,-12.0,35.34,,,,,,,,,,
15.19.12.386,112.6,28.2,0,,,85470.1,11.7,-0.47,0.34,-0.36,52.6,-25.5,-37.5,34.99,,,,,,,,,,
15.19.12.395,81.4,20.4,0,,,85470.1,11.7,-0.44,0.17,-0.44,33.3,3.2,-17.7,35.3,,,,,,,,,,
15.19.12.403,27.2,6.8,0,,,85470.1,11.7,-0.8,-0.1,0.14,-5.7,-15.9,10.0,35.39,,,,,,,,,,
15.19.12.412,8.3,2.1,0,,,85470.1,11.7,-0.8,0.08,0.1,-17.3,4.7,15.6,35.0,,,,,,,,,,
15.19.12.424,6.0,1.5,0,,,85470.1,11.7,-0.5,0.13,-0.77,-2.1,-16.9,10.5,35.09,,,,,,,,,,
15.19.12.435,5.3,1.3,0,,,85470.1,11.7,-0.09,-0.28,-0.51,-47.0,-42.8,-27.9,34.97,,,,,,,,,,
15.19.12.446,42.7,10.7,0,,,85470.1,11.7,-0.95,-0.16,-0.21,49.3,-2.0,-3.6,35.32,,,,,,,,,,
15.19.12.454,69.7,17.4,0,,,85470.1,11.7,-0.56,-0.1,-0.63,-40.2,-20.9,37.6,35.12,,,,,,,,,,
15.19.12.462,69.4,17.4,0,,,85470.1,11.7,-0.34,0.14,-0.62,-45.8,-21.2,2.3,35.09,,,,,,,,,,
15.19.12.471,51.2,12.8,0,,,85470.1,11.7,-0.6,0.29,0.0,5.1,-6.1,-25.3,34.86,,,,,,,,,,
15.19.12.482,92.4,23.1,0,,,85470.1,11.7,-0.47,0.53,0.28,27.8,0.4,-14.2,34.86,,,,,,,,,,
15.19.12.492,61.7,15.4,0,,,85397.1,11.71,-0.32,0.31,0.14,7.0,5.2,21.4,35.51,,,,,,,,,,
15.19.12.502,66.3,16.6,0,,,85397.1,11.71,-0.45,-0.02,-0.47,-8.1,17.9,1.4,35.36,,,,,,,,,,
15.19.12.513,63.2,15.8,0,,,85397.1,11.71,-0.76,0.42,-0.35,-24.2,-26.8,11.6,35.04,,,,,,,,,,
15.19.12.524,54.5,13.6,0,,,85397.1,11.71,-0.52,0.04,-0.29,11.8,37.5,-0.1,35.28,,,,,,,,,,
15.19.12.536,17.9,4.5,0,,,85397.1,11.71,-0.57,-0.49,-0.47,-5.9,21.4,-24.8,34.79,,,,,,,,,,
15.19.12.546,23.7,5.9,0,,,85397.1,11.71,-0.79,-0.12,-0.16,7.6,24.8,4.6,34.8,,,,,,,,,,
15.19.12.556,22.6,5.6,0,,,85397.1,11.71,-0.38,-0.16,0.32,52.1,-17.4,3.8,34.94,,,,,,,,,,
15.19.12.566,-24.7,6.2,0,,,85397.1,11.71,-0.33,-0.04,-0.21,-38.3,4.1,1.4,34.97,,,,,,,,,,
15.19.12.575,-16.8,4.2,0,,,85397.1,11.71,-0.45,-0.22,-0.37,-17.5,-0.1,22.2,35.29,,,,,,,,,,
15.19.12.585,-9.2,2.3,0,,,85397.1,11.71,-0.71,-0.59,-0.37,-39.9,25.1,6.3,35.03,,,,,,,,,,
15.19.12.594,-13.8,3.4,0,,,85397.1,11.71,-0.57,-0.32,-0.39,59.3,-1.5,-22.4,34.86,,,,,,,,,,
15.19.12.605,-13.2,3.3,0,,,85397.1,11.71,-0.87,0.14,-0.49,-37.9,2.9,17.4,35.57,,,,,,,,,,
15.19.12.615,-50.6,12.6,0,,,85397.1,11.71,-0.47,0.05,-0.23,22.2,-27.4,-18.6,35.8,,,,,,,,,,
15.19.12.625,-8.2,2.0,0,,,85397.1,11.71,-0.6,0.14,-0.77,-5.2,-16.7,22.0,35.21,,,,,,,,,,
15.19.12.633,-22.8,5.7,0,,,85397.1,11.71,-0.57,0.25,-0.51,12.7,10.1,15.0,35.35,,,,,,,,,,
15.19.12.642,-55.6,13.9,0,,,85397.1,11.71,-0.65,-0.04,-0.31,-4.1,11.9,-7.1,34.79,,,,,,,,,,
15.19.12.652,-67.2,16.8,0,,,85397.1,11.71,-0.27,0.1,-0.37,4.7,-6.8,-9.4,35.22,,,,,,,,,,
15.19.12.661,-52.7,13.2,0,,,85397.1,11.71,-0.52,-0.18,-0.44,-9.1,32.4,-9.5,34.92,,,,,,,,,,
15.19.12.671,-33.6,8.4,0,,,85397.1,11.71,-0.15,0.0,-0.76,-24.3,27.1,-13.7,35.16,,,,,,,,,,
15.19.12.681,-33.6,8.4,0,,,85397.1,11.71,-0.49,-0.21,-0.96,-37.0,17.5,1.2,35.45,,,,,,,,,,
15.19.12.694,-30.2,7.6,0,,,85397.1,11.71,-0.41,-0.43,-0.98,19.7,38.1,-1.6,35.12,,,,,,,,,,
15.19.12.705,-24.8,6.2,1,17.0,87.8,85397.1,11.71,-0.91,-0.04,-0.49,5.3,-23.9,-4.7,35.06,,,,,,,,,,
15.19.12.714,-57.2,14.3,0,,,85397.1,11.71,-0.35,-0.41,-0.68,-35.7,-10.4,0.4,34.73,,,,,,,,,,
15.19.12.722,-49.0,12.2,0,,,85397.1,11.71,-0.46,-0.28,-0.68,-2.7,14.4,3.0,34.82,,,,,,,,,,
15.19.12.731,-70.8,17.7,0,,,85397.1,11.71,-0.81,0.01,-0.53,23.9,12.1,25.4,35.26,,,,,,,,,,
15.19.12.741,-104.0,26.0,0,,,85397.1,11.71,-0.71,-0.33,-0.43,-20.9,7.0,29.0,35.02,,,,,,,,,,
15.19.12.750,-100.9,25.2,0,,,85397.1,11.71,-0.56,-0.4,-0.08,16.1,9.5,15.2,34.94,,,,,,,,,,
15.19.12.761,-99.9,25.0,0,,,85397.1,11.71,-0.64,-0.19,-0.87,-21.8,1.2,8.3,35.63,,,,,,,,,,
15.19.12.772,-72.8,18.2,0,,,85397.1,11.71,-0.42,-0.88,-0.83,-15.3,-42.2,-27.8,35.1,,,,,,,,,,
15.19.12.782,-79.2,19.8,0,,,85397.1,11.71,-0.77,-0.6,0.03,40.4,18.3,4.9,35.36,,,,,,,,,,
15.19.12.791,-92.3,23.1,0,,,85397.1,11.71,-0.71,-0.48,-0.44,10.2,3.9,-10.9,35.05,,,,,,,,,,
15.19.12.801,-117.6,29.4,0,,,85397.1,11.71,-0.67,-0.09,-0.13,6.7,20.7,1.6,35.45,,,,,,,,,,
15.19.12.811,-133.4,33.4,0,,,85397.1,11.71,-0.81,0.23,-0.22,-2.2,-11.0,6.1,35.42,,,,,,,,,,
15.19.12.821,-149.0,37.2,0,,,85397.1,11.71,-0.75,-0.45,-0.6,-8.8,-4.4,-4.8,35.38,,,,,,,,,,
15.19.12.832,-156.9,39.2,0,,,85397.1,11.71,-0.72,-0.66,-0.0,-12.1,18.6,-6.2,35.38,,,,,,,,,,
15.19.12.842,-152.9,38.2,0,,,85397.1,11.71,-0.79,-0.17,0.16,-8.8,25.7,-1.2,35.32,,,,,,,,,,
15.19.12.852,-167.1,41.8,0,,,85397.1,11.71,-0.45,-0.33,-0.6,7.2,-0.9,-7.0,35.66,,,,,,,,,,
15.19.12.862,-117.9,29.5,0,,,85397.1,11.71,-0.56,-0.17,-0.52,-32.3,18.6,-2.7,35.1,,,,,,,,,,
15.19.12.874,-147.9,37.0,0,,,85397.1,11.71,-1.09,-0.1,-0.03,5.4,8.7,4.8,35.53,,,,,,,,,,
15.19.12.883,-192.2,48.0,0,,,85397.1,11.71,-0.81,-0.16,0.08,-17.9,7.7,-28.0,35.51,,,,,,,,,,
15.19.12.892,-139.6,34.9,0,,,85397.1,11.71,-0.87,-0.3,-0.04,-8.5,30.6,-0.3,35.29,,,,,,,,,,
15.19.12.899,-158.8,39.7,0,,,85397.1,11.71,-0.7,-0.07,-0.16,-2.2,28.1,24.3,35.26,,,,,,,,,,
15.19.12.909,35.1,8.8,0,,,85397.1,11.71,-0.79,-0.25,-0.43,-7.3,20.5,17.7,35.27,,,,,,,,,,
15.19.12.920,101.5,25.4,0,,,85397.1,11.71,-0.6,-0.31,-0.37,0.8,-27.5,5.6,35.43,,,,,,,,,,
15.19.12.930,173.2,43.3,0,,,85397.1,11.71,-0.64,-0.42,-0.1,-14.4,7.2,12.7,35.22,,,,,,,,,,
15.19.12.938,162.6,40.6,0,,,85397.1,11.71,-0.8,-0.36,-0.23,-43.8,11.3,-11.8,35.38,,,,,,,,,,
15.19.12.948,230.6,57.6,0,,,85397.1,11.71,-0.87,-0.39,-0.4,-12.8,15.8,-12.5,35.26,,,,,,,,,,
15.19.12.957,234.5,58.6,0,,,85397.1,11.71,-0.75,-0.05,-0.26,-4.6,2.0,9.3,35.45,,,,,,,,,,
