timestamp,ppg,threshold,beat,beat_count,inst_bpm,gsr_resistance_ohm,gsr_conductance_us,accel_x,accel_y,accel_z,gyro_x,gyro_y,gyro_z,temp_c,window_bpm,window_temp_c,status_message,SpO2,bmi,age,height,weight,env_temp_c,env_humidity_pct
15.06.03.139,0.0,0.0,0,,,97510.7,10.26,0.43,0.68,0.58,1.3,7.1,-1.7,34.0,83.8,,,99.0,22.0,22.0,152.4,51.0,31.44,45.0
15.06.03.155,66.1,16.5,0,,,97398.9,10.27,0.43,0.68,0.59,1.4,6.8,-1.3,34.0,,,,,,,,,,
15.06.03.164,90.1,22.5,0,,,95765.9,10.44,0.43,0.67,0.58,1.3,6.3,-1.6,34.0,,,,,,,,,,
15.06.03.172,108.7,27.2,0,,,97530.2,10.25,0.43,0.68,0.59,1.2,6.8,-1.1,34.0,,,,,,,,,,
15.06.03.184,152.3,38.1,0,,,96139.6,10.4,0.43,0.68,0.58,0.8,6.0,-1.3,34.0,,,,,,,,,,
15.06.03.192,193.0,48.2,0,,,96452.1,10.37,0.43,0.68,0.59,0.8,6.4,-1.5,34.0,,,,,,,,,,
15.06.03.205,246.0,61.5,0,,,95849.6,10.43,0.42,0.68,0.59,0.8,6.6,-1.4,34.0,,,,,,,,,,
15.06.03.213,251.8,63.0,0,,,97451.4,10.26,0.43,0.68,0.58,-0.3,5.6,-1.4,34.0,,,,,,,,,,
15.06.03.225,285.8,71.4,0,,,96171.9,10.4,0.43,0.67,0.58,0.6,6.3,-1.8,34.0,,,,,,,,,,
15.06.03.233,318.1,79.5,0,,,96099.8,10.41,0.42,0.67,0.58,1.4,6.3,-1.8,34.0,,,,,,,,,,
15.06.03.246,309.3,77.3,0,,,97164.1,10.29,0.43,0.68,0.58,0.9,5.9,-1.8,34.0,,,,,,,,,,
15.06.03.254,374.7,93.7,0,,,97498.3,10.26,0.43,0.68,0.58,1.3,6.1,-1.6,34.0,,,,,,,,,,
15.06.03.266,321.9,80.5,0,,,96477.1,10.37,0.43,0.67,0.59,0.9,6.1,-1.6,34.0,,,,,,,,,,
15.06.03.274,315.4,78.8,0,,,95528.7,10.47,0.43,0.68,0.58,0.5,6.4,-1.4,34.0,,,,,,,,,,
15.06.03.287,317.8,79.4,0,,,97339.6,10.27,0.42,0.68,0.59,0.2,6.1,-1.2,34.0,,,,,,,,,,
15.06.03.295,291.2,72.8,0,,,95848.6,10.43,0.43,0.68,0.58,0.7,6.2,-1.4,34.0,,,,,,,,,,
15.06.03.307,233.1,58.3,0,,,96200.8,10.39,0.43,0.67,0.58,0.9,6.2,-1.5,34.0,,,,,,,,,,
15.06.03.315,241.2,60.3,0,,,96319.4,10.38,0.42,0.67,0.58,0.7,6.0,-1.3,34.0,,,,,,,,,,
15.06.03.328,201.3,50.3,0,,,96161.8,10.4,0.42,0.68,0.59,0.8,5.7,-1.3,34.0,,,,,,,,,,
15.06.03.336,190.6,47.6,0,,,96275.0,10.39,0.43,0.68,0.58,0.1,5.5,-1.4,34.0,,,,,,,,,,
15.06.03.348,138.8,34.7,0,,,96805.2,10.33,0.43,0.67,0.59,-0.2,5.3,-1.3,34.0,,,,,,,,,,
15.06.03.356,96.3,24.1,0,,,96056.5,10.41,0.42,0.68,0.58,0.4,5.5,-1.5,34.0,,,,,,,,,,
15.06.03.368,75.2,18.8,0,,,96024.4,10.41,0.43,0.67,0.59,-0.2,5.3,-1.5,34.0,,,,,,,,,,
15.06.03.377,23.8,6.0,0,,,96631.5,10.35,0.43,0.68,0.58,-0.1,5.5,-1.4,34.0,,,,,,,,,,
15.06.03.389,10.4,2.6,0,,,97161.2,10.29,0.43,0.68,0.58,-0.2,5.3,-1.4,34.0,,,,,,,,,,
15.06.03.397,20.1,5.0,0,,,96280.4,10.39,0.43,0.67,0.59,-0.2,5.0,-1.5,34.0,,,,,,,,,,
15.06.03.409,37.9,9.5,0,,,96254.5,10.39,0.43,0.68,0.58,0.3,6.1,-1.3,34.0,,,,,,,,,,
15.06.03.418,44.0,11.0,0,,,97126.2,10.3,0.43,0.68,0.58,0.3,5.6,-1.3,34.0,,,,,,,,,,
15.06.03.430,47.9,12.0,0,,,96454.7,10.37,0.43,0.68,0.58,0.4,6.1,-1.4,34.0,,,,,,,,,,
15.06.03.438,47.8,12.0,0,,,95763.6,10.44,0.42,0.67,0.58,0.5,6.1,-1.2,34.0,,,,,,,,,,
15.06.03.450,49.7,12.4,0,,,95086.2,10.52,0.43,0.68,0.58,-0.2,5.2,-1.1,34.0,,,,,,,,,,
15.06.03.463,59.0,14.8,0,,,95765.6,10.44,0.43,0.68,0.58,0.0,5.9,-1.4,34.0,,,,,,,,,,
15.06.03.471,43.2,10.8,0,,,95818.2,10.44,0.43,0.67,0.58,-0.4,5.0,-1.5,34.0,,,,,,,,,,
15.06.03.483,42.9,10.7,0,,,95842.2,10.43,0.43,0.67,0.58,0.4,5.6,-1.5,34.0,,,,,,,,,,
15.06.03.491,45.1,11.3,0,,,96292.3,10.39,0.42,0.68,0.58,0.5,5.3,-1.1,34.0,,,,,,,,,,
15.06.03.504,17.7,4.4,0,,,94585.3,10.57,0.43,0.68,0.58,0.0,5.5,-1.1,34.0,,,,,,,,,,
15.06.03.512,16.7,4.2,0,,,96638.2,10.35,0.43,0.68,0.58,-0.2,5.2,-1.3,34.0,,,,,,,,,,
15.06.03.524,-5.4,1.4,0,,,96053.4,10.41,0.43,0.67,0.58,-0.4,5.2,-1.3,34.0,,,,,,,,,,
15.06.03.532,-2.1,0.5,0,,,96903.9,10.32,0.42,0.68,0.58,-0.1,5.2,-1.3,34.0,,,,,,,,,,
15.06.03.545,-0.9,0.2,0,,,97220.7,10.29,0.43,0.67,0.58,0.0,5.2,-1.3,34.0,,,,,,,,,,
15.06.03.553,-1.8,0.4,0,,,95610.7,10.46,0.43,0.67,0.58,0.0,5.1,-1.3,34.0,,,,,,,,,,
15.06.03.565,-23.4,5.8,0,,,95880.1,10.43,0.43,0.68,0.59,-0.3,4.8,-1.2,34.0,,,,,,,,,,
15.06.03.573,-12.9,3.2,0,,,96494.0,10.36,0.43,0.67,0.58,-0.4,4.8,-0.9,34.0,,,,,,,,,,
15.06.03.587,-30.6,7.6,0,,,96302.5,10.38,0.43,0.68,0.58,-0.5,4.8,-1.1,34.0,,,,,,,,,,
15.06.03.598,-31.6,7.9,0,,,95496.0,10.47,0.43,0.68,0.58,-0.4,4.8,-0.9,34.0,,,,,,,,,,
15.06.03.606,-41.6,10.4,0,,,96117.5,10.4,0.43,0.68,0.59,-0.5,4.9,-1.1,34.0,,,,,,,,,,
15.06.03.618,-44.9,11.2,0,,,96564.3,10.36,0.43,0.67,0.58,-0.4,5.1,-1.1,34.0,,,,,,,,,,
15.06.03.627,-38.9,9.7,0,,,95417.9,10.48,0.43,0.67,0.58,-0.7,4.8,-1.2,34.0,,,,,,,,,,
15.06.03.639,-53.1,13.3,0,,,95301.3,10.49,0.43,0.67,0.58,-0.4,5.4,-1.4,34.0,,,,,,,,,,
15.06.03.647,-45.0,11.2,0,,,95261.6,10.5,0.43,0.67,0.58,0.2,5.3,-1.0,34.0,,,,,,,,,,
15.06.03.659,-56.5,14.1,0,,,94847.8,10.54,0.43,0.68,0.59,0.1,5.3,-1.2,34.0,,,,,,,,,,
15.06.03.667,-56.6,14.2,0,,,95863.6,10.43,0.43,0.68,0.59,-0.3,5.3,-1.3,34.0,,,,,,,,,,
15.06.03.680,-61.0,15.2,0,,,96511.5,10.36,0.43,0.67,0.59,0.3,5.7,-1.3,34.0,,,,,,,,,,
15.06.03.692,-56.8,14.2,0,,,96260.6,10.39,0.43,0.67,0.58,0.3,5.5,-1.0,34.0,,,,,,,,,,
15.06.03.704,-75.6,18.9,0,,,94614.0,10.57,0.43,0.68,0.58,0.4,5.4,-1.2,34.0,,,,,,,,,,
15.06.03.713,-76.1,19.0,0,,,94796.8,10.55,0.43,0.68,0.58,0.4,5.6,-1.5,34.0,,,,,,,,,,
15.06.03.725,-89.2,22.3,0,,,95265.5,10.5,0.43,0.68,0.58,0.3,5.3,-1.5,34.0,,,,,,,,,,
15.06.03.737,-79.9,20.0,0,,,95990.7,10.42,0.43,0.67,0.59,0.6,5.4,-1.2,34.0,,,,,,,,,,
15.06.03.745,-98.3,24.6,0,,,95487.4,10.47,0.43,0.68,0.58,0.7,5.5,-1.2,34.0,,,,,,,,,,
15.06.03.758,-79.0,19.8,0,,,94760.0,10.55,0.43,0.68,0.58,0.3,5.0,-1.2,34.0,,,,,,,,,,
15.06.03.770,-111.4,27.8,0,,,95358.0,10.49,0.43,0.67,0.58,0.0,5.1,-1.1,34.0,,,,,,,,,,
15.06.03.778,-106.7,26.7,0,,,95750.1,10.44,0.43,0.68,0.57,0.3,5.2,-1.3,34.0,,,,,,,,,,
15.06.03.790,-107.2,26.8,0,,,96085.4,10.41,0.43,0.67,0.58,0.5,5.6,-1.0,34.0,,,,,,,,,,
15.06.03.803,-124.1,31.0,0,,,94384.0,10.6,0.43,0.67,0.58,1.0,5.5,-1.2,34.0,,,,,,,,,,
15.06.03.811,-114.4,28.6,0,,,96975.4,10.31,0.43,0.68,0.59,0.6,5.6,-1.2,34.0,,,,,,,,,,
15.06.03.823,-118.2,29.6,0,,,95428.1,10.48,0.43,0.67,0.58,0.6,5.0,-1.3,34.0,,,,,,,,,,
15.06.03.835,-126.5,31.6,0,,,97227.4,10.29,0.43,0.68,0.58,0.5,5.4,-1.4,34.0,,,,,,,,,,
15.06.03.844,26.0,6.5,1,1.0,84.6,96997.7,10.31,0.43,0.67,0.58,0.4,5.5,-1.3,34.0,,,,,,,,,,
15.06.03.856,81.3,20.3,0,1.0,,95339.2,10.49,0.42,0.68,0.58,0.3,5.5,-1.0,34.0,,,,,,,,,,
15.06.03.868,132.2,33.0,0,1.0,,96827.1,10.33,0.43,0.67,0.59,0.1,5.3,-1.2,34.0,,,,,,,,,,
15.06.03.876,142.7,35.7,0,1.0,,96775.5,10.33,0.43,0.67,0.58,0.4,5.5,-1.4,34.0,,,,,,,,,,
15.06.03.889,199.1,49.8,0,1.0,,95750.1,10.44,0.43,0.67,0.58,-0.1,5.6,-1.1,34.0,,,,,,,,,,
15.06.03.901,247.7,61.9,0,1.0,,96349.3,10.38,0.43,0.67,0.58,0.7,6.2,-1.4,34.0,,,,,,,,,,
15.06.03.938,317.0,79.2,0,1.0,,96555.7,10.36,0.43,0.67,0.58,-0.2,5.4,-1.2,34.0,,,,,,,,,,
15.06.03.950,348.5,87.1,0,1.0,,96580.9,10.35,0.43,0.68,0.58,-0.3,5.7,-1.2,34.0,,,,,,,,,,
15.06.03.962,313.8,78.4,0,1.0,,95526.5,10.47,0.43,0.67,0.58,0.0,5.9,-1.0,34.0,,,,,,,,,,
15.06.03.971,291.1,72.8,0,1.0,,96846.3,10.33,0.43,0.68,0.58,0.3,5.7,-1.4,34.0,,,,,,,,,,
15.06.03.983,302.1,75.5,0,1.0,,96273.5,10.39,0.43,0.68,0.58,0.1,5.7,-1.3,34.0,,,,,,,,,,
15.06.03.995,298.4,74.6,0,1.0,,96191.5,10.4,0.43,0.68,0.58,-0.1,5.2,-1.3,34.0,,,,,,,,,,
15.06.04.003,291.6,72.9,0,1.0,,93440.8,10.7,0.43,0.68,0.58,0.2,5.6,-1.3,34.0,,,,,,,,,,
15.06.04.016,239.8,60.0,0,1.0,,97613.6,10.24,0.43,0.67,0.58,-0.2,5.6,-1.2,34.0,,,,,,,,,,
15.06.04.028,189.4,47.4,0,1.0,,95005.8,10.53,0.43,0.67,0.59,0.3,5.6,-1.4,34.0,,,,,,,,,,
15.06.04.036,165.0,41.2,0,1.0,,96766.2,10.33,0.43,0.67,0.58,-0.3,5.3,-0.9,34.0,,,,,,,,,,
15.06.04.048,118.5,29.6,0,1.0,,96773.0,10.33,0.43,0.67,0.58,0.0,5.2,-1.1,34.0,,,,,,,,,,
15.06.04.061,78.4,19.6,0,1.0,,95988.2,10.42,0.43,0.67,0.59,-0.3,5.1,-0.9,34.0,,,,,,,,,,
15.06.04.069,40.0,10.0,0,1.0,,96234.9,10.39,0.43,0.68,0.58,0.0,5.7,-1.1,34.0,,,,,,,,,,
15.06.04.081,0.1,0.0,0,1.0,,95616.3,10.46,0.43,0.68,0.58,0.2,4.9,-1.3,34.0,,,,,,,,,,
15.06.04.095,20.1,5.0,0,1.0,,96391.1,10.37,0.43,0.67,0.58,0.2,5.2,-1.1,34.0,,,,,,,,,,
15.06.04.102,37.0,9.2,0,1.0,,96178.7,10.4,0.43,0.67,0.59,0.6,5.5,-1.3,34.0,,,,,,,,,,
15.06.04.115,34.1,8.5,0,1.0,,94738.1,10.56,0.43,0.67,0.58,0.3,5.1,-1.4,34.0,,,,,,,,,,
15.06.04.126,51.8,13.0,0,1.0,,95913.5,10.43,0.43,0.67,0.59,0.3,5.5,-1.4,34.0,,,,,,,,,,
15.06.04.140,52.2,13.0,0,1.0,,95608.1,10.46,0.43,0.67,0.58,1.3,5.8,-1.5,34.0,,,,,,,,,,
15.06.04.147,63.7,15.9,0,1.0,,96277.1,10.39,0.43,0.68,0.58,1.2,6.0,-1.5,34.0,,,,,,,,,,
15.06.04.160,59.6,14.9,0,1.0,,97397.0,10.27,0.43,0.68,0.58,1.1,5.8,-1.2,34.0,,,,,,,,,,
15.06.04.171,55.8,14.0,0,1.0,,96687.5,10.34,0.43,0.68,0.59,1.1,5.8,-1.1,34.0,,,,,,,,,,
15.06.04.180,41.4,10.4,0,1.0,,95561.3,10.46,0.43,0.68,0.58,0.8,5.4,-1.2,34.0,,,,,,,,,,
15.06.04.192,37.7,9.4,0,1.0,,96148.5,10.4,0.43,0.67,0.58,0.8,6.0,-1.0,34.0,,,,,,,,,,
15.06.04.204,23.2,5.8,0,1.0,,94691.6,10.56,0.43,0.67,0.58,1.1,5.6,-1.2,34.0,,,,,,,,,,
15.06.04.212,-2.5,0.6,0,1.0,,96471.5,10.37,0.43,0.67,0.59,1.0,5.7,-1.1,34.0,,,,,,,,,,
15.06.04.225,-6.0,1.5,0,1.0,,95978.5,10.42,0.43,0.67,0.58,0.8,5.3,-1.3,34.0,,,,,,,,,,
15.06.04.237,-4.5,1.1,0,1.0,,94692.5,10.56,0.43,0.68,0.59,-0.1,4.4,-1.2,34.0,,,,,,,,,,
15.06.04.245,-3.0,0.8,0,1.0,,98257.7,10.18,0.43,0.67,0.58,0.0,5.6,-1.3,34.0,,,,,,,,,,
15.06.04.257,-16.6,4.2,0,1.0,,97426.6,10.26,0.43,0.67,0.58,0.3,5.6,-1.3,34.0,,,,,,,,,,
15.06.04.270,-25.2,6.3,0,1.0,,95092.7,10.52,0.43,0.67,0.58,0.3,5.9,-1.3,34.0,,,,,,,,,,
15.06.04.282,-22.9,5.7,0,1.0,,95757.5,10.44,0.43,0.68,0.58,0.1,5.9,-1.2,34.0,,,,,,,,,,
15.06.04.290,-31.5,7.9,0,1.0,,95895.7,10.43,0.43,0.67,0.58,0.2,5.0,-0.9,34.0,,,,,,,,,,
15.06.04.302,-31.4,7.8,0,1.0,,97823.8,10.22,0.43,0.67,0.58,0.2,5.8,-1.4,34.0,,,,,,,,,,
15.06.04.315,-40.8,10.2,0,1.0,,96487.0,10.36,0.43,0.68,0.58,0.3,6.1,-1.2,34.0,,,,,,,,,,
15.06.04.323,-33.1,8.3,0,1.0,,95270.2,10.5,0.43,0.67,0.58,-0.1,5.8,-1.3,34.0,,,,,,,,,,
15.06.04.335,-42.4,10.6,0,1.0,,95941.5,10.42,0.43,0.67,0.58,0.4,6.2,-1.3,34.0,,,,,,,,,,
15.06.04.348,-52.8,13.2,0,1.0,,96354.5,10.38,0.43,0.68,0.58,0.3,6.0,-1.4,34.0,,,,,,,,,,
15.06.04.356,-46.3,11.6,0,1.0,,95184.5,10.51,0.43,0.68,0.58,0.1,5.3,-1.3,34.0,,,,,,,,,,
15.06.04.368,-52.8,13.2,0,1.0,,97273.6,10.28,0.43,0.67,0.58,0.6,6.3,-1.3,34.0,,,,,,,,,,
15.06.04.380,-66.1,16.5,0,1.0,,95971.4,10.42,0.43,0.68,0.58,0.2,5.8,-1.3,34.0,,,,,,,,,,
15.06.04.388,-64.4,16.1,0,1.0,,96073.9,10.41,0.43,0.68,0.58,0.5,6.1,-1.2,34.0,,,,,,,,,,
15.06.04.401,-60.8,15.2,0,1.0,,96588.7,10.35,0.43,0.67,0.58,0.1,5.4,-0.8,34.0,,,,,,,,,,
15.06.04.413,-81.8,20.4,0,1.0,,94897.3,10.54,0.43,0.67,0.59,0.2,5.8,-1.3,34.0,,,,,,,,,,
15.06.04.425,-78.3,19.6,0,1.0,,94628.6,10.57,0.43,0.67,0.58,0.1,4.9,-1.4,34.0,,,,,,,,,,
15.06.04.434,-90.3,22.6,0,1.0,,96182.7,10.4,0.43,0.68,0.59,0.9,5.7,-1.1,34.0,,,,,,,,,,
15.06.04.446,-90.6,22.6,0,1.0,,96084.9,10.41,0.43,0.68,0.58,0.2,5.4,-1.3,34.0,,,,,,,,,,
15.06.04.458,-97.6,24.4,0,1.0,,96208.8,10.39,0.43,0.67,0.59,0.5,5.1,-1.2,34.0,,,,,,,,,,
15.06.04.466,-99.0,24.8,0,1.0,,95921.2,10.43,0.43,0.67,0.58,0.2,5.5,-1.2,34.0,,,,,,,,,,
15.06.04.479,-113.8,28.4,0,1.0,,96478.5,10.37,0.43,0.67,0.59,0.0,5.1,-1.4,34.0,,,,,,,,,,
15.06.04.491,-107.5,26.9,0,1.0,,95222.2,10.5,0.43,0.67,0.58,0.7,5.7,-1.4,34.0,,,,,,,,,,
15.06.04.499,-114.2,28.6,0,1.0,,96321.4,10.38,0.43,0.67,0.58,0.5,5.4,-1.4,34.0,,,,,,,,,,
15.06.04.512,-121.9,30.5,0,1.0,,95531.5,10.47,0.43,0.68,0.59,0.8,5.8,-1.8,34.0,,,,,,,,,,
15.06.04.525,-127.7,31.9,0,1.0,,95560.6,10.46,0.43,0.68,0.58,0.2,5.8,-1.2,34.0,,,,,,,,,,
15.06.04.536,17.0,4.2,1,2.0,85.0,95632.9,10.46,0.43,0.67,0.58,0.5,6.4,-1.5,34.0,,,,,,,,,,
15.06.04.545,55.9,14.0,0,2.0,,95770.3,10.44,0.43,0.68,0.58,0.7,6.1,-1.5,34.0,,,,,,,,,,
15.06.04.556,93.3,23.3,0,2.0,,94787.2,10.55,0.43,0.67,0.58,0.8,6.4,-1.5,34.0,,,,,,,,,,
15.06.04.569,156.1,39.0,0,2.0,,95748.1,10.44,0.43,0.67,0.58,1.3,6.4,-1.5,34.0,,,,,,,,,,
15.06.04.577,167.4,41.8,0,2.0,,96450.3,10.37,0.43,0.68,0.58,1.2,6.2,-1.4,34.0,,,,,,,,,,
15.06.04.589,250.3,62.6,0,2.0,,95651.7,10.45,0.43,0.68,0.58,0.5,5.6,-1.4,34.0,,,,,,,,,,
15.06.04.602,269.3,67.3,0,2.0,,95266.9,10.5,0.43,0.68,0.57,0.3,6.2,-1.2,34.0,,,,,,,,,,
15.06.04.610,279.5,69.9,0,2.0,,95910.4,10.43,0.43,0.68,0.58,-0.1,5.5,-1.1,34.0,,,,,,,,,,
15.06.04.626,279.0,69.8,0,2.0,,95077.9,10.52,0.43,0.67,0.58,0.3,5.9,-1.3,34.0,,,,,,,,,,
15.06.04.634,322.5,80.6,0,2.0,,95964.6,10.42,0.43,0.67,0.58,-0.4,5.2,-1.1,34.0,,,,,,,,,,
15.06.04.647,325.5,81.4,0,2.0,,96962.3,10.31,0.43,0.67,0.58,0.2,5.5,-1.4,34.0,,,,,,,,,,
15.06.04.655,332.3,83.1,0,2.0,,96761.9,10.33,0.43,0.67,0.59,0.1,5.5,-1.1,34.0,,,,,,,,,,
15.06.04.667,316.8,79.2,0,2.0,,97407.7,10.27,0.43,0.67,0.59,0.3,5.5,-1.4,34.0,,,,,,,,,,
15.06.04.675,324.0,81.0,0,2.0,,95715.7,10.45,0.43,0.67,0.58,-0.3,5.4,-1.3,34.0,,,,,,,,,,
15.06.04.688,298.0,74.5,0,2.0,,96125.7,10.4,0.43,0.68,0.58,0.0,5.3,-1.2,34.0,,,,,,,,,,
15.06.04.697,278.2,69.6,0,2.0,,96193.1,10.4,0.43,0.67,0.58,-0.2,5.5,-1.6,34.0,,,,,,,,,,
15.06.04.708,258.7,64.7,0,2.0,,95422.7,10.48,0.43,0.68,0.58,0.3,6.0,-1.6,34.0,,,,,,,,,,
15.06.04.746,120.7,30.2,0,2.0,,95050.1,10.52,0.43,0.67,0.59,0.4,5.7,-1.4,34.0,,,,,,,,,,
15.06.04.753,102.6,25.6,0,2.0,,95426.0,10.48,0.43,0.67,0.58,0.7,6.3,-1.4,34.0,,,,,,,,,,
15.06.04.766,49.8,12.4,0,2.0,,98006.0,10.2,0.43,0.67,0.58,0.7,5.7,-1.5,34.0,,,,,,,,,,
15.06.04.774,5.6,1.4,0,2.0,,97205.5,10.29,0.43,0.68,0.58,0.9,6.4,-1.3,34.0,,,,,,,,,,
15.06.04.783,12.3,3.1,0,2.0,,95219.9,10.5,0.43,0.68,0.58,0.6,5.7,-1.5,34.0,,,,,,,,,,
15.06.04.794,21.8,5.4,0,2.0,,96170.1,10.4,0.43,0.67,0.58,0.1,5.6,-1.4,34.0,,,,,,,,,,
15.06.04.802,26.9,6.7,0,2.0,,95903.5,10.43,0.43,0.67,0.59,0.0,5.7,-1.4,34.0,,,,,,,,,,
15.06.04.815,53.2,13.3,0,2.0,,95579.2,10.46,0.43,0.67,0.58,0.1,5.1,-1.2,34.0,,,,,,,,,,
15.06.04.828,60.1,15.0,0,2.0,,96024.2,10.41,0.43,0.67,0.59,-0.1,5.1,-1.4,34.0,,,,,,,,,,
15.06.04.835,56.5,14.1,0,2.0,,96166.2,10.4,0.43,0.67,0.59,0.2,5.0,-1.3,34.0,,,,,,,,,,
15.06.04.847,61.1,15.3,0,2.0,,97938.0,10.21,0.43,0.67,0.59,0.1,4.9,-1.5,34.0,,,,,,,,,,
15.06.04.860,56.3,14.1,0,2.0,,96587.7,10.35,0.43,0.68,0.58,-0.2,4.7,-1.0,34.0,,,,,,,,,,
15.06.04.868,63.4,15.8,0,2.0,,96556.1,10.36,0.43,0.68,0.58,-0.1,5.1,-1.2,34.0,,,,,,,,,,
15.06.04.880,46.3,11.6,0,2.0,,96393.5,10.37,0.43,0.67,0.58,-0.1,5.0,-1.3,34.0,,,,,,,,,,
15.06.04.892,25.9,6.5,0,2.0,,97204.0,10.29,0.43,0.67,0.58,0.9,5.6,-1.6,34.0,,,,,,,,,,
15.06.04.901,20.6,5.2,0,2.0,,95600.8,10.46,0.43,0.67,0.58,1.0,6.2,-1.3,34.0,,,,,,,,,,
15.06.04.913,-2.5,0.6,0,2.0,,95690.5,10.45,0.43,0.67,0.58,1.5,6.8,-1.3,34.0,,,,,,,,,,
15.06.04.925,-4.8,1.2,0,2.0,,95950.2,10.42,0.43,0.68,0.57,0.9,5.9,-1.2,34.0,,,,,,,,,,
15.06.04.939,-9.6,2.4,0,2.0,,96987.4,10.31,0.43,0.68,0.58,0.5,5.5,-1.6,34.0,,,,,,,,,,
15.06.04.946,-7.9,2.0,0,2.0,,95874.3,10.43,0.43,0.67,0.58,0.0,5.8,-1.4,34.0,,,,,,,,,,
15.06.04.958,-7.0,1.8,0,2.0,,94987.1,10.53,0.43,0.68,0.58,0.5,5.5,-1.0,34.0,,,,,,,,,,
15.06.04.966,-23.9,6.0,0,2.0,,96412.3,10.37,0.43,0.67,0.58,0.8,6.1,-1.3,34.0,,,,,,,,,,
15.06.04.978,-24.6,6.2,0,2.0,,96784.2,10.33,0.43,0.67,0.58,0.8,6.3,-1.4,34.0,,,,,,,,,,
15.06.04.987,-29.2,7.3,0,2.0,,95053.7,10.52,0.43,0.67,0.58,1.1,5.8,-0.9,34.0,,,,,,,,,,
15.06.04.999,-28.6,7.2,0,2.0,,96510.5,10.36,0.44,0.68,0.59,0.9,5.6,-1.1,34.0,,,,,,,,,,
15.06.05.007,-39.1,9.8,0,2.0,,96608.6,10.35,0.43,0.67,0.58,-0.4,5.4,-1.2,34.0,,,,,,,,,,
15.06.05.019,-32.2,8.0,0,2.0,,96114.5,10.4,0.43,0.67,0.59,0.4,5.9,-1.2,34.0,,,,,,,,,,
15.06.05.032,-37.5,9.4,0,2.0,,96723.7,10.34,0.43,0.67,0.59,0.3,5.6,-1.2,34.0,,,,,,,,,,
15.06.05.040,-51.4,12.8,0,2.0,,97012.0,10.31,0.43,0.67,0.58,0.6,5.2,-1.2,34.0,,,,,,,,,,
15.06.05.052,-53.9,13.5,0,2.0,,96305.4,10.38,0.43,0.67,0.59,0.7,5.3,-1.1,34.0,,,,,,,,,,
15.06.05.064,-59.3,14.8,0,2.0,,96845.9,10.33,0.43,0.68,0.59,0.5,4.9,-1.0,34.0,,,,,,,,,,
15.06.05.077,-67.4,16.8,0,2.0,,95578.8,10.46,0.43,0.67,0.59,0.2,5.2,-1.1,34.0,,,,,,,,,,
15.06.05.085,-66.4,16.6,0,2.0,,95132.0,10.51,0.43,0.68,0.58,0.3,5.9,-1.1,34.0,,,,,,,,,,
15.06.05.097,-74.1,18.5,0,2.0,,97283.2,10.28,0.43,0.67,0.59,-0.1,4.9,-1.1,34.0,,,,,,,,,,
15.06.05.110,-90.7,22.7,0,2.0,,95639.2,10.46,0.43,0.68,0.58,0.4,5.6,-1.1,34.0,,,,,,,,,,
15.06.05.118,-76.6,19.2,0,2.0,,96032.3,10.41,0.43,0.67,0.58,0.4,5.2,-1.4,34.0,,,,,,,,,,
15.06.05.130,-88.3,22.1,0,2.0,,95380.3,10.48,0.43,0.67,0.59,0.5,5.5,-1.6,34.0,,,,,,,,,,
15.06.05.142,-88.8,22.2,0,2.0,,95276.7,10.5,0.43,0.68,0.58,0.4,5.5,-1.4,34.0,,,,,,,,,,
15.06.05.150,-97.1,24.3,0,2.0,,96297.7,10.38,0.43,0.68,0.57,0.5,5.5,-1.0,34.0,,,,,,,,,,
15.06.05.163,-106.1,26.5,0,2.0,,96001.5,10.42,0.43,0.68,0.58,0.2,5.9,-1.4,34.0,,,,,,,,,,
15.06.05.175,-91.3,22.8,0,2.0,,96093.7,10.41,0.43,0.67,0.57,0.4,5.7,-1.3,34.0,,,,,,,,,,
15.06.05.183,-116.2,29.0,0,2.0,,96121.9,10.4,0.43,0.67,0.58,0.6,5.8,-0.7,34.0,,,,,,,,,,
15.06.05.196,-102.8,25.7,0,2.0,,97654.9,10.24,0.43,0.68,0.58,0.0,5.3,-1.1,34.0,,,,,,,,,,
15.06.05.208,-122.8,30.7,0,2.0,,97180.3,10.29,0.43,0.68,0.58,-0.2,5.5,-1.2,34.0,,,,,,,,,,
15.06.05.216,-122.2,30.6,0,2.0,,97266.0,10.28,0.43,0.67,0.59,0.3,5.8,-0.9,34.0,,,,,,,,,,
15.06.05.228,-122.4,30.6,0,2.0,,94579.6,10.57,0.43,0.67,0.59,0.2,5.0,-1.2,34.0,,,,,,,,,,
15.06.05.241,47.0,11.8,1,3.0,84.7,96653.5,10.35,0.43,0.68,0.59,0.1,5.2,-1.4,34.0,,,,,,,,,,
15.06.05.253,92.1,23.0,0,3.0,,94764.9,10.55,0.43,0.68,0.59,0.3,5.1,-1.2,34.0,,,,,,,,,,
15.06.05.261,130.2,32.6,0,3.0,,95540.2,10.47,0.43,0.67,0.59,-0.2,5.2,-1.4,34.0,,,,,,,,,,
15.06.05.273,168.7,42.2,0,3.0,,97433.5,10.26,0.43,0.67,0.58,-0.1,5.4,-1.3,34.0,,,,,,,,,,
15.06.05.286,239.5,59.9,0,3.0,,97258.8,10.28,0.43,0.67,0.58,0.1,5.9,-1.4,34.0,,,,,,,,,,
15.06.05.294,253.1,63.3,0,3.0,,96861.2,10.32,0.43,0.67,0.58,0.1,6.1,-1.3,34.0,,,,,,,,,,
15.06.05.306,277.3,69.3,0,3.0,,96660.3,10.35,0.43,0.67,0.58,0.5,5.0,-1.1,34.0,,,,,,,,,,
15.06.05.318,250.8,62.7,0,3.0,,96348.3,10.38,0.43,0.67,0.58,0.8,6.8,-1.5,34.0,,,,,,,,,,
15.06.05.327,329.8,82.4,0,3.0,,96459.7,10.37,0.43,0.67,0.58,0.3,5.4,-1.7,34.0,,,,,,,,,,
15.06.05.339,324.3,81.1,0,3.0,,96971.6,10.31,0.43,0.68,0.59,1.1,6.5,-1.2,34.0,,,,,,,,,,
15.06.05.351,323.3,80.8,0,3.0,,94924.3,10.53,0.43,0.67,0.58,0.9,6.4,-1.1,34.0,,,,,,,,,,
15.06.05.365,328.7,82.2,0,3.0,,96338.4,10.38,0.43,0.68,0.58,0.6,5.5,-1.5,34.0,,,,,,,,,,
15.06.05.372,309.6,77.4,0,3.0,,95496.2,10.47,0.43,0.68,0.58,1.3,6.3,-1.2,34.0,,,,,,,,,,
15.06.05.384,296.5,74.1,0,3.0,,95804.8,10.44,0.43,0.67,0.58,0.6,6.0,-1.4,34.0,,,,,,,,,,
15.06.05.397,272.9,68.2,0,3.0,,95941.8,10.42,0.43,0.67,0.58,-0.1,5.6,-1.1,34.0,,,,,,,,,,
15.06.05.404,259.2,64.8,0,3.0,,96141.9,10.4,0.43,0.67,0.58,0.0,5.2,-1.0,34.0,,,,,,,,,,
15.06.05.417,203.5,50.9,0,3.0,,95634.8,10.46,0.42,0.67,0.59,-0.1,5.0,-1.0,34.0,,,,,,,,,,
15.06.05.429,167.3,41.8,0,3.0,,94249.0,10.61,0.43,0.67,0.59,0.0,5.4,-1.1,34.0,,,,,,,,,,
15.06.05.442,133.5,33.4,0,3.0,,96170.9,10.4,0.43,0.67,0.59,0.1,5.5,-1.1,34.0,,,,,,,,,,
15.06.05.450,98.2,24.6,0,3.0,,95726.1,10.45,0.43,0.67,0.58,0.0,5.2,-1.1,34.0,,,,,,,,,,
15.06.05.462,52.5,13.1,0,3.0,,95845.3,10.43,0.43,0.67,0.58,-0.5,5.2,-1.4,34.0,,,,,,,,,,
15.06.05.470,10.6,2.6,0,3.0,,96643.6,10.35,0.43,0.67,0.59,0.2,5.1,-1.2,34.0,,,,,,,,,,
15.06.05.482,9.5,2.4,0,3.0,,96267.7,10.39,0.43,0.67,0.58,0.4,5.6,-1.5,34.0,,,,,,,,,,
15.06.05.492,27.4,6.8,0,3.0,,96192.0,10.4,0.44,0.67,0.59,0.5,5.5,-1.6,34.0,,,,,,,,,,
15.06.05.503,29.3,7.3,0,3.0,,95972.1,10.42,0.43,0.67,0.59,0.6,5.5,-1.3,34.0,,,,,,,,,,
15.06.05.511,58.4,14.6,0,3.0,,96054.8,10.41,0.43,0.67,0.58,0.3,5.5,-1.2,34.0,,,,,,,,,,
15.06.05.548,60.0,15.0,0,3.0,,95258.5,10.5,0.43,0.67,0.58,1.0,6.1,-1.2,34.0,,,,,,,,,,
15.06.05.560,58.0,14.5,0,3.0,,96195.6,10.4,0.43,0.68,0.57,0.4,5.7,-1.2,34.0,,,,,,,,,,
15.06.05.568,46.9,11.7,0,3.0,,95356.0,10.49,0.43,0.68,0.58,0.4,5.5,-0.9,34.0,,,,,,,,,,
15.06.05.581,37.2,9.3,0,3.0,,95626.4,10.46,0.43,0.68,0.57,0.5,5.7,-1.1,34.0,,,,,,,,,,
15.06.05.589,30.0,7.5,0,3.0,,95024.0,10.52,0.43,0.67,0.58,-0.2,5.2,-1.3,34.0,,,,,,,,,,
15.06.05.601,14.6,3.6,0,3.0,,96501.8,10.36,0.43,0.67,0.59,0.3,5.2,-1.5,34.0,,,,,,,,,,
15.06.05.609,3.6,0.9,0,3.0,,97654.1,10.24,0.43,0.68,0.58,-0.2,5.5,-1.3,34.0,,,,,,,,,,
15.06.05.622,-1.0,0.2,0,3.0,,96511.1,10.36,0.43,0.67,0.59,-0.1,5.1,-1.5,34.0,,,,,,,,,,
15.06.05.631,-17.6,4.4,0,3.0,,93896.4,10.65,0.43,0.67,0.59,-0.4,5.5,-1.4,34.0,,,,,,,,,,
15.06.05.642,-4.7,1.2,0,3.0,,96331.1,10.38,0.43,0.67,0.58,-0.1,5.4,-1.3,34.0,,,,,,,,,,
15.06.05.650,-11.8,3.0,0,3.0,,95846.1,10.43,0.43,0.67,0.58,0.3,5.2,-1.4,34.0,,,,,,,,,,
15.06.05.663,-16.6,4.2,0,3.0,,96259.2,10.39,0.43,0.67,0.59,0.4,5.4,-1.3,34.0,,,,,,,,,,
15.06.05.671,-20.9,5.2,0,3.0,,97100.0,10.3,0.43,0.67,0.59,0.2,5.5,-1.2,34.0,,,,,,,,,,
15.06.05.683,-27.1,6.8,0,3.0,,96291.5,10.39,0.43,0.68,0.58,0.4,6.1,-1.2,34.0,,,,,,,,,,
15.06.05.692,-42.1,10.5,0,3.0,,96781.2,10.33,0.43,0.67,0.58,0.6,6.1,-1.0,34.0,,,,,,,,,,
15.06.05.704,-38.6,9.6,0,3.0,,96417.1,10.37,0.43,0.67,0.58,0.9,6.0,-1.2,34.0,,,,,,,,,,
15.06.05.712,-47.5,11.9,0,3.0,,95149.2,10.51,0.43,0.67,0.58,0.6,6.2,-1.1,34.0,,,,,,,,,,
15.06.05.724,-43.8,11.0,0,3.0,,96787.7,10.33,0.43,0.67,0.59,0.8,6.0,-1.5,34.0,,,,,,,,,,
15.06.05.736,-50.8,12.7,0,3.0,,96737.6,10.34,0.43,0.67,0.58,0.8,5.9,-1.3,34.0,,,,,,,,,,
15.06.05.745,-61.5,15.4,0,3.0,,96114.9,10.4,0.43,0.67,0.58,0.7,6.1,-1.5,34.0,,,,,,,,,,
15.06.05.757,-53.8,13.4,0,3.0,,96842.8,10.33,0.43,0.67,0.58,0.7,5.6,-1.3,34.0,,,,,,,,,,
15.06.05.769,-63.8,16.0,0,3.0,,96746.1,10.34,0.43,0.68,0.59,0.5,5.7,-1.4,34.0,,,,,,,,,,
15.06.05.777,-66.3,16.6,0,3.0,,95998.7,10.42,0.43,0.67,0.58,0.3,5.8,-1.1,34.0,,,,,,,,,,
15.06.05.790,-76.3,19.1,0,3.0,,95472.5,10.47,0.43,0.67,0.58,0.3,5.4,-1.3,34.0,,,,,,,,,,
15.06.05.802,-77.8,19.4,0,3.0,,95616.2,10.46,0.43,0.67,0.59,0.4,5.6,-1.3,34.0,,,,,,,,,,
15.06.05.810,-88.4,22.1,0,3.0,,97101.0,10.3,0.43,0.67,0.58,0.4,5.5,-1.4,34.0,,,,,,,,,,
15.06.05.823,-93.8,23.4,0,3.0,,95795.9,10.44,0.43,0.67,0.59,0.5,5.6,-1.5,34.0,,,,,,,,,,
15.06.05.835,-90.6,22.6,0,3.0,,96588.2,10.35,0.43,0.67,0.58,0.3,5.4,-1.2,34.0,,,,,,,,,,
15.06.05.843,-100.4,25.1,0,3.0,,95631.8,10.46,0.43,0.67,0.58,0.2,5.4,-1.1,34.0,,,,,,,,,,
15.06.05.855,-99.9,25.0,0,3.0,,95895.5,10.43,0.43,0.67,0.59,0.3,5.3,-1.0,34.0,,,,,,,,,,
15.06.05.867,-103.9,26.0,0,3.0,,96780.5,10.33,0.43,0.67,0.59,0.4,5.7,-1.4,34.0,,,,,,,,,,
15.06.05.876,-97.4,24.4,0,3.0,,96676.7,10.34,0.43,0.67,0.58,0.3,5.4,-1.2,34.0,,,,,,,,,,
15.06.05.888,-104.2,26.0,0,3.0,,95960.1,10.42,0.43,0.67,0.58,0.7,5.8,-1.3,34.0,,,,,,,,,,
15.06.05.900,-114.6,28.6,0,3.0,,97223.5,10.29,0.43,0.67,0.59,0.2,5.3,-1.5,34.0,,,,,,,,,,
15.06.05.908,-122.4,30.6,0,3.0,,95521.3,10.47,0.43,0.67,0.58,0.3,5.6,-1.4,34.0,,,,,,,,,,
15.06.05.921,-131.5,32.9,0,3.0,,95450.8,10.48,0.43,0.67,0.58,0.6,5.9,-1.2,34.0,,,,,,,,,,
15.06.05.933,30.4,7.6,1,4.0,82.0,96072.0,10.41,0.43,0.67,0.58,0.3,5.7,-1.1,34.0,,,,,,,,,,
15.06.05.945,83.9,21.0,0,4.0,,96778.4,10.33,0.43,0.67,0.58,0.6,5.8,-1.5,34.0,,,,,,,,,,
15.06.05.954,101.4,25.4,0,4.0,,97876.5,10.22,0.43,0.67,0.58,0.8,5.8,-1.3,34.0,,,,,,,,,,
15.06.05.966,153.3,38.3,0,4.0,,94870.3,10.54,0.44,0.67,0.57,1.0,5.5,-1.1,34.0,,,,,,,,,,
15.06.05.978,193.7,48.4,0,4.0,,96164.4,10.4,0.43,0.68,0.58,0.5,5.7,-1.4,34.0,,,,,,,,,,
15.06.05.986,240.3,60.1,0,4.0,,97166.2,10.29,0.43,0.67,0.58,0.6,5.6,-1.4,34.0,,,,,,,,,,
15.06.05.998,257.8,64.4,0,4.0,,96276.1,10.39,0.43,0.67,0.58,0.1,5.2,-1.3,34.0,,,,,,,,,,
15.06.06.011,263.7,65.9,0,4.0,,95574.3,10.46,0.43,0.67,0.59,0.0,5.4,-1.5,34.0,,,,,,,,,,
15.06.06.019,291.7,72.9,0,4.0,,95967.3,10.42,0.42,0.67,0.58,0.1,5.4,-1.1,34.0,,,,,,,,,,
15.06.06.031,322.4,80.6,0,4.0,,96027.0,10.41,0.43,0.67,0.59,0.2,5.5,-1.3,34.0,,,,,,,,,,
15.06.06.044,312.8,78.2,0,4.0,,97292.6,10.28,0.43,0.67,0.58,0.5,5.9,-1.3,34.0,,,,,,,,,,
15.06.06.052,311.9,78.0,0,4.0,,97295.6,10.28,0.43,0.67,0.58,0.1,5.3,-1.5,34.0,,,,,,,,,,
15.06.06.064,293.6,73.4,0,4.0,,95503.4,10.47,0.43,0.67,0.58,0.3,5.7,-1.4,34.0,,,,,,,,,,
15.06.06.076,282.8,70.7,0,4.0,,97624.0,10.24,0.44,0.67,0.58,0.5,6.1,-1.4,34.0,,,,,,,,,,
15.06.06.085,274.6,68.6,0,4.0,,95730.8,10.45,0.43,0.68,0.59,0.5,6.1,-1.2,34.0,,,,,,,,,,
15.06.06.097,266.5,66.6,0,4.0,,96406.3,10.37,0.43,0.67,0.59,0.1,6.2,-1.4,34.0,,,,,,,,,,
15.06.06.109,232.1,58.0,0,4.0,,96444.0,10.37,0.43,0.67,0.58,0.6,5.9,-1.3,34.0,,,,,,,,,,
15.06.06.117,203.1,50.8,0,4.0,,95601.6,10.46,0.43,0.67,0.58,0.4,5.8,-1.3,34.0,,,,,,,,,,
15.06.06.130,172.6,43.2,0,4.0,,96841.5,10.33,0.43,0.68,0.58,0.6,6.0,-1.2,34.0,,,,,,,,,,
15.06.06.138,122.4,30.6,0,4.0,,94958.8,10.53,0.43,0.68,0.58,0.9,6.1,-1.8,34.0,,,,,,,,,,
15.06.06.150,83.8,21.0,0,4.0,,96489.0,10.36,0.44,0.68,0.57,0.9,5.9,-1.4,34.0,,,,,,,,,,
15.06.06.162,25.1,6.3,0,4.0,,96759.5,10.33,0.43,0.68,0.58,0.3,6.0,-1.1,34.0,,,,,,,,,,
15.06.06.171,-3.7,0.9,0,4.0,,96656.3,10.35,0.43,0.67,0.58,0.1,5.2,-1.4,34.0,,,,,,,,,,
15.06.06.183,17.8,4.4,0,4.0,,97323.3,10.28,0.43,0.67,0.58,0.1,5.4,-1.4,34.0,,,,,,,,,,
15.06.06.195,33.7,8.4,0,4.0,,96085.7,10.41,0.43,0.67,0.58,0.1,5.8,-1.1,34.0,,,,,,,,,,
15.06.06.203,37.5,9.4,0,4.0,,94440.8,10.59,0.43,0.67,0.59,0.0,5.2,-1.3,34.0,,,,,,,,,,
15.06.06.217,57.4,14.4,0,4.0,,97449.8,10.26,0.43,0.68,0.59,0.4,5.3,-1.4,34.0,,,,,,,,,,
15.06.06.229,50.5,12.6,0,4.0,,95910.3,10.43,0.43,0.67,0.58,-0.3,5.2,-1.3,34.0,,,,,,,,,,
15.06.06.236,56.3,14.1,0,4.0,,95773.2,10.44,0.43,0.67,0.59,0.0,5.5,-1.2,34.0,,,,,,,,,,
15.06.06.248,55.2,13.8,0,4.0,,95391.0,10.48,0.43,0.67,0.59,0.1,5.7,-1.1,34.0,,,,,,,,,,
15.06.06.261,51.1,12.8,0,4.0,,95024.2,10.52,0.43,0.67,0.59,0.8,5.6,-1.2,34.0,,,,,,,,,,
15.06.06.269,41.1,10.3,0,4.0,,94739.7,10.56,0.43,0.67,0.58,0.4,5.6,-1.5,34.0,,,,,,,,,,
15.06.06.281,31.9,8.0,0,4.0,,96270.1,10.39,0.43,0.67,0.58,0.4,5.7,-1.7,34.0,,,,,,,,,,
15.06.06.293,26.0,6.5,0,4.0,,97011.0,10.31,0.43,0.67,0.59,0.9,5.6,-1.5,34.0,,,,,,,,,,
15.06.06.302,15.9,4.0,0,4.0,,95747.3,10.44,0.43,0.67,0.59,0.5,5.7,-1.0,34.0,,,,,,,,,,
15.06.06.314,2.0,0.5,0,4.0,,96434.8,10.37,0.44,0.67,0.58,0.7,6.0,-1.1,34.0,,,,,,,,,,
15.06.06.356,-22.6,5.6,0,4.0,,97479.7,10.26,0.43,0.68,0.58,0.5,5.5,-1.2,34.0,,,,,,,,,,
15.06.06.363,-24.5,6.1,0,4.0,,96224.7,10.39,0.43,0.67,0.58,0.4,5.4,-1.4,34.0,,,,,,,,,,
15.06.06.375,-25.6,6.4,0,4.0,,95327.4,10.49,0.43,0.67,0.58,0.1,5.1,-1.0,34.0,,,,,,,,,,
15.06.06.388,-35.4,8.8,0,4.0,,96310.3,10.38,0.43,0.67,0.59,0.1,5.3,-1.1,34.0,,,,,,,,,,
15.06.06.396,-31.2,7.8,0,4.0,,95527.8,10.47,0.43,0.67,0.59,-0.2,5.3,-1.4,34.0,,,,,,,,,,
15.06.06.408,-37.9,9.5,0,4.0,,96533.6,10.36,0.43,0.67,0.58,0.4,5.6,-1.3,34.0,,,,,,,,,,
15.06.06.420,-33.2,8.3,0,4.0,,95394.3,10.48,0.43,0.67,0.58,0.5,5.7,-1.1,34.0,,,,,,,,,,
15.06.06.433,-58.5,14.6,0,4.0,,94865.2,10.54,0.43,0.68,0.58,0.2,5.9,-1.7,34.0,,,,,,,,,,
15.06.06.441,-49.9,12.5,0,4.0,,96947.9,10.31,0.43,0.67,0.59,0.4,5.5,-1.2,34.0,,,,,,,,,,
15.06.06.453,-53.9,13.5,0,4.0,,96286.9,10.39,0.43,0.67,0.58,1.1,6.3,-1.5,34.0,,,,,,,,,,
15.06.06.466,-56.4,14.1,0,4.0,,96620.6,10.35,0.43,0.67,0.59,0.5,5.8,-1.1,34.0,,,,,,,,,,
15.06.06.474,-64.2,16.0,0,4.0,,95542.0,10.47,0.43,0.67,0.59,0.6,6.3,-1.4,34.0,,,,,,,,,,
15.06.06.486,-72.6,18.2,0,4.0,,94889.5,10.54,0.43,0.67,0.58,0.6,5.8,-1.1,34.0,,,,,,,,,,
15.06.06.498,-81.3,20.3,0,4.0,,96867.1,10.32,0.43,0.67,0.58,0.3,4.9,-1.5,34.0,,,,,,,,,,
15.06.06.506,-75.1,18.8,0,4.0,,96950.0,10.31,0.43,0.67,0.59,0.9,5.9,-1.3,34.0,,,,,,,,,,
15.06.06.519,-87.4,21.8,0,4.0,,95404.2,10.48,0.43,0.67,0.58,0.4,5.3,-1.7,34.0,,,,,,,,,,
15.06.06.531,-93.2,23.3,0,4.0,,97040.7,10.3,0.43,0.68,0.58,0.9,6.1,-1.1,34.0,,,,,,,,,,
15.06.06.539,-95.6,23.9,0,4.0,,96232.2,10.39,0.43,0.68,0.57,0.8,5.8,-1.4,34.0,,,,,,,,,,
15.06.06.552,-104.2,26.0,0,4.0,,95981.7,10.42,0.43,0.68,0.58,0.4,5.1,-1.3,34.0,,,,,,,,,,
15.06.06.564,-104.3,26.1,0,4.0,,95439.1,10.48,0.43,0.68,0.58,0.5,5.7,-1.2,34.0,,,,,,,,,,
15.06.06.572,-105.2,26.3,0,4.0,,96623.6,10.35,0.43,0.67,0.59,0.7,5.7,-1.2,34.0,,,,,,,,,,
15.06.06.584,-110.2,27.6,0,4.0,,96553.3,10.36,0.43,0.67,0.58,0.6,6.3,-1.1,34.0,,,,,,,,,,
15.06.06.597,-108.1,27.0,0,4.0,,96505.2,10.36,0.43,0.68,0.58,0.1,5.7,-1.2,34.0,,,,,,,,,,
15.06.06.609,-121.7,30.4,0,4.0,,94319.2,10.6,0.43,0.67,0.58,0.1,5.4,-1.2,34.0,,,,,,,,,,
15.06.06.617,-117.3,29.3,0,4.0,,95755.9,10.44,0.43,0.67,0.58,0.0,5.1,-1.4,34.0,,,,,,,,,,
15.06.06.629,21.3,5.3,1,5.0,85.2,96224.9,10.39,0.43,0.67,0.59,-0.1,5.6,-1.4,34.0,,,,,,,,,,
15.06.06.642,82.4,20.6,0,5.0,,96209.5,10.39,0.43,0.67,0.58,0.4,5.6,-1.3,34.0,,,,,,,,,,
15.06.06.650,112.8,28.2,0,5.0,,94898.0,10.54,0.43,0.68,0.59,0.1,5.3,-1.4,34.0,,,,,,,,,,
15.06.06.662,154.6,38.6,0,5.0,,96496.8,10.36,0.43,0.68,0.59,-0.1,5.3,-1.2,34.0,,,,,,,,,,
15.06.06.674,192.9,48.2,0,5.0,,96943.9,10.32,0.44,0.67,0.58,0.0,5.3,-1.4,34.0,,,,,,,,,,
15.06.06.683,221.3,55.3,0,5.0,,94662.0,10.56,0.44,0.67,0.59,0.0,5.6,-0.9,34.0,,,,,,,,,,
15.06.06.695,245.5,61.4,0,5.0,,96218.8,10.39,0.43,0.67,0.58,0.2,5.8,-1.4,34.0,,,,,,,,,,
15.06.06.707,264.5,66.1,0,5.0,,95286.6,10.49,0.43,0.67,0.59,0.1,5.5,-1.4,34.0,,,,,,,,,,
15.06.06.716,274.5,68.6,0,5.0,,96214.1,10.39,0.43,0.67,0.59,1.0,6.0,-1.2,34.0,,,,,,,,,,
15.06.06.728,317.9,79.5,0,5.0,,95218.6,10.5,0.43,0.67,0.58,1.1,6.2,-1.5,34.0,,,,,,,,,,
15.06.06.740,310.5,77.6,0,5.0,,96125.4,10.4,0.43,0.67,0.58,0.8,5.9,-1.8,34.0,,,,,,,,,,
15.06.06.752,347.5,86.9,0,5.0,,96094.1,10.41,0.44,0.68,0.57,1.7,6.1,-0.9,34.0,,,,,,,,,,
15.06.06.760,311.3,77.8,0,5.0,,97540.4,10.25,0.44,0.68,0.58,-0.3,5.2,-1.3,34.0,,,,,,,,,,
15.06.06.773,297.6,74.4,0,5.0,,97015.5,10.31,0.43,0.67,0.58,-0.1,5.9,-1.3,34.0,,,,,,,,,,
15.06.06.785,263.4,65.8,0,5.0,,97448.2,10.26,0.43,0.67,0.59,-0.5,5.1,-1.2,34.0,,,,,,,,,,
15.06.06.793,275.7,68.9,0,5.0,,95430.8,10.48,0.43,0.67,0.58,0.1,5.6,-1.3,34.0,,,,,,,,,,
15.06.06.806,252.3,63.1,0,5.0,,94545.2,10.58,0.43,0.67,0.59,0.3,5.5,-1.4,34.0,,,,,,,,,,
15.06.06.818,182.3,45.6,0,5.0,,94992.6,10.53,0.43,0.67,0.58,0.0,5.4,-1.3,34.0,,,,,,,,,,
15.06.06.830,152.8,38.2,0,5.0,,95340.5,10.49,0.43,0.67,0.58,0.6,5.6,-1.3,34.0,,,,,,,,,,
15.06.06.838,119.1,29.8,0,5.0,,96167.3,10.4,0.43,0.67,0.58,0.4,5.5,-1.6,34.0,,,,,,,,,,
15.06.06.851,58.2,14.6,0,5.0,,97449.0,10.26,0.43,0.68,0.58,0.4,5.8,-1.6,34.0,,,,,,,,,,
15.06.06.863,11.4,2.8,0,5.0,,96049.9,10.41,0.43,0.68,0.58,1.1,6.4,-1.6,34.0,,,,,,,,,,
15.06.06.871,6.0,1.5,0,5.0,,96447.9,10.37,0.43,0.67,0.58,0.4,6.1,-1.5,34.0,,,,,,,,,,
15.06.06.883,20.7,5.2,0,5.0,,96818.2,10.33,0.43,0.67,0.59,0.8,5.7,-1.5,34.0,,,,,,,,,,
15.06.06.896,30.7,7.7,0,5.0,,95717.6,10.45,0.43,0.67,0.59,0.1,5.6,-1.6,34.0,,,,,,,,,,
15.06.06.904,49.2,12.3,0,5.0,,96205.0,10.39,0.43,0.67,0.58,1.4,6.4,-1.4,34.0,,,,,,,,,,
15.06.06.916,48.8,12.2,0,5.0,,95215.3,10.5,0.43,0.68,0.58,1.0,5.5,-1.4,34.0,,,,,,,,,,
15.06.06.928,58.5,14.6,0,5.0,,94440.8,10.59,0.43,0.68,0.57,1.2,6.5,-1.5,34.0,,,,,,,,,,
15.06.06.937,58.2,14.6,0,5.0,,96303.4,10.38,0.43,0.68,0.58,0.4,5.5,-1.3,34.0,,,,,,,,,,
15.06.06.953,70.0,17.5,0,5.0,,96145.1,10.4,0.43,0.68,0.59,0.2,6.0,-1.1,34.0,,,,,,,,,,
15.06.06.961,56.7,14.2,0,5.0,,96244.5,10.39,0.43,0.67,0.58,0.2,5.8,-1.1,34.0,,,,,,,,,,
15.06.06.974,35.4,8.8,0,5.0,,96931.0,10.32,0.43,0.67,0.58,0.5,5.6,-1.4,34.0,,,,,,,,,,
15.06.06.982,24.7,6.2,0,5.0,,97249.8,10.28,0.43,0.67,0.59,0.5,6.4,-1.5,34.0,,,,,,,,,,
15.06.06.994,17.9,4.5,0,5.0,,96038.8,10.41,0.43,0.67,0.59,-0.1,5.1,-1.2,34.0,,,,,,,,,,
15.06.07.002,0.0,0.0,0,5.0,,95344.2,10.49,0.43,0.67,0.58,-0.1,5.2,-1.2,34.0,,,,,,,,,,
15.06.07.015,-9.7,2.4,0,5.0,,95478.1,10.47,0.43,0.67,0.58,-0.7,5.2,-0.9,34.0,,,,,,,,,,
15.06.07.023,-3.3,0.8,0,5.0,,94803.4,10.55,0.43,0.67,0.59,-0.3,4.9,-1.6,34.0,,,,,,,,,,
15.06.07.035,-8.4,2.1,0,5.0,,97431.9,10.26,0.44,0.67,0.57,0.0,5.7,-1.6,34.0,,,,,,,,,,
15.06.07.043,-13.7,3.4,0,5.0,,95211.1,10.5,0.43,0.67,0.58,0.2,5.4,-1.0,34.0,,,,,,,,,,
15.06.07.056,-15.3,3.8,0,5.0,,96212.0,10.39,0.43,0.67,0.58,0.2,5.2,-1.6,34.0,,,,,,,,,,
15.06.07.064,-26.0,6.5,0,5.0,,94770.6,10.55,0.43,0.67,0.58,0.0,5.5,-1.0,34.0,,,,,,,,,,
15.06.07.076,-32.4,8.1,0,5.0,,96264.5,10.39,0.43,0.67,0.58,0.3,5.6,-1.5,34.0,,,,,,,,,,
15.06.07.084,-23.4,5.8,0,5.0,,95855.3,10.43,0.43,0.67,0.58,0.4,5.5,-1.3,34.0,,,,,,,,,,
15.06.07.096,-37.6,9.4,0,5.0,,94807.5,10.55,0.43,0.67,0.58,0.2,5.5,-1.5,34.0,,,,,,,,,,
15.06.07.105,-32.9,8.2,0,5.0,,95308.5,10.49,0.43,0.68,0.59,0.5,5.7,-1.4,34.0,,,,,,,,,,
15.06.07.117,-42.2,10.6,0,5.0,,95372.7,10.49,0.43,0.68,0.58,0.1,5.7,-1.4,34.0,,,,,,,,,,
15.06.07.154,-63.0,15.8,0,5.0,,96366.7,10.38,0.43,0.67,0.58,0.2,5.3,-1.2,34.0,,,,,,,,,,
15.06.07.166,-74.5,18.6,0,5.0,,96637.4,10.35,0.43,0.67,0.59,0.2,5.7,-1.2,34.0,,,,,,,,,,
15.06.07.178,-63.2,15.8,0,5.0,,96338.3,10.38,0.43,0.67,0.59,-0.5,5.1,-0.8,34.0,,,,,,,,,,
15.06.07.187,-71.8,18.0,0,5.0,,96063.7,10.41,0.43,0.67,0.59,0.2,5.5,-1.2,34.0,,,,,,,,,,
15.06.07.199,-86.1,21.5,0,5.0,,96324.6,10.38,0.43,0.67,0.59,0.0,5.2,-1.3,34.0,,,,,,,,,,
15.06.07.212,-91.9,23.0,0,5.0,,95363.1,10.49,0.43,0.67,0.59,0.0,5.5,-1.2,34.0,,,,,,,,,,
15.06.07.219,-97.2,24.3,0,5.0,,96207.2,10.39,0.43,0.67,0.59,0.7,5.3,-1.5,34.0,,,,,,,,,,
15.06.07.232,-94.2,23.6,0,5.0,,95944.4,10.42,0.43,0.67,0.59,0.5,5.7,-1.3,34.0,,,,,,,,,,
15.06.07.244,-104.0,26.0,0,5.0,,95915.1,10.43,0.43,0.67,0.59,0.8,5.9,-1.3,34.0,,,,,,,,,,
15.06.07.256,-101.7,25.4,0,5.0,,96227.9,10.39,0.43,0.67,0.58,1.3,5.9,-1.2,34.0,,,,,,,,,,
15.06.07.265,-99.8,25.0,0,5.0,,95016.5,10.52,0.44,0.67,0.58,0.6,5.2,-1.3,34.0,,,,,,,,,,
15.06.07.278,-105.6,26.4,0,5.0,,94936.0,10.53,0.43,0.68,0.59,1.1,5.2,-1.3,34.0,,,,,,,,,,
15.06.07.289,-120.3,30.1,0,5.0,,96696.3,10.34,0.43,0.68,0.59,0.7,5.2,-1.4,34.0,,,,,,,,,,
15.06.07.297,-124.3,31.1,0,5.0,,95633.4,10.46,0.43,0.67,0.58,0.8,5.2,-1.5,34.0,,,,,,,,,,
15.06.07.309,-140.2,35.0,0,5.0,,96656.8,10.35,0.43,0.67,0.58,0.9,5.4,-1.0,34.0,,,,,,,,,,
15.06.07.322,10.0,2.5,1,6.0,87.7,95974.8,10.42,0.44,0.67,0.59,0.2,5.1,-1.2,34.0,,,,,,,,,,
15.06.07.330,47.2,11.8,0,6.0,,96031.3,10.41,0.43,0.67,0.58,0.9,5.2,-1.1,34.0,,,,,,,,,,
15.06.07.342,102.4,25.6,0,6.0,,97118.1,10.3,0.44,0.67,0.58,1.1,5.3,-0.9,34.0,,,,,,,,,,
15.06.07.355,146.1,36.5,0,6.0,,96117.4,10.4,0.43,0.68,0.58,0.9,5.2,-1.4,34.0,,,,,,,,,,
15.06.07.363,157.0,39.2,0,6.0,,95612.4,10.46,0.43,0.67,0.58,0.6,5.5,-1.0,34.0,,,,,,,,,,
15.06.07.375,208.1,52.0,0,6.0,,95704.5,10.45,0.43,0.67,0.59,0.2,5.3,-1.2,34.0,,,,,,,,,,
15.06.07.387,234.8,58.7,0,6.0,,96553.2,10.36,0.43,0.67,0.58,-0.7,5.1,-0.8,34.0,,,,,,,,,,
15.06.07.396,273.0,68.2,0,6.0,,94934.6,10.53,0.43,0.67,0.58,0.2,5.5,-1.4,34.0,,,,,,,,,,
15.06.07.408,280.7,70.2,0,6.0,,95445.5,10.48,0.43,0.67,0.58,0.2,5.4,-1.7,34.0,,,,,,,,,,
15.06.07.420,297.7,74.4,0,6.0,,94956.4,10.53,0.43,0.67,0.58,0.4,5.7,-1.2,34.0,,,,,,,,,,
15.06.07.429,325.2,81.3,0,6.0,,95514.0,10.47,0.43,0.68,0.57,0.3,5.6,-1.2,34.0,,,,,,,,,,
15.06.07.441,321.5,80.4,0,6.0,,95904.5,10.43,0.43,0.67,0.58,-0.9,5.6,-1.7,34.0,,,,,,,,,,
15.06.07.453,305.5,76.4,0,6.0,,95745.9,10.44,0.44,0.68,0.58,-0.9,5.6,-1.3,34.0,,,,,,,,,,
15.06.07.465,288.2,72.0,0,6.0,,95002.6,10.53,0.43,0.67,0.58,-0.6,5.8,-1.7,34.0,,,,,,,,,,
15.06.07.473,289.5,72.4,0,6.0,,96113.3,10.4,0.43,0.67,0.59,0.0,5.6,-1.6,34.0,,,,,,,,,,
15.06.07.486,260.4,65.1,0,6.0,,96329.0,10.38,0.43,0.68,0.59,-0.3,5.6,-1.2,34.0,,,,,,,,,,
15.06.07.498,237.2,59.3,0,6.0,,96188.7,10.4,0.43,0.67,0.59,-0.3,5.5,-1.4,34.0,,,,,,,,,,
15.06.07.506,214.9,53.7,0,6.0,,97163.8,10.29,0.43,0.67,0.58,-0.2,5.8,-1.5,34.0,,,,,,,,,,
15.06.07.518,181.0,45.2,0,6.0,,96588.6,10.35,0.43,0.67,0.58,-0.9,5.9,-1.4,34.0,,,,,,,,,,
15.06.07.531,126.4,31.6,0,6.0,,95776.9,10.44,0.44,0.67,0.58,-0.2,5.5,-1.9,34.0,,,,,,,,,,
15.06.07.543,73.4,18.4,0,6.0,,98603.9,10.14,0.43,0.67,0.58,0.3,5.8,-1.8,34.0,,,,,,,,,,
15.06.07.551,53.4,13.4,0,6.0,,94979.0,10.53,0.43,0.67,0.58,-0.2,5.8,-1.6,34.0,,,,,,,,,,
15.06.07.563,7.2,1.8,0,6.0,,95329.5,10.49,0.44,0.67,0.58,-0.9,5.5,-1.6,34.0,,,,,,,,,,
15.06.07.577,20.2,5.0,0,6.0,,95766.9,10.44,0.43,0.67,0.58,-0.8,5.7,-1.4,34.0,,,,,,,,,,
15.06.07.584,32.9,8.2,0,6.0,,94621.8,10.57,0.44,0.67,0.59,-0.9,5.2,-1.8,34.0,,,,,,,,,,
15.06.07.596,49.1,12.3,0,6.0,,97267.0,10.28,0.43,0.67,0.59,-0.5,5.7,-2.2,34.0,,,,,,,,,,
15.06.07.608,46.3,11.6,0,6.0,,95165.8,10.51,0.44,0.67,0.58,0.8,5.8,-2.2,34.0,,,,,,,,,,
15.06.07.621,55.5,13.9,0,6.0,,95369.1,10.49,0.43,0.68,0.58,0.2,6.0,-1.7,34.0,,,,,,,,,,
15.06.07.629,69.1,17.3,0,6.0,,96043.2,10.41,0.43,0.68,0.58,0.9,5.8,-1.6,34.0,,,,,,,,,,
15.06.07.641,52.9,13.2,0,6.0,,96328.3,10.38,0.44,0.68,0.59,0.5,5.8,-2.0,34.0,,,,,,,,,,
15.06.07.654,55.7,13.9,0,6.0,,95123.8,10.51,0.43,0.67,0.58,0.1,6.2,-2.1,34.0,,,,,,,,,,
15.06.07.663,50.6,12.6,0,6.0,,95222.9,10.5,0.43,0.68,0.59,0.8,5.8,-1.8,34.0,,,,,,,,,,
15.06.07.675,29.9,7.5,0,6.0,,96137.7,10.4,0.43,0.67,0.58,-0.9,6.0,-2.1,34.0,,,,,,,,,,
15.06.07.686,20.7,5.2,0,6.0,,96080.0,10.41,0.43,0.67,0.59,-0.2,5.9,-2.1,34.0,,,,,,,,,,
15.06.07.696,3.9,1.0,0,6.0,,97092.8,10.3,0.43,0.67,0.59,-0.5,5.2,-2.3,34.0,,,,,,,,,,
15.06.07.707,2.7,0.7,0,6.0,,96293.9,10.38,0.43,0.66,0.59,0.0,5.4,-2.8,34.0,,,,,,,,,,
15.06.07.719,-5.7,1.4,0,6.0,,96312.7,10.38,0.43,0.67,0.59,0.6,5.4,-3.0,34.0,,,,,,,,,,
15.06.07.732,-10.5,2.6,0,6.0,,96361.3,10.38,0.43,0.67,0.59,0.6,5.9,-2.2,34.0,,,,,,,,,,
15.06.07.744,-13.4,3.4,0,6.0,,96134.1,10.4,0.43,0.68,0.58,0.2,5.6,-2.5,34.0,,,,,,,,,,
15.06.07.752,-23.6,5.9,0,6.0,,95149.8,10.51,0.43,0.67,0.58,-0.5,5.9,-2.5,34.0,,,,,,,,,,
15.06.07.764,-34.3,8.6,0,6.0,,96130.1,10.4,0.43,0.68,0.59,-0.1,6.0,-2.0,34.0,,,,,,,,,,
15.06.07.772,-27.4,6.8,0,6.0,,95755.9,10.44,0.43,0.68,0.59,-0.6,6.3,-1.9,34.0,,,,,,,,,,
15.06.07.785,-40.1,10.0,0,6.0,,94973.6,10.53,0.43,0.67,0.58,-1.2,5.9,-2.2,34.0,,,,,,,,,,
15.06.07.794,-43.7,10.9,0,6.0,,96130.3,10.4,0.43,0.67,0.59,-0.4,5.6,-1.8,34.0,,,,,,,,,,
15.06.07.805,-43.2,10.8,0,6.0,,95223.8,10.5,0.43,0.67,0.58,0.2,6.3,-2.2,34.0,,,,,,,,,,
15.06.07.813,-45.5,11.4,0,6.0,,96756.9,10.34,0.43,0.67,0.57,1.6,8.9,-2.5,34.0,,,,,,,,,,
15.06.07.826,-44.0,11.0,0,6.0,,95680.6,10.45,0.43,0.69,0.59,1.5,7.4,-1.9,34.0,,,,,,,,,,
15.06.07.838,-56.2,14.0,0,6.0,,96873.7,10.32,0.43,0.67,0.58,-0.6,5.6,-1.9,34.0,,,,,,,,,,
15.06.07.846,-61.3,15.3,0,6.0,,95517.0,10.47,0.43,0.67,0.59,-0.7,5.9,-2.3,34.0,,,,,,,,,,
15.06.07.858,-68.1,17.0,0,6.0,,96292.7,10.38,0.42,0.66,0.58,-2.4,4.1,-2.1,34.0,,,,,,,,,,
15.06.07.871,-63.7,15.9,0,6.0,,95950.8,10.42,0.43,0.66,0.59,-2.0,6.0,-3.3,34.0,,,,,,,,,,
15.06.07.879,-69.8,17.4,0,6.0,,95421.8,10.48,0.43,0.68,0.6,-1.1,5.3,-2.6,34.0,,,,,,,,,,
15.06.07.891,-71.9,18.0,0,6.0,,95880.0,10.43,0.43,0.67,0.59,-0.3,6.8,-2.6,34.0,,,,,,,,,,
15.06.07.903,-82.1,20.5,0,6.0,,96083.8,10.41,0.42,0.67,0.58,-1.0,7.0,-2.0,34.0,,,,,,,,,,
15.06.07.912,-83.3,20.8,0,6.0,,96227.8,10.39,0.43,0.67,0.59,-1.7,6.0,-2.1,34.0,,,,,,,,,,
15.06.07.952,-98.9,24.7,0,6.0,,94934.7,10.53,0.42,0.67,0.59,0.1,6.7,-2.3,34.06,,,,,,,,,,
15.06.07.965,-117.1,29.3,0,6.0,,96447.3,10.37,0.42,0.67,0.6,-0.8,6.0,-1.7,34.06,,,,,,,,,,
15.06.07.973,-104.3,26.1,0,6.0,,96037.1,10.41,0.44,0.68,0.57,0.9,6.8,-2.5,34.06,,,,,,,,,,
15.06.07.985,-97.9,24.5,0,6.0,,96217.3,10.39,0.41,0.67,0.58,1.4,6.3,-2.4,34.06,,,,,,,,,,
15.06.07.994,-128.5,32.1,0,6.0,,95410.8,10.48,0.43,0.68,0.6,1.5,4.7,-1.4,34.06,,,,,,,,,,
15.06.08.006,-132.2,33.0,0,6.0,,94981.1,10.53,0.43,0.67,0.58,0.3,6.9,-2.2,34.06,,,,,,,,,,
15.06.08.014,-122.8,30.7,0,6.0,,95359.5,10.49,0.42,0.67,0.58,1.1,6.3,-2.1,34.06,,,,,,,,,,
15.06.08.026,46.4,11.6,1,7.0,90.9,96693.2,10.34,0.43,0.67,0.59,2.1,6.5,-1.8,34.06,,,,,,,,,,
15.06.08.039,84.3,21.1,0,7.0,,94205.9,10.62,0.42,0.67,0.58,1.0,7.4,-2.6,34.06,,,,,,,,,,
15.06.08.047,120.6,30.2,0,7.0,,95753.2,10.44,0.42,0.67,0.58,1.4,6.9,-2.8,34.06,,,,,,,,,,
15.06.08.059,178.1,44.5,0,7.0,,96978.9,10.31,0.42,0.67,0.59,2.5,7.6,-2.3,34.06,,,,,,,,,,
15.06.08.067,186.7,46.7,0,7.0,,95811.1,10.44,0.42,0.67,0.6,-1.6,6.0,-3.4,34.06,,,,,,,,,,
15.06.08.080,220.3,55.1,0,7.0,,96002.1,10.42,0.42,0.67,0.58,3.7,7.3,-3.4,34.06,,,,,,,,,,
15.06.08.088,262.8,65.7,0,7.0,,95056.7,10.52,0.42,0.68,0.6,3.7,4.9,-2.3,34.06,,,,,,,,,,
15.06.08.100,278.0,69.5,0,7.0,,96416.5,10.37,0.42,0.67,0.58,2.6,6.6,-3.1,34.06,,,,,,,,,,
15.06.08.108,282.9,70.7,0,7.0,,96353.0,10.38,0.43,0.68,0.58,4.3,6.8,-1.7,34.06,,,,,,,,,,
15.06.08.122,321.6,80.4,0,7.0,,95613.3,10.46,0.43,0.68,0.57,2.9,7.2,-1.1,34.06,,,,,,,,,,
15.06.08.129,338.6,84.6,0,7.0,,95692.8,10.45,0.43,0.69,0.6,0.1,4.7,-1.5,34.06,,,,,,,,,,
15.06.08.141,336.7,84.2,0,7.0,,95461.2,10.48,0.43,0.67,0.58,1.9,7.0,-1.7,34.06,85.0,,,,,,,,,
15.06.08.149,306.8,76.7,0,7.0,,97095.4,10.3,0.42,0.68,0.58,1.9,6.9,-1.6,34.06,,,,,,,,,,
15.06.08.162,304.6,76.2,0,7.0,,97259.2,10.28,0.43,0.68,0.59,0.6,6.5,-1.7,34.06,,,,,,,,,,
15.06.08.170,297.2,74.3,0,7.0,,96538.4,10.36,0.42,0.68,0.59,0.7,6.0,-1.5,34.06,,,,,,,,,,
15.06.08.182,270.7,67.7,0,7.0,,96618.6,10.35,0.42,0.68,0.59,0.7,4.9,-1.6,34.06,,,,,,,,,,
15.06.08.190,244.1,61.0,0,7.0,,95920.6,10.43,0.43,0.68,0.59,-0.6,5.8,-1.4,34.06,,,,,,,,,,
15.06.08.203,229.0,57.2,0,7.0,,96111.5,10.4,0.42,0.68,0.58,-1.1,5.3,-1.7,34.06,,,,,,,,,,
15.06.08.211,179.8,45.0,0,7.0,,97030.3,10.31,0.43,0.67,0.59,-1.9,4.7,-1.8,34.06,,,,,,,,,,
15.06.08.223,132.7,33.2,0,7.0,,94641.3,10.57,0.42,0.67,0.59,-1.1,4.5,-1.6,34.06,,,,,,,,,,
15.06.08.231,121.3,30.3,0,7.0,,95531.7,10.47,0.42,0.67,0.59,-1.2,4.2,-1.7,34.06,,,,,,,,,,
15.06.08.244,67.0,16.8,0,7.0,,95627.9,10.46,0.42,0.67,0.59,-0.1,4.0,-2.3,34.06,,,,,,,,,,
15.06.08.252,32.6,8.2,0,7.0,,95758.8,10.44,0.42,0.67,0.59,1.0,3.9,-2.1,34.06,,,,,,,,,,
15.06.08.264,13.4,3.4,0,7.0,,96675.1,10.34,0.42,0.69,0.57,0.9,4.0,-1.4,34.06,,,,,,,,,,
15.06.08.272,20.3,5.1,0,7.0,,96347.1,10.38,0.43,0.68,0.58,-0.4,4.0,-2.1,34.06,,,,,,,,,,
15.06.08.285,30.5,7.6,0,7.0,,96374.1,10.38,0.42,0.69,0.58,-2.2,5.3,-1.4,34.06,,,,,,,,,,
15.06.08.293,44.9,11.2,0,7.0,,96612.2,10.35,0.42,0.67,0.59,-2.1,3.6,-1.8,34.06,,,,,,,,,,
15.06.08.305,50.3,12.6,0,7.0,,96413.9,10.37,0.42,0.67,0.6,-1.8,5.1,-1.8,34.06,,,,,,,,,,
15.06.08.313,60.3,15.1,0,7.0,,95297.3,10.49,0.42,0.67,0.59,-2.5,2.3,-1.8,34.06,,,,,,,,,,
15.06.08.325,50.0,12.5,0,7.0,,96390.4,10.37,0.42,0.67,0.59,-0.8,3.2,-1.6,34.06,,,,,,,,,,
15.06.08.334,61.9,15.5,0,7.0,,94792.2,10.55,0.43,0.68,0.58,0.4,3.9,-1.4,34.06,,,,,,,,,,
15.06.08.346,52.4,13.1,0,7.0,,96273.3,10.39,0.43,0.68,0.58,-0.6,3.6,-0.7,34.06,,,,,,,,,,
15.06.08.354,50.2,12.6,0,7.0,,96150.1,10.4,0.43,0.68,0.58,-0.9,4.2,-1.0,34.06,,,,,,,,,,
15.06.08.366,41.1,10.3,0,7.0,,95627.5,10.46,0.43,0.68,0.59,0.0,4.4,-1.0,34.06,,,,,,,,,,
15.06.08.376,28.5,7.1,0,7.0,,96105.8,10.41,0.42,0.67,0.59,-0.4,3.3,-0.6,34.06,,,,,,,,,,
15.06.08.387,14.4,3.6,0,7.0,,94667.1,10.56,0.43,0.67,0.59,0.5,3.7,-0.8,34.06,,,,,,,,,,
15.06.08.395,6.3,1.6,0,7.0,,96954.0,10.31,0.42,0.67,0.59,1.6,3.7,-0.6,34.06,,,,,,,,,,
15.06.08.408,4.9,1.2,0,7.0,,96127.5,10.4,0.43,0.68,0.59,2.7,4.4,-0.6,34.06,,,,,,,,,,
15.06.08.416,-6.3,1.6,0,7.0,,96899.4,10.32,0.43,0.68,0.58,2.1,4.5,-0.2,34.06,,,,,,,,,,
15.06.08.429,-16.3,4.1,0,7.0,,94343.8,10.6,0.43,0.68,0.58,2.3,5.6,-0.1,34.06,,,,,,,,,,
15.06.08.436,-18.5,4.6,0,7.0,,95197.1,10.5,0.43,0.68,0.58,2.3,5.9,-0.2,34.06,,,,,,,,,,
15.06.08.448,-28.2,7.0,0,7.0,,96187.8,10.4,0.43,0.67,0.58,2.7,6.1,-0.5,34.06,,,,,,,,,,
15.06.08.457,-27.1,6.8,0,7.0,,96125.1,10.4,0.43,0.68,0.59,3.7,6.7,-0.3,34.06,,,,,,,,,,
15.06.08.469,-27.9,7.0,0,7.0,,94471.6,10.59,0.43,0.68,0.58,4.1,7.6,-0.2,34.06,,,,,,,,,,
15.06.08.477,-32.3,8.1,0,7.0,,95764.8,10.44,0.43,0.68,0.57,2.7,8.3,-0.3,34.06,,,,,,,,,,
15.06.08.489,-40.3,10.1,0,7.0,,95396.7,10.48,0.43,0.68,0.59,1.7,8.5,0.0,34.06,,,,,,,,,,
15.06.08.498,-51.9,13.0,0,7.0,,96766.4,10.33,0.43,0.67,0.58,2.0,9.1,-0.7,34.06,,,,,,,,,,
15.06.08.510,-41.9,10.5,0,7.0,,96994.4,10.31,0.42,0.67,0.59,2.5,9.2,-0.3,34.06,,,,,,,,,,
15.06.08.518,-48.7,12.2,0,7.0,,97419.7,10.26,0.42,0.67,0.58,3.8,9.4,-0.5,34.06,,,,,,,,,,
15.06.08.531,-50.4,12.6,0,7.0,,95851.1,10.43,0.43,0.68,0.58,3.7,9.7,-0.8,34.06,,,,,,,,,,
15.06.08.539,-49.7,12.4,0,7.0,,95935.0,10.42,0.43,0.68,0.58,3.7,10.0,-0.6,34.06,,,,,,,,,,
15.06.08.551,-62.3,15.6,0,7.0,,95047.0,10.52,0.43,0.7,0.58,2.8,10.7,0.0,34.06,,,,,,,,,,
15.06.08.559,-63.8,16.0,0,7.0,,97810.6,10.22,0.43,0.69,0.58,1.9,10.3,0.2,34.06,,,,,,,,,,
15.06.08.571,-68.3,17.1,0,7.0,,97229.0,10.28,0.43,0.68,0.58,1.2,11.0,-0.2,34.06,,,,,,,,,,
15.06.08.579,-76.7,19.2,0,7.0,,95214.4,10.5,0.43,0.67,0.59,-0.8,13.0,-0.9,34.06,,,,,,,,,,
15.06.08.593,-74.9,18.7,0,7.0,,96645.9,10.35,0.42,0.66,0.59,-0.1,15.5,-1.5,34.06,,,,,,,,,,
15.06.08.600,-77.7,19.4,0,7.0,,97712.8,10.23,0.42,0.65,0.58,3.9,18.0,-2.3,34.06,,,,,,,,,,
15.06.08.612,-85.3,21.3,0,7.0,,95122.1,10.51,0.43,0.68,0.59,7.1,16.6,-1.6,34.06,,,,,,,,,,
15.06.08.624,-95.2,23.8,0,7.0,,95213.8,10.5,0.42,0.68,0.59,3.9,16.3,-2.5,34.06,,,,,,,,,,
15.06.08.633,-85.7,21.4,0,7.0,,96163.4,10.4,0.41,0.68,0.59,5.3,16.0,-1.8,34.06,,,,,,,,,,
15.06.08.645,-94.4,23.6,0,7.0,,95978.8,10.42,0.4,0.68,0.59,6.9,14.0,-0.3,34.06,,,,,,,,,,
15.06.08.657,-109.3,27.3,0,7.0,,96211.2,10.39,0.41,0.69,0.59,4.3,16.6,-1.0,34.06,,,,,,,,,,
15.06.08.665,-106.7,26.7,0,7.0,,97459.0,10.26,0.41,0.69,0.59,2.7,14.4,-1.3,34.06,,,,,,,,,,
15.06.08.678,-111.0,27.8,0,7.0,,96170.3,10.4,0.41,0.68,0.59,3.7,13.9,-1.0,34.06,,,,,,,,,,
15.06.08.690,-109.4,27.4,0,7.0,,95761.3,10.44,0.41,0.68,0.58,2.9,13.8,-0.9,34.06,,,,,,,,,,
15.06.08.702,-129.7,32.4,0,7.0,,96114.7,10.4,0.41,0.68,0.59,2.5,11.7,-0.8,34.06,,,,,,,,,,
15.06.08.711,-116.4,29.1,0,7.0,,96070.6,10.41,0.4,0.68,0.59,2.8,12.2,-1.1,34.06,,,,,,,,,,
15.06.08.723,40.2,10.0,1,8.0,81.1,96038.9,10.41,0.41,0.68,0.58,1.9,10.0,-0.7,34.06,,,,,,,,,,
15.06.08.760,181.0,45.2,0,8.0,,95621.7,10.46,0.41,0.69,0.59,1.4,7.9,-1.2,34.0,,,,,,,,,,
15.06.08.768,220.0,55.0,0,8.0,,95694.0,10.45,0.4,0.68,0.6,-1.3,4.9,-0.6,34.0,,,,,,,,,,
15.06.08.780,,,0,8.0,,,,,,,,,,,,,,,,,,,,
15.06.08.797,,,0,8.0,,,,,,,,,,,,34.01,,,,,,,,
15.06.08.809,272.3,68.1,0,8.0,,96644.5,10.35,0.4,0.67,0.6,-1.9,4.5,-1.0,34.0,,,,,,,,,,
15.06.08.817,307.6,76.9,0,8.0,,95414.9,10.48,0.41,0.68,0.59,-2.2,3.9,-0.9,34.0,,,,,,,,,,
15.06.08.830,322.2,80.6,0,8.0,,95495.0,10.47,0.41,0.68,0.59,-1.4,4.1,-0.9,34.0,,,,,,,,,,
15.06.08.838,321.0,80.2,0,8.0,,96714.6,10.34,0.41,0.68,0.6,-1.1,4.9,-1.2,34.0,,,,,,,,,,
15.06.08.850,305.2,76.3,0,8.0,,95908.8,10.43,0.41,0.68,0.59,-0.6,5.5,-0.9,34.0,,,,,,,,,,
15.06.08.858,311.7,77.9,0,8.0,,95486.4,10.47,0.42,0.68,0.59,1.2,5.9,-0.7,34.0,,,,,,,,,,
15.06.08.870,284.5,71.1,0,8.0,,96516.0,10.36,0.41,0.68,0.6,1.9,7.1,-1.3,34.0,,,,,,,,,,
15.06.08.879,261.6,65.4,0,8.0,,98587.5,10.14,0.41,0.68,0.59,1.4,7.0,-1.7,34.0,,,,,,,,,,
15.06.08.891,213.3,53.3,0,8.0,,96539.4,10.36,0.41,0.68,0.59,3.1,8.5,-2.1,34.0,,,,,,,,,,
15.06.08.899,196.9,49.2,0,8.0,,95856.9,10.43,0.42,0.69,0.59,2.1,8.4,-1.6,34.0,,,,,,,,,,
15.06.08.912,184.4,46.1,0,8.0,,96724.3,10.34,0.41,0.68,0.59,2.4,8.2,-1.7,34.0,,,,,,,,,,
15.06.08.920,145.0,36.2,0,8.0,,97295.0,10.28,0.42,0.68,0.58,2.9,8.7,-1.3,34.0,,,,,,,,,,
15.06.08.932,103.2,25.8,0,8.0,,94932.9,10.53,0.4,0.66,0.57,1.8,9.8,-2.1,34.0,,,,,,,,,,
15.06.08.940,64.3,16.1,0,8.0,,96531.0,10.36,0.43,0.7,0.61,4.8,9.2,-0.5,34.0,,,,,,,,,,
15.06.08.952,12.3,3.1,0,8.0,,96371.7,10.38,0.4,0.68,0.6,2.5,5.7,-2.4,34.0,,,,,,,,,,
15.06.08.960,16.0,4.0,0,8.0,,96785.4,10.33,0.39,0.67,0.6,-0.2,7.7,-2.3,34.0,,,,,,,,,,
15.06.08.973,24.4,6.1,0,8.0,,94915.6,10.54,0.4,0.68,0.59,4.0,6.2,-1.4,34.0,,,,,,,,,,
15.06.08.981,35.2,8.8,0,8.0,,95529.1,10.47,0.41,0.69,0.59,1.3,4.0,-1.0,34.0,,,,,,,,,,
15.06.08.993,48.3,12.1,0,8.0,,96046.1,10.41,0.4,0.69,0.58,0.0,3.6,-1.2,34.0,,,,,,,,,,
15.06.09.002,43.2,10.8,0,8.0,,96488.7,10.36,0.41,0.69,0.59,0.3,2.8,-0.5,34.0,,,,,,,,,,
15.06.09.014,54.0,13.5,0,8.0,,95301.4,10.49,0.41,0.7,0.58,-0.3,2.2,0.3,34.0,,,,,,,,,,
15.06.09.022,58.4,14.6,0,8.0,,96561.4,10.36,0.41,0.69,0.58,-2.3,1.2,0.5,34.0,,,,,,,,,,
15.06.09.034,57.5,14.4,0,8.0,,95857.8,10.43,0.41,0.68,0.58,-1.7,1.3,0.9,34.0,,,,,,,,,,
15.06.09.042,57.6,14.4,0,8.0,,95226.0,10.5,0.41,0.68,0.59,0.2,1.1,0.8,34.0,,,,,,,,,,
15.06.09.055,48.5,12.1,0,8.0,,97310.2,10.28,0.41,0.67,0.59,0.3,0.4,0.5,34.0,,,,,,,,,,
15.06.09.063,37.5,9.4,0,8.0,,96265.5,10.39,0.41,0.68,0.6,1.2,-0.6,1.2,34.0,,,,,,,,,,
15.06.09.075,35.8,9.0,0,8.0,,96521.7,10.36,0.42,0.67,0.59,2.3,-0.5,0.6,34.0,,,,,,,,,,
15.06.09.083,17.9,4.5,0,8.0,,97115.2,10.3,0.42,0.68,0.59,0.9,-0.7,0.0,34.0,,,,,,,,,,
15.06.09.096,-3.2,0.8,0,8.0,,96073.7,10.41,0.42,0.67,0.58,0.9,-0.1,-0.2,34.0,,,,,,,,,,
15.06.09.104,-11.7,2.9,0,8.0,,96016.4,10.41,0.42,0.67,0.57,1.0,1.5,-1.3,34.0,,,,,,,,,,
15.06.09.116,-5.6,1.4,0,8.0,,96518.3,10.36,0.42,0.69,0.59,0.7,2.1,-0.7,34.0,,,,,,,,,,
15.06.09.124,-0.1,0.0,0,8.0,,96043.3,10.41,0.43,0.7,0.6,0.0,2.8,0.5,34.0,,,,,,,,,,
15.06.09.137,-15.5,3.9,0,8.0,,96097.6,10.41,0.42,0.67,0.57,-0.3,3.5,-0.4,34.0,,,,,,,,,,
15.06.09.145,-9.0,2.2,0,8.0,,96702.9,10.34,0.42,0.68,0.58,-0.3,2.5,-0.1,34.0,,,,,,,,,,
15.06.09.157,-23.5,5.9,0,8.0,,96233.2,10.39,0.42,0.69,0.59,1.4,5.1,0.4,34.0,,,,,,,,,,
15.06.09.165,-28.6,7.2,0,8.0,,95647.4,10.46,0.42,0.66,0.58,2.4,4.5,-2.0,34.0,,,,,,,,,,
15.06.09.178,-37.1,9.3,0,8.0,,95152.0,10.51,0.42,0.66,0.58,3.2,5.4,-1.4,34.0,,,,,,,,,,
15.06.09.186,-43.2,10.8,0,8.0,,95016.6,10.52,0.42,0.69,0.59,5.1,5.1,-2.1,34.0,,,,,,,,,,
15.06.09.198,-45.4,11.4,0,8.0,,96007.5,10.42,0.42,0.68,0.58,3.2,6.2,-3.0,34.0,,,,,,,,,,
15.06.09.210,-42.2,10.6,0,8.0,,95734.8,10.45,0.43,0.69,0.59,5.1,8.2,-2.8,34.0,,,,,,,,,,
15.06.09.219,-58.6,14.6,0,8.0,,94658.6,10.56,0.41,0.69,0.58,5.2,10.0,-2.5,34.0,,,,,,,,,,
15.06.09.231,-55.3,13.8,0,8.0,,95951.8,10.42,0.42,0.68,0.59,3.1,6.2,-2.5,34.0,,,,,,,,,,
15.06.09.243,-69.7,17.4,0,8.0,,97100.7,10.3,0.41,0.68,0.58,5.6,8.5,-2.2,34.0,,,,,,,,,,
15.06.09.251,-62.8,15.7,0,8.0,,95745.8,10.44,0.41,0.69,0.58,4.7,7.1,-1.6,34.0,,,,,,,,,,
15.06.09.264,-74.7,18.7,0,8.0,,95936.0,10.42,0.42,0.7,0.58,2.5,7.5,-0.9,34.0,,,,,,,,,,
15.06.09.277,-69.8,17.4,0,8.0,,95826.5,10.44,0.42,0.69,0.57,1.9,7.6,-0.5,34.0,,,,,,,,,,
15.06.09.284,-77.5,19.4,0,8.0,,97513.3,10.26,0.41,0.69,0.58,0.1,6.2,-0.2,34.0,,,,,,,,,,
15.06.09.296,-66.0,16.5,0,8.0,,96177.8,10.4,0.41,0.68,0.59,0.5,7.0,-0.4,34.0,,,,,,,,,,
15.06.09.309,-96.2,24.0,0,8.0,,95632.7,10.46,0.41,0.69,0.58,0.0,6.8,-0.1,34.0,,,,,,,,,,
15.06.09.317,-85.8,21.4,0,8.0,,96273.8,10.39,0.42,0.68,0.58,0.3,5.8,-0.1,34.0,,,,,,,,,,
15.06.09.329,-98.7,24.7,0,8.0,,95858.3,10.43,0.42,0.69,0.59,0.2,6.1,0.5,34.0,,,,,,,,,,
15.06.09.342,-85.6,21.4,0,8.0,,94382.4,10.6,0.42,0.67,0.58,0.5,5.8,-0.8,34.0,,,,,,,,,,
15.06.09.350,-109.5,27.4,0,8.0,,95680.9,10.45,0.42,0.68,0.59,1.5,5.6,-0.3,34.0,,,,,,,,,,
15.06.09.362,-108.7,27.2,0,8.0,,95837.2,10.43,0.42,0.69,0.58,2.2,6.0,-0.7,34.0,,,,,,,,,,
15.06.09.374,-119.7,29.9,0,8.0,,95066.5,10.52,0.42,0.69,0.58,1.2,5.8,-0.6,34.0,,,,,,,,,,
15.06.09.382,-115.0,28.8,0,8.0,,95786.0,10.44,0.42,0.69,0.58,0.6,6.6,-0.7,34.0,,,,,,,,,,
15.06.09.395,-135.0,33.8,0,8.0,,95438.0,10.48,0.42,0.69,0.59,2.3,7.8,-1.4,34.0,,,,,,,,,,
15.06.09.407,-119.8,30.0,0,8.0,,95221.1,10.5,0.41,0.68,0.58,2.0,8.0,-1.6,34.0,,,,,,,,,,
15.06.09.415,34.7,8.7,1,9.0,89.0,95869.6,10.43,0.41,0.68,0.58,1.7,5.4,-0.9,34.0,,,,,,,,,,
15.06.09.427,79.7,19.9,0,9.0,,96229.0,10.39,0.42,0.69,0.59,2.5,6.1,-1.0,34.0,,,,,,,,,,
15.06.09.440,129.0,32.2,0,9.0,,96835.2,10.33,0.42,0.68,0.58,1.6,7.5,-1.1,34.0,,,,,,,,,,
15.06.09.448,170.0,42.5,0,9.0,,95759.3,10.44,0.42,0.68,0.58,2.0,6.9,-1.6,34.0,,,,,,,,,,
15.06.09.460,205.1,51.3,0,9.0,,96846.7,10.33,0.42,0.68,0.59,3.1,7.9,-2.1,34.0,,,,,,,,,,
15.06.09.473,242.6,60.6,0,9.0,,95634.1,10.46,0.41,0.68,0.57,3.0,6.7,-2.7,34.0,,,,,,,,,,
15.06.09.481,256.2,64.0,0,9.0,,93662.7,10.68,0.41,0.68,0.57,3.6,4.9,-2.1,34.0,,,,,,,,,,
15.06.09.493,286.7,71.7,0,9.0,,97087.8,10.3,0.42,0.69,0.57,2.6,6.2,-2.7,34.0,,,,,,,,,,
15.06.09.505,316.1,79.0,0,9.0,,96966.6,10.31,0.42,0.69,0.57,1.5,6.0,-3.1,34.0,,,,,,,,,,
15.06.09.513,323.8,81.0,0,9.0,,94991.4,10.53,0.42,0.68,0.58,2.0,5.9,-2.7,34.0,,,,,,,,,,
15.06.09.526,354.8,88.7,0,9.0,,96625.5,10.35,0.41,0.68,0.59,4.5,6.6,-3.4,34.0,,,,,,,,,,
15.06.09.567,298.2,74.6,0,9.0,,96392.4,10.37,0.41,0.7,0.58,6.8,5.4,-5.4,34.0,,,,,,,,,,
15.06.09.575,261.3,65.3,0,9.0,,95768.0,10.44,0.42,0.7,0.56,8.3,7.6,-5.1,34.0,,,,,,,,,,
15.06.09.587,225.6,56.4,0,9.0,,96708.0,10.34,0.41,0.71,0.56,6.4,7.6,-4.7,34.0,,,,,,,,,,
15.06.09.600,208.1,52.0,0,9.0,,95823.2,10.44,0.41,0.72,0.56,5.6,8.9,-4.3,34.0,,,,,,,,,,
15.06.09.612,162.1,40.5,0,9.0,,96438.5,10.37,0.41,0.72,0.56,3.7,10.2,-3.5,34.0,,,,,,,,,,
15.06.09.620,131.7,32.9,0,9.0,,96104.3,10.41,0.41,0.7,0.57,3.0,9.9,-3.6,34.0,,,,,,,,,,
15.06.09.632,78.7,19.7,0,9.0,,96603.4,10.35,0.4,0.7,0.57,2.3,9.1,-3.3,34.0,,,,,,,,,,
15.06.09.645,23.8,6.0,0,9.0,,95387.7,10.48,0.4,0.69,0.57,0.6,8.1,-3.8,34.0,,,,,,,,,,
15.06.09.653,-0.3,0.1,0,9.0,,96814.4,10.33,0.4,0.69,0.58,1.6,7.7,-3.3,34.0,,,,,,,,,,
15.06.09.665,16.1,4.0,0,9.0,,96517.0,10.36,0.4,0.69,0.57,2.4,8.1,-3.4,34.0,,,,,,,,,,
15.06.09.678,19.7,4.9,0,9.0,,97002.9,10.31,0.4,0.7,0.57,4.5,8.9,-3.5,34.0,,,,,,,,,,
15.06.09.686,34.6,8.6,0,9.0,,95881.8,10.43,0.4,0.7,0.57,3.3,7.7,-4.1,34.0,,,,,,,,,,
15.06.09.698,51.0,12.8,0,9.0,,96944.2,10.32,0.41,0.7,0.56,2.8,8.1,-3.9,34.0,,,,,,,,,,
15.06.09.710,52.6,13.2,0,9.0,,95836.9,10.43,0.4,0.71,0.57,3.2,9.3,-3.9,34.0,,,,,,,,,,
15.06.09.718,49.0,12.2,0,9.0,,95587.8,10.46,0.4,0.7,0.56,1.1,7.5,-3.3,34.0,,,,,,,,,,
15.06.09.731,51.3,12.8,0,9.0,,95304.2,10.49,0.4,0.7,0.57,-0.1,8.1,-3.2,34.0,,,,,,,,,,
15.06.09.743,47.3,11.8,0,9.0,,96308.7,10.38,0.4,0.7,0.57,-1.0,6.5,-2.8,34.0,,,,,,,,,,
15.06.09.751,36.2,9.0,0,9.0,,96520.4,10.36,0.4,0.7,0.57,-3.3,4.4,-2.6,34.0,,,,,,,,,,
15.06.09.763,27.3,6.8,0,9.0,,93841.2,10.66,0.4,0.7,0.57,-2.7,5.6,-2.6,34.0,,,,,,,,,,
15.06.09.776,16.3,4.1,0,9.0,,97358.3,10.27,0.4,0.7,0.57,-4.0,4.3,-2.5,34.0,,,,,,,,,,
15.06.09.788,7.6,1.9,0,9.0,,96256.1,10.39,0.41,0.71,0.58,-2.7,7.5,-2.4,34.0,,,,,,,,,,
15.06.09.796,-6.5,1.6,0,9.0,,96561.5,10.36,0.4,0.7,0.57,-2.8,8.3,-2.5,34.0,,,,,,,,,,
15.06.09.809,-3.4,0.8,0,9.0,,95275.2,10.5,0.39,0.69,0.57,-5.5,4.0,-1.8,34.0,,,,,,,,,,
15.06.09.821,-9.9,2.5,0,9.0,,96092.1,10.41,0.4,0.7,0.58,-4.9,6.3,-1.9,34.0,,,,,,,,,,
15.06.09.829,-15.2,3.8,0,9.0,,96321.3,10.38,0.39,0.7,0.57,-5.0,7.9,-2.2,34.0,,,,,,,,,,
15.06.09.841,-21.1,5.3,0,9.0,,95247.7,10.5,0.4,0.7,0.57,-6.5,5.6,-1.3,34.0,,,,,,,,,,
15.06.09.853,-34.3,8.6,0,9.0,,97875.2,10.22,0.39,0.69,0.57,-6.1,5.6,-1.4,34.0,,,,,,,,,,
15.06.09.866,-33.4,8.4,0,9.0,,95402.4,10.48,0.4,0.7,0.57,-4.6,6.3,-2.0,34.0,,,,,,,,,,
15.06.09.874,-38.4,9.6,0,9.0,,96060.4,10.41,0.39,0.7,0.58,-5.3,6.6,-1.2,34.0,,,,,,,,,,
15.06.09.886,-42.1,10.5,0,9.0,,96670.4,10.34,0.41,0.71,0.57,-7.5,5.3,-1.0,34.0,,,,,,,,,,
15.06.09.899,-54.2,13.6,0,9.0,,95838.6,10.43,0.4,0.71,0.58,-8.2,10.6,-0.8,34.0,,,,,,,,,,
15.06.09.911,-62.3,15.6,0,9.0,,95239.6,10.5,0.4,0.69,0.57,-10.0,1.0,1.1,34.0,,,,,,,,,,
15.06.09.919,-47.6,11.9,0,9.0,,95690.2,10.45,0.42,0.68,0.6,-9.8,4.9,-0.7,34.0,,,,,,,,,,
15.06.09.931,-69.5,17.4,0,9.0,,95563.0,10.46,0.4,0.69,0.59,-9.4,10.8,-1.9,34.0,,,,,,,,,,
15.06.09.945,-63.3,15.8,0,9.0,,95571.9,10.46,0.4,0.68,0.59,-9.5,1.1,-0.3,34.0,,,,,,,,,,
15.06.09.952,-70.9,17.7,0,9.0,,96044.3,10.41,0.41,0.69,0.59,-8.9,4.8,-1.3,34.0,,,,,,,,,,
15.06.09.964,-69.8,17.4,0,9.0,,96474.7,10.37,0.4,0.69,0.59,-8.1,6.3,-1.1,34.0,,,,,,,,,,
15.06.09.976,-69.8,17.4,0,9.0,,96347.7,10.38,0.41,0.68,0.6,-7.7,7.6,-0.5,34.0,,,,,,,,,,
15.06.09.989,-84.2,21.0,0,9.0,,95388.3,10.48,0.4,0.68,0.59,-8.7,5.3,-0.9,34.0,,,,,,,,,,
15.06.09.997,-91.6,22.9,0,9.0,,96254.2,10.39,0.4,0.68,0.6,-7.6,4.5,-1.2,34.0,,,,,,,,,,
15.06.10.009,-91.3,22.8,0,9.0,,95383.2,10.48,0.4,0.67,0.58,-9.1,8.2,-1.5,34.0,,,,,,,,,,
15.06.10.021,-94.3,23.6,0,9.0,,96946.4,10.31,0.39,0.68,0.6,-4.9,6.3,-1.6,34.0,,,,,,,,,,
15.06.10.030,-111.4,27.8,0,9.0,,96497.3,10.36,0.4,0.68,0.59,-4.5,5.4,-0.8,34.0,,,,,,,,,,
15.06.10.042,-104.5,26.1,0,9.0,,96435.9,10.37,0.4,0.68,0.6,-7.2,5.6,-1.1,34.0,,,,,,,,,,
15.06.10.054,-104.3,26.1,0,9.0,,95250.4,10.5,0.4,0.68,0.6,-6.7,6.8,-1.0,34.0,,,,,,,,,,
15.06.10.062,-105.5,26.4,0,9.0,,96729.6,10.34,0.4,0.68,0.61,-5.2,5.2,-1.0,34.0,,,,,,,,,,
15.06.10.075,-110.5,27.6,0,9.0,,96802.6,10.33,0.4,0.67,0.6,-4.5,5.3,-0.7,34.0,,,,,,,,,,
15.06.10.087,-131.8,33.0,0,9.0,,95591.1,10.46,0.39,0.68,0.61,-4.6,5.8,-0.9,34.0,,,,,,,,,,
15.06.10.099,-123.7,30.9,0,9.0,,95460.1,10.48,0.39,0.68,0.61,-4.7,5.5,-0.3,34.0,,,,,,,,,,
15.06.10.107,14.4,3.6,1,10.0,81.7,96079.0,10.41,0.4,0.67,0.59,-4.0,6.2,-0.4,34.0,,,,,,,,,,
15.06.10.120,75.9,19.0,0,10.0,,95668.4,10.45,0.4,0.67,0.6,-4.5,4.8,0.3,34.0,,,,,,,,,,
15.06.10.132,115.2,28.8,0,10.0,,96164.4,10.4,0.41,0.68,0.61,-3.9,5.5,0.4,34.0,,,,,,,,,,
15.06.10.140,148.1,37.0,0,10.0,,95676.4,10.45,0.4,0.67,0.61,-5.1,4.5,-0.4,34.0,,,,,,,,,,
15.06.10.153,176.9,44.2,0,10.0,,96042.9,10.41,0.4,0.66,0.61,-3.2,5.8,-1.0,34.0,,,,,,,,,,
15.06.10.165,207.0,51.8,0,10.0,,94940.9,10.53,0.41,0.66,0.61,-1.1,6.0,-1.9,34.0,,,,,,,,,,
15.06.10.173,240.5,60.1,0,10.0,,95891.5,10.43,0.4,0.67,0.61,-2.2,5.7,-2.4,34.0,,,,,,,,,,
15.06.10.185,264.0,66.0,0,10.0,,95594.2,10.46,0.4,0.67,0.61,-1.5,6.1,-3.5,34.0,,,,,,,,,,
15.06.10.198,276.6,69.2,0,10.0,,95785.4,10.44,0.4,0.67,0.61,-0.9,6.8,-3.2,34.0,,,,,,,,,,
15.06.10.206,343.3,85.8,0,10.0,,96367.1,10.38,0.4,0.68,0.6,-2.5,6.7,-3.7,34.0,,,,,,,,,,
15.06.10.218,331.3,82.8,0,10.0,,95462.7,10.48,0.4,0.68,0.61,-4.4,7.4,-3.2,34.0,,,,,,,,,,
15.06.10.230,349.8,87.4,0,10.0,,97813.5,10.22,0.4,0.67,0.61,-5.4,7.4,-3.1,34.0,,,,,,,,,,
15.06.10.243,299.6,74.9,0,10.0,,97381.5,10.27,0.4,0.66,0.62,-5.8,6.0,-3.7,34.0,,,,,,,,,,
15.06.10.251,295.1,73.8,0,10.0,,97279.8,10.28,0.4,0.65,0.62,-4.1,7.3,-3.4,34.0,,,,,,,,,,
15.06.10.263,266.3,66.6,0,10.0,,94864.3,10.54,0.39,0.67,0.62,-2.4,7.0,-3.2,34.0,,,,,,,,,,
15.06.10.275,275.8,69.0,0,10.0,,96221.6,10.39,0.39,0.67,0.62,-1.2,7.5,-3.0,34.0,,,,,,,,,,
15.06.10.284,246.4,61.6,0,10.0,,94655.7,10.56,0.38,0.67,0.61,-1.4,8.1,-3.0,34.0,,,,,,,,,,
15.06.10.296,187.3,46.8,0,10.0,,94908.1,10.54,0.36,0.67,0.6,-3.1,7.4,-3.5,34.0,,,,,,,,,,
15.06.10.308,150.1,37.5,0,10.0,,94821.2,10.55,0.34,0.74,0.55,2.6,17.0,-3.5,34.0,,,,,,,,,,
15.06.10.316,113.8,28.4,0,10.0,,96503.6,10.36,0.38,0.73,0.6,-3.7,5.0,-1.8,34.0,,,,,,,,,,
15.06.10.329,67.7,16.9,0,10.0,,95314.5,10.49,0.36,0.69,0.58,-5.0,11.7,-2.1,34.0,,,,,,,,,,
15.06.10.370,23.0,5.8,0,10.0,,95077.6,10.52,0.36,0.67,0.62,-2.5,8.8,-0.4,34.06,,,,,,,,,,
15.06.10.382,44.6,11.2,0,10.0,,95493.7,10.47,0.4,0.66,0.61,0.2,7.6,-0.3,34.06,,,,,,,,,,
15.06.10.394,54.1,13.5,0,10.0,,96400.0,10.37,0.41,0.67,0.62,-1.8,5.8,-0.8,34.06,,,,,,,,,,
15.06.10.403,52.4,13.1,0,10.0,,95761.4,10.44,0.41,0.65,0.61,-3.9,5.9,-0.4,34.06,,,,,,,,,,
15.06.10.415,63.7,15.9,0,10.0,,96970.0,10.31,0.4,0.67,0.62,-4.1,4.8,0.7,34.06,,,,,,,,,,
15.06.10.423,60.4,15.1,0,10.0,,96565.7,10.36,0.42,0.63,0.6,-1.5,6.1,-1.6,34.06,,,,,,,,,,
15.06.10.435,42.3,10.6,0,10.0,,96368.2,10.38,0.43,0.66,0.63,-3.4,5.7,0.7,34.06,,,,,,,,,,
15.06.10.448,39.4,9.8,0,10.0,,97381.4,10.27,0.42,0.66,0.63,-3.6,4.9,-0.2,34.06,,,,,,,,,,
15.06.10.456,34.6,8.6,0,10.0,,96550.9,10.36,0.38,0.67,0.61,-3.5,8.3,-1.2,34.06,,,,,,,,,,
15.06.10.468,16.7,4.2,0,10.0,,95089.7,10.52,0.41,0.67,0.62,-3.5,7.5,-0.3,34.06,,,,,,,,,,
15.06.10.480,7.9,2.0,0,10.0,,95863.9,10.43,0.39,0.67,0.61,-4.8,9.6,-1.1,34.06,,,,,,,,,,
15.06.10.488,-2.6,0.6,0,10.0,,96971.9,10.31,0.38,0.63,0.6,-5.6,8.4,-3.0,34.06,,,,,,,,,,
15.06.10.501,-17.2,4.3,0,10.0,,97347.1,10.27,0.41,0.67,0.64,-5.5,8.4,-4.1,34.06,,,,,,,,,,
15.06.10.514,-12.5,3.1,0,10.0,,95235.6,10.5,0.37,0.65,0.62,-3.5,10.1,-4.4,34.06,,,,,,,,,,
15.06.10.525,-9.4,2.4,0,10.0,,96082.4,10.41,0.39,0.66,0.64,-5.9,8.8,-3.6,34.06,,,,,,,,,,
15.06.10.534,-13.9,3.5,0,10.0,,97943.3,10.21,0.4,0.64,0.62,-3.6,10.4,-5.6,34.06,,,,,,,,,,
15.06.10.546,-31.6,7.9,0,10.0,,94288.3,10.61,0.4,0.65,0.63,-5.6,7.8,-3.6,34.06,,,,,,,,,,
15.06.10.558,-30.0,7.5,0,10.0,,95124.0,10.51,0.41,0.64,0.63,-2.4,7.6,-4.1,34.06,,,,,,,,,,
15.06.10.566,-29.8,7.4,0,10.0,,94441.2,10.59,0.41,0.65,0.64,-5.9,7.9,-3.9,34.06,,,,,,,,,,
15.06.10.579,-38.2,9.6,0,10.0,,96710.2,10.34,0.4,0.64,0.65,-4.5,7.4,-4.9,34.06,,,,,,,,,,
15.06.10.591,-33.5,8.4,0,10.0,,94917.0,10.54,0.41,0.63,0.63,-1.7,7.4,-4.8,34.06,,,,,,,,,,
15.06.10.603,-57.1,14.3,0,10.0,,95897.1,10.43,0.42,0.64,0.63,-2.8,5.4,-4.1,34.06,,,,,,,,,,
15.06.10.611,-50.1,12.5,0,10.0,,97399.9,10.27,0.41,0.65,0.63,-1.7,6.5,-4.0,34.06,,,,,,,,,,
15.06.10.624,-56.9,14.2,0,10.0,,95732.7,10.45,0.41,0.66,0.63,-1.8,7.7,-3.4,34.06,,,,,,,,,,
15.06.10.636,-59.8,15.0,0,10.0,,95514.7,10.47,0.39,0.65,0.63,-2.6,8.2,-3.6,34.06,,,,,,,,,,
15.06.10.644,-68.8,17.2,0,10.0,,96477.8,10.37,0.39,0.65,0.63,-1.5,9.9,-3.7,34.06,,,,,,,,,,
15.06.10.656,-75.0,18.8,0,10.0,,96079.6,10.41,0.38,0.65,0.63,0.8,9.7,-3.5,34.06,,,,,,,,,,
15.06.10.669,-79.0,19.8,0,10.0,,96844.6,10.33,0.38,0.65,0.63,1.3,7.5,-3.1,34.06,,,,,,,,,,
15.06.10.681,-71.9,18.0,0,10.0,,98016.8,10.2,0.38,0.66,0.63,0.3,6.9,-2.5,34.06,,,,,,,,,,
15.06.10.689,-76.9,19.2,0,10.0,,95905.2,10.43,0.39,0.67,0.61,-1.9,4.8,-2.6,34.06,,,,,,,,,,
15.06.10.702,-91.5,22.9,0,10.0,,95440.9,10.48,0.38,0.66,0.64,0.9,5.7,-2.3,34.06,,,,,,,,,,
15.06.10.714,-85.6,21.4,0,10.0,,98231.2,10.18,0.39,0.66,0.63,2.6,5.5,-2.6,34.06,,,,,,,,,,
15.06.10.722,-96.1,24.0,0,10.0,,96967.2,10.31,0.39,0.67,0.63,2.1,5.2,-3.2,34.06,,,,,,,,,,
15.06.10.734,-112.8,28.2,0,10.0,,97357.9,10.27,0.39,0.66,0.64,2.1,3.6,-4.2,34.06,,,,,,,,,,
15.06.10.747,-110.0,27.5,0,10.0,,96349.3,10.38,0.38,0.67,0.63,2.0,4.3,-3.9,34.06,,,,,,,,,,
15.06.10.755,-108.1,27.0,0,10.0,,94607.3,10.57,0.38,0.66,0.63,0.2,4.2,-4.2,34.06,,,,,,,,,,
15.06.10.767,-112.0,28.0,0,10.0,,95505.0,10.47,0.39,0.65,0.64,-2.0,3.9,-5.3,34.06,,,,,,,,,,
15.06.10.780,-128.9,32.2,0,10.0,,95613.8,10.46,0.38,0.66,0.64,4.2,6.5,-5.5,34.06,,,,,,,,,,
15.06.10.788,-119.6,29.9,0,10.0,,97273.4,10.28,0.37,0.66,0.64,0.6,5.6,-5.5,34.06,,,,,,,,,,
15.06.10.800,1.9,0.5,1,11.0,81.3,95876.4,10.43,0.38,0.66,0.62,-0.1,5.5,-5.3,34.06,,,,,,,,,,
15.06.10.812,59.8,15.0,0,11.0,,96205.8,10.39,0.38,0.66,0.62,0.7,3.1,-4.5,34.06,,,,,,,,,,
15.06.10.824,97.3,24.3,0,11.0,,95155.6,10.51,0.38,0.66,0.64,0.6,3.9,-4.1,34.06,,,,,,,,,,
15.06.10.833,147.6,36.9,0,11.0,,96819.5,10.33,0.39,0.66,0.63,1.2,4.7,-4.9,34.06,,,,,,,,,,
15.06.10.845,194.8,48.7,0,11.0,,97079.5,10.3,0.38,0.66,0.63,3.1,4.8,-5.2,34.06,,,,,,,,,,
15.06.10.853,195.9,49.0,0,11.0,,96092.6,10.41,0.38,0.67,0.62,7.7,8.2,-6.5,34.06,,,,,,,,,,
15.06.10.865,234.6,58.6,0,11.0,,96083.0,10.41,0.38,0.68,0.62,5.9,10.2,-6.6,34.06,,,,,,,,,,
15.06.10.874,293.8,73.4,0,11.0,,96380.3,10.38,0.38,0.67,0.62,2.4,10.1,-7.3,34.06,,,,,,,,,,
15.06.10.886,311.8,78.0,0,11.0,,96108.8,10.4,0.38,0.67,0.62,0.4,10.1,-8.0,34.06,,,,,,,,,,
15.06.10.894,284.6,71.2,0,11.0,,96755.0,10.34,0.37,0.67,0.63,-0.1,10.7,-8.3,34.06,,,,,,,,,,
15.06.10.907,315.7,78.9,0,11.0,,96334.5,10.38,0.37,0.67,0.64,0.9,13.3,-8.9,34.06,,,,,,,,,,
15.06.10.916,320.0,80.0,0,11.0,,96235.7,10.39,0.37,0.66,0.63,-2.0,14.9,-8.9,34.06,,,,,,,,,,
15.06.10.928,306.2,76.6,0,11.0,,95891.4,10.43,0.37,0.66,0.63,-2.7,14.5,-8.9,34.06,,,,,,,,,,
15.06.10.935,330.9,82.7,0,11.0,,96207.4,10.39,0.36,0.66,0.63,-3.4,13.9,-8.2,34.06,,,,,,,,,,
15.06.10.947,280.3,70.1,0,11.0,,95826.7,10.44,0.36,0.66,0.63,-4.1,12.5,-8.0,34.06,,,,,,,,,,
15.06.10.956,265.3,66.3,0,11.0,,96289.9,10.39,0.36,0.67,0.63,-4.3,11.9,-7.9,34.06,,,,,,,,,,
15.06.10.968,250.4,62.6,0,11.0,,95667.2,10.45,0.36,0.68,0.63,-3.7,12.0,-7.3,34.06,,,,,,,,,,
15.06.10.976,231.7,57.9,0,11.0,,95663.7,10.45,0.36,0.67,0.63,-5.4,11.1,-6.7,34.06,,,,,,,,,,
15.06.10.988,187.1,46.8,0,11.0,,96269.6,10.39,0.36,0.67,0.64,-4.8,10.2,-6.5,34.06,,,,,,,,,,
15.06.10.997,196.8,49.2,0,11.0,,96651.7,10.35,0.36,0.67,0.64,-4.9,10.3,-5.7,34.06,,,,,,,,,,
15.06.11.009,143.8,36.0,0,11.0,,94159.9,10.62,0.35,0.66,0.64,-4.9,10.0,-5.4,34.06,,,,,,,,,,
15.06.11.021,92.0,23.0,0,11.0,,95688.0,10.45,0.35,0.66,0.65,-4.9,9.7,-5.4,34.06,,,,,,,,,,
15.06.11.029,58.2,14.6,0,11.0,,95690.3,10.45,0.35,0.67,0.64,-3.5,10.5,-4.8,34.06,,,,,,,,,,
15.06.11.042,-5.1,1.3,0,11.0,,96265.5,10.39,0.35,0.66,0.64,-3.2,10.4,-4.7,34.06,,,,,,,,,,
15.06.11.050,10.1,2.5,0,11.0,,96407.9,10.37,0.35,0.67,0.64,-2.9,10.0,-4.2,34.06,,,,,,,,,,
15.06.11.062,29.5,7.4,0,11.0,,97610.1,10.24,0.35,0.67,0.64,-4.3,9.2,-4.0,34.06,,,,,,,,,,
15.06.11.070,36.2,9.0,0,11.0,,95469.5,10.47,0.35,0.67,0.64,-4.8,8.5,-3.7,34.06,,,,,,,,,,
15.06.11.083,38.8,9.7,0,11.0,,97443.5,10.26,0.35,0.67,0.65,-5.3,8.7,-3.3,34.06,,,,,,,,,,
15.06.11.091,56.1,14.0,0,11.0,,94360.7,10.6,0.35,0.66,0.65,-5.1,9.9,-3.6,34.06,,,,,,,,,,
15.06.11.103,52.4,13.1,0,11.0,,94746.8,10.55,0.34,0.66,0.65,-5.2,11.7,-3.9,34.06,,,,,,,,,,
15.06.11.111,61.3,15.3,0,11.0,,95012.5,10.52,0.34,0.66,0.65,-5.6,12.8,-4.3,34.06,,,,,,,,,,
15.06.11.124,57.3,14.3,0,11.0,,97077.3,10.3,0.34,0.66,0.66,-8.0,12.8,-4.1,34.06,,,,,,,,,,
15.06.11.136,53.9,13.5,0,11.0,,96363.8,10.38,0.34,0.67,0.66,-9.2,12.8,-4.0,34.06,,,,,,,,,,
15.06.11.173,4.4,1.1,0,11.0,,97023.5,10.31,0.34,0.67,0.65,-10.1,12.7,-3.6,34.06,,,,,,,,,,
15.06.11.185,6.0,1.5,0,11.0,,97336.7,10.27,0.34,0.64,0.67,-13.2,11.8,-3.8,34.06,,,,,,,,,,
15.06.11.193,5.8,1.4,0,11.0,,95922.9,10.43,0.34,0.63,0.67,-11.5,11.7,-4.4,34.06,,,,,,,,,,
15.06.11.205,-12.1,3.0,0,11.0,,96089.8,10.41,0.34,0.64,0.66,-8.7,8.7,-4.4,34.06,,,,,,,,,,
15.06.11.214,-21.7,5.4,0,11.0,,96007.5,10.42,0.34,0.65,0.66,-9.2,8.1,-5.5,34.06,,,,,,,,,,
15.06.11.226,-19.9,5.0,0,11.0,,96319.0,10.38,0.34,0.66,0.67,-8.2,9.7,-6.0,34.06,,,,,,,,,,
15.06.11.234,-26.0,6.5,0,11.0,,96896.4,10.32,0.34,0.66,0.66,-8.6,8.9,-6.3,34.06,,,,,,,,,,
15.06.11.246,-31.2,7.8,0,11.0,,95917.3,10.43,0.34,0.67,0.67,-8.7,7.8,-5.2,34.06,,,,,,,,,,
15.06.11.255,-31.2,7.8,0,11.0,,96733.7,10.34,0.33,0.66,0.67,-10.2,6.5,-5.5,34.06,,,,,,,,,,
15.06.11.267,-28.1,7.0,0,11.0,,96299.2,10.38,0.34,0.65,0.67,-11.3,6.6,-5.5,34.06,,,,,,,,,,
15.06.11.275,-44.3,11.1,0,11.0,,97203.1,10.29,0.33,0.64,0.67,-10.7,7.3,-6.3,34.06,,,,,,,,,,
15.06.11.287,-32.8,8.2,0,11.0,,95177.8,10.51,0.33,0.64,0.68,-9.3,7.9,-5.6,34.06,,,,,,,,,,
15.06.11.296,-49.7,12.4,0,11.0,,96525.3,10.36,0.33,0.64,0.67,-7.5,8.6,-5.8,34.06,,,,,,,,,,
15.06.11.308,-47.0,11.8,0,11.0,,94485.7,10.58,0.33,0.63,0.68,-6.9,8.4,-5.9,34.06,,,,,,,,,,
15.06.11.316,-54.7,13.7,0,11.0,,95313.5,10.49,0.33,0.64,0.68,-6.2,8.8,-6.4,34.06,,,,,,,,,,
15.06.11.328,-58.9,14.7,0,11.0,,95525.3,10.47,0.33,0.64,0.68,-5.8,10.2,-6.6,34.06,,,,,,,,,,
15.06.11.337,-54.1,13.5,0,11.0,,95981.2,10.42,0.33,0.64,0.69,-5.5,11.2,-6.9,34.06,,,,,,,,,,
15.06.11.349,-79.0,19.8,0,11.0,,97131.1,10.3,0.32,0.64,0.69,-7.9,10.5,-7.7,34.06,,,,,,,,,,
15.06.11.361,-71.4,17.8,0,11.0,,95831.5,10.43,0.33,0.65,0.67,-7.0,12.5,-8.9,34.06,,,,,,,,,,
15.06.11.369,-77.8,19.4,0,11.0,,95029.5,10.52,0.32,0.64,0.68,-6.1,11.6,-9.0,34.06,,,,,,,,,,
15.06.11.382,-78.5,19.6,0,11.0,,97204.9,10.29,0.32,0.65,0.68,-6.7,10.4,-9.5,34.06,,,,,,,,,,
15.06.11.390,-80.6,20.2,0,11.0,,95107.4,10.51,0.31,0.64,0.68,-8.9,11.4,-9.6,34.06,,,,,,,,,,
15.06.11.402,-90.0,22.5,0,11.0,,96804.9,10.33,0.31,0.65,0.69,-8.4,10.1,-9.4,34.06,,,,,,,,,,
15.06.11.410,-96.4,24.1,0,11.0,,94566.2,10.57,0.32,0.64,0.69,-7.6,11.0,-8.2,34.06,,,,,,,,,,
15.06.11.423,-79.4,19.8,0,11.0,,95371.3,10.49,0.31,0.62,0.69,-9.9,7.7,-7.6,34.06,,,,,,,,,,
15.06.11.431,-106.4,26.6,0,11.0,,95681.9,10.45,0.31,0.62,0.7,-8.1,7.4,-7.9,34.06,,,,,,,,,,
15.06.11.443,-112.2,28.0,0,11.0,,95340.4,10.49,0.31,0.62,0.69,-4.4,6.9,-7.0,34.06,,,,,,,,,,
15.06.11.451,-118.8,29.7,0,11.0,,96700.8,10.34,0.31,0.63,0.69,-2.8,6.1,-5.9,34.06,,,,,,,,,,
15.06.11.464,-117.6,29.4,0,11.0,,94549.7,10.58,0.32,0.64,0.69,-2.8,5.6,-6.2,34.06,,,,,,,,,,
15.06.11.472,-114.8,28.7,0,11.0,,96008.1,10.42,0.31,0.64,0.7,-5.3,5.3,-6.1,34.06,,,,,,,,,,
15.06.11.484,-113.2,28.3,0,11.0,,95804.7,10.44,0.31,0.63,0.68,-3.1,7.6,-7.3,34.06,,,,,,,,,,
15.06.11.492,-123.2,30.8,0,11.0,,96103.2,10.41,0.32,0.64,0.7,-0.5,8.3,-6.3,34.06,,,,,,,,,,
15.06.11.505,38.0,9.5,1,12.0,79.0,95786.0,10.44,0.32,0.64,0.69,-1.1,7.2,-5.7,34.06,,,,,,,,,,
15.06.11.513,86.5,21.6,0,12.0,,96077.3,10.41,0.31,0.64,0.69,-2.7,6.0,-5.3,34.06,,,,,,,,,,
15.06.11.525,126.6,31.6,0,12.0,,95297.4,10.49,0.31,0.64,0.69,-0.2,6.6,-4.3,34.06,,,,,,,,,,
15.06.11.533,143.8,36.0,0,12.0,,95804.3,10.44,0.3,0.63,0.7,2.3,9.7,-3.8,34.06,,,,,,,,,,
15.06.11.545,191.8,48.0,0,12.0,,96071.8,10.41,0.3,0.63,0.7,1.6,10.0,-2.6,34.06,,,,,,,,,,
15.06.11.554,223.5,55.9,0,12.0,,96393.9,10.37,0.29,0.62,0.7,2.9,9.9,-1.9,34.06,,,,,,,,,,
15.06.11.566,259.1,64.8,0,12.0,,97519.0,10.25,0.29,0.61,0.7,5.5,9.0,-0.7,34.06,,,,,,,,,,
15.06.11.574,278.9,69.7,0,12.0,,96197.5,10.4,0.3,0.6,0.7,6.7,7.7,-0.8,34.06,,,,,,,,,,
15.06.11.586,274.9,68.7,0,12.0,,97437.2,10.26,0.3,0.61,0.7,13.0,5.6,-0.6,34.06,,,,,,,,,,
15.06.11.599,323.6,80.9,0,12.0,,95739.4,10.45,0.3,0.63,0.7,16.5,3.8,0.2,34.06,,,,,,,,,,
15.06.11.607,311.1,77.8,0,12.0,,95549.3,10.47,0.3,0.65,0.69,16.5,3.9,0.1,34.06,,,,,,,,,,
15.06.11.619,319.8,80.0,0,12.0,,95310.0,10.49,0.29,0.66,0.68,17.9,1.8,1.3,34.06,,,,,,,,,,
15.06.11.627,291.7,72.9,0,12.0,,95525.9,10.47,0.29,0.66,0.68,17.1,-1.4,2.6,34.06,,,,,,,,,,
15.06.11.640,295.3,73.8,0,12.0,,95074.2,10.52,0.29,0.66,0.67,15.7,-3.3,4.1,34.06,,,,,,,,,,
15.06.11.648,294.5,73.6,0,12.0,,93952.0,10.64,0.3,0.65,0.67,14.3,-4.7,5.2,34.06,,,,,,,,,,
15.06.11.660,266.7,66.7,0,12.0,,95677.4,10.45,0.31,0.66,0.67,15.8,-10.1,6.3,34.06,,,,,,,,,,
15.06.11.668,246.6,61.6,0,12.0,,96842.6,10.33,0.32,0.65,0.69,17.2,-13.4,6.9,34.06,,,,,,,,,,
15.06.11.681,218.9,54.7,0,12.0,,97257.1,10.28,0.34,0.63,0.69,16.8,-11.5,6.2,34.06,,,,,,,,,,
15.06.11.689,186.5,46.6,0,12.0,,96440.9,10.37,0.34,0.63,0.68,21.4,-8.8,5.0,34.06,,,,,,,,,,
15.06.11.701,137.3,34.3,0,12.0,,95109.6,10.51,0.34,0.64,0.67,27.2,-5.5,4.9,34.06,,,,,,,,,,
15.06.11.709,109.5,27.4,0,12.0,,95171.4,10.51,0.34,0.67,0.67,27.3,-3.2,3.6,34.06,,,,,,,,,,
15.06.11.722,68.1,17.0,0,12.0,,95931.7,10.42,0.33,0.67,0.65,25.6,-1.9,2.9,34.06,,,,,,,,,,
15.06.11.734,19.5,4.9,0,12.0,,96072.9,10.41,0.34,0.67,0.64,24.8,-2.4,3.5,34.06,,,,,,,,,,
15.06.11.742,13.1,3.3,0,12.0,,96329.8,10.38,0.34,0.67,0.64,22.9,-1.1,4.8,34.06,,,,,,,,,,
15.06.11.754,17.7,4.4,0,12.0,,94956.3,10.53,0.35,0.66,0.65,21.8,1.5,4.4,34.06,,,,,,,,,,
15.06.11.763,36.5,9.1,0,12.0,,95572.5,10.46,0.35,0.66,0.66,24.8,4.6,4.1,34.06,,,,,,,,,,
15.06.11.775,34.7,8.7,0,12.0,,95668.5,10.45,0.34,0.66,0.66,27.2,7.9,2.9,34.06,,,,,,,,,,
15.06.11.783,47.9,12.0,0,12.0,,96199.3,10.4,0.34,0.67,0.65,27.9,10.9,1.9,34.06,,,,,,,,,,
15.06.11.795,59.9,15.0,0,12.0,,96444.4,10.37,0.33,0.67,0.64,26.0,11.3,0.9,34.06,,,,,,,,,,
15.06.11.804,58.1,14.5,0,12.0,,96646.1,10.35,0.33,0.68,0.63,24.7,11.4,0.4,34.06,,,,,,,,,,
15.06.11.816,47.7,11.9,0,12.0,,96724.3,10.34,0.34,0.68,0.63,25.3,10.0,0.1,34.06,,,,,,,,,,
15.06.11.824,59.3,14.8,0,12.0,,95967.1,10.42,0.34,0.67,0.64,23.1,8.8,0.0,34.06,,,,,,,,,,
15.06.11.836,47.2,11.8,0,12.0,,95582.3,10.46,0.34,0.69,0.62,24.6,7.2,0.5,34.06,,,,,,,,,,
15.06.11.845,34.2,8.6,0,12.0,,96810.2,10.33,0.34,0.7,0.62,28.5,6.3,0.7,34.06,,,,,,,,,,
15.06.11.857,28.2,7.0,0,12.0,,96153.0,10.4,0.34,0.72,0.6,28.6,7.1,0.7,34.06,,,,,,,,,,
15.06.11.865,17.7,4.4,0,12.0,,95403.0,10.48,0.33,0.73,0.6,28.8,9.0,0.4,34.06,,,,,,,,,,
15.06.11.874,8.9,2.2,0,12.0,,97330.1,10.27,0.33,0.72,0.6,24.9,10.5,1.3,34.06,,,,,,,,,,
15.06.11.886,2.5,0.6,0,12.0,,96385.3,10.38,0.32,0.72,0.6,18.7,9.1,1.6,34.06,,,,,,,,,,
15.06.11.899,-1.5,0.4,0,12.0,,95155.8,10.51,0.32,0.71,0.61,16.8,8.5,1.8,34.06,,,,,,,,,,
15.06.11.906,-13.3,3.3,0,12.0,,96879.7,10.32,0.31,0.7,0.6,15.7,7.2,2.4,34.06,,,,,,,,,,
15.06.11.914,-19.0,4.8,0,12.0,,95822.0,10.44,0.31,0.71,0.6,13.8,5.3,2.2,34.06,,,,,,,,,,
15.06.11.926,-24.2,6.0,0,12.0,,95983.9,10.42,0.32,0.73,0.58,11.8,5.8,1.9,34.06,,,,,,,,,,
15.06.11.939,-26.2,6.6,0,12.0,,95485.8,10.47,0.34,0.73,0.57,8.1,6.8,2.5,34.06,,,,,,,,,,
15.06.11.980,-34.8,8.7,0,12.0,,97019.6,10.31,0.39,0.76,0.57,-14.0,14.7,9.2,34.06,,,,,,,,,,
15.06.11.988,-46.8,11.7,0,12.0,,95878.6,10.43,0.38,0.74,0.59,-20.6,15.3,10.1,34.06,,,,,,,,,,
15.06.12.000,-49.5,12.4,0,12.0,,96095.9,10.41,0.36,0.7,0.59,-21.1,19.1,7.8,34.06,,,,,,,,,,
15.06.12.012,-57.6,14.4,0,12.0,,96578.4,10.35,0.38,0.7,0.62,-19.6,22.3,5.7,34.06,,,,,,,,,,
15.06.12.021,-65.6,16.4,0,12.0,,95321.0,10.49,0.37,0.66,0.59,-17.3,25.2,3.2,34.06,,,,,,,,,,
15.06.12.033,-67.7,16.9,0,12.0,,95569.5,10.46,0.39,0.68,0.62,-15.1,20.8,3.5,34.06,,,,,,,,,,
15.06.12.045,-58.3,14.6,0,12.0,,95881.0,10.43,0.39,0.65,0.57,-11.7,21.5,1.6,34.06,,,,,,,,,,
15.06.12.058,-70.4,17.6,0,12.0,,94544.5,10.58,0.39,0.69,0.59,-10.0,23.3,2.2,34.06,,,,,,,,,,
15.06.12.066,-90.6,22.6,0,12.0,,98063.8,10.2,0.4,0.68,0.63,-6.5,19.8,0.7,34.06,,,,,,,,,,
15.06.12.078,-76.1,19.0,0,12.0,,95621.2,10.46,0.41,0.63,0.6,-2.2,26.9,-3.1,34.06,,,,,,,,,,
15.06.12.090,-85.5,21.4,0,12.0,,95489.9,10.47,0.39,0.67,0.62,0.3,20.3,2.3,34.06,,,,,,,,,,
15.06.12.103,-97.1,24.3,0,12.0,,96100.0,10.41,0.47,0.55,0.57,-2.5,23.4,-5.5,34.06,,,,,,,,,,
15.06.12.111,-91.4,22.8,0,12.0,,96448.5,10.37,0.32,0.82,0.66,3.7,12.3,3.3,34.06,,,,,,,,,,
15.06.12.123,-101.3,25.3,0,12.0,,95851.4,10.43,0.56,0.47,0.62,0.7,16.4,-7.4,34.06,,,,,,,,,,
15.06.12.135,-107.6,26.9,0,12.0,,96149.3,10.4,0.26,0.71,0.38,-22.3,34.9,-4.1,34.06,,,,,,,,,,
15.06.12.145,-99.5,24.9,0,12.0,,96087.1,10.41,0.38,0.93,0.86,17.0,-12.5,16.0,34.06,,,,,,,,,,
15.06.12.156,-115.2,28.8,0,12.0,,96144.3,10.4,0.38,0.68,0.51,5.2,49.5,0.8,34.06,,,,,,,,,,
15.06.12.168,-110.3,27.6,0,12.0,,96395.8,10.37,0.39,0.32,0.46,-42.2,26.8,-33.5,34.06,,,,,,,,,,
15.06.12.180,-124.5,31.1,0,12.0,,98030.7,10.2,0.32,1.09,0.77,11.1,18.0,-0.9,34.06,,,,,,,,,,
15.06.12.189,-122.0,30.5,0,12.0,,97416.0,10.27,0.23,0.82,0.84,26.4,2.0,12.6,34.06,,,,,,,,,,
15.06.12.201,39.6,9.9,1,13.0,86.7,96486.1,10.36,0.15,0.76,0.49,-11.4,48.9,0.1,34.06,,,,,,,,,,
15.06.12.213,90.8,22.7,0,13.0,,96329.1,10.38,0.15,0.6,0.53,-29.5,14.1,-0.9,34.06,,,,,,,,,,
15.06.12.227,141.3,35.3,0,13.0,,95421.7,10.48,0.15,0.73,0.74,-8.1,23.9,0.5,34.06,,,,,,,,,,
15.06.12.234,172.4,43.1,0,13.0,,94675.5,10.56,0.33,0.37,0.83,-8.0,27.2,-25.6,34.06,,,,,,,,,,
15.06.12.246,197.6,49.4,0,13.0,,96478.6,10.36,0.05,0.74,0.6,-26.5,32.0,-7.9,34.06,,,,,,,,,,
15.06.12.258,236.7,59.2,0,13.0,,96591.3,10.35,0.06,0.82,1.0,0.1,-15.3,9.8,34.06,,,,,,,,,,
15.06.12.266,286.2,71.6,0,13.0,,96107.4,10.41,0.18,0.53,0.63,7.9,31.6,-6.1,34.06,,,,,,,,,,
15.06.12.279,291.1,72.8,0,13.0,,93784.4,10.66,0.09,0.63,0.59,-14.3,0.6,1.2,34.06,,,,,,,,,,
15.06.12.291,292.5,73.1,0,13.0,,95523.9,10.47,0.21,0.7,0.91,-5.1,-18.6,1.9,34.06,,,,,,,,,,
15.06.12.300,319.8,80.0,0,13.0,,96142.0,10.4,0.19,0.51,0.72,-9.8,18.9,0.8,34.06,,,,,,,,,,
15.06.12.313,329.3,82.3,0,13.0,,94807.6,10.55,0.21,0.52,0.64,2.6,-8.6,1.6,34.06,,,,,,,,,,
15.06.12.324,328.4,82.1,0,13.0,,96757.0,10.34,0.29,0.63,0.73,16.4,-7.9,6.0,34.06,,,,,,,,,,
15.06.12.336,307.0,76.8,0,13.0,,96034.4,10.41,0.32,0.69,0.7,19.1,0.4,4.2,34.06,,,,,,,,,,
15.06.12.344,285.5,71.4,0,13.0,,95139.6,10.51,0.34,0.72,0.62,22.8,-2.2,7.3,34.06,,,,,,,,,,
15.06.12.357,285.3,71.3,0,13.0,,94805.7,10.55,0.36,0.74,0.61,24.8,1.0,9.3,34.06,,,,,,,,,,
15.06.12.369,222.8,55.7,0,13.0,,96013.5,10.42,0.36,0.76,0.61,13.4,4.2,6.6,34.06,,,,,,,,,,
15.06.12.377,216.0,54.0,0,13.0,,96421.2,10.37,0.36,0.73,0.65,7.9,3.8,4.1,34.06,,,,,,,,,,
15.06.12.389,159.0,39.8,0,13.0,,94822.0,10.55,0.34,0.69,0.63,11.3,9.6,1.7,34.06,,,,,,,,,,
15.06.12.402,117.8,29.4,0,13.0,,95693.7,10.45,0.33,0.68,0.63,10.2,8.6,0.0,34.06,,,,,,,,,,
15.06.12.410,88.7,22.2,0,13.0,,96361.2,10.38,0.33,0.68,0.66,9.9,10.1,-1.9,34.06,,,,,,,,,,
15.06.12.423,42.3,10.6,0,13.0,,95030.9,10.52,0.3,0.67,0.66,15.1,11.4,-3.0,34.06,,,,,,,,,,
15.06.12.434,-3.1,0.8,0,13.0,,96747.7,10.34,0.28,0.68,0.65,18.6,11.0,-2.5,34.06,,,,,,,,,,
15.06.12.443,13.7,3.4,0,13.0,,95989.6,10.42,0.28,0.68,0.67,12.5,7.0,-3.5,34.06,,,,,,,,,,
15.06.12.455,31.6,7.9,0,13.0,,95861.2,10.43,0.27,0.67,0.63,13.2,4.2,-3.1,34.06,,,,,,,,,,
15.06.12.467,43.5,10.9,0,13.0,,96742.6,10.34,0.29,0.69,0.64,13.8,-4.1,-1.6,34.06,,,,,,,,,,
15.06.12.480,57.4,14.4,0,13.0,,96926.6,10.32,0.3,0.71,0.62,12.7,-8.5,-1.2,34.06,,,,,,,,,,
15.06.12.488,60.3,15.1,0,13.0,,95049.3,10.52,0.32,0.72,0.62,8.1,-10.4,-2.2,34.06,,,,,,,,,,
15.06.12.500,66.2,16.6,0,13.0,,96899.3,10.32,0.32,0.71,0.62,3.2,-8.8,-3.9,34.06,,,,,,,,,,
15.06.12.512,60.2,15.0,0,13.0,,97177.7,10.29,0.32,0.68,0.65,-1.6,-7.9,-6.8,34.06,,,,,,,,,,
15.06.12.520,48.7,12.2,0,13.0,,95400.5,10.48,0.3,0.65,0.65,-3.9,-6.9,-9.6,34.06,,,,,,,,,,
15.06.12.533,53.7,13.4,0,13.0,,96490.4,10.36,0.3,0.62,0.65,-4.9,-9.1,-12.0,34.06,,,,,,,,,,
15.06.12.545,44.9,11.2,0,13.0,,95801.6,10.44,0.29,0.65,0.64,-5.7,-13.3,-15.0,34.06,,,,,,,,,,
15.06.12.558,20.7,5.2,0,13.0,,95941.0,10.42,0.29,0.71,0.63,-6.6,-14.7,-16.3,34.06,,,,,,,,,,
15.06.12.566,15.8,4.0,0,13.0,,96179.0,10.4,0.29,0.74,0.61,-13.3,-19.7,-17.1,34.06,,,,,,,,,,
15.06.12.578,-9.6,2.4,0,13.0,,94553.4,10.58,0.29,0.75,0.57,-23.8,-19.4,-17.4,34.06,,,,,,,,,,
15.06.12.590,-6.9,1.7,0,13.0,,94491.5,10.58,0.29,0.77,0.59,-34.6,-21.6,-14.7,34.06,,,,,,,,,,
15.06.12.602,-12.7,3.2,0,13.0,,94591.3,10.57,0.31,0.78,0.6,-43.3,-29.0,-10.5,34.06,,,,,,,,,,
15.06.12.615,-4.9,1.2,0,13.0,,96991.1,10.31,0.3,0.69,0.63,-58.0,-39.9,-11.2,34.06,,,,,,,,,,
15.06.12.623,-26.7,6.7,0,13.0,,96264.5,10.39,0.31,0.66,0.65,-60.4,-38.7,-12.5,34.06,,,,,,,,,,
15.06.12.635,-23.2,5.8,0,13.0,,95677.1,10.45,0.34,0.67,0.68,-50.9,-29.3,-13.3,34.06,,,,,,,,,,
15.06.12.647,-25.6,6.4,0,13.0,,97129.3,10.3,0.36,0.66,0.64,-48.9,-20.8,-15.9,34.06,,,,,,,,,,
15.06.12.660,-37.6,9.4,0,13.0,,96452.6,10.37,0.35,0.65,0.66,-42.0,-19.2,-16.4,34.06,,,,,,,,,,
15.06.12.672,-39.0,9.8,0,13.0,,96699.2,10.34,0.34,0.65,0.67,-38.4,-13.0,-17.3,34.06,,,,,,,,,,
15.06.12.680,-49.3,12.3,0,13.0,,97207.8,10.29,0.33,0.63,0.67,-37.4,-7.5,-21.3,34.06,,,,,,,,,,
15.06.12.693,-43.3,10.8,0,13.0,,93748.9,10.67,0.34,0.67,0.66,-37.6,-6.0,-22.1,34.06,,,,,,,,,,
15.06.12.705,-59.5,14.9,0,13.0,,95800.8,10.44,0.34,0.68,0.67,-37.9,-7.6,-23.5,34.06,,,,,,,,,,
15.06.12.717,-65.1,16.3,0,13.0,,96859.4,10.32,0.31,0.66,0.67,-38.7,-9.3,-23.7,34.06,,,,,,,,,,
15.06.12.729,-69.3,17.3,0,13.0,,96720.5,10.34,0.3,0.67,0.67,-38.5,-10.0,-21.8,34.06,,,,,,,,,,
15.06.12.738,-67.0,16.8,0,13.0,,95227.7,10.5,0.3,0.68,0.68,-42.5,-8.7,-21.6,34.06,,,,,,,,,,
15.06.12.775,-83.2,20.8,0,13.0,,95630.3,10.46,0.31,0.67,0.68,-48.2,-11.6,-22.0,34.06,,,,,,,,,,
15.06.12.787,-94.6,23.6,0,13.0,,96103.9,10.41,0.34,0.57,0.74,-37.7,-19.8,-17.6,34.06,,,,,,,,,,
15.06.12.799,-101.2,25.3,0,13.0,,96296.2,10.38,0.33,0.5,0.73,-24.6,-16.9,-17.4,34.06,,,,,,,,,,
15.06.12.807,-90.0,22.5,0,13.0,,96349.6,10.38,0.32,0.51,0.76,-13.1,-12.6,-13.6,34.06,,,,,,,,,,
15.06.12.820,-111.3,27.8,0,13.0,,95913.0,10.43,0.33,0.53,0.74,-1.4,1.2,-11.6,34.06,,,,,,,,,,
15.06.12.832,-121.6,30.4,0,13.0,,95612.3,10.46,0.33,0.58,0.73,5.8,14.0,-10.4,34.06,,,,,,,,,,
15.06.12.841,-86.9,21.7,0,13.0,,95744.1,10.44,0.31,0.6,0.73,6.7,21.0,-11.5,34.06,,,,,,,,,,
15.06.12.852,-120.5,30.1,0,13.0,,97813.0,10.22,0.3,0.59,0.71,5.3,24.8,-12.5,34.06,,,,,,,,,,
15.06.12.865,-127.9,32.0,0,13.0,,95254.3,10.5,0.3,0.59,0.72,0.1,25.2,-14.8,34.06,,,,,,,,,,
15.06.12.873,-117.2,29.3,0,13.0,,95636.8,10.46,0.31,0.64,0.72,-4.1,27.9,-18.2,34.06,,,,,,,,,,
15.06.12.885,-144.6,36.2,0,13.0,,96821.8,10.33,0.3,0.62,0.72,-8.7,31.4,-21.0,34.06,,,,,,,,,,
15.06.12.897,52.8,13.2,1,14.0,86.9,95873.1,10.43,0.3,0.61,0.74,-9.4,34.6,-23.3,34.06,,,,,,,,,,
15.06.12.906,92.7,23.2,0,14.0,,95693.8,10.45,0.27,0.57,0.75,-9.3,32.0,-26.9,34.06,,,,,,,,,,
15.06.12.918,137.0,34.2,0,14.0,,95513.6,10.47,0.27,0.53,0.76,-5.6,23.0,-34.1,34.06,,,,,,,,,,
15.06.12.927,167.3,41.8,0,14.0,,96772.5,10.33,0.22,0.55,0.79,-2.4,19.6,-35.5,34.06,,,,,,,,,,
15.06.12.938,217.2,54.3,0,14.0,,96356.9,10.38,0.21,0.58,0.74,1.2,8.4,-35.9,34.06,,,,,,,,,,
15.06.12.947,216.4,54.1,0,14.0,,96926.0,10.32,0.23,0.63,0.73,0.5,-6.3,-34.6,34.06,,,,,,,,,,
15.06.12.959,261.6,65.4,0,14.0,,95716.5,10.45,0.28,0.68,0.69,-8.2,-19.5,-28.7,34.06,,,,,,,,,,
15.06.12.967,285.1,71.3,0,14.0,,97549.1,10.25,0.31,0.71,0.69,-11.8,-26.5,-25.5,34.06,,,,,,,,,,
15.06.12.979,302.9,75.7,0,14.0,,95649.2,10.45,0.33,0.72,0.72,-14.7,-30.4,-17.5,34.06,,,,,,,,,,
15.06.12.988,299.9,75.0,0,14.0,,95843.7,10.43,0.33,0.67,0.67,-12.2,-23.2,-17.7,34.06,,,,,,,,,,
15.06.13.000,336.4,84.1,0,14.0,,97427.5,10.26,0.34,0.68,0.68,-13.5,-27.2,-12.1,34.06,,,,,,,,,,
15.06.13.013,290.4,72.6,0,14.0,,96092.1,10.41,0.33,0.67,0.69,-16.2,-27.3,-7.8,34.06,,,,,,,,,,
15.06.13.020,301.9,75.5,0,14.0,,95978.4,10.42,0.32,0.65,0.71,-18.1,-22.5,-6.6,34.06,,,,,,,,,,
15.06.13.033,329.2,82.3,0,14.0,,94750.1,10.55,0.3,0.61,0.72,-16.9,-19.4,-4.9,34.06,,,,,,,,,,
15.06.13.041,310.9,77.7,0,14.0,,95893.8,10.43,0.29,0.6,0.74,-17.4,-17.2,-4.3,34.06,,,,,,,,,,
15.06.13.053,235.4,58.8,0,14.0,,97090.0,10.3,0.29,0.58,0.74,-16.4,-12.1,-4.3,34.06,,,,,,,,,,
15.06.13.061,239.5,59.9,0,14.0,,95272.6,10.5,0.29,0.57,0.74,-12.1,-8.3,-4.5,34.06,,,,,,,,,,
15.06.13.074,231.9,58.0,0,14.0,,94234.8,10.61,0.29,0.6,0.74,-8.1,-7.7,-3.8,34.06,,,,,,,,,,
15.06.13.082,201.2,50.3,0,14.0,,96025.6,10.41,0.29,0.63,0.72,-7.1,-8.6,-2.5,34.06,,,,,,,,,,
15.06.13.094,126.6,31.6,0,14.0,,94451.2,10.59,0.29,0.61,0.72,-9.0,-10.4,-1.5,34.06,,,,,,,,,,
15.06.13.102,111.4,27.8,0,14.0,,96586.2,10.35,0.29,0.61,0.72,-7.3,-12.5,0.4,34.06,,,,,,,,,,
15.06.13.115,53.5,13.4,0,14.0,,96620.2,10.35,0.32,0.62,0.74,-4.7,-14.4,3.7,34.06,,,,,,,,,,
15.06.13.123,25.6,6.4,0,14.0,,97721.2,10.23,0.31,0.58,0.72,-6.0,-11.8,5.0,34.06,,,,,,,,,,
15.06.13.135,16.3,4.1,0,14.0,,96575.3,10.35,0.34,0.56,0.72,2.9,-12.0,3.3,34.06,,,,,,,,,,
15.06.13.148,27.3,6.8,0,14.0,,96491.5,10.36,0.38,0.58,0.72,4.2,-13.3,4.1,34.06,86.4,,,,,,,,,
15.06.13.155,37.6,9.4,0,14.0,,95409.4,10.48,0.38,0.6,0.7,6.7,-14.5,3.5,34.06,,,,,,,,,,
15.06.13.168,49.7,12.4,0,14.0,,94602.3,10.57,0.4,0.61,0.69,6.6,-14.2,2.4,34.06,,,,,,,,,,
15.06.13.176,60.8,15.2,0,14.0,,95609.3,10.46,0.38,0.59,0.71,9.2,-7.1,0.5,34.06,,,,,,,,,,
15.06.13.188,54.0,13.5,0,14.0,,96437.2,10.37,0.36,0.57,0.73,14.5,3.6,-1.6,34.06,,,,,,,,,,
15.06.13.196,48.6,12.2,0,14.0,,96889.3,10.32,0.32,0.57,0.74,17.4,9.4,-2.4,34.06,,,,,,,,,,
15.06.13.209,54.4,13.6,0,14.0,,96424.8,10.37,0.3,0.59,0.74,14.9,8.4,-2.7,34.06,,,,,,,,,,
15.06.13.217,53.5,13.4,0,14.0,,96213.2,10.39,0.3,0.6,0.74,10.8,8.8,-4.1,34.06,,,,,,,,,,
15.06.13.229,50.6,12.6,0,14.0,,97133.3,10.3,0.3,0.62,0.73,7.0,11.2,-3.9,34.06,,,,,,,,,,
15.06.13.237,42.3,10.6,0,14.0,,95900.4,10.43,0.31,0.62,0.72,2.5,16.8,-3.2,34.06,,,,,,,,,,
15.06.13.250,20.6,5.2,0,14.0,,96815.5,10.33,0.31,0.6,0.72,-1.8,20.8,-4.0,34.06,,,,,,,,,,
15.06.13.258,11.1,2.8,0,14.0,,95418.9,10.48,0.39,0.55,0.75,0.2,20.7,-4.7,34.06,,,,,,,,,,
15.06.13.270,-2.3,0.6,0,14.0,,96741.1,10.34,0.3,0.59,0.73,-0.5,19.1,-2.3,34.06,,,,,,,,,,
15.06.13.278,-3.0,0.8,0,14.0,,95693.2,10.45,0.32,0.62,0.71,-0.2,32.2,-3.0,34.06,,,,,,,,,,
15.06.13.291,-8.4,2.1,0,14.0,,95862.0,10.43,0.31,0.6,0.71,0.3,19.4,-1.1,34.06,,,,,,,,,,
15.06.13.299,-5.6,1.4,0,14.0,,96388.9,10.37,0.31,0.6,0.72,-2.3,17.3,-0.4,34.06,,,,,,,,,,
15.06.13.311,-22.6,5.6,0,14.0,,96876.9,10.32,0.29,0.61,0.72,-1.5,16.0,0.2,34.06,,,,,,,,,,
15.06.13.319,-20.0,5.0,0,14.0,,96523.4,10.36,0.28,0.62,0.72,-0.8,10.5,1.8,34.06,,,,,,,,,,
15.06.13.332,-23.1,5.8,0,14.0,,96474.0,10.37,0.25,0.6,0.71,0.8,-5.2,4.1,34.06,,,,,,,,,,
15.06.13.340,-24.0,6.0,0,14.0,,96014.6,10.42,0.27,0.65,0.76,-2.1,14.2,0.3,34.06,,,,,,,,,,
15.06.13.352,-36.4,9.1,0,14.0,,96324.9,10.38,0.3,0.61,0.69,-4.3,5.5,-0.2,34.06,,,,,,,,,,
15.06.13.360,-35.2,8.8,0,14.0,,95026.4,10.52,0.31,0.62,0.72,-8.4,-3.7,0.3,34.06,,,,,,,,,,
15.06.13.373,-34.4,8.6,0,14.0,,96513.7,10.36,0.3,0.6,0.74,-6.0,1.1,-0.1,34.06,,,,,,,,,,
15.06.13.381,-49.5,12.4,0,14.0,,96109.6,10.4,0.28,0.59,0.73,-2.7,-2.7,-0.4,34.06,,,,,,,,,,
15.06.13.393,-46.2,11.6,0,14.0,,94928.9,10.53,0.27,0.6,0.73,-2.1,-1.7,-1.2,34.06,,,,,,,,,,
15.06.13.401,-61.1,15.3,0,14.0,,94978.6,10.53,0.25,0.64,0.73,1.4,1.9,-1.9,34.06,,,,,,,,,,
15.06.13.415,-70.2,17.6,0,14.0,,97583.0,10.25,0.24,0.64,0.72,0.9,-0.5,-2.6,34.06,,,,,,,,,,
15.06.13.426,-58.7,14.7,0,14.0,,96615.1,10.35,0.25,0.66,0.67,2.2,-5.3,-4.2,34.06,,,,,,,,,,
15.06.13.438,-68.5,17.1,0,14.0,,96405.4,10.37,0.26,0.65,0.76,0.1,1.9,-5.6,34.06,,,,,,,,,,
15.06.13.446,-74.6,18.6,0,14.0,,95259.7,10.5,0.23,0.64,0.7,-2.5,1.7,-6.9,34.06,,,,,,,,,,
15.06.13.455,-74.7,18.7,0,14.0,,97362.5,10.27,0.2,0.63,0.72,-1.4,-4.0,-6.6,34.06,,,,,,,,,,
15.06.13.467,-73.4,18.4,0,14.0,,95241.3,10.5,0.21,0.64,0.7,-0.5,-13.2,-8.0,34.06,,,,,,,,,,
15.06.13.479,-94.6,23.6,0,14.0,,96056.0,10.41,0.24,0.63,0.74,-6.9,1.1,-11.1,34.06,,,,,,,,,,
15.06.13.487,-88.6,22.2,0,14.0,,96118.8,10.4,0.28,0.61,0.69,-1.5,-3.8,-10.5,34.06,,,,,,,,,,
15.06.13.500,-94.8,23.7,0,14.0,,93809.4,10.66,0.33,0.64,0.7,-7.3,-1.8,-9.0,34.06,,,,,,,,,,
15.06.13.508,-85.4,21.4,0,14.0,,95752.2,10.44,0.29,0.6,0.72,-10.0,3.9,-10.9,34.06,,,,,,,,,,
15.06.13.520,-101.3,25.3,0,14.0,,96629.2,10.35,0.37,0.59,0.73,12.8,3.1,-9.4,34.06,,,,,,,,,,
15.06.13.528,-119.4,29.8,0,14.0,,96513.8,10.36,0.35,0.58,0.69,-4.7,11.9,-6.6,34.06,,,,,,,,,,
15.06.13.541,-111.1,27.8,0,14.0,,95704.6,10.45,0.37,0.53,0.72,-2.0,7.2,-5.7,34.06,,,,,,,,,,
15.06.13.578,-126.3,31.6,0,14.0,,95718.8,10.45,0.38,0.58,0.75,-2.7,2.9,-1.6,34.06,,,,,,,,,,
15.06.13.586,22.3,5.6,1,15.0,88.7,95852.6,10.43,0.4,0.52,0.75,6.7,11.2,-2.3,34.06,,,,,,,,,,
15.06.13.598,83.9,21.0,0,15.0,,96031.4,10.41,0.36,0.53,0.75,12.8,8.7,-3.8,34.06,,,,,,,,,,
15.06.13.606,97.1,24.3,0,15.0,,95631.5,10.46,0.37,0.55,0.73,13.6,9.9,-4.7,34.06,,,,,,,,,,
15.06.13.618,159.4,39.8,0,15.0,,96311.6,10.38,0.38,0.58,0.72,14.4,6.4,-4.0,34.06,,,,,,,,,,
15.06.13.628,189.6,47.4,0,15.0,,96436.0,10.37,0.39,0.61,0.72,13.7,3.7,-2.9,34.06,,,,,,,,,,
15.06.13.639,222.0,55.5,0,15.0,,96705.4,10.34,0.36,0.62,0.69,11.2,4.0,-3.9,34.06,,,,,,,,,,
15.06.13.647,225.6,56.4,0,15.0,,96599.5,10.35,0.37,0.63,0.7,10.0,5.4,-3.7,34.06,,,,,,,,,,
15.06.13.659,276.2,69.0,0,15.0,,97236.8,10.28,0.37,0.63,0.69,6.4,5.4,-3.4,34.06,,,,,,,,,,
15.06.13.668,310.1,77.5,0,15.0,,95557.5,10.46,0.38,0.64,0.7,4.8,5.0,-2.2,34.06,,,,,,,,,,
15.06.13.680,284.0,71.0,0,15.0,,96178.8,10.4,0.36,0.61,0.68,3.7,5.8,-2.8,34.06,,,,,,,,,,
15.06.13.688,317.7,79.4,0,15.0,,95425.8,10.48,0.36,0.62,0.7,2.3,4.9,-2.2,34.06,,,,,,,,,,
15.06.13.700,316.4,79.1,0,15.0,,95729.4,10.45,0.35,0.6,0.7,2.9,4.2,-1.4,34.06,,,,,,,,,,
15.06.13.710,297.4,74.4,0,15.0,,95877.3,10.43,0.33,0.61,0.71,5.2,3.6,-1.4,34.06,,,,,,,,,,
15.06.13.721,301.6,75.4,0,15.0,,95555.6,10.47,0.31,0.61,0.68,10.8,-5.4,0.7,34.06,,,,,,,,,,
15.06.13.729,319.0,79.8,0,15.0,,96855.6,10.32,0.32,0.63,0.72,10.4,4.9,-3.6,34.06,,,,,,,,,,
15.06.13.741,284.0,71.0,0,15.0,,96083.9,10.41,0.32,0.62,0.7,12.3,1.1,-3.4,34.06,,,,,,,,,,
15.06.13.750,250.5,62.6,0,15.0,,96027.0,10.41,0.32,0.62,0.69,13.2,-4.2,-1.6,34.06,,,,,,,,,,
15.06.13.762,219.0,54.8,0,15.0,,96503.6,10.36,0.32,0.61,0.71,12.9,-2.9,-3.0,34.06,,,,,,,,,,
15.06.13.770,187.7,46.9,0,15.0,,96457.7,10.37,0.32,0.62,0.7,14.5,-3.5,-1.6,34.06,,,,,,,,,,
15.06.13.782,181.4,45.4,0,15.0,,95923.0,10.43,0.3,0.61,0.7,8.2,-3.9,-2.1,34.06,,,,,,,,,,
15.06.13.790,148.4,37.1,0,15.0,,95990.5,10.42,0.31,0.64,0.7,13.8,-0.5,-1.6,34.06,,,,,,,,,,
15.06.13.803,78.5,19.6,0,15.0,,97928.1,10.21,0.31,0.62,0.69,11.0,0.5,-0.8,34.06,,,,,,,,,,
15.06.13.811,42.6,10.6,0,15.0,,95606.4,10.46,0.31,0.64,0.69,6.9,0.5,-1.2,34.06,,,,,,,,,,
15.06.13.823,5.9,1.5,0,15.0,,95779.6,10.44,0.32,0.64,0.7,8.5,2.3,-0.7,34.06,,,,,,,,,,
15.06.13.831,15.4,3.8,0,15.0,,95231.2,10.5,0.32,0.65,0.69,6.3,4.7,-0.9,34.06,,,,,,,,,,
15.06.13.844,31.8,8.0,0,15.0,,96864.7,10.32,0.32,0.64,0.68,3.6,6.2,-0.8,34.06,,,,,,,,,,
15.06.13.852,34.4,8.6,0,15.0,,94949.9,10.53,0.31,0.64,0.68,1.6,5.6,-0.2,34.06,,,,,,,,,,
15.06.13.864,45.5,11.4,0,15.0,,96270.6,10.39,0.32,0.64,0.69,-0.2,6.4,-0.3,34.06,,,,,,,,,,
15.06.13.872,54.5,13.6,0,15.0,,95060.3,10.52,0.32,0.62,0.7,-3.0,9.0,0.2,34.06,,,,,,,,,,
15.06.13.885,60.1,15.0,0,15.0,,97510.2,10.26,0.32,0.63,0.69,-2.5,8.6,0.2,34.06,,,,,,,,,,
15.06.13.893,64.2,16.0,0,15.0,,94428.5,10.59,0.32,0.63,0.69,-1.6,8.5,-0.3,34.06,,,,,,,,,,
15.06.13.905,53.8,13.4,0,15.0,,95326.4,10.49,0.32,0.63,0.69,-1.3,9.3,0.0,34.06,,,,,,,,,,
15.06.13.913,53.8,13.4,0,15.0,,95816.5,10.44,0.32,0.64,0.69,-1.5,7.0,0.0,34.06,,,,,,,,,,
15.06.13.926,50.0,12.5,0,15.0,,97021.0,10.31,0.31,0.63,0.69,-2.6,4.9,0.5,34.06,,,,,,,,,,
15.06.13.934,34.2,8.6,0,15.0,,94537.4,10.58,0.32,0.62,0.7,-1.1,6.0,0.8,34.06,,,,,,,,,,
15.06.13.946,18.5,4.6,0,15.0,,95937.2,10.42,0.32,0.63,0.69,1.1,4.9,1.3,34.06,,,,,,,,,,
15.06.13.958,7.6,1.9,0,15.0,,95305.5,10.49,0.32,0.63,0.7,0.8,3.1,1.7,34.06,,,,,,,,,,
15.06.13.967,3.1,0.8,0,15.0,,96275.7,10.39,0.33,0.62,0.69,0.7,1.8,1.7,34.06,,,,,,,,,,
15.06.13.980,-12.2,3.0,0,15.0,,96030.6,10.41,0.33,0.63,0.69,2.7,1.0,1.9,34.06,,,,,,,,,,
15.06.13.991,-17.5,4.4,0,15.0,,95911.0,10.43,0.35,0.62,0.69,2.7,4.4,1.7,34.06,,,,,,,,,,
15.06.14.000,-8.1,2.0,0,15.0,,95825.6,10.44,0.32,0.63,0.69,-0.4,4.0,1.9,34.06,,,,,,,,,,
15.06.14.012,-17.3,4.3,0,15.0,,95782.4,10.44,0.32,0.63,0.7,0.5,2.1,1.7,34.06,,,,,,,,,,
15.06.14.025,-20.2,5.0,0,15.0,,95058.4,10.52,0.32,0.63,0.69,0.0,2.8,1.3,34.06,,,,,,,,,,
15.06.14.036,-28.8,7.2,0,15.0,,94098.5,10.63,0.32,0.62,0.7,-1.9,4.6,1.5,34.06,,,,,,,,,,
15.06.14.045,-31.6,7.9,0,15.0,,95654.7,10.45,0.32,0.61,0.69,-0.2,3.5,2.2,34.06,,,,,,,,,,
15.06.14.057,-33.3,8.3,0,15.0,,96211.3,10.39,0.32,0.61,0.69,0.2,3.3,1.9,34.06,,,,,,,,,,
15.06.14.065,-35.1,8.8,0,15.0,,96505.2,10.36,0.33,0.62,0.7,2.6,3.1,1.6,34.06,,,,,,,,,,
15.06.14.077,-51.7,12.9,0,15.0,,95468.3,10.47,0.34,0.63,0.68,2.9,0.6,1.5,34.06,,,,,,,,,,
15.06.14.085,-54.1,13.5,0,15.0,,96755.7,10.34,0.34,0.64,0.68,3.4,-0.6,1.7,34.06,,,,,,,,,,
15.06.14.098,-58.7,14.7,0,15.0,,94679.2,10.56,0.34,0.64,0.68,3.5,-2.3,1.5,34.06,,,,,,,,,,
15.06.14.110,-56.8,14.2,0,15.0,,96321.2,10.38,0.34,0.63,0.69,3.3,-1.3,1.8,34.06,,,,,,,,,,
15.06.14.118,-65.2,16.3,0,15.0,,96849.9,10.33,0.33,0.62,0.69,3.5,1.6,0.2,34.06,,,,,,,,,,
15.06.14.130,-68.7,17.2,0,15.0,,95893.4,10.43,0.33,0.63,0.7,4.2,2.8,-0.1,34.06,,,,,,,,,,
15.06.14.143,-73.3,18.3,0,15.0,,95848.9,10.43,0.34,0.62,0.69,3.2,3.0,-0.3,34.06,,,,,,,,,,
15.06.14.151,-76.8,19.2,0,15.0,,96132.3,10.4,0.33,0.62,0.68,3.8,3.6,0.6,34.06,,,,,,,,,,
15.06.14.163,-68.5,17.1,0,15.0,,95485.9,10.47,0.33,0.63,0.69,3.9,3.0,0.8,34.06,,,,,,,,,,
15.06.14.176,-84.7,21.2,0,15.0,,97273.0,10.28,0.33,0.64,0.69,3.2,4.9,1.4,34.06,,,,,,,,,,
15.06.14.184,-98.8,24.7,0,15.0,,95486.7,10.47,0.34,0.64,0.68,2.7,6.4,1.5,34.06,,,,,,,,,,
15.06.14.196,-107.9,27.0,0,15.0,,95537.2,10.47,0.35,0.63,0.68,1.4,4.0,1.8,34.06,,,,,,,,,,
15.06.14.208,-108.9,27.2,0,15.0,,96725.1,10.34,0.34,0.63,0.68,2.9,4.6,1.8,34.06,,,,,,,,,,
15.06.14.216,-110.2,27.6,0,15.0,,96121.6,10.4,0.35,0.64,0.69,4.0,6.8,1.8,34.06,,,,,,,,,,
15.06.14.229,-108.6,27.2,0,15.0,,96128.8,10.4,0.34,0.63,0.69,3.8,8.3,2.1,34.06,,,,,,,,,,
15.06.14.241,-124.2,31.0,0,15.0,,95383.4,10.48,0.34,0.63,0.68,5.8,9.2,1.6,34.06,,,,,,,,,,
15.06.14.249,-124.7,31.2,0,15.0,,95157.7,10.51,0.34,0.64,0.68,5.2,8.5,1.0,34.06,,,,,,,,,,
15.06.14.262,-114.1,28.5,0,15.0,,95936.7,10.42,0.34,0.64,0.68,5.3,9.2,1.0,34.06,,,,,,,,,,
15.06.14.274,-117.7,29.4,0,15.0,,94969.9,10.53,0.33,0.64,0.68,3.2,7.9,0.4,34.06,,,,,,,,,,
15.06.14.282,30.8,7.7,1,16.0,82.9,96502.2,10.36,0.33,0.63,0.67,3.3,7.5,-0.4,34.06,,,,,,,,,,
15.06.14.295,73.8,18.4,0,16.0,,95581.0,10.46,0.34,0.65,0.67,3.7,5.0,0.8,34.06,,,,,,,,,,
15.06.14.307,115.3,28.8,0,16.0,,95358.5,10.49,0.33,0.65,0.67,1.1,4.1,0.5,34.06,,,,,,,,,,
15.06.14.315,153.1,38.3,0,16.0,,97151.2,10.29,0.34,0.65,0.68,1.2,5.7,-0.1,34.06,,,,,,,,,,
15.06.14.327,190.8,47.7,0,16.0,,96556.3,10.36,0.34,0.66,0.67,0.4,7.1,-0.6,34.06,,,,,,,,,,
15.06.14.339,239.0,59.8,0,16.0,,95138.8,10.51,0.34,0.64,0.68,-2.5,7.6,-1.3,34.06,,,,,,,,,,
15.06.14.380,335.2,83.8,0,16.0,,95085.7,10.52,0.33,0.63,0.69,-4.5,7.2,-1.0,34.06,,,,,,,,,,
15.06.14.389,325.6,81.4,0,16.0,,95102.6,10.51,0.34,0.63,0.69,-3.7,6.2,-1.3,34.06,,,,,,,,,,
15.06.14.401,299.8,75.0,0,16.0,,96648.5,10.35,0.33,0.62,0.69,-2.4,5.3,-1.5,34.06,,,,,,,,,,
15.06.14.409,310.3,77.6,0,16.0,,95502.5,10.47,0.34,0.62,0.69,-0.9,5.1,-1.2,34.06,,,,,,,,,,
15.06.14.421,304.5,76.1,0,16.0,,96633.3,10.35,0.34,0.61,0.69,0.1,4.7,-0.8,34.06,,,,,,,,,,
15.06.14.430,295.6,73.9,0,16.0,,95245.0,10.5,0.34,0.62,0.68,1.9,3.1,-0.7,34.06,,,,,,,,,,
15.06.14.442,289.8,72.4,0,16.0,,96426.7,10.37,0.35,0.63,0.68,2.4,1.9,-1.0,34.06,,,,,,,,,,
15.06.14.450,243.8,61.0,0,16.0,,97703.3,10.24,0.35,0.63,0.69,1.7,1.8,-1.3,34.06,,,,,,,,,,
15.06.14.462,205.1,51.3,0,16.0,,95917.9,10.43,0.36,0.63,0.67,3.5,3.3,-1.6,34.06,,,,,,,,,,
15.06.14.471,181.1,45.3,0,16.0,,95422.5,10.48,0.36,0.63,0.67,2.6,3.5,-2.3,34.06,,,,,,,,,,
15.06.14.483,145.4,36.4,0,16.0,,95505.2,10.47,0.37,0.64,0.68,2.5,4.2,-2.9,34.06,,,,,,,,,,
15.06.14.491,103.6,25.9,0,16.0,,96603.7,10.35,0.36,0.62,0.68,2.5,5.6,-4.6,34.06,,,,,,,,,,
15.06.14.503,54.6,13.6,0,16.0,,95213.2,10.5,0.36,0.62,0.68,4.6,7.3,-5.1,34.06,,,,,,,,,,
15.06.14.512,34.6,8.6,0,16.0,,96205.6,10.39,0.35,0.62,0.69,7.2,7.6,-5.4,34.06,,,,,,,,,,
15.06.14.524,9.3,2.3,0,16.0,,97724.7,10.23,0.34,0.62,0.69,8.2,7.6,-5.5,34.06,,,,,,,,,,
15.06.14.532,18.9,4.7,0,16.0,,97324.1,10.27,0.34,0.63,0.68,10.5,6.2,-4.3,34.06,,,,,,,,,,
15.06.14.544,29.7,7.4,0,16.0,,96824.1,10.33,0.33,0.64,0.67,10.7,4.8,-2.4,34.06,,,,,,,,,,
15.06.14.552,43.1,10.8,0,16.0,,96212.8,10.39,0.33,0.65,0.68,11.9,2.6,-0.6,34.06,,,,,,,,,,
15.06.14.565,56.4,14.1,0,16.0,,95529.2,10.47,0.33,0.64,0.66,14.4,2.4,0.3,34.06,,,,,,,,,,
15.06.14.573,59.7,14.9,0,16.0,,95945.1,10.42,0.34,0.66,0.66,13.0,3.1,2.3,34.06,,,,,,,,,,
15.06.14.585,48.4,12.1,0,16.0,,94237.6,10.61,0.34,0.65,0.68,11.9,3.1,3.4,34.06,,,,,,,,,,
15.06.14.598,53.9,13.5,0,16.0,,95364.9,10.49,0.33,0.64,0.67,12.6,4.4,3.5,34.06,,,,,,,,,,
15.06.14.606,56.9,14.2,0,16.0,,97333.1,10.27,0.34,0.64,0.67,13.3,7.7,2.5,34.06,,,,,,,,,,
15.06.14.618,46.6,11.6,0,16.0,,98108.0,10.19,0.33,0.64,0.67,12.5,9.4,1.9,34.06,,,,,,,,,,
15.06.14.626,35.3,8.8,0,16.0,,95862.9,10.43,0.33,0.64,0.67,10.4,7.0,2.1,34.06,,,,,,,,,,
15.06.14.639,23.0,5.8,0,16.0,,93421.8,10.7,0.34,0.65,0.66,10.6,5.7,2.0,34.06,,,,,,,,,,
15.06.14.647,8.6,2.2,0,16.0,,95860.3,10.43,0.33,0.67,0.66,10.7,5.6,2.0,34.06,,,,,,,,,,
15.06.14.659,-9.0,2.2,0,16.0,,97214.3,10.29,0.34,0.67,0.65,9.3,5.0,2.2,34.06,,,,,,,,,,
15.06.14.671,-2.6,0.6,0,16.0,,96766.0,10.33,0.33,0.68,0.65,7.1,3.9,2.5,34.06,,,,,,,,,,
15.06.14.679,3.2,0.8,0,16.0,,97197.5,10.29,0.34,0.68,0.65,4.4,3.8,2.5,34.06,,,,,,,,,,
15.06.14.692,-14.0,3.5,0,16.0,,95950.0,10.42,0.34,0.67,0.65,2.7,4.4,2.4,34.06,,,,,,,,,,
15.06.14.700,-18.9,4.7,0,16.0,,96063.9,10.41,0.34,0.66,0.66,2.5,5.4,2.6,34.06,,,,,,,,,,
15.06.14.712,-34.9,8.7,0,16.0,,95341.8,10.49,0.35,0.67,0.65,1.2,4.2,2.5,34.06,,,,,,,,,,
15.06.14.725,-30.4,7.6,0,16.0,,96480.4,10.36,0.35,0.66,0.65,0.3,3.4,2.1,34.06,,,,,,,,,,
15.06.14.734,-38.7,9.7,0,16.0,,95803.4,10.44,0.35,0.65,0.66,-0.7,5.3,1.9,34.06,,,,,,,,,,
15.06.14.745,-34.4,8.6,0,16.0,,96201.9,10.39,0.35,0.65,0.66,-0.6,5.7,1.4,34.06,,,,,,,,,,
15.06.14.757,-45.3,11.3,0,16.0,,96319.6,10.38,0.35,0.65,0.66,-1.0,5.1,1.3,34.06,,,,,,,,,,
15.06.14.765,-37.9,9.5,0,16.0,,95759.6,10.44,0.35,0.64,0.67,-0.6,5.3,0.5,34.06,,,,,,,,,,
15.06.14.779,-55.4,13.8,0,16.0,,97268.4,10.28,0.36,0.64,0.65,0.4,5.8,0.7,34.06,,,,,,,,,,
15.06.14.786,-56.6,14.2,0,16.0,,96540.8,10.36,0.35,0.64,0.66,1.5,6.5,0.4,34.06,,,,,,,,,,
15.06.14.798,-60.5,15.1,0,16.0,,95843.9,10.43,0.35,0.65,0.67,2.3,7.5,0.6,34.06,,,,,,,,,,
15.06.14.811,-58.0,14.5,0,16.0,,95361.4,10.49,0.35,0.65,0.67,2.7,8.2,0.7,34.06,,,,,,,,,,
15.06.14.819,-65.0,16.2,0,16.0,,95138.2,10.51,0.35,0.65,0.66,3.0,8.5,1.3,34.06,,,,,,,,,,
15.06.14.832,-72.2,18.0,0,16.0,,95363.7,10.49,0.34,0.65,0.66,3.3,8.8,1.3,34.06,,,,,,,,,,
15.06.14.843,-68.8,17.2,0,16.0,,95665.8,10.45,0.34,0.65,0.66,3.0,8.1,1.4,34.06,,,,,,,,,,
15.06.14.851,-77.7,19.4,0,16.0,,95401.5,10.48,0.34,0.65,0.66,3.1,7.2,1.7,34.06,,,,,,,,,,
15.06.14.864,-70.6,17.6,0,16.0,,94953.8,10.53,0.34,0.65,0.66,3.3,7.0,1.6,34.06,,,,,,,,,,
15.06.14.876,-91.0,22.8,0,16.0,,96999.4,10.31,0.35,0.65,0.66,4.0,7.0,2.1,34.06,,,,,,,,,,
15.06.14.884,-97.6,24.4,0,16.0,,95743.0,10.44,0.35,0.66,0.66,3.6,6.6,2.7,34.06,,,,,,,,,,
15.06.14.897,-101.4,25.4,0,16.0,,96629.0,10.35,0.36,0.66,0.65,4.1,7.3,2.6,34.06,,,,,,,,,,
15.06.14.909,-107.8,27.0,0,16.0,,95722.0,10.45,0.35,0.65,0.66,5.0,7.0,2.9,34.06,,,,,,,,,,
15.06.14.917,-97.5,24.4,0,16.0,,94727.2,10.56,0.35,0.65,0.66,4.5,6.7,2.7,34.06,,,,,,,,,,
15.06.14.929,-110.9,27.7,0,16.0,,94643.2,10.57,0.35,0.64,0.66,6.0,7.0,3.0,34.06,,,,,,,,,,
15.06.14.938,-115.2,28.8,0,16.0,,95149.7,10.51,0.35,0.66,0.66,6.1,6.9,2.5,34.06,,,,,,,,,,
15.06.14.950,-124.3,31.1,0,16.0,,96527.9,10.36,0.35,0.65,0.66,6.6,7.4,2.7,34.06,,,,,,,,,,
15.06.14.962,-129.0,32.2,0,16.0,,96024.0,10.41,0.35,0.65,0.65,7.8,7.4,3.3,34.06,,,,,,,,,,
15.06.14.970,-130.4,32.6,0,16.0,,96748.3,10.34,0.35,0.66,0.65,7.7,7.2,3.3,34.06,,,,,,,,,,
15.06.14.984,56.3,14.1,1,17.0,85.5,95932.1,10.42,0.36,0.66,0.65,5.7,6.3,3.1,34.06,,,,,,,,,,
15.06.14.995,104.9,26.2,0,17.0,,95600.5,10.46,0.36,0.66,0.64,6.5,7.5,3.1,34.06,,,,,,,,,,
15.06.15.007,155.2,38.8,0,17.0,,96666.8,10.34,0.36,0.66,0.65,6.7,9.4,2.9,34.06,,,,,,,,,,
15.06.15.015,193.2,48.3,0,17.0,,96544.4,10.36,0.36,0.66,0.65,6.5,9.6,3.0,34.06,,,,,,,,,,
15.06.15.028,209.2,52.3,0,17.0,,96236.9,10.39,0.36,0.66,0.65,5.9,9.2,2.8,34.06,,,,,,,,,,
15.06.15.040,259.3,64.8,0,17.0,,96634.5,10.35,0.36,0.65,0.65,7.6,9.8,2.9,34.06,,,,,,,,,,
15.06.15.048,269.7,67.4,0,17.0,,95119.4,10.51,0.36,0.66,0.64,9.3,10.3,3.4,34.06,,,,,,,,,,
15.06.15.061,301.0,75.2,0,17.0,,95822.7,10.44,0.36,0.66,0.65,10.1,10.8,3.3,34.06,,,,,,,,,,
15.06.15.073,321.6,80.4,0,17.0,,96810.5,10.33,0.36,0.66,0.63,10.6,10.8,3.5,34.06,,,,,,,,,,
15.06.15.081,323.3,80.8,0,17.0,,96011.4,10.42,0.37,0.66,0.65,11.8,9.5,3.6,34.06,,,,,,,,,,
15.06.15.093,314.6,78.6,0,17.0,,96909.1,10.32,0.36,0.66,0.65,11.0,10.9,2.9,34.06,,,,,,,,,,
15.06.15.105,320.8,80.2,0,17.0,,96679.6,10.34,0.35,0.67,0.65,13.2,10.5,2.2,34.06,,,,,,,,,,
15.06.15.118,319.7,79.9,0,17.0,,96994.2,10.31,0.35,0.67,0.64,11.5,9.1,2.1,34.06,,,,,,,,,,
15.06.15.126,298.8,74.7,0,17.0,,97334.2,10.27,0.36,0.67,0.64,11.4,10.1,2.1,34.06,,,,,,,,,,
15.06.15.138,262.4,65.6,0,17.0,,95451.3,10.48,0.35,0.66,0.63,11.8,10.1,2.0,34.06,,,,,,,,,,
15.06.15.151,258.5,64.6,0,17.0,,98136.2,10.19,0.36,0.67,0.64,11.5,9.9,3.4,34.06,,,,,,,,,,
15.06.15.187,108.2,27.0,0,17.0,,96080.3,10.41,0.36,0.68,0.63,11.2,6.8,3.9,34.06,,,,,,,,,,
15.06.15.200,57.2,14.3,0,17.0,,96291.4,10.39,0.35,0.68,0.62,10.2,5.6,4.3,34.06,,,,,,,,,,
15.06.15.212,-2.3,0.6,0,17.0,,97087.8,10.3,0.35,0.68,0.63,9.7,5.2,3.9,34.06,,,,,,,,,,
15.06.15.224,12.5,3.1,0,17.0,,96232.8,10.39,0.36,0.68,0.62,10.5,5.6,3.1,34.06,,,,,,,,,,
15.06.15.232,23.6,5.9,0,17.0,,96400.3,10.37,0.36,0.67,0.63,10.7,6.4,1.8,34.06,,,,,,,,,,
15.06.15.245,25.7,6.4,0,17.0,,97089.0,10.3,0.36,0.67,0.63,9.7,6.5,1.9,34.06,,,,,,,,,,
15.06.15.257,52.5,13.1,0,17.0,,94642.0,10.57,0.35,0.67,0.63,9.0,6.3,1.8,34.06,,,,,,,,,,
15.06.15.265,62.4,15.6,0,17.0,,96806.9,10.33,0.36,0.68,0.63,8.5,7.1,1.8,34.06,,,,,,,,,,
15.06.15.278,55.3,13.8,0,17.0,,95947.3,10.42,0.36,0.68,0.62,7.5,6.6,2.4,34.06,,,,,,,,,,
15.06.15.286,54.2,13.6,0,17.0,,96313.7,10.38,0.36,0.68,0.62,6.6,6.2,1.6,34.06,,,,,,,,,,
15.06.15.298,52.8,13.2,0,17.0,,96814.5,10.33,0.36,0.69,0.62,7.1,6.6,1.2,34.06,,,,,,,,,,
15.06.15.306,52.4,13.1,0,17.0,,94853.0,10.54,0.35,0.7,0.62,6.7,7.1,0.6,34.06,,,,,,,,,,
15.06.15.319,48.4,12.1,0,17.0,,94374.1,10.6,0.35,0.69,0.61,4.5,6.6,0.6,34.06,,,,,,,,,,
15.06.15.327,37.4,9.4,0,17.0,,97554.5,10.25,0.35,0.69,0.62,3.6,7.5,0.3,34.06,,,,,,,,,,
15.06.15.339,15.2,3.8,0,17.0,,96583.0,10.35,0.35,0.68,0.62,3.0,7.1,0.4,34.06,,,,,,,,,,
15.06.15.351,1.3,0.3,0,17.0,,94622.4,10.57,0.35,0.68,0.63,2.0,7.3,0.6,34.06,,,,,,,,,,
15.06.15.359,-2.1,0.5,0,17.0,,97947.9,10.21,0.35,0.69,0.62,1.3,5.8,0.6,34.06,,,,,,,,,,
15.06.15.372,-14.0,3.5,0,17.0,,95990.8,10.42,0.35,0.69,0.62,1.0,5.0,0.6,34.06,,,,,,,,,,
15.06.15.380,-16.9,4.2,0,17.0,,96200.9,10.39,0.36,0.68,0.62,0.5,5.8,0.8,34.06,,,,,,,,,,
15.06.15.392,-20.8,5.2,0,17.0,,96777.7,10.33,0.35,0.68,0.62,0.0,4.8,1.1,34.06,,,,,,,,,,
15.06.15.405,-20.7,5.2,0,17.0,,96291.5,10.39,0.35,0.69,0.62,-0.1,4.3,1.2,34.06,,,,,,,,,,
15.06.15.414,-22.6,5.6,0,17.0,,94425.7,10.59,0.36,0.7,0.61,-1.2,3.8,0.6,34.06,,,,,,,,,,
15.06.15.425,-32.0,8.0,0,17.0,,94189.4,10.62,0.36,0.69,0.62,-2.8,3.0,0.7,34.06,,,,,,,,,,
15.06.15.437,-28.9,7.2,0,17.0,,98330.8,10.17,0.36,0.69,0.63,-5.0,3.4,1.1,34.06,,,,,,,,,,
15.06.15.450,-43.0,10.8,0,17.0,,96891.2,10.32,0.36,0.67,0.62,-4.9,5.0,0.0,34.06,,,,,,,,,,
15.06.15.458,-34.4,8.6,0,17.0,,96320.3,10.38,0.35,0.67,0.63,-5.8,4.2,0.1,34.06,,,,,,,,,,
15.06.15.470,-45.4,11.4,0,17.0,,95352.3,10.49,0.35,0.68,0.62,-6.5,2.1,0.0,34.06,,,,,,,,,,
15.06.15.482,-59.8,15.0,0,17.0,,96096.5,10.41,0.36,0.68,0.63,-7.2,1.5,-1.1,34.06,,,,,,,,,,
15.06.15.491,-49.6,12.4,0,17.0,,94978.8,10.53,0.36,0.69,0.63,-6.8,1.0,-1.3,34.06,,,,,,,,,,
15.06.15.503,-62.6,15.6,0,17.0,,96706.3,10.34,0.37,0.69,0.61,-8.2,1.0,-1.6,34.06,,,,,,,,,,
15.06.15.515,-73.7,18.4,0,17.0,,95237.0,10.5,0.37,0.68,0.63,-9.4,1.2,-1.7,34.06,,,,,,,,,,
15.06.15.523,-63.7,15.9,0,17.0,,95525.1,10.47,0.37,0.68,0.62,-10.2,2.2,-2.2,34.06,,,,,,,,,,
15.06.15.536,-83.8,21.0,0,17.0,,97365.1,10.27,0.37,0.67,0.63,-12.1,1.6,-2.2,34.06,,,,,,,,,,
15.06.15.548,-80.1,20.0,0,17.0,,95690.4,10.45,0.37,0.66,0.62,-11.9,1.6,-2.9,34.06,,,,,,,,,,
15.06.15.560,-86.3,21.6,0,17.0,,96243.1,10.39,0.38,0.66,0.64,-9.6,2.4,-3.5,34.06,,,,,,,,,,
15.06.15.568,-82.6,20.6,0,17.0,,95481.1,10.47,0.38,0.65,0.64,-9.0,3.9,-5.8,34.06,,,,,,,,,,
15.06.15.581,-87.3,21.8,0,17.0,,95823.3,10.44,0.37,0.66,0.63,-7.4,5.1,-7.1,34.06,,,,,,,,,,
15.06.15.593,-100.8,25.2,0,17.0,,95251.9,10.5,0.37,0.67,0.63,-6.0,5.0,-8.2,34.06,,,,,,,,,,
15.06.15.601,-103.9,26.0,0,17.0,,98051.7,10.2,0.37,0.68,0.63,-6.6,6.2,-8.7,34.06,,,,,,,,,,
15.06.15.613,-112.5,28.1,0,17.0,,95157.4,10.51,0.36,0.68,0.64,-7.4,6.6,-9.0,34.06,,,,,,,,,,
15.06.15.626,-114.7,28.7,0,17.0,,96422.4,10.37,0.36,0.66,0.63,-8.7,6.3,-9.6,34.06,,,,,,,,,,
15.06.15.634,-122.9,30.7,0,17.0,,96600.9,10.35,0.37,0.67,0.64,-7.8,5.7,-9.4,34.06,,,,,,,,,,
15.06.15.646,-135.5,33.9,0,17.0,,96349.6,10.38,0.37,0.67,0.64,-6.7,5.5,-9.3,34.06,,,,,,,,,,
15.06.15.659,-141.6,35.4,0,17.0,,95932.3,10.42,0.36,0.66,0.64,-6.6,6.3,-9.4,34.06,,,,,,,,,,
15.06.15.667,-1.2,0.3,1,18.0,85.6,96101.5,10.41,0.36,0.65,0.64,-5.9,6.6,-9.8,34.06,,,,,,,,,,
15.06.15.679,67.5,16.9,0,18.0,,96605.7,10.35,0.36,0.66,0.64,-4.9,7.8,-9.6,34.06,,,,,,,,,,
15.06.15.691,96.4,24.1,0,18.0,,94818.0,10.55,0.35,0.67,0.64,-3.8,7.7,-9.0,34.06,,,,,,,,,,
15.06.15.704,138.8,34.7,0,18.0,,94830.2,10.55,0.35,0.66,0.64,-4.1,6.2,-8.9,34.06,,,,,,,,,,
15.06.15.704,160.1,40.0,0,18.0,,95529.0,10.47,0.35,0.67,0.64,-3.6,5.1,-8.3,34.06,,,,,,,,,,
15.06.15.724,237.1,59.3,0,18.0,,95723.2,10.45,0.35,0.68,0.64,-3.6,3.9,-7.7,34.06,,,,,,,,,,
15.06.15.736,253.6,63.4,0,18.0,,95562.2,10.46,0.35,0.67,0.64,-2.9,3.8,-7.5,34.06,,,,,,,,,,
15.06.15.749,264.3,66.1,0,18.0,,96012.9,10.42,0.35,0.67,0.64,-2.7,5.0,-7.1,34.06,,,,,,,,,,
15.06.15.757,290.2,72.6,0,18.0,,95785.8,10.44,0.35,0.67,0.64,-3.5,4.7,-6.2,34.06,,,,,,,,,,
15.06.15.769,348.3,87.1,0,18.0,,95763.9,10.44,0.35,0.66,0.65,-5.1,3.6,-6.0,34.06,,,,,,,,,,
15.06.15.781,326.2,81.6,0,18.0,,95470.3,10.47,0.34,0.66,0.64,-5.1,4.2,-6.1,34.06,,,,,,,,,,
15.06.15.790,325.0,81.2,0,18.0,,96180.1,10.4,0.34,0.66,0.65,-4.9,5.6,-5.5,34.06,,,,,,,,,,
15.06.15.802,323.0,80.8,0,18.0,,96097.2,10.41,0.35,0.65,0.65,-4.8,7.2,-5.1,34.06,,,,,,,,,,
15.06.15.814,291.4,72.8,0,18.0,,96744.2,10.34,0.34,0.66,0.65,-4.5,6.7,-4.6,34.06,,,,,,,,,,
15.06.15.822,280.8,70.2,0,18.0,,95424.3,10.48,0.35,0.65,0.66,-2.9,7.3,-5.3,34.06,,,,,,,,,,
15.06.15.835,235.0,58.8,0,18.0,,95860.4,10.43,0.35,0.66,0.65,-2.0,8.2,-5.2,34.06,,,,,,,,,,
15.06.15.847,222.2,55.6,0,18.0,,94636.8,10.57,0.35,0.67,0.64,-0.8,6.8,-5.1,34.06,,,,,,,,,,
15.06.15.859,207.2,51.8,0,18.0,,97042.9,10.3,0.35,0.67,0.65,-0.9,4.8,-4.2,34.06,,,,,,,,,,
15.06.15.867,163.3,40.8,0,18.0,,96658.5,10.35,0.34,0.66,0.66,1.1,3.4,-3.7,34.06,,,,,,,,,,
15.06.15.880,96.2,24.0,0,18.0,,97338.5,10.27,0.34,0.66,0.65,1.0,2.6,-3.6,34.06,,,,,,,,,,
15.06.15.892,64.5,16.1,0,18.0,,96661.8,10.35,0.35,0.65,0.65,0.1,2.1,-3.6,34.06,,,,,,,,,,
15.06.15.900,32.9,8.2,0,18.0,,96292.1,10.39,0.35,0.66,0.66,0.7,2.6,-3.9,34.06,,,,,,,,,,
15.06.15.913,2.7,0.7,0,18.0,,96298.8,10.38,0.34,0.66,0.65,0.5,4.2,-4.1,34.06,,,,,,,,,,
15.06.15.926,23.1,5.8,0,18.0,,96773.9,10.33,0.35,0.66,0.65,1.3,3.6,-4.6,34.06,,,,,,,,,,
15.06.15.933,33.4,8.4,0,18.0,,95594.7,10.46,0.35,0.66,0.65,1.5,1.4,-5.1,34.06,,,,,,,,,,
15.06.15.945,47.4,11.8,0,18.0,,96462.3,10.37,0.35,0.67,0.65,2.1,1.4,-5.6,34.06,,,,,,,,,,
15.06.15.958,51.5,12.9,0,18.0,,96908.7,10.32,0.35,0.67,0.64,3.1,2.3,-5.8,34.06,,,,,,,,,,
15.06.15.995,55.8,14.0,0,18.0,,95745.6,10.44,0.35,0.7,0.63,-1.3,3.7,-4.6,34.06,,,,,,,,,,
15.06.16.007,47.9,12.0,0,18.0,,95764.2,10.44,0.34,0.68,0.64,-5.0,4.3,-4.3,34.06,,,,,,,,,,
15.06.16.019,37.8,9.4,0,18.0,,94189.9,10.62,0.34,0.68,0.65,-5.6,7.7,-2.5,34.06,,,,,,,,,,
15.06.16.031,27.6,6.9,0,18.0,,96456.4,10.37,0.33,0.66,0.65,-8.7,6.9,-1.7,34.06,,,,,,,,,,
15.06.16.040,4.7,1.2,0,18.0,,97354.8,10.27,0.33,0.64,0.66,-8.2,7.6,-1.7,34.06,,,,,,,,,,
15.06.16.052,-6.8,1.7,0,18.0,,96196.9,10.4,0.34,0.64,0.67,-6.1,9.0,-1.1,34.06,,,,,,,,,,
15.06.16.064,-8.4,2.1,0,18.0,,95989.7,10.42,0.33,0.65,0.67,-6.5,10.7,-1.1,34.06,,,,,,,,,,
15.06.16.072,-2.1,0.5,0,18.0,,95166.0,10.51,0.34,0.66,0.66,-4.7,11.3,-0.7,34.06,,,,,,,,,,
15.06.16.085,-21.4,5.4,0,18.0,,97041.3,10.3,0.34,0.65,0.66,-3.2,11.0,-0.2,34.06,,,,,,,,,,
15.06.16.097,-21.6,5.4,0,18.0,,96947.9,10.31,0.34,0.66,0.66,1.3,6.3,1.2,34.06,,,,,,,,,,
15.06.16.110,-27.5,6.9,0,18.0,,97160.2,10.29,0.34,0.66,0.65,-1.1,4.0,1.3,34.06,,,,,,,,,,
15.06.16.117,-28.0,7.0,0,18.0,,96985.3,10.31,0.35,0.65,0.65,0.7,6.2,0.4,34.06,,,,,,,,,,
15.06.16.130,-28.6,7.2,0,18.0,,96752.9,10.34,0.35,0.66,0.65,2.7,6.6,0.9,34.06,,,,,,,,,,
15.06.16.142,-37.3,9.3,0,18.0,,95157.7,10.51,0.36,0.66,0.65,0.5,5.6,0.7,34.06,,,,,,,,,,
15.06.16.150,-48.5,12.1,0,18.0,,94902.9,10.54,0.36,0.66,0.65,2.0,5.1,0.4,34.06,,,,,,,,,,
15.06.16.162,-41.4,10.4,0,18.0,,96196.0,10.4,0.36,0.66,0.65,3.2,6.4,0.1,34.06,,,,,,,,,,
15.06.16.171,-45.4,11.4,0,18.0,,96226.0,10.39,0.37,0.66,0.62,3.6,13.6,-0.3,34.06,,,,,,,,,,
15.06.16.183,-56.8,14.2,0,18.0,,94267.4,10.61,0.38,0.66,0.65,5.3,15.0,-0.9,34.06,,,,,,,,,,
15.06.16.196,-63.8,16.0,0,18.0,,96679.7,10.34,0.35,0.66,0.65,6.6,17.1,-0.9,34.06,,,,,,,,,,
15.06.16.208,-65.5,16.4,0,18.0,,97468.2,10.26,0.33,0.65,0.64,7.3,14.7,0.8,34.06,,,,,,,,,,
15.06.16.216,-61.8,15.4,0,18.0,,97046.1,10.3,0.33,0.66,0.65,5.0,9.8,1.0,34.06,,,,,,,,,,
15.06.16.228,-69.0,17.2,0,18.0,,96563.5,10.36,0.33,0.66,0.66,3.5,7.8,1.6,34.06,,,,,,,,,,
15.06.16.240,-61.5,15.4,0,18.0,,95491.2,10.47,0.34,0.67,0.64,6.2,5.1,2.8,34.06,,,,,,,,,,
15.06.16.248,-86.9,21.7,0,18.0,,95223.3,10.5,0.33,0.67,0.65,4.2,3.0,2.5,34.06,,,,,,,,,,
15.06.16.261,-85.4,21.4,0,18.0,,96020.3,10.41,0.34,0.68,0.65,6.9,1.6,2.7,34.06,,,,,,,,,,
15.06.16.273,-97.3,24.3,0,18.0,,97238.6,10.28,0.35,0.69,0.64,3.5,1.1,1.4,34.06,,,,,,,,,,
15.06.16.281,-94.9,23.7,0,18.0,,96956.2,10.31,0.34,0.67,0.64,3.2,2.3,1.5,34.06,,,,,,,,,,
15.06.16.294,-94.4,23.6,0,18.0,,94575.7,10.57,0.35,0.69,0.64,3.7,1.6,2.1,34.06,,,,,,,,,,
15.06.16.306,-116.3,29.1,0,18.0,,95430.3,10.48,0.35,0.68,0.65,0.8,1.1,1.6,34.06,,,,,,,,,,
15.06.16.314,-98.7,24.7,0,18.0,,94004.4,10.64,0.35,0.67,0.65,-1.0,2.7,1.2,34.06,,,,,,,,,,
15.06.16.326,-112.0,28.0,0,18.0,,95081.1,10.52,0.34,0.65,0.66,0.0,3.1,1.8,34.06,,,,,,,,,,
15.06.16.339,-118.1,29.5,0,18.0,,95790.5,10.44,0.35,0.65,0.66,-1.0,5.6,0.6,34.06,,,,,,,,,,
15.06.16.347,-127.0,31.8,0,18.0,,95253.0,10.5,0.35,0.65,0.67,-2.9,10.5,-0.2,34.06,,,,,,,,,,
15.06.16.359,-125.5,31.4,0,18.0,,96440.7,10.37,0.35,0.64,0.65,2.8,9.9,-0.2,34.06,,,,,,,,,,
15.06.16.371,56.9,14.2,1,19.0,84.9,96430.8,10.37,0.35,0.65,0.65,6.6,4.4,1.1,34.06,,,,,,,,,,
15.06.16.380,85.0,21.2,0,19.0,,96351.9,10.38,0.35,0.66,0.64,5.6,3.6,1.3,34.06,,,,,,,,,,
15.06.16.392,125.6,31.4,0,19.0,,97352.1,10.27,0.35,0.68,0.64,5.2,4.3,1.3,34.06,,,,,,,,,,
15.06.16.400,160.4,40.1,0,19.0,,96413.7,10.37,0.35,0.67,0.64,5.5,6.1,1.0,34.06,,,,,,,,,,
15.06.16.412,191.1,47.8,0,19.0,,95994.1,10.42,0.35,0.68,0.64,5.4,8.0,0.2,34.06,,,,,,,,,,
15.06.16.425,253.4,63.4,0,19.0,,95970.4,10.42,0.34,0.67,0.65,5.3,6.4,0.4,34.06,,,,,,,,,,
15.06.16.433,258.2,64.6,0,19.0,,96596.9,10.35,0.34,0.68,0.64,2.7,3.1,0.0,34.06,,,,,,,,,,
15.06.16.446,312.4,78.1,0,19.0,,96450.1,10.37,0.34,0.68,0.63,-0.4,1.7,-0.1,34.06,,,,,,,,,,
15.06.16.457,296.9,74.2,0,19.0,,96997.4,10.31,0.34,0.68,0.64,-0.7,2.5,0.6,34.06,,,,,,,,,,
15.06.16.466,305.1,76.3,0,19.0,,94471.3,10.59,0.34,0.67,0.63,-1.7,3.0,1.8,34.06,,,,,,,,,,
15.06.16.479,319.1,79.8,0,19.0,,97254.3,10.28,0.35,0.67,0.64,-1.2,3.2,1.4,34.06,,,,,,,,,,
15.06.16.486,326.6,81.6,0,19.0,,94940.3,10.53,0.35,0.67,0.65,-1.2,1.6,2.4,34.06,,,,,,,,,,
15.06.16.498,325.6,81.4,0,19.0,,96429.8,10.37,0.35,0.65,0.64,-1.1,2.3,2.0,34.06,,,,,,,,,,
15.06.16.511,314.7,78.7,0,19.0,,96737.5,10.34,0.36,0.66,0.66,0.3,3.1,1.6,34.06,,,,,,,,,,
15.06.16.519,316.7,79.2,0,19.0,,96507.3,10.36,0.36,0.66,0.64,1.6,4.1,1.4,34.06,,,,,,,,,,
15.06.16.531,241.4,60.4,0,19.0,,96254.6,10.39,0.35,0.65,0.65,2.1,4.0,1.5,34.06,,,,,,,,,,
15.06.16.543,212.9,53.2,0,19.0,,96370.5,10.38,0.36,0.66,0.64,1.9,4.1,1.3,34.06,,,,,,,,,,
15.06.16.552,189.5,47.4,0,19.0,,95434.1,10.48,0.36,0.67,0.64,1.9,4.2,1.2,34.06,,,,,,,,,,
15.06.16.564,147.9,37.0,0,19.0,,96240.9,10.39,0.36,0.67,0.63,2.2,5.0,1.4,34.06,,,,,,,,,,
15.06.16.576,110.5,27.6,0,19.0,,96558.9,10.36,0.36,0.67,0.63,1.6,6.6,1.0,34.06,,,,,,,,,,
15.06.16.584,81.6,20.4,0,19.0,,96672.4,10.34,0.36,0.68,0.63,1.4,7.1,0.6,34.06,,,,,,,,,,
15.06.16.597,20.3,5.1,0,19.0,,96272.1,10.39,0.36,0.67,0.63,1.2,7.8,0.7,34.06,,,,,,,,,,
15.06.16.605,9.5,2.4,0,19.0,,96894.5,10.32,0.36,0.67,0.64,0.5,8.6,0.7,34.06,,,,,,,,,,
15.06.16.617,9.2,2.3,0,19.0,,96979.7,10.31,0.35,0.67,0.64,0.8,7.6,0.5,34.06,,,,,,,,,,
15.06.16.625,30.4,7.6,0,19.0,,96601.3,10.35,0.36,0.66,0.64,0.1,7.9,0.5,34.06,,,,,,,,,,
15.06.16.638,38.9,9.7,0,19.0,,96420.6,10.37,0.36,0.66,0.65,0.9,8.3,0.4,34.06,,,,,,,,,,
15.06.16.646,46.9,11.7,0,19.0,,95023.1,10.52,0.36,0.66,0.64,0.7,8.0,-0.3,34.06,,,,,,,,,,
15.06.16.658,45.3,11.3,0,19.0,,95119.9,10.51,0.37,0.66,0.64,0.7,7.7,-0.5,34.06,,,,,,,,,,
15.06.16.670,67.0,16.8,0,19.0,,97252.4,10.28,0.36,0.66,0.64,1.8,8.0,-0.9,34.06,,,,,,,,,,
15.06.16.683,53.2,13.3,0,19.0,,96165.7,10.4,0.36,0.66,0.64,2.5,9.2,-1.1,34.06,,,,,,,,,,
15.06.16.691,53.3,13.3,0,19.0,,96845.1,10.33,0.35,0.66,0.64,3.7,9.5,-1.3,34.06,,,,,,,,,,
15.06.16.703,42.6,10.6,0,19.0,,97447.7,10.26,0.35,0.66,0.64,3.5,9.8,-1.0,34.06,,,,,,,,,,
15.06.16.715,41.6,10.4,0,19.0,,95985.7,10.42,0.35,0.66,0.65,3.3,9.2,-0.6,34.06,,,,,,,,,,
15.06.16.724,24.0,6.0,0,19.0,,97138.9,10.29,0.35,0.66,0.65,3.6,8.5,-0.5,34.06,,,,,,,,,,
15.06.16.736,3.3,0.8,0,19.0,,95852.3,10.43,0.35,0.67,0.64,3.4,8.8,-0.6,34.06,,,,,,,,,,
15.06.16.748,-11.3,2.8,0,19.0,,95012.7,10.52,0.35,0.67,0.63,4.1,6.5,-0.1,34.06,,,,,,,,,,
15.06.16.756,-2.0,0.5,0,19.0,,96570.5,10.36,0.36,0.67,0.64,1.0,5.4,0.0,34.06,,,,,,,,,,
15.06.16.798,-29.9,7.5,0,19.0,,97133.5,10.3,0.35,0.68,0.64,-0.8,3.5,0.0,34.06,,,,,,,,,,
15.06.16.810,-34.8,8.7,0,19.0,,97259.7,10.28,0.35,0.67,0.65,-0.6,5.0,-0.4,34.06,,,,,,,,,,
15.06.16.822,-34.6,8.6,0,19.0,,96229.9,10.39,0.35,0.67,0.64,1.3,5.7,-0.4,34.06,,,,,,,,,,
15.06.16.830,-34.5,8.6,0,19.0,,95752.5,10.44,0.35,0.67,0.64,-0.3,3.4,-0.7,34.06,,,,,,,,,,
15.06.16.842,-45.3,11.3,0,19.0,,95319.1,10.49,0.36,0.67,0.64,0.3,3.0,-0.2,34.06,,,,,,,,,,
15.06.16.855,-46.4,11.6,0,19.0,,95350.6,10.49,0.36,0.66,0.64,0.4,3.5,-0.9,34.06,,,,,,,,,,
15.06.16.864,-44.0,11.0,0,19.0,,96346.9,10.38,0.35,0.66,0.64,0.1,4.8,-0.9,34.06,,,,,,,,,,
15.06.16.875,-54.8,13.7,0,19.0,,98503.1,10.15,0.36,0.66,0.64,0.7,4.7,-1.2,34.06,,,,,,,,,,
15.06.16.888,-56.5,14.1,0,19.0,,96510.1,10.36,0.36,0.66,0.63,-0.2,2.9,-1.2,34.06,,,,,,,,,,
15.06.16.896,-61.4,15.4,0,19.0,,96386.8,10.37,0.36,0.67,0.63,0.3,3.1,-1.1,34.06,,,,,,,,,,
15.06.16.909,-67.0,16.8,0,19.0,,96561.0,10.36,0.36,0.67,0.64,0.7,5.5,-1.5,34.06,,,,,,,,,,
15.06.16.920,-65.9,16.5,0,19.0,,95934.4,10.42,0.36,0.67,0.64,1.0,6.4,-1.3,34.06,,,,,,,,,,
15.06.16.928,-69.7,17.4,0,19.0,,96762.4,10.33,0.35,0.67,0.64,0.2,6.0,-1.4,34.06,,,,,,,,,,
15.06.16.941,-84.1,21.0,0,19.0,,95869.8,10.43,0.35,0.67,0.64,-0.9,4.8,-0.9,34.06,,,,,,,,,,
15.06.16.953,-79.3,19.8,0,19.0,,97346.9,10.27,0.35,0.67,0.65,-1.6,5.3,-1.2,34.06,,,,,,,,,,
15.06.16.962,-91.1,22.8,0,19.0,,95632.5,10.46,0.35,0.67,0.64,-0.8,6.2,-1.6,34.06,,,,,,,,,,
15.06.16.974,-99.9,25.0,0,19.0,,95725.0,10.45,0.36,0.67,0.64,-0.5,6.0,-1.8,34.06,,,,,,,,,,
15.06.16.986,-95.3,23.8,0,19.0,,96329.9,10.38,0.36,0.67,0.64,-1.8,5.6,-1.3,34.06,,,,,,,,,,
15.06.16.994,-98.2,24.6,0,19.0,,95988.8,10.42,0.36,0.67,0.64,-1.9,6.3,-1.2,34.06,,,,,,,,,,
15.06.17.006,-106.9,26.7,0,19.0,,96829.9,10.33,0.36,0.66,0.64,-1.3,6.6,-1.9,34.06,,,,,,,,,,
15.06.17.019,-117.6,29.4,0,19.0,,96673.8,10.34,0.36,0.66,0.65,-1.7,6.6,-2.5,34.06,,,,,,,,,,
15.06.17.031,-119.4,29.8,0,19.0,,96189.1,10.4,0.36,0.67,0.63,-1.2,8.2,-3.1,34.06,,,,,,,,,,
15.06.17.039,-122.0,30.5,0,19.0,,96212.0,10.39,0.36,0.67,0.63,-1.8,8.7,-4.4,34.06,,,,,,,,,,
15.06.17.051,-121.8,30.4,0,19.0,,96016.4,10.41,0.36,0.67,0.64,-2.9,11.1,-5.4,34.06,,,,,,,,,,
15.06.17.064,38.6,9.6,1,20.0,82.7,96156.9,10.4,0.35,0.67,0.64,-2.4,12.5,-5.9,34.06,,,,,,,,,,
15.06.17.072,75.1,18.8,0,20.0,,94581.0,10.57,0.35,0.67,0.64,-4.4,11.6,-5.7,34.06,,,,,,,,,,
15.06.17.084,117.4,29.4,0,20.0,,94634.9,10.57,0.35,0.67,0.64,-4.9,12.4,-6.3,34.06,,,,,,,,,,
15.06.17.096,167.0,41.8,0,20.0,,94430.0,10.59,0.35,0.67,0.65,-4.6,12.3,-6.1,34.06,,,,,,,,,,
15.06.17.105,165.5,41.4,0,20.0,,96397.3,10.37,0.35,0.67,0.65,-5.4,13.0,-5.8,34.06,,,,,,,,,,
15.06.17.117,225.8,56.4,0,20.0,,96778.3,10.33,0.34,0.66,0.65,-6.3,13.9,-6.1,34.06,,,,,,,,,,
15.06.17.129,259.7,64.9,0,20.0,,95353.1,10.49,0.34,0.66,0.66,-4.9,15.0,-6.2,34.06,,,,,,,,,,
15.06.17.137,285.1,71.3,0,20.0,,96370.3,10.38,0.34,0.66,0.66,-5.3,15.6,-5.7,34.06,,,,,,,,,,
15.06.17.151,287.2,71.8,0,20.0,,97332.1,10.27,0.33,0.66,0.65,-4.9,14.2,-5.0,34.06,,,,,,,,,,
15.06.17.162,324.4,81.1,0,20.0,,96650.6,10.35,0.32,0.66,0.66,-3.2,13.1,-4.9,34.06,,,,,,,,,,
15.06.17.174,327.5,81.9,0,20.0,,95563.1,10.46,0.33,0.66,0.66,-4.3,10.1,-4.5,34.06,,,,,,,,,,
15.06.17.182,344.1,86.0,0,20.0,,94727.3,10.56,0.33,0.66,0.66,-3.7,8.0,-3.3,34.06,,,,,,,,,,
15.06.17.196,303.7,75.9,0,20.0,,96180.4,10.4,0.33,0.67,0.65,-2.6,6.8,-2.3,34.06,,,,,,,,,,
15.06.17.207,340.2,85.0,0,20.0,,96374.1,10.38,0.32,0.67,0.65,-2.7,6.9,-1.9,34.06,,,,,,,,,,
15.06.17.215,279.7,69.9,0,20.0,,95976.9,10.42,0.33,0.67,0.66,-2.5,7.2,-1.4,34.06,,,,,,,,,,
15.06.17.228,258.9,64.7,0,20.0,,95307.6,10.49,0.33,0.66,0.65,-2.8,7.6,-0.8,34.06,,,,,,,,,,
15.06.17.240,220.5,55.1,0,20.0,,97002.8,10.31,0.33,0.67,0.65,-2.5,5.0,-0.3,34.06,,,,,,,,,,
15.06.17.248,213.1,53.3,0,20.0,,97052.8,10.3,0.33,0.66,0.66,-2.2,2.6,0.0,34.06,,,,,,,,,,
15.06.17.260,163.5,40.9,0,20.0,,96536.5,10.36,0.34,0.65,0.66,-2.3,1.6,0.2,34.06,,,,,,,,,,
15.06.17.273,83.4,20.8,0,20.0,,94769.1,10.55,0.34,0.65,0.66,0.1,3.2,0.9,34.06,,,,,,,,,,
15.06.17.281,64.0,16.0,0,20.0,,95465.2,10.48,0.33,0.66,0.67,1.0,4.5,0.5,34.06,,,,,,,,,,
15.06.17.293,17.1,4.3,0,20.0,,96791.0,10.33,0.34,0.66,0.66,-1.3,2.0,0.5,34.06,,,,,,,,,,
15.06.17.305,8.2,2.0,0,20.0,,96127.1,10.4,0.34,0.66,0.66,-0.9,1.8,0.4,34.06,,,,,,,,,,
15.06.17.314,22.3,5.6,0,20.0,,95165.7,10.51,0.34,0.66,0.65,1.5,4.5,0.9,34.06,,,,,,,,,,
15.06.17.326,36.2,9.0,0,20.0,,95984.3,10.42,0.34,0.66,0.66,1.0,5.2,0.9,34.06,,,,,,,,,,
15.06.17.338,48.6,12.2,0,20.0,,96808.5,10.33,0.34,0.66,0.66,0.8,4.8,1.3,34.06,,,,,,,,,,
15.06.17.347,42.7,10.7,0,20.0,,95469.5,10.47,0.35,0.66,0.66,0.1,5.5,1.4,34.06,,,,,,,,,,
15.06.17.359,64.4,16.1,0,20.0,,97538.7,10.25,0.35,0.65,0.66,-0.6,5.2,1.1,34.06,,,,,,,,,,
15.06.17.371,55.5,13.9,0,20.0,,95884.7,10.43,0.35,0.65,0.66,-0.2,5.2,0.9,34.06,,,,,,,,,,
15.06.17.379,59.3,14.8,0,20.0,,95883.9,10.43,0.35,0.65,0.67,0.3,7.2,0.7,34.06,,,,,,,,,,
15.06.17.391,56.2,14.0,0,20.0,,96388.1,10.37,0.34,0.65,0.67,0.8,8.4,-0.1,34.06,,,,,,,,,,
15.06.17.404,36.5,9.1,0,20.0,,96404.1,10.37,0.34,0.66,0.65,2.1,7.3,-0.6,34.06,,,,,,,,,,
15.06.17.412,35.2,8.8,0,20.0,,95695.6,10.45,0.34,0.66,0.66,1.9,6.2,-1.1,34.06,,,,,,,,,,
15.06.17.424,15.6,3.9,0,20.0,,94940.3,10.53,0.34,0.66,0.66,1.9,5.7,-1.3,34.06,,,,,,,,,,
15.06.17.436,-6.2,1.6,0,20.0,,96124.3,10.4,0.34,0.66,0.65,2.0,5.6,-0.3,34.06,,,,,,,,,,
15.06.17.445,0.2,0.0,0,20.0,,96588.3,10.35,0.35,0.66,0.65,0.9,6.0,-0.4,34.06,,,,,,,,,,
15.06.17.457,2.0,0.5,0,20.0,,96108.7,10.4,0.34,0.65,0.66,1.0,5.5,0.3,34.06,,,,,,,,,,
15.06.17.469,-19.2,4.8,0,20.0,,94991.7,10.53,0.34,0.65,0.66,0.6,4.9,0.6,34.06,,,,,,,,,,
15.06.17.477,-12.3,3.1,0,20.0,,95508.2,10.47,0.34,0.65,0.66,0.1,4.7,-0.1,34.06,,,,,,,,,,
15.06.17.490,-29.9,7.5,0,20.0,,97035.1,10.31,0.34,0.65,0.65,1.2,4.7,-0.3,34.06,,,,,,,,,,
15.06.17.502,-30.4,7.6,0,20.0,,95826.5,10.44,0.34,0.66,0.65,0.5,5.0,-0.7,34.06,,,,,,,,,,
15.06.17.510,-33.3,8.3,0,20.0,,95320.3,10.49,0.34,0.66,0.65,1.2,5.7,-0.5,34.06,,,,,,,,,,
15.06.17.523,-47.0,11.8,0,20.0,,95881.3,10.43,0.34,0.65,0.66,0.9,6.9,-0.5,34.06,,,,,,,,,,
15.06.17.535,-35.1,8.8,0,20.0,,95228.8,10.5,0.34,0.66,0.66,0.9,6.5,-0.5,34.06,,,,,,,,,,
15.06.17.543,-47.8,12.0,0,20.0,,96019.1,10.41,0.34,0.66,0.66,1.5,5.0,-0.1,34.06,,,,,,,,,,
15.06.17.555,-44.3,11.1,0,20.0,,96082.1,10.41,0.34,0.67,0.65,0.6,5.5,0.0,34.06,,,,,,,,,,
15.06.17.597,-55.3,13.8,0,20.0,,96888.2,10.32,0.34,0.67,0.65,0.4,5.3,0.3,34.13,,,,,,,,,,
15.06.17.605,-71.3,17.8,0,20.0,,95876.1,10.43,0.34,0.65,0.66,0.5,4.4,-0.2,34.13,,,,,,,,,,
15.06.17.617,-76.7,19.2,0,20.0,,95674.7,10.45,0.34,0.66,0.66,0.0,4.0,-0.2,34.13,,,,,,,,,,
15.06.17.625,-75.1,18.8,0,20.0,,94294.2,10.61,0.35,0.66,0.66,0.0,4.3,-0.2,34.13,,,,,,,,,,
15.06.17.637,-89.6,22.4,0,20.0,,97626.4,10.24,0.34,0.66,0.66,0.2,4.4,0.3,34.13,,,,,,,,,,
15.06.17.645,-82.7,20.7,0,20.0,,96711.5,10.34,0.34,0.66,0.66,0.3,4.5,0.5,34.13,,,,,,,,,,
15.06.17.658,-89.2,22.3,0,20.0,,96910.6,10.32,0.34,0.66,0.66,0.5,5.0,0.1,34.13,,,,,,,,,,
15.06.17.666,-103.9,26.0,0,20.0,,96332.8,10.38,0.35,0.66,0.65,1.2,5.0,0.9,34.13,,,,,,,,,,
15.06.17.678,-109.7,27.4,0,20.0,,95977.1,10.42,0.35,0.66,0.65,1.0,5.2,0.9,34.13,,,,,,,,,,
15.06.17.690,-105.5,26.4,0,20.0,,95821.5,10.44,0.35,0.67,0.66,1.1,5.5,1.3,34.13,,,,,,,,,,
15.06.17.700,-105.1,26.3,0,20.0,,94870.6,10.54,0.34,0.67,0.66,-0.1,5.4,0.9,34.13,,,,,,,,,,
15.06.17.707,-115.2,28.8,0,20.0,,93851.6,10.66,0.35,0.66,0.66,-0.5,6.6,0.5,34.13,,,,,,,,,,
15.06.17.719,-96.2,24.0,0,20.0,,96064.2,10.41,0.35,0.66,0.66,-1.2,5.5,0.8,34.13,,,,,,,,,,
15.06.17.727,-119.9,30.0,0,20.0,,96410.6,10.37,0.34,0.65,0.66,-1.2,5.3,0.2,34.13,,,,,,,,,,
15.06.17.740,-118.3,29.6,0,20.0,,95704.5,10.45,0.34,0.65,0.66,0.1,5.7,0.1,34.13,,,,,,,,,,
15.06.17.748,-127.0,31.8,0,20.0,,96413.7,10.37,0.35,0.64,0.66,0.3,6.3,-0.1,34.13,,,,,,,,,,
15.06.17.760,43.5,10.9,1,21.0,88.0,95538.0,10.47,0.35,0.65,0.66,1.0,5.7,-0.2,34.13,,,,,,,,,,
15.06.17.768,73.7,18.4,0,21.0,,96683.9,10.34,0.36,0.65,0.66,1.7,5.7,-0.6,34.13,,,,,,,,,,
15.06.17.781,113.7,28.4,0,21.0,,95993.7,10.42,0.35,0.67,0.65,1.8,6.5,-1.0,34.13,,,,,,,,,,
15.06.17.789,171.4,42.8,0,21.0,,96661.8,10.35,0.35,0.67,0.65,1.3,7.4,-1.2,34.13,,,,,,,,,,
15.06.17.801,196.8,49.2,0,21.0,,96322.6,10.38,0.35,0.66,0.65,-0.5,8.6,-1.3,34.13,,,,,,,,,,
15.06.17.809,208.3,52.1,0,21.0,,94334.2,10.6,0.35,0.66,0.66,-1.7,8.9,-1.9,34.13,,,,,,,,,,
15.06.17.826,238.4,59.6,0,21.0,,95477.6,10.47,0.35,0.64,0.67,-0.8,9.9,-1.8,34.13,,,,,,,,,,
15.06.17.834,285.4,71.4,0,21.0,,96122.0,10.4,0.34,0.64,0.66,-0.5,10.1,-2.3,34.13,,,,,,,,,,
15.06.17.846,315.5,78.9,0,21.0,,95500.0,10.47,0.34,0.65,0.67,-0.3,8.9,-2.1,34.13,,,,,,,,,,
15.06.17.854,304.7,76.2,0,21.0,,96349.9,10.38,0.34,0.65,0.66,0.0,8.1,-2.0,34.13,,,,,,,,,,
15.06.17.868,306.4,76.6,0,21.0,,95719.7,10.45,0.34,0.66,0.66,-0.1,8.3,-1.5,34.13,,,,,,,,,,
15.06.17.875,285.4,71.4,0,21.0,,96434.1,10.37,0.34,0.66,0.66,0.3,8.3,-1.4,34.13,,,,,,,,,,
15.06.17.887,331.8,83.0,0,21.0,,95493.2,10.47,0.34,0.66,0.65,0.5,8.2,-1.0,34.13,,,,,,,,,,
15.06.17.896,310.2,77.6,0,21.0,,94463.2,10.59,0.34,0.67,0.66,0.4,7.0,-1.1,34.13,,,,,,,,,,
15.06.17.904,302.5,75.6,0,21.0,,95757.5,10.44,0.35,0.67,0.66,-1.5,4.4,-1.2,34.13,,,,,,,,,,
15.06.17.916,267.4,66.8,0,21.0,,95641.5,10.46,0.35,0.65,0.66,-1.9,4.1,-1.3,34.13,,,,,,,,,,
15.06.17.928,258.4,64.6,0,21.0,,97550.7,10.25,0.35,0.64,0.66,-0.7,5.8,-1.5,34.13,,,,,,,,,,
15.06.17.936,216.7,54.2,0,21.0,,96140.0,10.4,0.35,0.64,0.66,-0.9,6.8,-2.4,34.13,,,,,,,,,,
15.06.17.949,165.7,41.4,0,21.0,,95928.0,10.42,0.35,0.65,0.66,0.7,8.0,-2.7,34.13,,,,,,,,,,
15.06.17.961,124.1,31.0,0,21.0,,95431.7,10.48,0.33,0.64,0.66,4.2,7.6,-2.2,34.13,,,,,,,,,,
15.06.17.969,85.0,21.2,0,21.0,,95968.4,10.42,0.36,0.66,0.66,4.7,7.2,-1.9,34.13,,,,,,,,,,
15.06.17.981,45.3,11.3,0,21.0,,97257.0,10.28,0.35,0.66,0.67,3.5,10.7,-2.5,34.13,,,,,,,,,,
15.06.17.994,5.7,1.4,0,21.0,,96990.6,10.31,0.34,0.65,0.66,6.9,12.9,-1.5,34.13,,,,,,,,,,
15.06.18.006,14.7,3.7,0,21.0,,96689.9,10.34,0.34,0.65,0.67,3.8,13.5,-2.7,34.13,,,,,,,,,,
15.06.18.015,27.8,7.0,0,21.0,,95160.0,10.51,0.33,0.64,0.66,4.5,11.1,-2.0,34.13,,,,,,,,,,
15.06.18.026,44.7,11.2,0,21.0,,96841.0,10.33,0.33,0.64,0.66,5.9,7.6,-1.0,34.13,,,,,,,,,,
15.06.18.039,55.8,14.0,0,21.0,,95439.6,10.48,0.34,0.65,0.66,5.1,9.0,-1.1,34.13,,,,,,,,,,
15.06.18.047,58.0,14.5,0,21.0,,96244.8,10.39,0.34,0.65,0.66,7.4,9.5,-0.4,34.13,,,,,,,,,,
15.06.18.059,58.1,14.5,0,21.0,,95227.3,10.5,0.34,0.67,0.65,8.6,11.1,-0.8,34.13,,,,,,,,,,
15.06.18.071,61.2,15.3,0,21.0,,96211.1,10.39,0.34,0.66,0.65,8.5,12.1,-0.6,34.13,,,,,,,,,,
15.06.18.080,54.1,13.5,0,21.0,,96823.6,10.33,0.34,0.67,0.65,7.5,10.5,0.3,34.13,,,,,,,,,,
15.06.18.092,50.4,12.6,0,21.0,,95860.7,10.43,0.33,0.67,0.65,8.3,10.9,0.4,34.13,,,,,,,,,,
15.06.18.104,30.0,7.5,0,21.0,,96348.7,10.38,0.33,0.68,0.65,8.6,12.8,0.3,34.13,,,,,,,,,,
15.06.18.112,21.1,5.3,0,21.0,,94691.3,10.56,0.33,0.68,0.64,8.1,10.9,0.4,34.13,,,,,,,,,,
15.06.18.125,9.1,2.3,0,21.0,,96061.5,10.41,0.33,0.68,0.64,6.1,9.4,0.4,34.13,,,,,,,,,,
15.06.18.137,-1.1,0.3,0,21.0,,95831.7,10.43,0.33,0.67,0.65,5.3,9.9,0.8,34.13,,,,,,,,,,
15.06.18.145,-5.8,1.4,0,21.0,,96667.7,10.34,0.33,0.66,0.65,5.9,8.6,1.1,34.13,,,,,,,,,,
15.06.18.158,-10.6,2.6,0,21.0,,95167.3,10.51,0.33,0.67,0.66,4.7,6.4,0.8,34.13,86.6,,,,,,,,,
