timestamp,ppg,threshold,beat,beat_count,inst_bpm,gsr_resistance_ohm,gsr_conductance_us,accel_x,accel_y,accel_z,gyro_x,gyro_y,gyro_z,temp_c,window_bpm,window_temp_c,status_message,SpO2,bmi,age,height,weight,env_temp_c,env_humidity_pct
14.53.58.342,,,0,,,90563.6,11.04,0.03,0.75,0.65,1.8,6.0,-1.0,36.38,74.3,,,,28.5,22.0,167.64,80.0,31.44,45.0
14.53.58.346,34.8,8.7,0,,,90256.3,11.08,0.03,0.75,0.66,1.1,5.9,-1.4,36.38,,,,,,,,,,
14.53.58.359,46.7,11.7,0,,,85766.1,11.66,0.03,0.74,0.65,1.2,5.3,-1.1,36.38,,,,,,,,,,
14.53.58.371,119.6,29.9,0,,,90618.1,11.04,0.03,0.74,0.65,0.8,5.4,-1.2,36.38,,,,,,,,,,
14.53.58.379,186.0,46.5,0,,,86794.5,11.52,0.02,0.74,0.66,0.8,4.9,-0.8,36.38,,,,,,,,,,
14.53.58.391,230.1,57.5,0,,,87654.2,11.41,0.03,0.74,0.65,1.0,5.8,-1.3,36.38,,,,,,,,,,
14.53.58.404,257.4,64.4,0,,,85997.7,11.63,0.03,0.74,0.66,1.1,6.2,-0.8,36.38,,,,,,,,,,
14.53.58.412,242.7,60.7,0,,,90403.0,11.06,0.04,0.74,0.66,1.4,5.5,-0.8,36.38,,,,,,,,,,
14.53.58.424,361.7,90.4,0,,,86884.6,11.51,0.03,0.75,0.65,1.3,6.2,-1.3,36.38,,,,,,,,,,
14.53.58.436,297.7,74.4,0,,,86686.6,11.54,0.03,0.75,0.65,0.5,6.2,-1.2,36.38,,,,,,,,,,
14.53.58.445,433.1,108.3,0,,,89613.8,11.16,0.03,0.74,0.66,0.2,6.6,-1.6,36.38,,,,,,,,,,
14.53.58.457,400.9,100.2,0,,,90533.3,11.05,0.03,0.74,0.65,0.0,6.1,-1.5,36.38,,,,,,,,,,
14.53.58.469,412.0,103.0,0,,,87725.3,11.4,0.03,0.74,0.66,0.1,5.5,-1.3,36.38,,,,,,,,,,
14.53.58.477,475.6,118.9,0,,,85117.6,11.75,0.03,0.74,0.65,0.8,6.5,-1.1,36.38,,,,,,,,,,
14.53.58.490,416.8,104.2,0,,,90098.0,11.1,0.03,0.74,0.65,0.8,5.6,-1.1,36.38,,,,,,,,,,
14.53.58.502,416.9,104.2,0,,,85998.2,11.63,0.03,0.75,0.66,0.9,5.4,-1.2,36.38,,,,,,,,,,
14.53.58.510,404.2,101.0,0,,,86966.9,11.5,0.03,0.75,0.66,0.6,6.1,-1.2,36.38,,,,,,,,,,
14.53.58.523,370.7,92.7,0,,,87293.4,11.46,0.03,0.75,0.65,0.1,6.0,-1.5,36.38,,,,,,,,,,
14.53.58.531,344.9,86.2,0,,,86860.5,11.51,0.03,0.74,0.66,0.0,5.6,-1.4,36.38,,,,,,,,,,
14.53.58.543,312.2,78.0,0,,,87172.2,11.47,0.03,0.74,0.65,0.3,6.1,-1.4,36.38,,,,,,,,,,
14.53.58.551,274.6,68.6,0,,,88630.7,11.28,0.03,0.74,0.65,0.5,5.7,-1.1,36.38,,,,,,,,,,
14.53.58.563,258.3,64.6,0,,,86572.0,11.55,0.03,0.74,0.66,1.0,5.5,-0.9,36.38,,,,,,,,,,
14.53.58.572,187.2,46.8,0,,,86484.1,11.56,0.03,0.75,0.66,0.9,5.4,-1.1,36.38,,,,,,,,,,
14.53.58.584,120.0,30.0,0,,,88154.0,11.34,0.03,0.75,0.66,0.8,6.1,-1.1,36.38,,,,,,,,,,
14.53.58.592,111.7,27.9,0,,,89611.0,11.16,0.03,0.74,0.65,0.0,6.4,-1.6,36.38,,,,,,,,,,
14.53.58.604,22.2,5.6,0,,,87189.2,11.47,0.02,0.74,0.65,-0.4,5.5,-1.4,36.38,,,,,,,,,,
14.53.58.613,4.1,1.0,0,,,87118.3,11.48,0.03,0.74,0.65,0.4,6.7,-1.0,36.38,,,,,,,,,,
14.53.58.625,35.1,8.8,0,,,89515.6,11.17,0.03,0.74,0.65,0.5,5.6,-1.3,36.38,,,,,,,,,,
14.53.58.633,31.4,7.8,0,,,87669.4,11.41,0.03,0.74,0.65,0.0,5.4,-1.2,36.38,,,,,,,,,,
14.53.58.645,53.8,13.4,0,,,85769.2,11.66,0.03,0.74,0.66,0.5,5.8,-1.7,36.38,,,,,,,,,,
14.53.58.654,45.9,11.5,0,,,83906.9,11.92,0.03,0.74,0.65,0.5,5.9,-1.3,36.38,,,,,,,,,,
14.53.58.666,63.0,15.8,0,,,85775.5,11.66,0.03,0.74,0.66,0.8,5.7,-1.2,36.38,,,,,,,,,,
14.53.58.674,45.8,11.4,0,,,85920.6,11.64,0.03,0.74,0.66,0.9,5.7,-1.2,36.38,,,,,,,,,,
14.53.58.686,68.0,17.0,0,,,85986.8,11.63,0.04,0.75,0.65,1.2,5.9,-1.3,36.38,,,,,,,,,,
14.53.58.695,87.1,21.8,0,,,87224.9,11.46,0.03,0.75,0.65,1.5,6.2,-1.2,36.38,,,,,,,,,,
14.53.58.707,101.1,25.3,0,,,82531.2,12.12,0.03,0.75,0.66,0.6,6.1,-1.3,36.38,,,,,,,,,,
14.53.58.719,59.4,14.8,0,,,88177.0,11.34,0.03,0.75,0.66,-0.2,5.5,-1.4,36.38,,,,,,,,,,
14.53.58.731,50.9,12.7,0,,,86569.2,11.55,0.03,0.75,0.65,-0.1,5.3,-1.4,36.38,,,,,,,,,,
14.53.58.740,54.7,13.7,0,,,88908.4,11.25,0.03,0.74,0.66,-0.3,6.9,-1.7,36.38,,,,,,,,,,
14.53.58.752,58.6,14.6,0,,,89780.1,11.14,0.03,0.74,0.66,-0.3,5.6,-1.4,36.38,,,,,,,,,,
14.53.58.764,4.0,1.0,0,,,85353.0,11.72,0.03,0.74,0.66,1.7,6.0,-0.9,36.38,,,,,,,,,,
14.53.58.772,-9.3,2.3,0,,,86094.2,11.62,0.03,0.75,0.65,2.2,5.9,-0.7,36.38,,,,,,,,,,
14.53.58.785,-7.0,1.8,0,,,87782.7,11.39,0.03,0.76,0.66,1.6,5.1,-0.5,36.38,,,,,,,,,,
14.53.58.797,-1.2,0.3,0,,,87256.4,11.46,0.03,0.74,0.65,-0.3,5.9,-1.6,36.38,,,,,,,,,,
14.53.58.805,-10.9,2.7,0,,,85038.9,11.76,0.03,0.74,0.65,-0.8,5.4,-1.8,36.38,,,,,,,,,,
14.53.58.817,-39.9,10.0,0,,,86748.5,11.53,0.02,0.74,0.66,-0.3,6.6,-1.6,36.38,,,,,,,,,,
14.53.58.830,-31.7,7.9,0,,,87977.4,11.37,0.03,0.73,0.66,0.3,5.2,-1.4,36.38,,,,,,,,,,
14.53.58.842,-49.8,12.4,0,,,84825.3,11.79,0.02,0.73,0.66,1.2,5.9,-0.9,36.38,,,,,,,,,,
14.53.58.850,-10.8,2.7,0,,,84505.0,11.83,0.04,0.74,0.65,2.2,4.4,-0.2,36.38,,,,,,,,,,
14.53.58.862,-54.9,13.7,0,,,84396.3,11.85,0.04,0.77,0.66,2.9,5.5,0.5,36.38,,,,,,,,,,
14.53.58.875,-22.7,5.7,0,,,83258.7,12.01,0.04,0.75,0.64,2.7,6.0,-1.1,36.38,,,,,,,,,,
14.53.58.883,-62.4,15.6,0,,,86052.5,11.62,0.02,0.74,0.65,0.3,4.8,-1.8,36.38,,,,,,,,,,
14.53.58.895,-40.5,10.1,0,,,87834.6,11.39,0.03,0.75,0.65,0.7,4.6,-0.8,36.38,,,,,,,,,,
14.53.58.908,-38.9,9.7,0,,,87144.9,11.48,0.03,0.75,0.65,-0.3,6.6,-1.2,36.38,,,,,,,,,,
14.53.58.916,-64.3,16.1,0,,,82617.3,12.1,0.03,0.74,0.66,-1.7,5.8,-2.3,36.38,,,,,,,,,,
14.53.58.928,-73.0,18.2,0,,,83120.1,12.03,0.03,0.73,0.66,-0.1,5.5,-2.0,36.38,,,,,,,,,,
14.53.58.940,-110.0,27.5,0,,,84409.7,11.85,0.04,0.74,0.65,2.9,6.2,-0.6,36.38,,,,,,,,,,
14.53.58.949,-108.8,27.2,0,,,86404.3,11.57,0.03,0.75,0.65,2.5,5.7,-0.7,36.38,,,,,,,,,,
14.53.58.961,-87.8,22.0,0,,,85020.4,11.76,0.03,0.75,0.65,0.7,5.2,-1.0,36.38,,,,,,,,,,
14.53.58.973,-64.7,16.2,0,,,83020.6,12.05,0.04,0.75,0.65,0.5,5.7,-1.1,36.38,,,,,,,,,,
14.53.58.981,-112.5,28.1,0,,,84665.3,11.81,0.03,0.75,0.65,0.5,6.3,-1.0,36.38,,,,,,,,,,
14.53.58.994,-102.6,25.6,0,,,85744.1,11.66,0.02,0.74,0.66,-0.5,5.2,-2.0,36.38,,,,,,,,,,
14.53.59.035,-125.7,31.4,0,,,86667.0,11.54,0.03,0.75,0.65,1.4,5.3,-0.8,36.44,,,,,,,,,,
14.53.59.043,-122.9,30.7,0,,,81988.5,12.2,0.03,0.74,0.65,1.3,5.7,-1.1,36.44,,,,,,,,,,
14.53.59.055,-133.8,33.4,0,,,89115.1,11.22,0.04,0.74,0.65,1.7,5.6,-1.0,36.44,,,,,,,,,,
14.53.59.067,-144.8,36.2,0,,,84860.5,11.78,0.03,0.74,0.65,1.9,5.1,-0.8,36.44,,,,,,,,,,
14.53.59.076,-110.9,27.7,0,,,89809.1,11.13,0.03,0.75,0.65,1.8,4.6,-0.8,36.44,,,,,,,,,,
14.53.59.088,-182.6,45.6,0,,,89177.7,11.21,0.03,0.76,0.65,1.4,4.7,-0.1,36.44,,,,,,,,,,
14.53.59.100,-179.3,44.8,0,,,84617.3,11.82,0.03,0.73,0.65,0.8,6.5,-1.7,36.44,,,,,,,,,,
14.53.59.108,-167.7,41.9,0,,,88709.4,11.27,0.02,0.75,0.66,-0.2,5.7,-1.8,36.44,,,,,,,,,,
14.53.59.121,29.9,7.5,1,1.0,77.1,88567.7,11.29,0.04,0.75,0.64,2.1,5.1,-0.6,36.44,,,,,,,,,,
14.53.59.133,92.3,23.1,0,1.0,,85748.4,11.66,0.03,0.75,0.65,1.2,6.4,-1.2,36.44,,,,,,,,,,
14.53.59.141,151.1,37.8,0,1.0,,87396.6,11.44,0.03,0.75,0.65,0.2,6.5,-1.7,36.44,,,,,,,,,,
14.53.59.153,203.3,50.8,0,1.0,,87965.0,11.37,0.03,0.74,0.65,-0.3,5.7,-1.5,36.44,,,,,,,,,,
14.53.59.166,248.6,62.2,0,1.0,,88034.6,11.36,0.03,0.74,0.65,0.3,6.9,-1.6,36.44,,,,,,,,,,
14.53.59.174,257.1,64.3,0,1.0,,85135.5,11.75,0.03,0.75,0.66,-0.6,6.3,-1.4,36.44,,,,,,,,,,
14.53.59.186,298.3,74.6,0,1.0,,88765.2,11.27,0.03,0.75,0.65,0.6,4.8,-1.0,36.44,,,,,,,,,,
14.53.59.199,356.6,89.2,0,1.0,,87190.6,11.47,0.03,0.75,0.65,1.4,5.9,-1.1,36.44,,,,,,,,,,
14.53.59.207,375.2,93.8,0,1.0,,86965.4,11.5,0.04,0.74,0.66,0.9,6.4,-1.7,36.44,,,,,,,,,,
14.53.59.219,399.0,99.8,0,1.0,,79401.1,12.59,0.03,0.75,0.66,0.8,6.0,-1.1,36.44,,,,,,,,,,
14.53.59.231,427.6,106.9,0,1.0,,90877.0,11.0,0.03,0.75,0.65,0.6,6.2,-1.3,36.44,,,,,,,,,,
14.53.59.239,424.0,106.0,0,1.0,,83705.7,11.95,0.03,0.75,0.65,-0.4,6.5,-1.9,36.44,,,,,,,,,,
14.53.59.252,412.9,103.2,0,1.0,,88547.1,11.29,0.03,0.75,0.66,-0.9,6.0,-2.1,36.44,,,,,,,,,,
14.53.59.264,403.7,100.9,0,1.0,,88566.3,11.29,0.03,0.74,0.65,0.2,5.7,-1.4,36.44,,,,,,,,,,
14.53.59.272,403.6,100.9,0,1.0,,86408.4,11.57,0.04,0.74,0.66,0.7,5.6,-1.2,36.44,,,,,,,,,,
14.53.59.285,328.7,82.2,0,1.0,,87087.3,11.48,0.03,0.75,0.65,0.7,6.5,-1.3,36.44,,,,,,,,,,
14.53.59.293,364.8,91.2,0,1.0,,85386.5,11.71,0.03,0.75,0.66,1.1,5.9,-1.3,36.44,,,,,,,,,,
14.53.59.305,312.9,78.2,0,1.0,,87517.8,11.43,0.03,0.74,0.66,1.1,5.1,-1.3,36.44,,,,,,,,,,
14.53.59.313,306.1,76.5,0,1.0,,86933.8,11.5,0.03,0.74,0.65,0.8,6.4,-1.3,36.44,,,,,,,,,,
14.53.59.325,282.0,70.5,0,1.0,,82972.7,12.05,0.03,0.74,0.65,0.1,6.5,-1.4,36.44,,,,,,,,,,
14.53.59.334,228.3,57.1,0,1.0,,86205.1,11.6,0.03,0.74,0.65,0.2,5.9,-1.6,36.44,,,,,,,,,,
14.53.59.346,164.4,41.1,0,1.0,,85365.7,11.71,0.03,0.75,0.66,0.1,6.0,-1.0,36.44,,,,,,,,,,
14.53.59.354,156.0,39.0,0,1.0,,87206.0,11.47,0.03,0.76,0.66,0.8,5.6,-0.7,36.44,,,,,,,,,,
14.53.59.367,57.7,14.4,0,1.0,,90286.0,11.08,0.03,0.74,0.65,0.7,7.0,-1.7,36.44,,,,,,,,,,
14.53.59.375,16.8,4.2,0,1.0,,88335.3,11.32,0.03,0.74,0.66,0.2,5.8,-1.9,36.44,,,,,,,,,,
14.53.59.387,-0.3,0.1,0,1.0,,85238.4,11.73,0.03,0.74,0.66,1.3,4.9,-0.7,36.44,,,,,,,,,,
14.53.59.395,-11.1,2.8,0,1.0,,86853.7,11.51,0.03,0.74,0.65,2.5,6.7,-1.0,36.44,,,,,,,,,,
14.53.59.407,33.4,8.4,0,1.0,,82847.6,12.07,0.03,0.75,0.65,0.8,5.1,-1.3,36.44,,,,,,,,,,
14.53.59.416,79.2,19.8,0,1.0,,87742.5,11.4,0.03,0.76,0.66,0.0,5.8,-1.3,36.44,,,,,,,,,,
14.53.59.428,74.8,18.7,0,1.0,,86387.4,11.58,0.03,0.75,0.65,1.0,6.8,-1.6,36.44,,,,,,,,,,
14.53.59.436,75.7,18.9,0,1.0,,82851.2,12.07,0.03,0.75,0.65,0.6,5.5,-1.8,36.44,,,,,,,,,,
14.53.59.448,55.8,14.0,0,1.0,,92656.0,10.79,0.02,0.74,0.65,0.7,5.9,-1.8,36.44,,,,,,,,,,
14.53.59.457,61.8,15.4,0,1.0,,90370.8,11.07,0.03,0.74,0.65,1.0,4.8,-1.1,36.44,,,,,,,,,,
14.53.59.469,76.5,19.1,0,1.0,,83952.8,11.91,0.03,0.75,0.65,0.8,5.5,-0.9,36.44,,,,,,,,,,
14.53.59.477,87.7,21.9,0,1.0,,85781.3,11.66,0.03,0.74,0.66,0.5,6.1,-1.2,36.44,,,,,,,,,,
14.53.59.489,47.7,11.9,0,1.0,,86161.9,11.61,0.03,0.74,0.66,0.6,5.6,-1.4,36.44,,,,,,,,,,
14.53.59.502,37.8,9.4,0,1.0,,91464.6,10.93,0.03,0.75,0.66,1.5,5.9,-1.2,36.44,,,,,,,,,,
14.53.59.510,46.0,11.5,0,1.0,,87788.7,11.39,0.03,0.75,0.66,1.6,6.0,-1.2,36.44,,,,,,,,,,
14.53.59.522,22.9,5.7,0,1.0,,84442.9,11.84,0.03,0.75,0.65,1.1,6.1,-1.4,36.44,,,,,,,,,,
14.53.59.535,4.0,1.0,0,1.0,,86289.3,11.59,0.03,0.74,0.65,1.6,5.4,-1.3,36.44,,,,,,,,,,
14.53.59.543,-5.4,1.4,0,1.0,,87425.4,11.44,0.03,0.75,0.65,1.3,5.8,-1.3,36.44,,,,,,,,,,
14.53.59.555,4.0,1.0,0,1.0,,84208.2,11.88,0.03,0.76,0.65,0.8,4.7,-1.0,36.44,,,,,,,,,,
14.53.59.567,-32.8,8.2,0,1.0,,89953.9,11.12,0.03,0.75,0.65,0.7,5.9,-1.2,36.44,,,,,,,,,,
14.53.59.575,-24.4,6.1,0,1.0,,86373.0,11.58,0.03,0.75,0.66,0.8,5.6,-1.3,36.44,,,,,,,,,,
14.53.59.588,-34.8,8.7,0,1.0,,86655.3,11.54,0.03,0.74,0.66,1.0,6.0,-1.4,36.44,,,,,,,,,,
14.53.59.600,-50.9,12.7,0,1.0,,88071.3,11.35,0.03,0.73,0.65,0.8,5.6,-1.6,36.44,,,,,,,,,,
14.53.59.612,-31.9,8.0,0,1.0,,83420.5,11.99,0.02,0.74,0.65,1.2,5.8,-1.0,36.44,,,,,,,,,,
14.53.59.620,-56.5,14.1,0,1.0,,82681.9,12.09,0.03,0.74,0.65,1.3,4.6,-1.1,36.44,,,,,,,,,,
14.53.59.633,-48.1,12.0,0,1.0,,86956.2,11.5,0.03,0.75,0.66,2.2,5.8,-1.1,36.44,,,,,,,,,,
14.53.59.645,-6.1,1.5,0,1.0,,86687.6,11.54,0.03,0.75,0.65,1.7,6.3,-1.3,36.44,,,,,,,,,,
14.53.59.653,-52.1,13.0,0,1.0,,87028.7,11.49,0.03,0.76,0.65,1.0,5.1,-1.2,36.44,,,,,,,,,,
14.53.59.665,-62.8,15.7,0,1.0,,86238.0,11.6,0.04,0.75,0.65,0.9,6.6,-1.6,36.44,,,,,,,,,,
14.53.59.678,-58.8,14.7,0,1.0,,87771.0,11.39,0.03,0.75,0.65,0.1,5.8,-1.6,36.44,,,,,,,,,,
14.53.59.686,-66.9,16.7,0,1.0,,84316.4,11.86,0.03,0.74,0.65,-0.4,5.6,-1.5,36.44,,,,,,,,,,
14.53.59.698,-111.8,28.0,0,1.0,,87339.7,11.45,0.03,0.74,0.66,-0.4,6.4,-1.7,36.44,,,,,,,,,,
14.53.59.711,-94.5,23.6,0,1.0,,85167.8,11.74,0.03,0.74,0.66,-0.2,6.5,-1.7,36.44,,,,,,,,,,
14.53.59.719,-66.4,16.6,0,1.0,,85248.3,11.73,0.03,0.74,0.65,0.2,5.9,-1.6,36.44,,,,,,,,,,
14.53.59.731,-100.6,25.2,0,1.0,,85447.6,11.7,0.03,0.74,0.66,1.0,5.8,-1.4,36.44,,,,,,,,,,
14.53.59.743,-66.8,16.7,0,1.0,,85825.8,11.65,0.03,0.75,0.65,1.6,5.6,-1.2,36.44,,,,,,,,,,
14.53.59.752,-71.7,17.9,0,1.0,,83122.5,12.03,0.03,0.75,0.65,1.9,5.3,-1.1,36.44,,,,,,,,,,
14.53.59.764,-117.2,29.3,0,1.0,,85765.5,11.66,0.03,0.75,0.65,1.4,5.3,-1.0,36.44,,,,,,,,,,
14.53.59.776,-118.2,29.6,0,1.0,,87696.8,11.4,0.03,0.75,0.65,0.9,5.6,-1.2,36.44,,,,,,,,,,
14.53.59.784,-97.7,24.4,0,1.0,,85501.1,11.7,0.03,0.74,0.65,0.5,5.3,-0.9,36.44,,,,,,,,,,
14.53.59.797,-103.9,26.0,0,1.0,,84443.3,11.84,0.03,0.74,0.65,1.7,5.9,-1.1,36.44,,,,,,,,,,
14.53.59.838,-141.4,35.4,0,1.0,,86213.8,11.6,0.03,0.75,0.64,1.5,5.9,-1.0,36.38,,,,,,,,,,
14.53.59.846,-157.9,39.5,0,1.0,,83924.8,11.92,0.03,0.76,0.65,0.5,6.1,-1.4,36.38,,,,,,,,,,
14.53.59.858,-143.8,36.0,0,1.0,,86363.6,11.58,0.03,0.74,0.64,-0.1,6.6,-2.1,36.38,,,,,,,,,,
14.53.59.870,-192.6,48.2,0,1.0,,89107.6,11.22,0.03,0.74,0.65,-0.1,6.4,-1.7,36.38,,,,,,,,,,
14.53.59.878,-151.6,37.9,0,1.0,,88556.7,11.29,0.03,0.75,0.64,0.5,6.0,-1.3,36.38,,,,,,,,,,
14.53.59.891,69.6,17.4,1,2.0,79.7,90333.2,11.07,0.03,0.75,0.65,-0.5,6.4,-1.6,36.38,,,,,,,,,,
14.53.59.903,67.8,17.0,0,2.0,,85680.6,11.67,0.03,0.74,0.65,-0.6,6.2,-2.2,36.38,,,,,,,,,,
14.53.59.911,123.8,31.0,0,2.0,,86808.3,11.52,0.04,0.75,0.66,0.7,5.7,-1.1,36.38,,,,,,,,,,
14.53.59.924,215.7,53.9,0,2.0,,86994.2,11.5,0.03,0.75,0.65,2.0,6.8,-1.0,36.38,,,,,,,,,,
14.53.59.936,256.8,64.2,0,2.0,,84876.0,11.78,0.02,0.75,0.65,1.2,5.1,-1.7,36.38,,,,,,,,,,
14.53.59.944,282.2,70.6,0,2.0,,83852.2,11.93,0.03,0.75,0.66,0.9,5.6,-1.5,36.38,,,,,,,,,,
14.53.59.956,314.0,78.5,0,2.0,,84886.3,11.78,0.03,0.75,0.64,1.2,6.0,-1.2,36.38,,,,,,,,,,
14.53.59.969,332.4,83.1,0,2.0,,91981.7,10.87,0.02,0.75,0.65,0.2,5.7,-1.6,36.38,,,,,,,,,,
14.53.59.977,320.4,80.1,0,2.0,,89780.6,11.14,0.03,0.75,0.65,-0.4,5.8,-1.6,36.38,,,,,,,,,,
14.53.59.989,434.0,108.5,0,2.0,,84320.4,11.86,0.03,0.74,0.66,-0.6,6.5,-1.5,36.38,,,,,,,,,,
14.54.00.001,384.9,96.2,0,2.0,,86934.0,11.5,0.03,0.74,0.66,0.4,5.9,-1.2,36.38,,,,,,,,,,
14.54.00.010,353.7,88.4,0,2.0,,86201.1,11.6,0.03,0.75,0.66,2.0,5.5,-0.6,36.38,,,,,,,,,,
14.54.00.022,442.6,110.6,0,2.0,,85309.5,11.72,0.04,0.75,0.65,2.5,5.7,-1.2,36.38,,,,,,,,,,
14.54.00.034,437.1,109.3,0,2.0,,86533.8,11.56,0.04,0.75,0.65,1.6,5.8,-1.2,36.38,,,,,,,,,,
14.54.00.043,392.8,98.2,0,2.0,,86924.6,11.5,0.02,0.75,0.64,1.2,4.7,-1.3,36.38,,,,,,,,,,
14.54.00.055,404.2,101.0,0,2.0,,91797.5,10.89,0.03,0.75,0.65,0.2,6.0,-1.5,36.38,,,,,,,,,,
14.54.00.063,380.5,95.1,0,2.0,,88084.6,11.35,0.03,0.75,0.65,-0.8,6.0,-2.0,36.38,,,,,,,,,,
14.54.00.075,303.2,75.8,0,2.0,,87998.1,11.36,0.03,0.74,0.66,-0.9,6.1,-1.6,36.38,,,,,,,,,,
14.54.00.087,294.4,73.6,0,2.0,,87551.2,11.42,0.03,0.73,0.66,0.7,6.2,-1.6,36.38,,,,,,,,,,
14.54.00.096,252.1,63.0,0,2.0,,89780.6,11.14,0.03,0.75,0.65,2.2,5.3,-0.8,36.38,,,,,,,,,,
14.54.00.108,213.1,53.3,0,2.0,,85372.2,11.71,0.03,0.75,0.65,2.2,5.5,-0.9,36.38,,,,,,,,,,
14.54.00.120,158.1,39.5,0,2.0,,85619.1,11.68,0.03,0.75,0.64,1.2,6.2,-1.5,36.38,,,,,,,,,,
14.54.00.128,134.1,33.5,0,2.0,,86333.6,11.58,0.03,0.75,0.65,0.6,5.5,-0.9,36.38,,,,,,,,,,
14.54.00.141,54.3,13.6,0,2.0,,89186.4,11.21,0.03,0.75,0.64,1.4,6.4,-1.0,36.38,,,,,,,,,,
14.54.00.153,-10.3,2.6,0,2.0,,86125.7,11.61,0.03,0.75,0.65,0.4,5.4,-1.4,36.38,,,,,,,,,,
14.54.00.161,19.4,4.8,0,2.0,,83686.2,11.95,0.03,0.74,0.65,-0.2,5.6,-1.6,36.38,,,,,,,,,,
14.54.00.174,1.8,0.4,0,2.0,,87606.0,11.41,0.03,0.74,0.66,1.2,5.5,-0.9,36.38,,,,,,,,,,
14.54.00.186,45.2,11.3,0,2.0,,88629.1,11.28,0.03,0.74,0.65,2.4,5.8,-0.7,36.38,,,,,,,,,,
14.54.00.194,32.9,8.2,0,2.0,,83870.5,11.92,0.03,0.74,0.65,1.5,5.3,-1.3,36.38,,,,,,,,,,
14.54.00.206,64.0,16.0,0,2.0,,87877.1,11.38,0.03,0.76,0.65,1.3,5.4,-1.0,36.38,,,,,,,,,,
14.54.00.219,58.8,14.7,0,2.0,,88147.2,11.34,0.03,0.76,0.65,1.0,6.2,-1.1,36.38,,,,,,,,,,
14.54.00.227,97.5,24.4,0,2.0,,86788.8,11.52,0.02,0.75,0.65,-1.6,6.3,-1.6,36.38,,,,,,,,,,
14.54.00.239,93.0,23.2,0,2.0,,88464.5,11.3,0.02,0.75,0.64,-3.5,7.3,-1.1,36.38,,,,,,,,,,
14.54.00.251,63.8,16.0,0,2.0,,89257.6,11.2,0.03,0.74,0.65,-2.6,8.3,-0.7,36.38,,,,,,,,,,
14.54.00.260,59.8,15.0,0,2.0,,87314.9,11.45,0.03,0.74,0.66,-3.1,6.4,-1.2,36.38,,,,,,,,,,
14.54.00.272,58.2,14.6,0,2.0,,88801.8,11.26,0.02,0.74,0.69,0.5,7.5,-1.2,36.38,,,,,,,,,,
14.54.00.284,-7.3,1.8,0,2.0,,85317.5,11.72,0.04,0.74,0.65,4.7,7.6,0.0,36.38,,,,,,,,,,
14.54.00.292,66.0,16.5,0,2.0,,84089.1,11.89,0.03,0.75,0.64,4.7,5.7,0.9,36.38,,,,,,,,,,
14.54.00.305,39.1,9.8,0,2.0,,90005.3,11.11,0.04,0.77,0.63,1.3,6.3,0.4,36.38,,,,,,,,,,
14.54.00.313,26.0,6.5,0,2.0,,85484.9,11.7,0.03,0.76,0.64,-2.6,7.5,-1.3,36.38,,,,,,,,,,
14.54.00.325,17.1,4.3,0,2.0,,86566.2,11.55,0.04,0.75,0.65,-3.3,7.9,-1.7,36.38,,,,,,,,,,
14.54.00.337,-1.0,0.2,0,2.0,,84773.4,11.8,0.03,0.74,0.66,-1.0,6.4,-1.8,36.38,,,,,,,,,,
14.54.00.350,-0.5,0.1,0,2.0,,84489.2,11.84,0.03,0.73,0.66,1.1,6.5,-1.7,36.38,,,,,,,,,,
14.54.00.358,-41.1,10.3,0,2.0,,87297.1,11.46,0.03,0.75,0.65,1.9,5.2,-1.6,36.38,,,,,,,,,,
14.54.00.370,-16.9,4.2,0,2.0,,86483.1,11.56,0.03,0.74,0.65,0.9,6.8,-1.8,36.38,,,,,,,,,,
14.54.00.382,-18.5,4.6,0,2.0,,86737.0,11.53,0.03,0.75,0.65,-0.1,6.3,-2.2,36.38,,,,,,,,,,
14.54.00.395,-36.5,9.1,0,2.0,,86814.9,11.52,0.04,0.76,0.65,0.4,5.7,-1.5,36.38,,,,,,,,,,
14.54.00.403,-46.6,11.6,0,2.0,,91030.9,10.99,0.04,0.75,0.66,1.0,6.0,-1.8,36.38,,,,,,,,,,
14.54.00.415,-48.0,12.0,0,2.0,,89726.1,11.15,0.03,0.75,0.65,0.4,6.8,-1.4,36.38,,,,,,,,,,
14.54.00.427,-57.6,14.4,0,2.0,,89962.4,11.12,0.03,0.75,0.65,-0.5,5.4,-2.0,36.38,,,,,,,,,,
14.54.00.436,-50.8,12.7,0,2.0,,82575.2,12.11,0.02,0.75,0.66,-1.7,6.2,-2.3,36.38,,,,,,,,,,
14.54.00.448,-85.4,21.4,0,2.0,,88278.7,11.33,0.02,0.74,0.65,-1.1,7.0,-2.0,36.38,,,,,,,,,,
14.54.00.460,-73.5,18.4,0,2.0,,83085.5,12.04,0.03,0.74,0.66,0.2,6.2,-1.6,36.38,,,,,,,,,,
14.54.00.472,-75.8,19.0,0,2.0,,85217.9,11.73,0.03,0.74,0.67,0.7,6.4,-2.0,36.38,,,,,,,,,,
14.54.00.481,-65.1,16.3,0,2.0,,90424.8,11.06,0.03,0.74,0.64,0.4,6.5,-1.6,36.38,,,,,,,,,,
14.54.00.493,-101.7,25.4,0,2.0,,89944.7,11.12,0.02,0.75,0.65,0.2,5.8,-1.5,36.38,,,,,,,,,,
14.54.00.505,-81.0,20.2,0,2.0,,88851.6,11.25,0.03,0.75,0.66,0.6,5.3,-0.8,36.38,,,,,,,,,,
14.54.00.518,-101.9,25.5,0,2.0,,88299.8,11.33,0.03,0.74,0.66,0.8,5.2,-1.0,36.38,,,,,,,,,,
14.54.00.526,-118.1,29.5,0,2.0,,87441.9,11.44,0.03,0.73,0.65,1.6,5.8,-1.2,36.38,,,,,,,,,,
14.54.00.538,-98.1,24.5,0,2.0,,87748.7,11.4,0.03,0.75,0.66,2.3,4.7,-0.4,36.38,,,,,,,,,,
14.54.00.550,-93.1,23.3,0,2.0,,89156.8,11.22,0.03,0.75,0.65,2.4,5.4,-0.2,36.38,,,,,,,,,,
14.54.00.559,-107.8,27.0,0,2.0,,83527.1,11.97,0.02,0.76,0.65,0.8,5.3,-1.0,36.38,,,,,,,,,,
14.54.00.571,-153.4,38.4,0,2.0,,87416.3,11.44,0.02,0.74,0.64,-0.5,5.8,-1.9,36.38,,,,,,,,,,
14.54.00.583,-110.3,27.6,0,2.0,,85100.7,11.75,0.02,0.74,0.66,0.2,5.8,-1.0,36.38,,,,,,,,,,
14.54.00.595,-106.0,26.5,0,2.0,,85949.7,11.63,0.03,0.74,0.66,0.4,6.2,-0.2,36.38,,,,,,,,,,
14.54.00.632,-150.9,37.7,0,2.0,,86327.3,11.58,0.03,0.75,0.66,-0.3,6.4,-0.8,36.44,,,,,,,,,,
14.54.00.645,-124.5,31.1,0,2.0,,86877.9,11.51,0.02,0.75,0.65,1.1,4.9,-0.5,36.44,,,,,,,,,,
14.54.00.653,-145.0,36.2,0,2.0,,85483.9,11.7,0.03,0.75,0.65,0.4,7.1,-0.4,36.44,,,,,,,,,,
14.54.00.665,44.9,11.2,1,3.0,78.8,81673.3,12.24,0.02,0.74,0.66,-0.3,5.8,-1.2,36.44,,,,,,,,,,
14.54.00.673,114.5,28.6,0,3.0,,86958.8,11.5,0.02,0.75,0.66,-0.6,6.5,-1.3,36.44,,,,,,,,,,
14.54.00.686,158.3,39.6,0,3.0,,85736.0,11.66,0.03,0.74,0.66,0.8,6.3,0.1,36.44,,,,,,,,,,
14.54.00.694,181.5,45.4,0,3.0,,86064.0,11.62,0.03,0.74,0.65,2.6,6.3,1.0,36.44,,,,,,,,,,
14.54.00.706,243.7,60.9,0,3.0,,88259.8,11.33,0.03,0.74,0.65,2.3,6.1,0.9,36.44,,,,,,,,,,
14.54.00.714,237.9,59.5,0,3.0,,87226.3,11.46,0.03,0.75,0.65,2.1,5.2,1.4,36.44,,,,,,,,,,
14.54.00.727,243.0,60.8,0,3.0,,87018.7,11.49,0.03,0.75,0.65,2.9,5.8,1.7,36.44,,,,,,,,,,
14.54.00.735,330.4,82.6,0,3.0,,86414.2,11.57,0.03,0.76,0.65,1.1,6.6,1.3,36.44,,,,,,,,,,
14.54.00.747,358.3,89.6,0,3.0,,86641.9,11.54,0.04,0.77,0.65,0.3,5.0,1.9,36.44,,,,,,,,,,
14.54.00.755,377.2,94.3,0,3.0,,84453.1,11.84,0.04,0.75,0.66,0.3,7.3,1.9,36.44,,,,,,,,,,
14.54.00.767,400.8,100.2,0,3.0,,87030.6,11.49,0.03,0.74,0.65,-0.1,6.4,1.3,36.44,,,,,,,,,,
14.54.00.776,374.3,93.6,0,3.0,,84721.8,11.8,0.03,0.74,0.66,1.9,6.3,1.6,36.44,,,,,,,,,,
14.54.00.788,424.9,106.2,0,3.0,,85466.0,11.7,0.03,0.73,0.65,2.4,5.5,1.7,36.44,,,,,,,,,,
14.54.00.800,358.2,89.6,0,3.0,,83809.6,11.93,0.03,0.74,0.65,2.0,4.5,1.7,36.44,,,,,,,,,,
14.54.00.808,365.8,91.4,0,3.0,,87873.8,11.38,0.03,0.75,0.65,1.5,6.6,0.8,36.44,,,,,,,,,,
14.54.00.821,396.9,99.2,0,3.0,,91043.1,10.98,0.04,0.74,0.65,-0.8,5.4,-0.4,36.44,,,,,,,,,,
14.54.00.833,319.7,79.9,0,3.0,,87900.2,11.38,0.04,0.78,0.65,-0.3,5.7,1.7,36.44,,,,,,,,,,
14.54.00.841,344.9,86.2,0,3.0,,80710.1,12.39,0.02,0.74,0.65,0.7,6.6,0.4,36.44,,,,,,,,,,
14.54.00.853,287.6,71.9,0,3.0,,87406.1,11.44,0.02,0.73,0.65,-0.7,7.1,-1.0,36.44,,,,,,,,,,
14.54.00.866,251.3,62.8,0,3.0,,86072.6,11.62,0.03,0.75,0.65,1.9,4.3,1.5,36.44,,,,,,,,,,
14.54.00.874,202.2,50.6,0,3.0,,87209.0,11.47,0.04,0.75,0.65,3.6,5.7,1.9,36.44,,,,,,,,,,
14.54.00.886,149.4,37.4,0,3.0,,89521.5,11.17,0.03,0.74,0.65,-0.5,6.8,-0.3,36.44,,,,,,,,,,
14.54.00.899,78.8,19.7,0,3.0,,87298.5,11.45,0.03,0.74,0.66,-2.4,6.2,-1.1,36.44,,,,,,,,,,
14.54.00.911,48.9,12.2,0,3.0,,88645.5,11.28,0.03,0.75,0.65,1.4,5.9,-0.5,36.44,,,,,,,,,,
14.54.00.919,51.8,13.0,0,3.0,,87644.6,11.41,0.03,0.75,0.66,1.9,6.1,0.1,36.44,,,,,,,,,,
14.54.00.931,-30.0,7.5,0,3.0,,84158.3,11.88,0.04,0.75,0.65,0.7,5.9,-0.3,36.44,,,,,,,,,,
14.54.00.944,34.6,8.6,0,3.0,,88664.6,11.28,0.04,0.74,0.65,0.2,5.8,-0.6,36.44,,,,,,,,,,
14.54.00.952,29.1,7.3,0,3.0,,88527.0,11.3,0.03,0.74,0.65,1.2,5.9,0.8,36.44,,,,,,,,,,
14.54.00.964,19.4,4.8,0,3.0,,86815.1,11.52,0.05,0.74,0.64,2.6,7.4,0.7,36.44,,,,,,,,,,
14.54.00.976,78.9,19.7,0,3.0,,88817.3,11.26,0.02,0.75,0.66,-0.9,6.9,0.2,36.44,,,,,,,,,,
14.54.00.985,23.2,5.8,0,3.0,,88551.7,11.29,0.04,0.76,0.66,-0.9,4.7,-0.5,36.44,,,,,,,,,,
14.54.00.997,64.3,16.1,0,3.0,,86496.6,11.56,0.03,0.75,0.65,0.7,7.4,-2.1,36.44,,,,,,,,,,
14.54.01.009,51.0,12.8,0,3.0,,85050.2,11.76,0.03,0.74,0.65,-0.2,4.9,-2.5,36.44,,,,,,,,,,
14.54.01.017,50.4,12.6,0,3.0,,85445.7,11.7,0.03,0.73,0.65,0.0,5.6,-2.1,36.44,,,,,,,,,,
14.54.01.030,46.7,11.7,0,3.0,,89529.1,11.17,0.04,0.73,0.65,0.0,6.3,-2.2,36.44,,,,,,,,,,
14.54.01.042,48.3,12.1,0,3.0,,85940.7,11.64,0.03,0.74,0.66,-0.1,5.3,-1.7,36.44,,,,,,,,,,
14.54.01.050,66.4,16.6,0,3.0,,88119.7,11.35,0.04,0.75,0.66,1.8,5.1,-0.5,36.44,,,,,,,,,,
14.54.01.062,11.1,2.8,0,3.0,,85489.9,11.7,0.04,0.76,0.66,3.1,6.2,0.1,36.44,,,,,,,,,,
14.54.01.075,-21.9,5.5,0,3.0,,86215.6,11.6,0.03,0.77,0.65,3.2,5.6,0.4,36.44,,,,,,,,,,
14.54.01.083,33.8,8.4,0,3.0,,88649.7,11.28,0.04,0.75,0.64,2.0,4.7,0.4,36.44,,,,,,,,,,
14.54.01.095,4.6,1.2,0,3.0,,88364.7,11.32,0.03,0.75,0.64,0.6,6.4,-0.2,36.44,,,,,,,,,,
14.54.01.108,-21.9,5.5,0,3.0,,86394.3,11.57,0.04,0.75,0.65,-1.3,5.3,-0.4,36.44,,,,,,,,,,
14.54.01.116,-1.3,0.3,0,3.0,,89869.2,11.13,0.04,0.74,0.66,-1.1,6.4,-0.6,36.44,,,,,,,,,,
14.54.01.128,-36.1,9.0,0,3.0,,85188.3,11.74,0.03,0.74,0.66,0.1,6.8,-0.9,36.44,,,,,,,,,,
14.54.01.140,-54.4,13.6,0,3.0,,84994.8,11.77,0.04,0.74,0.66,1.8,4.6,-0.7,36.44,,,,,,,,,,
14.54.01.148,-39.4,9.8,0,3.0,,86703.6,11.53,0.04,0.74,0.65,2.6,5.5,-1.2,36.44,,,,,,,,,,
14.54.01.161,-63.2,15.8,0,3.0,,88646.6,11.28,0.04,0.74,0.65,2.4,5.5,-1.9,36.44,,,,,,,,,,
14.54.01.173,-45.2,11.3,0,3.0,,91666.6,10.91,0.03,0.76,0.64,2.9,5.1,-0.9,36.44,,,,,,,,,,
14.54.01.181,-39.6,9.9,0,3.0,,83400.0,11.99,0.04,0.76,0.64,1.7,4.1,0.2,36.44,,,,,,,,,,
14.54.01.193,-64.1,16.0,0,3.0,,86959.2,11.5,0.05,0.76,0.64,-0.3,6.6,-1.2,36.44,,,,,,,,,,
14.54.01.206,-71.3,17.8,0,3.0,,89714.4,11.15,0.03,0.74,0.65,-3.1,7.4,-3.0,36.44,,,,,,,,,,
14.54.01.214,-75.8,19.0,0,3.0,,87267.0,11.46,0.03,0.74,0.66,-1.7,4.9,-1.5,36.44,,,,,,,,,,
14.54.01.226,-96.6,24.2,0,3.0,,85337.6,11.72,0.03,0.73,0.66,1.8,5.6,-0.3,36.44,,,,,,,,,,
14.54.01.235,-104.4,26.1,0,3.0,,86418.6,11.57,0.03,0.75,0.66,2.1,5.4,-0.2,36.44,,,,,,,,,,
14.54.01.247,-87.9,22.0,0,3.0,,86583.1,11.55,0.03,0.75,0.65,2.0,5.6,-0.1,36.44,,,,,,,,,,
14.54.01.259,-81.6,20.4,0,3.0,,90064.1,11.1,0.04,0.75,0.64,1.7,5.0,0.0,36.44,,,,,,,,,,
14.54.01.267,-64.1,16.0,0,3.0,,90072.5,11.1,0.04,0.73,0.64,0.8,6.5,-1.3,36.44,,,,,,,,,,
14.54.01.280,-102.8,25.7,0,3.0,,85144.5,11.74,0.04,0.74,0.65,-0.1,6.8,-1.5,36.44,,,,,,,,,,
14.54.01.292,-86.2,21.6,0,3.0,,90976.5,10.99,0.05,0.75,0.65,0.6,6.2,-0.8,36.44,,,,,,,,,,
14.54.01.300,-111.9,28.0,0,3.0,,85770.5,11.66,0.04,0.76,0.65,0.4,6.1,-1.5,36.44,,,,,,,,,,
14.54.01.312,-110.4,27.6,0,3.0,,87628.5,11.41,0.04,0.75,0.65,-0.8,5.8,-2.8,36.44,,,,,,,,,,
14.54.01.325,-99.2,24.8,0,3.0,,87732.7,11.4,0.03,0.74,0.65,-1.1,5.5,-3.3,36.44,,,,,,,,,,
14.54.01.333,-115.6,28.9,0,3.0,,85416.3,11.71,0.03,0.73,0.65,-0.5,5.7,-2.8,36.44,,,,,,,,,,
14.54.01.345,-166.5,41.6,0,3.0,,88826.3,11.26,0.03,0.73,0.66,-0.9,5.2,-2.7,36.44,,,,,,,,,,
14.54.01.353,-114.0,28.5,0,3.0,,83649.3,11.95,0.04,0.74,0.66,-0.7,5.9,-2.3,36.44,,,,,,,,,,
14.54.01.366,-144.0,36.0,0,3.0,,87857.9,11.38,0.03,0.74,0.67,0.9,6.3,-1.5,36.44,,,,,,,,,,
14.54.01.378,-143.5,35.9,0,3.0,,88602.2,11.29,0.03,0.75,0.68,3.3,5.3,0.5,36.44,,,,,,,,,,
14.54.01.386,-129.4,32.4,0,3.0,,88318.6,11.32,0.04,0.76,0.65,5.3,5.3,1.4,36.44,,,,,,,,,,
14.54.01.399,-165.5,41.4,0,3.0,,90153.2,11.09,0.04,0.76,0.64,3.8,5.1,0.3,36.44,,,,,,,,,,
14.54.01.439,100.0,25.0,1,4.0,74.7,86750.8,11.53,0.04,0.75,0.66,-1.7,7.0,-2.3,36.38,,,,,,,,,,
14.54.01.448,109.1,27.3,0,4.0,,82227.7,12.16,0.04,0.75,0.65,-1.3,6.8,-2.8,36.38,,,,,,,,,,
14.54.01.460,126.6,31.6,0,4.0,,90502.9,11.05,0.04,0.75,0.66,-0.4,6.5,-2.7,36.38,,,,,,,,,,
14.54.01.468,183.0,45.8,0,4.0,,86269.3,11.59,0.04,0.75,0.65,0.8,6.1,-2.5,36.38,,,,,,,,,,
14.54.01.480,236.1,59.0,0,4.0,,85892.8,11.64,0.03,0.73,0.65,1.0,5.6,-2.8,36.38,,,,,,,,,,
14.54.01.493,291.5,72.9,0,4.0,,84842.1,11.79,0.03,0.75,0.65,-0.3,5.2,-2.0,36.38,,,,,,,,,,
14.54.01.501,342.4,85.6,0,4.0,,83833.9,11.93,0.04,0.76,0.65,-0.3,6.0,-1.4,36.38,,,,,,,,,,
14.54.01.513,351.7,87.9,0,4.0,,83051.7,12.04,0.04,0.75,0.65,-2.0,6.4,-1.9,36.38,,,,,,,,,,
14.54.01.525,401.0,100.2,0,4.0,,87260.8,11.46,0.03,0.74,0.66,-3.0,5.9,-2.7,36.38,,,,,,,,,,
14.54.01.534,369.7,92.4,0,4.0,,89298.6,11.2,0.03,0.73,0.66,-1.5,7.0,-2.5,36.38,,,,,,,,,,
14.54.01.546,418.4,104.6,0,4.0,,85823.9,11.65,0.03,0.73,0.65,0.3,6.5,-2.2,36.38,,,,,,,,,,
14.54.01.554,421.1,105.3,0,4.0,,87714.9,11.4,0.02,0.75,0.66,1.6,5.6,-1.5,36.38,,,,,,,,,,
14.54.01.566,346.2,86.6,0,4.0,,90589.2,11.04,0.03,0.74,0.64,2.1,5.1,-0.9,36.38,,,,,,,,,,
14.54.01.579,372.0,93.0,0,4.0,,87138.4,11.48,0.04,0.76,0.66,1.1,5.4,-0.4,36.38,,,,,,,,,,
14.54.01.587,341.7,85.4,0,4.0,,84671.0,11.81,0.03,0.75,0.65,1.0,7.1,-0.4,36.38,,,,,,,,,,
14.54.01.599,366.6,91.6,0,4.0,,87374.5,11.44,0.03,0.75,0.65,0.1,6.0,-0.9,36.38,,,,,,,,,,
14.54.01.607,323.3,80.8,0,4.0,,85223.0,11.73,0.03,0.74,0.66,0.0,4.7,-0.9,36.38,,,,,,,,,,
14.54.01.620,304.8,76.2,0,4.0,,87989.4,11.37,0.04,0.74,0.66,0.9,6.6,-1.2,36.38,,,,,,,,,,
14.54.01.632,293.6,73.4,0,4.0,,84856.6,11.78,0.03,0.74,0.66,0.5,5.5,-1.9,36.38,,,,,,,,,,
14.54.01.640,205.5,51.4,0,4.0,,83401.9,11.99,0.04,0.74,0.65,0.1,4.6,-1.9,36.38,,,,,,,,,,
14.54.01.652,191.9,48.0,0,4.0,,89129.6,11.22,0.04,0.74,0.65,0.3,6.5,-1.9,36.38,,,,,,,,,,
14.54.01.661,136.7,34.2,0,4.0,,87312.2,11.45,0.04,0.75,0.66,-0.5,6.7,-2.6,36.38,,,,,,,,,,
14.54.01.673,113.9,28.5,0,4.0,,88230.4,11.33,0.04,0.75,0.66,-0.5,6.5,-2.9,36.38,,,,,,,,,,
14.54.01.685,24.6,6.2,0,4.0,,85264.6,11.73,0.03,0.74,0.66,1.7,4.8,-2.5,36.38,,,,,,,,,,
14.54.01.693,11.2,2.8,0,4.0,,83470.6,11.98,0.04,0.75,0.66,3.1,3.7,-1.6,36.38,,,,,,,,,,
14.54.01.706,37.0,9.2,0,4.0,,88909.3,11.25,0.03,0.74,0.65,1.9,4.7,-2.2,36.38,,,,,,,,,,
14.54.01.714,37.9,9.5,0,4.0,,89137.8,11.22,0.04,0.74,0.64,-0.4,5.1,-3.0,36.38,,,,,,,,,,
14.54.01.726,54.0,13.5,0,4.0,,84887.0,11.78,0.03,0.75,0.66,-1.7,4.9,-2.4,36.38,,,,,,,,,,
14.54.01.739,38.4,9.6,0,4.0,,89388.1,11.19,0.03,0.75,0.66,-0.8,6.3,-1.5,36.38,,,,,,,,,,
14.54.01.747,56.3,14.1,0,4.0,,87164.7,11.47,0.03,0.75,0.66,-0.2,6.9,-1.5,36.38,,,,,,,,,,
14.54.01.759,71.4,17.8,0,4.0,,86476.5,11.56,0.02,0.74,0.66,0.8,4.9,-0.6,36.38,,,,,,,,,,
14.54.01.771,94.3,23.6,0,4.0,,84984.6,11.77,0.03,0.74,0.66,3.6,5.4,0.7,36.38,,,,,,,,,,
14.54.01.779,62.5,15.6,0,4.0,,88242.4,11.33,0.04,0.73,0.65,4.5,5.0,0.0,36.38,,,,,,,,,,
14.54.01.792,57.1,14.3,0,4.0,,88049.6,11.36,0.03,0.73,0.65,3.0,5.3,-1.0,36.38,,,,,,,,,,
14.54.01.800,70.1,17.5,0,4.0,,87917.5,11.37,0.04,0.75,0.64,2.2,5.9,-1.0,36.38,,,,,,,,,,
14.54.01.812,34.0,8.5,0,4.0,,81906.4,12.21,0.05,0.77,0.66,1.3,4.4,-1.2,36.38,,,,,,,,,,
14.54.01.825,57.0,14.2,0,4.0,,85857.8,11.65,0.04,0.76,0.65,0.3,6.7,-2.5,36.38,,,,,,,,,,
14.54.01.833,36.8,9.2,0,4.0,,87147.9,11.47,0.03,0.75,0.64,-0.6,5.7,-2.9,36.38,,,,,,,,,,
14.54.01.845,9.0,2.2,0,4.0,,87105.8,11.48,0.03,0.74,0.65,0.3,4.3,-2.4,36.38,,,,,,,,,,
14.54.01.853,-24.6,6.2,0,4.0,,83499.4,11.98,0.03,0.74,0.66,0.7,6.0,-2.2,36.38,,,,,,,,,,
14.54.01.865,16.4,4.1,0,4.0,,87896.8,11.38,0.03,0.74,0.65,0.0,5.1,-2.7,36.38,,,,,,,,,,
14.54.01.878,-11.3,2.8,0,4.0,,89126.5,11.22,0.03,0.74,0.65,-0.3,4.9,-2.4,36.38,,,,,,,,,,
14.54.01.886,10.5,2.6,0,4.0,,82851.7,12.07,0.03,0.76,0.65,0.7,6.2,-1.8,36.38,,,,,,,,,,
14.54.01.898,-10.0,2.5,0,4.0,,87133.4,11.48,0.03,0.75,0.65,1.2,5.5,-1.3,36.38,,,,,,,,,,
14.54.01.906,-37.6,9.4,0,4.0,,84570.2,11.82,0.03,0.75,0.66,1.6,5.6,-0.6,36.38,,,,,,,,,,
14.54.01.919,-20.1,5.0,0,4.0,,87121.2,11.48,0.03,0.74,0.66,2.1,5.0,-0.5,36.38,,,,,,,,,,
14.54.01.931,-31.1,7.8,0,4.0,,84383.8,11.85,0.04,0.73,0.65,2.2,5.8,-1.4,36.38,,,,,,,,,,
14.54.01.939,-36.5,9.1,0,4.0,,86877.9,11.51,0.03,0.74,0.64,1.9,5.6,-1.6,36.38,,,,,,,,,,
14.54.01.951,-50.5,12.6,0,4.0,,86792.2,11.52,0.04,0.75,0.65,0.8,5.7,-1.1,36.38,,,,,,,,,,
14.54.01.964,-31.5,7.9,0,4.0,,90770.0,11.02,0.04,0.77,0.65,0.6,5.5,-1.3,36.38,,,,,,,,,,
14.54.01.972,-69.3,17.3,0,4.0,,89327.0,11.19,0.03,0.75,0.65,0.3,6.8,-1.4,36.38,,,,,,,,,,
14.54.01.984,-36.4,9.1,0,4.0,,90517.1,11.05,0.03,0.75,0.65,0.5,5.1,-1.1,36.38,,,,,,,,,,
14.54.01.996,-90.3,22.6,0,4.0,,84969.7,11.77,0.04,0.74,0.64,1.8,5.7,-1.1,36.38,,,,,,,,,,
14.54.02.005,-100.0,25.0,0,4.0,,82534.5,12.12,0.03,0.75,0.65,0.1,6.5,-1.2,36.38,,,,,,,,,,
14.54.02.017,-27.5,6.9,0,4.0,,83765.5,11.94,0.04,0.74,0.63,0.4,5.9,-1.7,36.38,,,,,,,,,,
14.54.02.029,-91.0,22.8,0,4.0,,84722.5,11.8,0.03,0.74,0.66,1.0,5.8,-0.9,36.38,,,,,,,,,,
14.54.02.037,-129.1,32.3,0,4.0,,86996.6,11.49,0.03,0.76,0.66,1.9,5.8,-0.4,36.38,,,,,,,,,,
14.54.02.050,-111.1,27.8,0,4.0,,90521.6,11.05,0.04,0.74,0.65,1.7,5.7,-1.0,36.38,,,,,,,,,,
14.54.02.062,-114.7,28.7,0,4.0,,86674.6,11.54,0.03,0.75,0.66,0.9,5.2,-0.7,36.38,,,,,,,,,,
14.54.02.070,-112.9,28.2,0,4.0,,87769.5,11.39,0.04,0.74,0.65,1.4,6.6,-1.1,36.38,,,,,,,,,,
14.54.02.082,-129.8,32.4,0,4.0,,88787.9,11.26,0.04,0.75,0.65,0.4,4.8,-1.5,36.38,,,,,,,,,,
14.54.02.095,-89.8,22.4,0,4.0,,85761.8,11.66,0.04,0.76,0.66,-0.4,6.1,-2.0,36.38,,,,,,,,,,
14.54.02.107,-114.4,28.6,0,4.0,,87102.6,11.48,0.03,0.76,0.66,-1.2,6.2,-2.0,36.38,,,,,,,,,,
14.54.02.115,-103.6,25.9,0,4.0,,84381.2,11.85,0.05,0.73,0.63,1.7,5.4,-2.5,36.38,,,,,,,,,,
14.54.02.128,-149.4,37.4,0,4.0,,82251.8,12.16,0.02,0.74,0.66,0.7,6.3,-2.2,36.38,,,,,,,,,,
14.54.02.140,-136.7,34.2,0,4.0,,87374.4,11.45,0.04,0.76,0.65,-0.1,4.6,-1.2,36.38,,,,,,,,,,
14.54.02.148,-116.9,29.2,0,4.0,,86939.4,11.5,0.04,0.75,0.65,0.9,5.8,-0.9,36.38,,,,,,,,,,
14.54.02.160,-142.7,35.7,0,4.0,,87213.0,11.47,0.03,0.74,0.66,-0.1,5.3,-1.0,36.38,,,,,,,,,,
14.54.02.173,-165.2,41.3,0,4.0,,89101.3,11.22,0.03,0.74,0.66,0.7,5.0,-0.6,36.38,,,,,,,,,,
14.54.02.181,-156.0,39.0,0,4.0,,89978.3,11.11,0.03,0.73,0.65,1.8,6.6,-0.9,36.38,,,,,,,,,,
14.54.02.193,-203.7,50.9,0,4.0,,86648.6,11.54,0.03,0.73,0.64,1.1,6.3,-1.5,36.38,,,,,,,,,,
14.54.02.205,15.5,3.9,1,5.0,76.2,84738.8,11.8,0.03,0.75,0.65,0.9,5.3,-1.4,36.38,,,,,,,,,,
14.54.02.247,236.7,59.2,0,5.0,,85107.8,11.75,0.04,0.75,0.65,0.1,6.3,-2.0,36.44,,,,,,,,,,
14.54.02.255,214.0,53.5,0,5.0,,83252.7,12.01,0.03,0.74,0.67,-0.9,6.9,-2.1,36.44,,,,,,,,,,
14.54.02.267,279.3,69.8,0,5.0,,90481.6,11.05,0.04,0.75,0.64,-0.1,4.4,-1.6,36.44,,,,,,,,,,
14.54.02.279,321.1,80.3,0,5.0,,84374.6,11.85,0.04,0.74,0.65,0.3,5.9,-2.4,36.44,,,,,,,,,,
14.54.02.287,405.8,101.4,0,5.0,,87127.5,11.48,0.03,0.75,0.67,-0.5,6.4,-2.2,36.44,,,,,,,,,,
14.54.02.300,410.7,102.7,0,5.0,,83164.0,12.02,0.04,0.75,0.64,1.2,5.7,-1.6,36.44,,,,,,,,,,
14.54.02.312,349.5,87.4,0,5.0,,87272.7,11.46,0.03,0.75,0.66,0.1,5.7,-1.5,36.44,,,,,,,,,,
14.54.02.320,411.3,102.8,0,5.0,,86147.6,11.61,0.03,0.75,0.65,-0.3,5.5,-2.3,36.44,,,,,,,,,,
14.54.02.333,370.1,92.5,0,5.0,,83266.7,12.01,0.04,0.75,0.65,0.0,5.8,-2.0,36.44,,,,,,,,,,
14.54.02.345,359.3,89.8,0,5.0,,84644.8,11.81,0.03,0.75,0.65,0.7,5.5,-1.6,36.44,,,,,,,,,,
14.54.02.353,356.9,89.2,0,5.0,,84821.5,11.79,0.04,0.75,0.65,0.5,5.2,-1.7,36.44,,,,,,,,,,
14.54.02.365,346.0,86.5,0,5.0,,87555.9,11.42,0.03,0.74,0.66,-0.7,5.4,-1.5,36.44,,,,,,,,,,
14.54.02.377,355.9,89.0,0,5.0,,88300.8,11.32,0.03,0.76,0.66,-0.6,4.2,-1.4,36.44,,,,,,,,,,
14.54.02.386,327.1,81.8,0,5.0,,87478.5,11.43,0.04,0.72,0.63,1.5,7.0,-3.0,36.44,,,,,,,,,,
14.54.02.398,323.8,81.0,0,5.0,,86723.9,11.53,0.02,0.75,0.66,-0.3,5.4,-2.5,36.44,,,,,,,,,,
14.54.02.410,226.8,56.7,0,5.0,,87441.7,11.44,0.04,0.76,0.65,1.2,3.7,-1.4,36.44,,,,,,,,,,
14.54.02.418,195.5,48.9,0,5.0,,84798.0,11.79,0.04,0.74,0.65,2.2,6.7,-2.0,36.44,,,,,,,,,,
14.54.02.431,173.6,43.4,0,5.0,,87119.5,11.48,0.02,0.74,0.66,0.5,4.9,-1.7,36.44,,,,,,,,,,
14.54.02.443,126.3,31.6,0,5.0,,86397.3,11.57,0.04,0.75,0.65,0.6,4.3,-1.0,36.44,,,,,,,,,,
14.54.02.451,80.1,20.0,0,5.0,,86317.2,11.59,0.05,0.74,0.64,1.5,6.9,-1.2,36.44,,,,,,,,,,
14.54.02.463,-1.3,0.3,0,5.0,,87177.6,11.47,0.03,0.74,0.66,0.0,5.6,-2.5,36.44,,,,,,,,,,
14.54.02.476,16.2,4.0,0,5.0,,83846.7,11.93,0.04,0.75,0.66,-0.2,4.3,-2.1,36.44,,,,,,,,,,
14.54.02.484,11.0,2.8,0,5.0,,83625.8,11.96,0.04,0.76,0.65,1.8,5.3,-1.3,36.44,,,,,,,,,,
14.54.02.496,26.5,6.6,0,5.0,,88467.0,11.3,0.03,0.75,0.64,1.8,5.1,-1.7,36.44,,,,,,,,,,
14.54.02.509,63.4,15.8,0,5.0,,85544.3,11.69,0.03,0.76,0.67,-2.0,2.6,-2.0,36.44,,,,,,,,,,
14.54.02.517,78.1,19.5,0,5.0,,88359.1,11.32,0.05,0.77,0.65,0.1,3.5,-1.0,36.44,,,,,,,,,,
14.54.02.529,72.9,18.2,0,5.0,,86484.0,11.56,0.04,0.66,0.61,2.5,9.5,-4.7,36.44,,,,,,,,,,
14.54.02.541,73.2,18.3,0,5.0,,86639.6,11.54,0.0,0.74,0.68,-2.9,2.0,-1.4,36.44,,,,,,,,,,
14.54.02.549,85.9,21.5,0,5.0,,89628.7,11.16,0.06,0.78,0.67,1.3,2.9,0.6,36.44,,,,,,,,,,
14.54.02.562,79.1,19.8,0,5.0,,86877.4,11.51,0.04,0.73,0.66,2.0,10.4,-2.7,36.44,,,,,,,,,,
14.54.02.574,38.2,9.6,0,5.0,,85488.9,11.7,0.02,0.76,0.67,-0.4,3.8,-2.7,36.44,,,,,,,,,,
14.54.02.583,26.2,6.6,0,5.0,,85742.4,11.66,0.04,0.73,0.63,4.9,3.1,-1.2,36.44,,,,,,,,,,
14.54.02.595,19.5,4.9,0,5.0,,88076.9,11.35,0.03,0.74,0.64,4.1,4.5,-0.6,36.44,,,,,,,,,,
14.54.02.607,42.9,10.7,0,5.0,,83625.9,11.96,0.03,0.78,0.65,-0.2,4.2,-1.2,36.44,,,,,,,,,,
14.54.02.615,22.1,5.5,0,5.0,,85031.4,11.76,0.05,0.75,0.64,-2.5,4.8,-2.9,36.44,,,,,,,,,,
14.54.02.627,12.7,3.2,0,5.0,,83686.7,11.95,0.03,0.74,0.66,-4.0,4.6,-4.1,36.44,,,,,,,,,,
14.54.02.640,-0.1,0.0,0,5.0,,85220.5,11.73,0.03,0.75,0.66,-1.6,6.3,-3.9,36.44,,,,,,,,,,
14.54.02.652,-23.7,5.9,0,5.0,,86294.7,11.59,0.03,0.73,0.65,-0.6,5.3,-3.3,36.44,,,,,,,,,,
14.54.02.664,-22.1,5.5,0,5.0,,85859.2,11.65,0.03,0.74,0.66,0.9,3.9,-2.3,36.44,,,,,,,,,,
14.54.02.672,-5.9,1.5,0,5.0,,83815.3,11.93,0.03,0.75,0.66,2.7,4.5,-0.6,36.44,,,,,,,,,,
14.54.02.685,-36.1,9.0,0,5.0,,86870.2,11.51,0.04,0.75,0.65,2.7,5.1,-0.7,36.44,,,,,,,,,,
14.54.02.693,-10.6,2.6,0,5.0,,87463.7,11.43,0.04,0.75,0.66,0.9,4.6,-1.4,36.44,,,,,,,,,,
14.54.02.705,-71.2,17.8,0,5.0,,87078.4,11.48,0.03,0.75,0.66,-0.3,5.5,-2.1,36.44,,,,,,,,,,
14.54.02.713,-46.9,11.7,0,5.0,,89760.2,11.14,0.04,0.75,0.65,0.4,5.0,-2.1,36.44,,,,,,,,,,
14.54.02.726,-85.9,21.5,0,5.0,,88178.7,11.34,0.03,0.74,0.66,0.2,5.1,-2.2,36.44,,,,,,,,,,
14.54.02.734,-40.2,10.0,0,5.0,,85946.9,11.64,0.03,0.75,0.66,-0.1,4.6,-2.3,36.44,,,,,,,,,,
14.54.02.746,-57.8,14.4,0,5.0,,93721.6,10.67,-0.01,0.71,0.63,-0.6,7.3,-2.1,36.44,,,,,,,,,,
14.54.02.754,-34.0,8.5,0,5.0,,83753.3,11.94,0.06,0.76,0.69,3.5,2.1,0.5,36.44,,,,,,,,,,
14.54.02.767,-68.5,17.1,0,5.0,,84717.7,11.8,0.04,0.72,0.64,5.7,7.2,-1.5,36.44,,,,,,,,,,
14.54.02.775,-55.8,14.0,0,5.0,,85920.9,11.64,0.02,0.74,0.64,-0.6,9.4,-1.9,36.44,,,,,,,,,,
14.54.02.787,-68.9,17.2,0,5.0,,82772.2,12.08,0.04,0.77,0.66,-0.8,0.5,-1.8,36.44,,,,,,,,,,
14.54.02.795,-89.2,22.3,0,5.0,,90046.8,11.11,0.04,0.73,0.65,1.1,8.0,-1.3,36.44,,,,,,,,,,
14.54.02.808,-73.3,18.3,0,5.0,,84269.1,11.87,0.03,0.74,0.66,-0.2,7.5,-2.5,36.44,,,,,,,,,,
14.54.02.816,-93.3,23.3,0,5.0,,84828.4,11.79,0.04,0.76,0.64,1.2,4.6,-1.1,36.44,,,,,,,,,,
14.54.02.828,-85.5,21.4,0,5.0,,86682.5,11.54,0.04,0.73,0.66,3.0,5.4,-1.0,36.44,,,,,,,,,,
14.54.02.836,-110.1,27.5,0,5.0,,87467.0,11.43,0.02,0.76,0.64,2.3,6.4,-1.1,36.44,,,,,,,,,,
14.54.02.849,-100.9,25.2,0,5.0,,84155.1,11.88,0.03,0.76,0.64,0.2,4.1,-1.9,36.44,,,,,,,,,,
14.54.02.857,-84.0,21.0,0,5.0,,84427.7,11.84,0.03,0.73,0.66,-2.0,4.0,-2.4,36.44,,,,,,,,,,
14.54.02.869,-121.9,30.5,0,5.0,,86943.9,11.5,0.04,0.74,0.67,-1.8,8.7,-1.8,36.44,,,,,,,,,,
14.54.02.877,-117.8,29.4,0,5.0,,86785.5,11.52,0.03,0.74,0.66,-0.1,7.7,-1.8,36.44,,,,,,,,,,
14.54.02.890,-143.6,35.9,0,5.0,,89571.1,11.16,0.02,0.74,0.66,1.1,4.4,-1.9,36.44,,,,,,,,,,
14.54.02.898,-133.6,33.4,0,5.0,,87374.6,11.44,0.04,0.75,0.65,2.7,4.8,-0.9,36.44,,,,,,,,,,
14.54.02.910,-123.0,30.8,0,5.0,,87426.6,11.44,0.04,0.76,0.64,3.9,6.9,-0.8,36.44,,,,,,,,,,
14.54.02.918,-144.3,36.1,0,5.0,,87560.6,11.42,0.04,0.76,0.64,2.2,4.8,-0.9,36.44,,,,,,,,,,
14.54.02.931,-146.4,36.6,0,5.0,,86936.4,11.5,0.04,0.75,0.65,0.2,3.8,-1.1,36.44,,,,,,,,,,
14.54.02.939,-144.4,36.1,0,5.0,,84229.8,11.87,0.04,0.75,0.65,-0.2,6.7,-1.6,36.44,,,,,,,,,,
14.54.02.951,-141.4,35.4,0,5.0,,86926.0,11.5,0.03,0.74,0.65,-1.1,7.5,-1.8,36.44,,,,,,,,,,
14.54.02.959,-126.9,31.7,0,5.0,,85897.2,11.64,0.03,0.74,0.66,-1.3,5.6,-2.0,36.44,,,,,,,,,,
14.54.02.972,8.2,2.0,1,6.0,73.4,83746.4,11.94,0.03,0.74,0.66,0.5,5.6,-1.8,36.44,,,,,,,,,,
14.54.02.980,34.3,8.6,0,6.0,,86927.7,11.5,0.03,0.74,0.65,1.3,6.4,-1.5,36.44,,,,,,,,,,
14.54.02.992,125.8,31.4,0,6.0,,84435.1,11.84,0.04,0.75,0.65,1.9,6.9,-1.4,36.44,,,,,,,,,,
14.54.03.000,98.5,24.6,0,6.0,,88651.2,11.28,0.04,0.75,0.64,0.2,4.4,-1.5,36.44,,,,,,,,,,
14.54.03.012,199.3,49.8,0,6.0,,85691.8,11.67,0.04,0.75,0.65,0.5,5.6,-1.2,36.44,,,,,,,,,,
14.54.03.049,275.2,68.8,0,6.0,,88973.7,11.24,0.03,0.75,0.66,0.4,6.8,-1.4,36.44,,,,,,,,,,
14.54.03.058,330.3,82.6,0,6.0,,85243.3,11.73,0.03,0.74,0.65,1.4,6.4,-1.3,36.44,,,,,,,,,,
14.54.03.070,347.7,86.9,0,6.0,,87376.9,11.44,0.03,0.74,0.65,1.2,5.2,-1.1,36.44,,,,,,,,,,
14.54.03.078,406.3,101.6,0,6.0,,86437.0,11.57,0.03,0.74,0.65,1.0,5.2,-0.9,36.44,,,,,,,,,,
14.54.03.090,429.2,107.3,0,6.0,,84982.6,11.77,0.04,0.75,0.64,0.9,5.8,-1.0,36.44,,,,,,,,,,
14.54.03.099,437.8,109.4,0,6.0,,86242.9,11.6,0.04,0.75,0.65,-0.1,6.7,-1.0,36.44,,,,,,,,,,
14.54.03.111,393.2,98.3,0,6.0,,86803.9,11.52,0.04,0.75,0.65,-1.1,6.3,-2.0,36.44,,,,,,,,,,
14.54.03.123,394.2,98.6,0,6.0,,87200.2,11.47,0.03,0.74,0.64,-1.7,6.5,-1.7,36.44,,,,,,,,,,
14.54.03.131,374.2,93.6,0,6.0,,83644.9,11.96,0.03,0.75,0.65,-1.0,6.7,-1.4,36.44,,,,,,,,,,
14.54.03.144,411.1,102.8,0,6.0,,87805.2,11.39,0.03,0.74,0.66,-0.6,6.7,-1.7,36.44,,,,,,,,,,
14.54.03.152,374.8,93.7,0,6.0,,86677.3,11.54,0.03,0.74,0.65,-0.3,6.7,-2.2,36.44,,,,,,,,,,
14.54.03.164,298.4,74.6,0,6.0,,87173.3,11.47,0.03,0.73,0.65,-0.3,7.0,-2.9,36.44,,,,,,,,,,
14.54.03.172,329.0,82.2,0,6.0,,84955.6,11.77,0.03,0.74,0.65,-0.7,7.3,-2.6,36.44,,,,,,,,,,
14.54.03.185,268.1,67.0,0,6.0,,83774.4,11.94,0.03,0.75,0.66,0.1,7.3,-1.4,36.44,,,,,,,,,,
14.54.03.193,206.5,51.6,0,6.0,,84815.4,11.79,0.03,0.74,0.65,1.0,6.5,-0.6,36.44,,,,,,,,,,
14.54.03.205,173.2,43.3,0,6.0,,88483.4,11.3,0.03,0.76,0.65,1.1,6.9,0.7,36.44,,,,,,,,,,
14.54.03.213,134.8,33.7,0,6.0,,81643.7,12.25,0.03,0.73,0.65,0.4,7.2,-1.3,36.44,,,,,,,,,,
14.54.03.226,62.2,15.6,0,6.0,,85899.0,11.64,0.04,0.75,0.64,-1.5,7.2,-1.7,36.44,,,,,,,,,,
14.54.03.238,-11.8,3.0,0,6.0,,89270.1,11.2,0.03,0.74,0.66,-1.3,6.8,-1.6,36.44,,,,,,,,,,
14.54.03.250,6.3,1.6,0,6.0,,86059.1,11.62,0.04,0.76,0.66,-0.4,6.7,-0.9,36.44,,,,,,,,,,
14.54.03.259,48.9,12.2,0,6.0,,86584.8,11.55,0.04,0.75,0.66,-0.9,6.7,-1.0,36.44,,,,,,,,,,
14.54.03.271,50.2,12.6,0,6.0,,83985.3,11.91,0.03,0.74,0.65,-1.7,6.5,-1.5,36.44,,,,,,,,,,
14.54.03.279,41.1,10.3,0,6.0,,87724.9,11.4,0.03,0.74,0.66,-0.8,6.3,-1.2,36.44,,,,,,,,,,
14.54.03.291,101.8,25.4,0,6.0,,87550.7,11.42,0.02,0.74,0.66,1.2,6.3,-0.7,36.44,,,,,,,,,,
14.54.03.299,65.5,16.4,0,6.0,,85517.0,11.69,0.03,0.74,0.66,1.8,6.3,-0.6,36.44,,,,,,,,,,
14.54.03.312,99.6,24.9,0,6.0,,85735.9,11.66,0.03,0.74,0.65,2.4,5.6,-0.5,36.44,,,,,,,,,,
14.54.03.320,108.2,27.0,0,6.0,,85099.3,11.75,0.04,0.74,0.66,2.5,5.6,-0.6,36.44,,,,,,,,,,
14.54.03.332,51.2,12.8,0,6.0,,89593.8,11.16,0.03,0.74,0.65,1.8,6.5,-0.3,36.44,,,,,,,,,,
14.54.03.340,70.5,17.6,0,6.0,,90044.5,11.11,0.03,0.75,0.65,0.5,6.0,-0.4,36.44,,,,,,,,,,
14.54.03.353,49.1,12.3,0,6.0,,88062.8,11.36,0.03,0.75,0.66,0.5,5.7,-0.6,36.44,75.8,,,,,,,,,
14.54.03.361,47.3,11.8,0,6.0,,88283.7,11.33,0.03,0.75,0.66,0.9,5.8,-0.3,36.44,,,,,,,,,,
14.54.03.373,-14.4,3.6,0,6.0,,86364.3,11.58,0.03,0.74,0.66,0.8,6.2,-0.3,36.44,,,,,,,,,,
14.54.03.381,-2.1,0.5,0,6.0,,86889.8,11.51,0.03,0.74,0.65,2.1,5.6,-0.1,36.44,,,,,,,,,,
14.54.03.393,-11.8,3.0,0,6.0,,89416.9,11.18,0.03,0.74,0.65,2.7,5.0,-0.2,36.44,,,,,,,,,,
14.54.03.402,-4.8,1.2,0,6.0,,82847.4,12.07,0.03,0.74,0.65,2.9,5.4,-0.2,36.44,,,,,,,,,,
14.54.03.414,-19.4,4.8,0,6.0,,85296.4,11.72,0.03,0.75,0.65,1.4,6.1,-0.4,36.44,,,,,,,,,,
14.54.03.422,-23.5,5.9,0,6.0,,85561.3,11.69,0.03,0.75,0.65,1.2,5.6,-0.7,36.44,,,,,,,,,,
14.54.03.434,-35.3,8.8,0,6.0,,85921.7,11.64,0.03,0.75,0.66,0.9,5.7,-0.3,36.44,,,,,,,,,,
14.54.03.443,-25.0,6.2,0,6.0,,88441.9,11.31,0.03,0.74,0.65,1.5,6.3,0.0,36.44,,,,,,,,,,
14.54.03.455,-30.1,7.5,0,6.0,,87540.1,11.42,0.03,0.74,0.66,1.8,6.4,0.2,36.44,,,,,,,,,,
14.54.03.463,-40.3,10.1,0,6.0,,87614.6,11.41,0.03,0.75,0.66,1.8,6.3,1.1,36.44,,,,,,,,,,
14.54.03.476,-17.1,4.3,0,6.0,,88270.0,11.33,0.03,0.75,0.66,1.8,6.4,0.7,36.44,,,,,,,,,,
14.54.03.484,-66.0,16.5,0,6.0,,87725.0,11.4,0.02,0.75,0.66,1.3,7.0,0.8,36.44,,,,,,,,,,
14.54.03.496,-28.2,7.0,0,6.0,,84654.6,11.81,0.03,0.73,0.65,0.9,8.6,0.0,36.44,,,,,,,,,,
14.54.03.504,-24.4,6.1,0,6.0,,87661.0,11.41,0.02,0.74,0.65,1.9,7.0,0.6,36.44,,,,,,,,,,
14.54.03.516,-38.6,9.6,0,6.0,,83266.3,12.01,0.02,0.75,0.65,4.0,6.2,2.0,36.44,,,,,,,,,,
14.54.03.525,-58.9,14.7,0,6.0,,87339.8,11.45,0.01,0.74,0.67,2.9,5.6,1.8,36.44,,,,,,,,,,
14.54.03.537,-51.6,12.9,0,6.0,,87001.4,11.49,0.04,0.73,0.64,8.1,5.5,2.1,36.44,,,,,,,,,,
14.54.03.545,-41.2,10.3,0,6.0,,85564.5,11.69,0.01,0.72,0.64,9.2,5.0,1.9,36.44,,,,,,,,,,
14.54.03.557,-62.0,15.5,0,6.0,,86880.2,11.51,0.02,0.72,0.66,13.4,4.0,2.0,36.44,,,,,,,,,,
14.54.03.566,-94.7,23.7,0,6.0,,82924.0,12.06,0.02,0.72,0.66,22.7,2.9,2.6,36.44,,,,,,,,,,
14.54.03.578,-92.3,23.1,0,6.0,,89213.3,11.21,0.0,0.73,0.63,37.2,6.0,1.6,36.44,,,,,,,,,,
14.54.03.590,-93.5,23.4,0,6.0,,86940.8,11.5,0.05,0.79,0.63,46.5,4.9,6.9,36.44,,,,,,,,,,
14.54.03.598,-86.3,21.6,0,6.0,,89064.0,11.23,0.02,0.77,0.65,53.8,0.7,8.1,36.44,,,,,,,,,,
14.54.03.611,-106.2,26.6,0,6.0,,82036.4,12.19,0.03,0.76,0.62,57.0,4.8,6.6,36.44,,,,,,,,,,
14.54.03.619,-113.7,28.4,0,6.0,,84383.4,11.85,0.01,0.77,0.58,65.6,5.1,4.8,36.44,,,,,,,,,,
14.54.03.631,-105.9,26.5,0,6.0,,87108.3,11.48,0.03,0.76,0.63,73.7,0.8,7.2,36.44,,,,,,,,,,
14.54.03.639,-139.2,34.8,0,6.0,,86936.0,11.5,0.05,0.77,0.6,85.1,1.4,8.6,36.44,,,,,,,,,,
14.54.03.652,-122.0,30.5,0,6.0,,82389.3,12.14,0.05,0.76,0.59,94.8,0.8,6.9,36.44,,,,,,,,,,
14.54.03.660,-161.0,40.2,0,6.0,,85945.9,11.64,0.07,0.77,0.51,104.2,2.7,1.6,36.44,,,,,,,,,,
14.54.03.672,-122.9,30.7,0,6.0,,84934.0,11.77,0.03,0.82,0.56,108.6,0.8,-1.3,36.44,,,,,,,,,,
14.54.03.680,-116.1,29.0,0,6.0,,88701.1,11.27,0.04,0.85,0.55,112.0,0.1,-1.0,36.44,,,,,,,,,,
14.54.03.693,-165.0,41.2,0,6.0,,89328.5,11.19,0.05,0.81,0.5,114.8,3.0,-4.5,36.44,,,,,,,,,,
14.54.03.705,-153.2,38.3,0,6.0,,90498.5,11.05,0.0,0.88,0.5,114.0,7.5,-4.3,36.44,,,,,,,,,,
14.54.03.713,-146.8,36.7,0,6.0,,86185.0,11.6,0.04,0.95,0.42,131.1,1.9,-5.8,36.44,,,,,,,,,,
14.54.03.725,-158.5,39.6,0,6.0,,86416.2,11.57,0.08,0.93,0.41,156.5,1.4,-16.8,36.44,,,,,,,,,,
14.54.03.738,-167.3,41.8,0,6.0,,83974.4,11.91,0.08,0.89,0.37,159.9,1.8,-20.0,36.44,,,,,,,,,,
14.54.03.750,32.6,8.2,1,7.0,76.8,91574.9,10.92,0.09,0.9,0.33,175.5,-1.2,-24.5,36.44,,,,,,,,,,
14.54.03.758,71.3,17.8,0,7.0,,89975.8,11.11,0.08,0.89,0.3,188.9,-4.5,-24.6,36.44,,,,,,,,,,
14.54.03.770,113.5,28.4,0,7.0,,84435.9,11.84,0.06,0.93,0.24,190.6,-7.2,-13.5,36.44,,,,,,,,,,
14.54.03.779,171.0,42.8,0,7.0,,88372.8,11.32,0.05,0.87,0.21,196.9,-4.2,-9.5,36.44,,,,,,,,,,
14.54.03.791,215.7,53.9,0,7.0,,91307.3,10.95,0.04,0.92,0.16,213.7,1.2,-6.4,36.44,,,,,,,,,,
14.54.03.799,228.5,57.1,0,7.0,,84183.3,11.88,0.06,0.91,0.13,230.4,-3.2,0.6,36.44,,,,,,,,,,
14.54.03.811,256.2,64.0,0,7.0,,84435.9,11.84,0.06,0.88,0.08,237.1,-18.8,11.6,36.44,,,,,,,,,,
14.54.03.824,357.4,89.4,0,7.0,,87047.6,11.49,0.08,0.9,0.05,232.5,-10.0,21.2,36.44,,,,,,,,,,
14.54.03.860,410.3,102.6,0,7.0,,86540.8,11.56,0.15,0.92,-0.04,223.0,-3.1,28.7,36.44,,,,,,,,,,
14.54.03.869,417.6,104.4,0,7.0,,87180.2,11.47,0.16,1.03,-0.23,217.2,-22.0,26.0,36.44,,,,,,,,,,
14.54.03.881,462.2,115.6,0,7.0,,90611.9,11.04,0.14,0.95,-0.32,245.0,-26.9,10.5,36.44,,,,,,,,,,
14.54.03.893,417.5,104.4,0,7.0,,87068.6,11.49,0.14,0.92,-0.24,250.1,-35.6,5.0,36.44,,,,,,,,,,
14.54.03.901,440.2,110.0,0,7.0,,85944.2,11.64,-0.04,1.01,-0.28,250.1,-27.0,0.8,36.44,,,,,,,,,,
14.54.03.914,321.7,80.4,0,7.0,,86916.3,11.51,0.09,1.19,-0.26,228.7,-3.4,-28.5,36.44,,,,,,,,,,
14.54.03.922,366.5,91.6,0,7.0,,86795.4,11.52,0.07,1.01,-0.22,185.2,-12.0,-35.4,36.44,,,,,,,,,,
14.54.03.934,363.8,91.0,0,7.0,,86708.7,11.53,0.01,0.88,-0.26,169.9,-6.9,-52.3,36.44,,,,,,,,,,
14.54.03.947,299.1,74.8,0,7.0,,85562.1,11.69,-0.04,0.91,-0.34,162.8,43.5,-50.3,36.44,,,,,,,,,,
14.54.03.955,283.9,71.0,0,7.0,,85761.2,11.66,0.03,0.99,-0.31,155.4,37.5,-46.2,36.44,,,,,,,,,,
14.54.03.967,223.2,55.8,0,7.0,,85826.6,11.65,0.06,1.08,-0.35,130.2,44.3,-54.8,36.44,,,,,,,,,,
14.54.03.980,157.9,39.5,0,7.0,,85771.3,11.66,0.0,0.93,-0.42,125.0,34.7,-59.2,36.44,,,,,,,,,,
14.54.03.988,168.4,42.1,0,7.0,,88376.5,11.32,0.04,0.93,-0.46,123.5,23.3,-50.1,36.44,,,,,,,,,,
14.54.04.000,69.4,17.4,0,7.0,,84995.4,11.77,0.14,0.94,-0.46,131.0,20.2,-47.0,36.44,,,,,,,,,,
14.54.04.008,42.0,10.5,0,7.0,,85216.1,11.73,0.05,0.85,-0.55,135.1,19.1,-37.4,36.44,,,,,,,,,,
14.54.04.020,20.7,5.2,0,7.0,,88570.2,11.29,0.04,0.92,-0.53,127.1,40.5,-38.7,36.44,,,,,,,,,,
14.54.04.033,49.7,12.4,0,7.0,,86354.6,11.58,0.04,0.8,-0.57,126.4,35.2,-32.8,36.44,,,,,,,,,,
14.54.04.045,16.8,4.2,0,7.0,,85193.6,11.74,0.07,0.79,-0.59,131.7,33.4,-30.7,36.44,,,,,,,,,,
14.54.04.057,41.8,10.4,0,7.0,,88025.4,11.36,-0.02,0.84,-0.6,131.1,41.9,-37.8,36.44,,,,,,,,,,
14.54.04.065,22.9,5.7,0,7.0,,93722.2,10.67,-0.01,0.85,-0.59,120.7,37.2,-45.6,36.44,,,,,,,,,,
14.54.04.078,71.8,18.0,0,7.0,,88090.4,11.35,-0.04,0.82,-0.61,114.7,28.3,-42.0,36.44,,,,,,,,,,
14.54.04.086,73.3,18.3,0,7.0,,86213.9,11.6,0.08,0.89,-0.63,92.6,49.0,-56.6,36.44,,,,,,,,,,
14.54.04.098,53.2,13.3,0,7.0,,88599.6,11.29,0.16,0.89,-0.7,95.8,23.0,-40.9,36.44,,,,,,,,,,
14.54.04.111,46.3,11.6,0,7.0,,90169.2,11.09,0.06,0.74,-0.71,85.0,33.4,-37.5,36.44,,,,,,,,,,
14.54.04.119,55.9,14.0,0,7.0,,83673.9,11.95,-0.05,0.88,-0.67,65.8,41.7,-37.7,36.44,,,,,,,,,,
14.54.04.131,76.7,19.2,0,7.0,,88069.1,11.35,0.04,0.83,-0.69,51.8,37.0,-28.8,36.44,,,,,,,,,,
14.54.04.139,2.6,0.6,0,7.0,,87631.4,11.41,-0.06,0.85,-0.71,49.5,36.5,-17.9,36.44,,,,,,,,,,
14.54.04.152,73.6,18.4,0,7.0,,88769.3,11.27,-0.01,0.83,-0.8,54.6,49.8,-19.1,36.44,,,,,,,,,,
14.54.04.164,-5.7,1.4,0,7.0,,83627.8,11.96,-0.04,0.71,-0.77,72.1,52.5,-16.3,36.44,,,,,,,,,,
14.54.04.172,-13.7,3.4,0,7.0,,85315.1,11.72,0.03,0.72,-0.8,77.7,64.4,-16.3,36.44,,,,,,,,,,
14.54.04.184,4.4,1.1,0,7.0,,86737.5,11.53,-0.01,0.76,-0.72,84.4,70.7,-17.2,36.44,,,,,,,,,,
14.54.04.192,-18.3,4.6,0,7.0,,87954.8,11.37,0.05,0.73,-0.81,79.5,74.3,-21.9,36.44,,,,,,,,,,
14.54.04.205,-20.3,5.1,0,7.0,,84690.1,11.81,-0.03,0.69,-0.83,74.6,77.2,-18.8,36.44,,,,,,,,,,
14.54.04.217,-34.3,8.6,0,7.0,,88155.6,11.34,0.03,0.75,-0.77,99.6,69.6,-5.4,36.44,,,,,,,,,,
14.54.04.225,-47.7,11.9,0,7.0,,86220.9,11.6,-0.01,0.72,-0.7,80.4,57.2,-0.6,36.44,,,,,,,,,,
14.54.04.237,-24.0,6.0,0,7.0,,84483.8,11.84,-0.05,0.75,-0.69,55.3,63.2,-7.3,36.44,,,,,,,,,,
14.54.04.246,-51.0,12.8,0,7.0,,90215.8,11.08,0.02,0.68,-0.71,53.4,50.6,5.5,36.44,,,,,,,,,,
14.54.04.258,-41.2,10.3,0,7.0,,87343.2,11.45,0.04,0.85,-0.74,33.2,55.1,-5.8,36.44,,,,,,,,,,
14.54.04.266,-52.3,13.1,0,7.0,,88048.0,11.36,-0.06,0.72,-0.74,41.2,34.9,14.4,36.44,,,,,,,,,,
14.54.04.279,-5.2,1.3,0,7.0,,89680.6,11.15,0.01,0.65,-0.76,50.8,39.9,10.4,36.44,,,,,,,,,,
14.54.04.287,-65.1,16.3,0,7.0,,86817.0,11.52,0.06,0.62,-0.83,47.6,42.8,7.0,36.44,,,,,,,,,,
14.54.04.299,-76.9,19.2,0,7.0,,86659.6,11.54,0.11,0.6,-0.85,61.0,40.7,10.2,36.44,,,,,,,,,,
14.54.04.307,-45.8,11.4,0,7.0,,88040.1,11.36,0.12,0.58,-0.81,70.4,40.8,13.2,36.44,,,,,,,,,,
14.54.04.320,-64.6,16.2,0,7.0,,86734.3,11.53,0.23,0.93,-1.03,42.8,46.9,-18.4,36.44,,,,,,,,,,
14.54.04.332,-99.3,24.8,0,7.0,,86884.1,11.51,-0.73,1.13,1.32,-149.6,-54.8,-53.0,36.44,,,,,,,,,,
14.54.04.340,-102.6,25.6,0,7.0,,88549.0,11.29,0.16,0.44,-0.85,96.8,71.3,-3.4,36.44,,,,,,,,,,
14.54.04.352,-81.6,20.4,0,7.0,,87257.7,11.46,0.09,0.63,-0.91,114.7,40.4,46.2,36.44,,,,,,,,,,
14.54.04.361,-75.1,18.8,0,7.0,,85646.9,11.68,0.09,0.63,-0.85,59.5,39.7,12.8,36.44,,,,,,,,,,
14.54.04.373,-71.5,17.9,0,7.0,,84285.0,11.86,0.07,0.56,-0.94,82.3,38.4,30.1,36.44,,,,,,,,,,
14.54.04.381,-132.2,33.0,0,7.0,,83913.0,11.92,0.24,0.53,-0.99,79.7,47.2,13.4,36.44,,,,,,,,,,
14.54.04.393,-119.6,29.9,0,7.0,,86638.3,11.54,0.18,0.37,-1.02,83.0,46.7,20.3,36.44,,,,,,,,,,
14.54.04.401,-142.9,35.7,0,7.0,,85888.9,11.64,-0.02,0.56,-0.65,99.8,39.9,15.0,36.44,,,,,,,,,,
14.54.04.414,-102.7,25.7,0,7.0,,82929.6,12.06,0.01,0.62,-0.85,48.1,26.0,5.2,36.44,,,,,,,,,,
14.54.04.422,-113.8,28.4,0,7.0,,86486.2,11.56,0.06,0.6,-0.85,31.7,46.4,9.4,36.44,,,,,,,,,,
14.54.04.434,-140.5,35.1,0,7.0,,89646.3,11.15,0.02,0.58,-0.82,27.6,25.3,14.0,36.44,,,,,,,,,,
14.54.04.447,-135.9,34.0,0,7.0,,85920.4,11.64,0.11,0.58,-0.86,21.4,19.1,17.6,36.44,,,,,,,,,,
14.54.04.455,-156.1,39.0,0,7.0,,86443.9,11.57,0.06,0.55,-0.86,26.2,19.0,19.2,36.44,,,,,,,,,,
14.54.04.467,-123.8,31.0,0,7.0,,86143.3,11.61,0.09,0.56,-0.88,32.4,23.1,17.8,36.44,,,,,,,,,,
14.54.04.475,-128.2,32.0,0,7.0,,90782.3,11.02,0.12,0.56,-0.86,40.2,30.8,20.3,36.44,,,,,,,,,,
14.54.04.488,-145.0,36.2,0,7.0,,87110.2,11.48,0.1,0.51,-0.86,48.3,31.5,16.9,36.44,,,,,,,,,,
14.54.04.496,-140.0,35.0,0,7.0,,85611.2,11.68,0.09,0.67,-0.91,21.7,20.6,-4.8,36.44,,,,,,,,,,
14.54.04.508,-148.4,37.1,0,7.0,,87374.8,11.44,0.13,0.54,-0.85,36.2,20.4,13.4,36.44,,,,,,,,,,
14.54.04.516,-9.0,2.2,1,8.0,77.1,86232.5,11.6,0.16,0.6,-0.88,36.8,21.3,21.4,36.44,,,,,,,,,,
14.54.04.528,63.9,16.0,0,8.0,,82174.2,12.17,0.16,0.54,-0.94,29.5,26.3,26.8,36.44,,,,,,,,,,
14.54.04.537,97.5,24.4,0,8.0,,85745.4,11.66,0.18,0.48,-0.94,-25.4,37.7,16.5,36.44,,,,,,,,,,
14.54.04.549,113.1,28.3,0,8.0,,86175.5,11.6,0.09,0.65,-1.32,-1.8,-46.0,-9.2,36.44,,,,,,,,,,
14.54.04.557,206.2,51.6,0,8.0,,84056.6,11.9,0.27,0.36,-0.92,2.9,-1.0,16.5,36.44,,,,,,,,,,
14.54.04.569,219.1,54.8,0,8.0,,86035.5,11.62,0.28,0.37,-0.79,35.2,43.4,29.1,36.44,,,,,,,,,,
14.54.04.577,285.5,71.4,0,8.0,,85078.9,11.75,0.17,0.42,-0.83,19.8,29.3,12.3,36.44,,,,,,,,,,
14.54.04.590,293.6,73.4,0,8.0,,84482.6,11.84,0.17,0.43,-0.81,-0.8,25.8,15.5,36.44,,,,,,,,,,
14.54.04.602,403.3,100.8,0,8.0,,86266.4,11.59,0.31,0.35,-0.83,1.9,14.6,21.0,36.44,,,,,,,,,,
14.54.04.610,344.5,86.1,0,8.0,,87255.3,11.46,0.43,0.22,-0.94,4.0,17.5,17.5,36.44,,,,,,,,,,
14.54.04.622,390.0,97.5,0,8.0,,88922.6,11.25,0.26,0.16,-0.92,-10.7,57.7,-3.3,36.44,,,,,,,,,,
14.54.04.631,360.2,90.0,0,8.0,,85964.1,11.63,0.1,0.18,-1.03,36.5,14.8,27.3,36.44,,,,,,,,,,
14.54.04.668,423.8,106.0,0,8.0,,88955.4,11.24,0.25,0.38,-0.9,58.2,-5.5,31.0,36.44,,,,,,,,,,
14.54.04.680,372.8,93.2,0,8.0,,85621.1,11.68,0.33,0.43,-0.77,47.2,102.7,18.0,36.44,,,,,,,,,,
14.54.04.688,333.6,83.4,0,8.0,,80200.1,12.47,0.33,0.29,-0.96,81.9,107.0,49.2,36.44,,,,,,,,,,
14.54.04.700,316.5,79.1,0,8.0,,89619.6,11.16,0.34,0.3,-1.04,102.5,34.8,63.5,36.44,,,,,,,,,,
14.54.04.713,302.4,75.6,0,8.0,,89286.8,11.2,0.32,0.29,-1.0,94.0,-2.5,56.0,36.44,,,,,,,,,,
14.54.04.721,258.6,64.6,0,8.0,,83855.1,11.93,0.42,0.3,-1.01,98.6,-0.8,53.7,36.44,,,,,,,,,,
14.54.04.733,251.8,63.0,0,8.0,,88349.2,11.32,0.42,0.07,-1.13,132.7,10.6,86.3,36.44,,,,,,,,,,
14.54.04.741,199.2,49.8,0,8.0,,87709.1,11.4,0.32,0.4,-0.97,66.5,-33.3,27.0,36.44,,,,,,,,,,
14.54.04.754,138.7,34.7,0,8.0,,85992.5,11.63,0.21,0.63,-0.8,40.4,-64.2,-2.9,36.44,,,,,,,,,,
14.54.04.762,128.4,32.1,0,8.0,,88577.8,11.29,0.13,0.58,-0.74,21.0,-0.3,8.9,36.44,,,,,,,,,,
14.54.04.774,72.3,18.1,0,8.0,,86145.1,11.61,0.19,0.52,-0.79,16.3,-6.2,16.3,36.44,,,,,,,,,,
14.54.04.782,8.0,2.0,0,8.0,,87837.5,11.38,0.24,0.36,-0.9,14.2,-52.5,16.5,36.44,,,,,,,,,,
14.54.04.795,35.8,9.0,0,8.0,,86918.7,11.51,0.22,0.24,-1.02,22.1,-83.4,7.8,36.44,,,,,,,,,,
14.54.04.807,40.3,10.1,0,8.0,,88291.6,11.33,0.21,0.23,-0.99,32.9,-63.3,13.6,36.44,,,,,,,,,,
14.54.04.815,40.1,10.0,0,8.0,,84948.8,11.77,0.22,0.28,-1.05,41.0,-8.9,20.5,36.44,,,,,,,,,,
14.54.04.827,22.9,5.7,0,8.0,,88872.6,11.25,0.17,0.38,-1.08,26.4,-1.7,15.2,36.44,,,,,,,,,,
14.54.04.836,22.2,5.6,0,8.0,,88055.3,11.36,0.22,0.38,-1.09,14.1,3.4,11.4,36.44,,,,,,,,,,
14.54.04.848,73.6,18.4,0,8.0,,89391.8,11.19,0.23,0.32,-1.18,6.0,3.5,2.9,36.44,,,,,,,,,,
14.54.04.856,49.1,12.3,0,8.0,,86309.0,11.59,0.27,0.2,-1.16,11.1,-29.8,7.2,36.44,,,,,,,,,,
14.54.04.868,75.3,18.8,0,8.0,,89231.1,11.21,0.29,0.47,-1.12,-39.6,-8.4,-35.3,36.44,,,,,,,,,,
14.54.04.877,62.7,15.7,0,8.0,,86186.4,11.6,0.12,0.18,-0.91,-29.1,-23.4,-17.7,36.44,,,,,,,,,,
14.54.04.889,55.7,13.9,0,8.0,,85501.7,11.7,0.25,0.37,-0.91,-20.5,-15.0,-4.3,36.44,,,,,,,,,,
14.54.04.901,52.9,13.2,0,8.0,,84722.3,11.8,0.16,-0.04,-1.07,17.6,-57.2,43.9,36.44,,,,,,,,,,
14.54.04.909,58.6,14.6,0,8.0,,87485.0,11.43,0.1,0.15,-1.06,-41.9,-52.8,-13.1,36.44,,,,,,,,,,
14.54.04.922,43.8,11.0,0,8.0,,88067.6,11.35,0.16,0.12,-0.93,-52.0,-36.2,-21.2,36.44,,,,,,,,,,
14.54.04.934,-0.9,0.2,0,8.0,,80700.0,12.39,0.1,0.01,-1.02,-18.3,-7.8,-12.8,36.44,,,,,,,,,,
14.54.04.942,1.6,0.4,0,8.0,,90372.4,11.07,0.1,0.18,-0.99,10.4,-11.3,2.1,36.44,,,,,,,,,,
14.54.04.954,-20.1,5.0,0,8.0,,87341.9,11.45,0.12,0.29,-1.05,13.0,-40.6,-6.3,36.44,,,,,,,,,,
14.54.04.963,-20.3,5.1,0,8.0,,88181.9,11.34,0.11,0.2,-1.12,15.2,-75.4,-2.7,36.44,,,,,,,,,,
14.54.04.975,9.4,2.4,0,8.0,,84645.2,11.81,0.15,0.24,-0.86,8.2,-20.3,-2.5,36.44,,,,,,,,,,
14.54.04.983,-19.5,4.9,0,8.0,,86891.8,11.51,0.13,0.27,-1.03,8.4,-22.4,-1.6,36.44,,,,,,,,,,
14.54.04.995,-42.8,10.7,0,8.0,,87522.7,11.43,0.15,0.27,-1.02,11.0,-34.7,-4.5,36.44,,,,,,,,,,
14.54.05.004,-16.2,4.0,0,8.0,,84570.4,11.82,0.11,0.27,-1.04,7.7,-42.0,-3.9,36.44,,,,,,,,,,
14.54.05.016,-3.0,0.8,0,8.0,,91796.7,10.89,0.12,0.24,-1.03,10.4,-46.3,-0.8,36.44,,,,,,,,,,
14.54.05.028,-19.5,4.9,0,8.0,,84996.7,11.77,0.09,0.29,-1.0,1.5,-47.7,-2.6,36.44,,,,,,,,,,
14.54.05.036,-54.1,13.5,0,8.0,,86806.7,11.52,0.1,0.29,-1.06,-3.4,-47.0,1.4,36.44,,,,,,,,,,
14.54.05.049,-51.5,12.9,0,8.0,,88484.6,11.3,0.08,0.23,-1.0,-6.5,-46.0,3.0,36.44,,,,,,,,,,
14.54.05.057,-57.4,14.4,0,8.0,,86197.6,11.6,0.08,0.23,-1.02,-4.6,-48.5,-1.3,36.44,,,,,,,,,,
14.54.05.069,-93.9,23.5,0,8.0,,84550.6,11.83,0.11,0.21,-1.03,-1.3,-29.6,-0.7,36.44,,,,,,,,,,
14.54.05.077,-63.3,15.8,0,8.0,,85790.1,11.66,0.03,0.15,-1.06,-9.3,-21.5,-12.9,36.44,,,,,,,,,,
14.54.05.090,-38.7,9.7,0,8.0,,85440.7,11.7,0.06,0.22,-1.0,12.0,-31.0,0.3,36.44,,,,,,,,,,
14.54.05.102,-39.2,9.8,0,8.0,,85465.5,11.7,-0.02,0.3,-0.91,16.8,-33.3,6.3,36.44,,,,,,,,,,
14.54.05.110,-66.7,16.7,0,8.0,,86764.9,11.53,0.02,0.24,-0.98,-2.1,-28.4,-1.0,36.44,,,,,,,,,,
14.54.05.122,-52.0,13.0,0,8.0,,87948.9,11.37,0.04,0.22,-1.06,3.7,-25.8,-2.0,36.44,,,,,,,,,,
14.54.05.131,-69.3,17.3,0,8.0,,87600.1,11.42,0.03,0.26,-0.99,11.9,-22.2,1.5,36.44,,,,,,,,,,
14.54.05.143,-110.3,27.6,0,8.0,,84962.1,11.77,0.03,0.31,-0.95,2.2,-17.5,-8.9,36.44,,,,,,,,,,
14.54.05.151,-86.2,21.6,0,8.0,,87343.8,11.45,0.02,0.25,-0.98,-2.0,-33.0,-4.3,36.44,,,,,,,,,,
14.54.05.163,-152.7,38.2,0,8.0,,84948.8,11.77,-0.04,0.26,-0.95,3.0,-25.7,0.1,36.44,,,,,,,,,,
14.54.05.171,-89.1,22.3,0,8.0,,89247.9,11.2,0.0,0.26,-0.95,-6.1,-18.8,-1.4,36.44,,,,,,,,,,
14.54.05.184,-121.9,30.5,0,8.0,,88013.2,11.36,-0.04,0.22,-0.98,-4.8,-27.5,-0.7,36.44,,,,,,,,,,
14.54.05.192,-113.6,28.4,0,8.0,,87844.9,11.38,-0.05,0.17,-1.0,-4.2,-22.5,-0.8,36.44,,,,,,,,,,
14.54.05.204,-117.9,29.5,0,8.0,,84585.1,11.82,-0.05,0.14,-1.01,7.6,-24.0,1.8,36.44,,,,,,,,,,
14.54.05.217,-142.0,35.5,0,8.0,,88653.2,11.28,-0.06,0.18,-0.99,15.0,-31.0,3.8,36.44,,,,,,,,,,
14.54.05.225,-130.4,32.6,0,8.0,,88854.5,11.25,-0.04,0.2,-0.98,12.1,-34.4,3.5,36.44,,,,,,,,,,
14.54.05.237,-122.6,30.6,0,8.0,,85523.1,11.69,-0.05,0.22,-0.98,9.2,-36.8,3.2,36.44,,,,,,,,,,
14.54.05.245,-149.6,37.4,0,8.0,,85163.4,11.74,-0.08,0.2,-0.98,7.5,-35.8,3.0,36.44,,,,,,,,,,
14.54.05.257,-172.0,43.0,0,8.0,,86865.6,11.51,-0.04,0.19,-0.96,2.6,-23.1,5.6,36.44,,,,,,,,,,
14.54.05.266,-153.9,38.5,0,8.0,,85736.9,11.66,-0.06,0.18,-0.99,8.4,-20.7,3.3,36.44,,,,,,,,,,
14.54.05.278,-142.4,35.6,0,8.0,,87101.3,11.48,-0.08,0.16,-1.0,11.6,-16.0,6.4,36.44,,,,,,,,,,
14.54.05.286,-202.0,50.5,0,8.0,,85759.6,11.66,-0.07,0.16,-1.01,17.1,-10.5,7.0,36.44,,,,,,,,,,
14.54.05.298,99.9,25.0,1,9.0,75.2,86767.9,11.53,-0.08,0.18,-1.02,23.7,-7.3,12.7,36.44,,,,,,,,,,
14.54.05.307,84.4,21.1,0,9.0,,83737.8,11.94,-0.09,0.22,-0.99,24.8,-10.5,12.4,36.44,,,,,,,,,,
14.54.05.319,139.4,34.8,0,9.0,,86352.2,11.58,-0.1,0.23,-1.01,20.1,-19.3,8.0,36.44,,,,,,,,,,
14.54.05.331,204.0,51.0,0,9.0,,85535.0,11.69,-0.09,0.2,-1.0,18.2,-21.5,5.5,36.44,,,,,,,,,,
14.54.05.339,210.1,52.5,0,9.0,,86061.0,11.62,-0.1,0.19,-1.02,9.4,-33.1,0.7,36.44,,,,,,,,,,
14.54.05.352,299.1,74.8,0,9.0,,87661.1,11.41,-0.14,0.21,-1.01,7.7,-30.6,-0.3,36.44,,,,,,,,,,
14.54.05.360,333.0,83.2,0,9.0,,85174.5,11.74,-0.11,0.2,-1.08,1.2,-28.9,-5.9,36.44,,,,,,,,,,
14.54.05.372,322.1,80.5,0,9.0,,91639.7,10.91,-0.11,0.23,-1.05,11.7,-25.7,-3.9,36.44,,,,,,,,,,
14.54.05.380,336.6,84.2,0,9.0,,90451.9,11.06,-0.12,0.24,-0.98,10.5,-33.2,-1.8,36.44,,,,,,,,,,
14.54.05.393,312.2,78.0,0,9.0,,90172.7,11.09,-0.11,0.27,-0.97,10.6,-32.1,-2.4,36.44,,,,,,,,,,
14.54.05.405,407.9,102.0,0,9.0,,83530.4,11.97,-0.11,0.26,-0.94,9.5,-32.6,-3.6,36.44,,,,,,,,,,
14.54.05.413,408.7,102.2,0,9.0,,87263.3,11.46,-0.11,0.27,-0.93,5.2,-28.6,-7.2,36.44,,,,,,,,,,
14.54.05.425,399.6,99.9,0,9.0,,82957.5,12.05,-0.11,0.27,-0.94,4.8,-24.5,-9.0,36.44,,,,,,,,,,
14.54.05.434,425.3,106.3,0,9.0,,83651.9,11.95,-0.11,0.27,-0.95,-0.4,-23.5,-11.6,36.44,,,,,,,,,,
14.54.05.470,349.6,87.4,0,9.0,,83413.6,11.99,-0.12,0.21,-0.96,-4.9,-11.5,-16.9,36.44,,,,,,,,,,
14.54.05.483,315.7,78.9,0,9.0,,88040.7,11.36,-0.13,0.17,-0.97,-14.2,-2.5,-24.1,36.44,,,,,,,,,,
14.54.05.491,297.9,74.5,0,9.0,,84770.9,11.8,-0.14,0.18,-0.94,-10.2,0.6,-28.2,36.44,,,,,,,,,,
14.54.05.503,261.9,65.5,0,9.0,,84120.6,11.89,-0.13,0.21,-0.96,-9.6,-6.8,-24.0,36.44,,,,,,,,,,
14.54.05.516,199.4,49.8,0,9.0,,85265.2,11.73,-0.12,0.2,-0.96,-4.4,-2.6,-20.8,36.44,,,,,,,,,,
14.54.05.524,150.1,37.5,0,9.0,,87757.9,11.39,-0.13,0.21,-0.99,-1.3,-3.9,-20.1,36.44,,,,,,,,,,
14.54.05.536,108.3,27.1,0,9.0,,86002.0,11.63,-0.13,0.21,-0.97,6.5,-2.3,-18.8,36.44,,,,,,,,,,
14.54.05.544,72.1,18.0,0,9.0,,89326.0,11.19,-0.14,0.23,-0.97,14.8,1.2,-16.4,36.44,,,,,,,,,,
14.54.05.557,-22.5,5.6,0,9.0,,88214.5,11.34,-0.14,0.23,-0.95,16.7,5.0,-18.0,36.44,,,,,,,,,,
14.54.05.565,18.6,4.6,0,9.0,,87672.0,11.41,-0.13,0.27,-0.93,16.9,6.7,-19.0,36.44,,,,,,,,,,
14.54.05.577,6.9,1.7,0,9.0,,90458.5,11.05,-0.11,0.28,-0.9,13.3,10.2,-21.1,36.44,,,,,,,,,,
14.54.05.589,19.2,4.8,0,9.0,,88175.1,11.34,-0.14,0.3,-0.88,9.3,10.5,-22.7,36.44,,,,,,,,,,
14.54.05.597,63.5,15.9,0,9.0,,84157.2,11.88,-0.12,0.3,-0.88,0.1,7.7,-23.5,36.44,,,,,,,,,,
14.54.05.610,67.4,16.8,0,9.0,,86286.7,11.59,-0.14,0.26,-0.91,-10.2,9.4,-27.9,36.44,,,,,,,,,,
14.54.05.618,58.2,14.6,0,9.0,,89334.0,11.19,-0.2,0.21,-0.89,-17.1,0.1,-30.7,36.44,,,,,,,,,,
14.54.05.630,76.5,19.1,0,9.0,,90366.1,11.07,-0.1,0.23,-0.91,-19.1,-1.5,-28.0,36.44,,,,,,,,,,
14.54.05.638,70.7,17.7,0,9.0,,84559.8,11.83,-0.11,0.23,-0.92,-20.1,1.5,-28.8,36.44,,,,,,,,,,
14.54.05.651,67.4,16.8,0,9.0,,86889.0,11.51,-0.12,0.21,-0.95,-21.7,5.8,-33.8,36.44,,,,,,,,,,
14.54.05.659,63.9,16.0,0,9.0,,92006.7,10.87,-0.14,0.25,-0.91,-14.4,9.1,-35.7,36.44,,,,,,,,,,
14.54.05.671,57.8,14.4,0,9.0,,81956.0,12.2,-0.16,0.26,-0.9,-8.2,14.9,-35.6,36.44,,,,,,,,,,
14.54.05.679,48.0,12.0,0,9.0,,84254.4,11.87,-0.17,0.28,-0.94,-6.0,11.7,-33.1,36.44,,,,,,,,,,
14.54.05.692,48.0,12.0,0,9.0,,82377.0,12.14,-0.18,0.26,-0.95,-4.8,7.6,-32.5,36.44,,,,,,,,,,
14.54.05.704,8.3,2.1,0,9.0,,88617.3,11.28,-0.17,0.23,-0.97,1.0,3.9,-29.2,36.44,,,,,,,,,,
14.54.05.712,9.7,2.4,0,9.0,,83686.3,11.95,-0.15,0.19,-0.99,6.3,5.9,-24.3,36.44,,,,,,,,,,
14.54.05.724,9.1,2.3,0,9.0,,86381.9,11.58,-0.13,0.19,-1.01,11.8,4.9,-19.7,36.44,,,,,,,,,,
14.54.05.733,-4.5,1.1,0,9.0,,90514.9,11.05,-0.13,0.18,-1.01,17.5,6.9,-17.7,36.44,,,,,,,,,,
14.54.05.745,-16.3,4.1,0,9.0,,85930.7,11.64,-0.12,0.2,-0.96,20.7,8.3,-15.8,36.44,,,,,,,,,,
14.54.05.753,-9.7,2.4,0,9.0,,85331.5,11.72,-0.12,0.19,-0.93,15.6,19.3,-17.2,36.44,,,,,,,,,,
14.54.05.765,-3.9,1.0,0,9.0,,87980.2,11.37,-0.12,0.18,-0.97,15.7,20.4,-20.6,36.44,,,,,,,,,,
14.54.05.774,-16.4,4.1,0,9.0,,86885.7,11.51,-0.13,0.21,-0.96,17.1,16.5,-20.7,36.44,,,,,,,,,,
14.54.05.786,-53.0,13.2,0,9.0,,88989.9,11.24,-0.13,0.21,-0.94,16.4,12.3,-21.4,36.44,,,,,,,,,,
14.54.05.794,-43.1,10.8,0,9.0,,92213.8,10.84,-0.13,0.23,-0.95,14.1,8.3,-23.8,36.44,,,,,,,,,,
14.54.05.806,-40.7,10.2,0,9.0,,86407.2,11.57,-0.12,0.24,-0.94,14.5,9.0,-21.8,36.44,,,,,,,,,,
14.54.05.815,-41.8,10.4,0,9.0,,85130.7,11.75,-0.1,0.25,-0.94,17.7,10.9,-17.9,36.44,,,,,,,,,,
14.54.05.827,-53.9,13.5,0,9.0,,92804.3,10.78,-0.1,0.27,-0.96,13.5,12.4,-16.4,36.44,,,,,,,,,,
14.54.05.839,-78.1,19.5,0,9.0,,89328.8,11.19,-0.11,0.25,-1.0,5.8,18.3,-18.8,36.44,,,,,,,,,,
14.54.05.847,-107.8,27.0,0,9.0,,90403.5,11.06,-0.12,0.23,-1.02,2.8,19.5,-22.1,36.44,,,,,,,,,,
14.54.05.860,-62.5,15.6,0,9.0,,87630.5,11.41,-0.13,0.23,-1.02,3.8,19.2,-22.1,36.44,,,,,,,,,,
14.54.05.868,-51.5,12.9,0,9.0,,82840.0,12.07,-0.13,0.19,-1.02,0.4,14.9,-25.0,36.44,,,,,,,,,,
14.54.05.880,-97.2,24.3,0,9.0,,85309.3,11.72,-0.12,0.21,-1.01,-3.3,15.7,-22.9,36.44,,,,,,,,,,
14.54.05.888,-98.5,24.6,0,9.0,,85608.9,11.68,-0.12,0.16,-1.05,-3.6,12.0,-19.7,36.44,,,,,,,,,,
14.54.05.901,-105.6,26.4,0,9.0,,90173.1,11.09,-0.11,0.16,-1.04,-3.2,8.6,-18.3,36.44,,,,,,,,,,
14.54.05.909,-60.6,15.2,0,9.0,,86331.6,11.58,-0.11,0.15,-1.05,-7.1,13.2,-18.0,36.44,,,,,,,,,,
14.54.05.921,-86.3,21.6,0,9.0,,87238.0,11.46,-0.1,0.13,-1.07,-7.7,14.4,-16.8,36.44,,,,,,,,,,
14.54.05.929,-108.3,27.1,0,9.0,,84350.1,11.86,-0.04,0.16,-1.12,-8.0,20.5,-12.5,36.44,,,,,,,,,,
14.54.05.942,-125.5,31.4,0,9.0,,88926.4,11.25,-0.13,0.14,-0.96,-11.1,13.2,-13.1,36.44,,,,,,,,,,
14.54.05.954,-124.1,31.0,0,9.0,,89641.6,11.16,-0.12,0.12,-0.99,-12.7,14.9,-17.5,36.44,,,,,,,,,,
14.54.05.962,-137.6,34.4,0,9.0,,86927.9,11.5,-0.09,0.15,-1.07,-5.7,17.8,-16.9,36.44,,,,,,,,,,
14.54.05.974,-143.8,36.0,0,9.0,,86901.9,11.51,-0.06,0.08,-1.09,-2.3,16.8,-19.7,36.44,,,,,,,,,,
14.54.05.983,-143.7,35.9,0,9.0,,87720.0,11.4,-0.02,0.09,-1.05,-8.2,13.8,-23.0,36.44,,,,,,,,,,
14.54.05.995,-146.7,36.7,0,9.0,,86973.7,11.5,-0.09,0.07,-0.98,-0.5,9.2,-20.7,36.44,,,,,,,,,,
14.54.06.004,-115.5,28.9,0,9.0,,88751.1,11.27,-0.08,0.13,-1.02,-4.0,12.8,-21.2,36.44,,,,,,,,,,
14.54.06.015,-128.2,32.0,0,9.0,,87595.0,11.42,-0.05,0.13,-1.08,0.7,11.4,-18.1,36.44,,,,,,,,,,
14.54.06.028,-142.9,35.7,0,9.0,,87323.7,11.45,-0.03,0.13,-1.07,2.3,17.2,-18.1,36.44,,,,,,,,,,
14.54.06.036,-168.3,42.1,0,9.0,,86377.2,11.58,-0.06,0.16,-1.01,5.0,16.0,-16.8,36.44,,,,,,,,,,
14.54.06.048,-171.5,42.9,0,9.0,,87246.7,11.46,-0.05,0.19,-1.01,7.4,18.0,-15.2,36.44,,,,,,,,,,
14.54.06.056,-148.1,37.0,0,9.0,,86200.1,11.6,-0.05,0.18,-1.01,6.5,18.0,-15.2,36.44,,,,,,,,,,
14.54.06.069,22.9,5.7,1,10.0,78.7,87474.3,11.43,-0.07,0.2,-1.0,3.3,17.9,-15.0,36.44,,,,,,,,,,
14.54.06.077,83.4,20.8,0,10.0,,85762.0,11.66,-0.07,0.2,-0.98,1.3,17.6,-13.7,36.44,,,,,,,,,,
14.54.06.089,102.7,25.7,0,10.0,,85752.9,11.66,-0.09,0.19,-0.97,-2.8,17.3,-13.3,36.44,,,,,,,,,,
14.54.06.101,151.9,38.0,0,10.0,,87419.4,11.44,-0.1,0.15,-1.0,-5.9,16.5,-14.4,36.44,,,,,,,,,,
14.54.06.110,243.8,61.0,0,10.0,,88470.6,11.3,-0.09,0.11,-1.0,-4.6,16.4,-13.1,36.44,,,,,,,,,,
14.54.06.122,287.2,71.8,0,10.0,,81618.5,12.25,-0.09,0.12,-1.01,1.8,17.7,-11.2,36.44,,,,,,,,,,
14.54.06.134,321.4,80.4,0,10.0,,85821.2,11.65,-0.08,0.15,-1.0,5.0,17.3,-8.4,36.44,,,,,,,,,,
14.54.06.142,333.7,83.4,0,10.0,,85827.9,11.65,-0.09,0.16,-0.99,5.3,19.3,-8.3,36.44,,,,,,,,,,
14.54.06.155,313.3,78.3,0,10.0,,87409.9,11.44,-0.1,0.15,-1.0,6.1,19.1,-7.5,36.44,,,,,,,,,,
14.54.06.163,410.1,102.5,0,10.0,,87802.0,11.39,-0.11,0.14,-0.99,7.8,19.3,-8.0,36.44,,,,,,,,,,
14.54.06.175,430.8,107.7,0,10.0,,91108.5,10.98,-0.12,0.14,-0.98,8.3,18.9,-8.7,36.44,,,,,,,,,,
14.54.06.187,400.6,100.2,0,10.0,,85222.2,11.73,-0.12,0.14,-0.97,10.1,17.5,-8.9,36.44,,,,,,,,,,
14.54.06.200,432.1,108.0,0,10.0,,90651.1,11.03,-0.13,0.15,-0.97,10.5,17.2,-9.4,36.44,,,,,,,,,,
14.54.06.208,424.0,106.0,0,10.0,,82173.6,12.17,-0.13,0.15,-0.97,10.7,16.7,-11.0,36.44,,,,,,,,,,
14.54.06.220,408.5,102.1,0,10.0,,83235.7,12.01,-0.14,0.16,-0.94,10.5,18.9,-12.4,36.44,,,,,,,,,,
14.54.06.228,343.5,85.9,0,10.0,,83966.9,11.91,-0.13,0.15,-0.95,10.8,16.8,-14.8,36.44,,,,,,,,,,
14.54.06.241,406.0,101.5,0,10.0,,89645.3,11.16,-0.14,0.17,-0.94,9.4,15.5,-15.5,36.44,,,,,,,,,,
14.54.06.277,173.3,43.3,0,10.0,,87684.1,11.4,-0.14,0.17,-0.94,6.1,12.5,-17.1,36.44,,,,,,,,,,
14.54.06.290,163.4,40.8,0,10.0,,89499.1,11.17,-0.16,0.17,-0.96,-4.9,8.4,-24.8,36.44,,,,,,,,,,
14.54.06.298,165.4,41.4,0,10.0,,90360.8,11.07,-0.15,0.17,-0.95,-7.8,6.6,-27.8,36.44,,,,,,,,,,
14.54.06.310,119.5,29.9,0,10.0,,86473.2,11.56,-0.18,0.18,-0.92,-11.2,10.9,-34.1,36.44,,,,,,,,,,
14.54.06.323,51.2,12.8,0,10.0,,86932.7,11.5,-0.15,0.16,-1.0,-11.8,-2.8,-29.5,36.44,,,,,,,,,,
14.54.06.331,-26.0,6.5,0,10.0,,86706.7,11.53,-0.16,0.19,-0.96,-9.1,2.9,-27.9,36.44,,,,,,,,,,
14.54.06.343,38.7,9.7,0,10.0,,87563.6,11.42,-0.16,0.18,-0.99,-12.7,-1.5,-29.8,36.44,,,,,,,,,,
14.54.06.351,48.9,12.2,0,10.0,,89151.7,11.22,-0.16,0.19,-0.96,-9.6,-0.1,-29.4,36.44,,,,,,,,,,
14.54.06.364,57.5,14.4,0,10.0,,86459.5,11.57,-0.15,0.2,-0.98,-13.0,2.7,-32.0,36.44,,,,,,,,,,
14.54.06.376,56.5,14.1,0,10.0,,88705.2,11.27,-0.16,0.17,-0.97,-7.0,-3.6,-26.9,36.44,,,,,,,,,,
14.54.06.384,84.0,21.0,0,10.0,,87510.7,11.43,-0.14,0.17,-0.98,-5.1,-1.9,-24.6,36.44,,,,,,,,,,
14.54.06.396,74.6,18.6,0,10.0,,89996.7,11.11,-0.14,0.17,-0.99,-4.9,-4.5,-23.3,36.44,,,,,,,,,,
14.54.06.405,80.0,20.0,0,10.0,,84427.5,11.84,-0.16,0.17,-0.99,-5.5,-3.7,-23.9,36.44,,,,,,,,,,
14.54.06.417,93.7,23.4,0,10.0,,88133.5,11.35,-0.15,0.18,-0.98,5.8,-1.7,-20.2,36.44,,,,,,,,,,
14.54.06.429,63.4,15.8,0,10.0,,82525.0,12.12,-0.15,0.2,-0.98,4.7,4.7,-21.1,36.44,,,,,,,,,,
14.54.06.437,47.7,11.9,0,10.0,,84801.7,11.79,-0.2,0.2,-0.98,2.7,-2.8,-21.5,36.44,,,,,,,,,,
14.54.06.450,48.6,12.2,0,10.0,,85384.6,11.71,-0.14,0.2,-0.98,3.3,-3.5,-21.0,36.44,,,,,,,,,,
14.54.06.462,42.2,10.6,0,10.0,,86638.7,11.54,-0.17,0.21,-0.98,0.3,-3.6,-19.3,36.44,,,,,,,,,,
14.54.06.470,8.3,2.1,0,10.0,,89801.3,11.14,-0.18,0.19,-0.98,-0.7,-5.3,-18.0,36.44,,,,,,,,,,
14.54.06.482,9.2,2.3,0,10.0,,86227.7,11.6,-0.18,0.17,-0.98,-3.2,-3.4,-18.1,36.44,,,,,,,,,,
14.54.06.491,44.1,11.0,0,10.0,,84022.4,11.9,-0.18,0.18,-0.99,1.7,0.3,-16.5,36.44,,,,,,,,,,
14.54.06.503,-26.0,6.5,0,10.0,,90005.4,11.11,-0.18,0.19,-0.99,0.2,-0.6,-16.1,36.44,,,,,,,,,,
14.54.06.515,-51.1,12.8,0,10.0,,84237.5,11.87,-0.17,0.19,-1.0,1.3,-0.3,-15.2,36.44,,,,,,,,,,
14.54.06.523,-20.2,5.0,0,10.0,,88905.9,11.25,-0.14,0.2,-1.0,-1.3,-1.6,-12.7,36.44,,,,,,,,,,
14.54.06.536,-8.3,2.1,0,10.0,,82749.8,12.08,-0.21,0.18,-0.96,-6.7,-2.6,-11.0,36.44,,,,,,,,,,
14.54.06.548,-57.3,14.3,0,10.0,,84964.3,11.77,-0.21,0.12,-0.97,1.7,-5.6,-11.3,36.44,,,,,,,,,,
14.54.06.556,-24.0,6.0,0,10.0,,85818.7,11.65,-0.17,0.2,-0.99,-3.3,-10.1,-8.5,36.44,,,,,,,,,,
14.54.06.568,-10.3,2.6,0,10.0,,84880.1,11.78,-0.23,0.2,-0.99,-5.5,-10.4,-10.1,36.44,,,,,,,,,,
14.54.06.577,-13.6,3.4,0,10.0,,88621.5,11.28,-0.21,0.2,-0.99,-7.5,-16.6,-9.6,36.44,,,,,,,,,,
14.54.06.589,-37.7,9.4,0,10.0,,82706.5,12.09,-0.2,0.19,-0.98,-9.4,-17.5,-11.7,36.44,,,,,,,,,,
14.54.06.601,-72.0,18.0,0,10.0,,86717.2,11.53,-0.22,0.19,-0.99,-14.3,-20.7,-13.2,36.44,,,,,,,,,,
14.54.06.609,-58.2,14.6,0,10.0,,86158.4,11.61,-0.21,0.2,-0.99,-15.3,-22.0,-13.5,36.44,,,,,,,,,,
14.54.06.622,-36.7,9.2,0,10.0,,86979.6,11.5,-0.21,0.19,-0.98,-11.1,-23.2,-12.6,36.44,,,,,,,,,,
14.54.06.634,-69.4,17.4,0,10.0,,86107.8,11.61,-0.2,0.22,-0.99,-14.5,-20.1,-16.9,36.44,,,,,,,,,,
14.54.06.642,-76.2,19.0,0,10.0,,86909.0,11.51,-0.24,0.21,-0.98,-3.9,-22.7,-13.5,36.44,,,,,,,,,,
14.54.06.655,-96.3,24.1,0,10.0,,84764.7,11.8,-0.25,0.23,-0.96,-5.7,-21.5,-14.7,36.44,,,,,,,,,,
14.54.06.667,-56.6,14.2,0,10.0,,86158.9,11.61,-0.23,0.23,-0.94,-4.4,-20.1,-15.6,36.44,,,,,,,,,,
14.54.06.675,-97.7,24.4,0,10.0,,86894.9,11.51,-0.22,0.28,-0.99,-3.0,-22.1,-14.4,36.44,,,,,,,,,,
14.54.06.687,-93.8,23.4,0,10.0,,87781.3,11.39,-0.27,0.27,-0.91,-24.7,-35.6,-21.4,36.44,,,,,,,,,,
14.54.06.700,-94.3,23.6,0,10.0,,90875.7,11.0,-0.26,0.22,-0.92,-6.3,-17.0,-16.5,36.44,,,,,,,,,,
14.54.06.708,-106.6,26.6,0,10.0,,87241.7,11.46,-0.26,0.25,-0.97,-5.8,-36.7,-13.8,36.44,,,,,,,,,,
14.54.06.720,-111.2,27.8,0,10.0,,90651.4,11.03,-0.3,0.16,-0.92,-7.7,-30.6,-9.7,36.44,,,,,,,,,,
14.54.06.733,-147.5,36.9,0,10.0,,85982.8,11.63,-0.27,0.2,-0.95,-7.3,-35.8,-5.5,36.44,,,,,,,,,,
14.54.06.745,-103.7,25.9,0,10.0,,85460.3,11.7,-0.26,0.16,-0.93,-13.4,-35.9,-4.7,36.44,,,,,,,,,,
14.54.06.757,-135.2,33.8,0,10.0,,84802.7,11.79,-0.29,0.18,-0.94,-22.1,-37.3,-13.6,36.44,,,,,,,,,,
14.54.06.765,-121.4,30.4,0,10.0,,85396.9,11.71,-0.31,0.18,-0.93,-20.0,-42.1,-17.1,36.44,,,,,,,,,,
14.54.06.777,-147.5,36.9,0,10.0,,84155.1,11.88,-0.31,0.18,-0.92,-19.8,-38.6,-19.7,36.44,,,,,,,,,,
14.54.06.790,-144.5,36.1,0,10.0,,81069.2,12.34,-0.3,0.18,-0.94,-13.7,-40.6,-17.5,36.44,,,,,,,,,,
14.54.06.798,-139.0,34.8,0,10.0,,85814.5,11.65,-0.31,0.17,-0.95,-11.0,-41.1,-17.2,36.44,,,,,,,,,,
14.54.06.810,-152.3,38.1,0,10.0,,89019.3,11.23,-0.32,0.16,-0.94,-5.6,-41.5,-16.5,36.44,,,,,,,,,,
14.54.06.822,-146.7,36.7,0,10.0,,90159.5,11.09,-0.35,0.19,-0.95,-15.8,-48.3,-25.9,36.44,,,,,,,,,,
14.54.06.831,-120.3,30.1,0,10.0,,87915.1,11.37,-0.33,0.17,-0.93,2.5,-28.6,-23.2,36.44,,,,,,,,,,
14.54.06.843,26.7,6.7,1,11.0,76.8,84254.5,11.87,-0.35,0.18,-0.95,2.0,-40.5,-20.6,36.44,,,,,,,,,,
14.54.06.855,137.7,34.4,0,11.0,,84424.8,11.84,-0.35,0.17,-0.93,-2.7,-44.6,-24.2,36.44,,,,,,,,,,
14.54.06.864,122.1,30.5,0,11.0,,86516.0,11.56,-0.35,0.18,-0.95,-2.9,-38.2,-23.1,36.44,,,,,,,,,,
14.54.06.876,199.9,50.0,0,11.0,,86904.6,11.51,-0.37,0.17,-0.92,1.8,-47.1,-16.9,36.44,,,,,,,,,,
14.54.06.888,306.8,76.7,0,11.0,,87611.7,11.41,-0.38,0.17,-0.93,-4.1,-46.3,-17.8,36.44,,,,,,,,,,
14.54.06.896,259.0,64.8,0,11.0,,83834.9,11.93,-0.4,0.17,-0.93,-5.6,-48.4,-20.0,36.44,,,,,,,,,,
14.54.06.909,312.7,78.2,0,11.0,,85529.8,11.69,-0.39,0.19,-0.92,-6.5,-46.4,-18.7,36.44,,,,,,,,,,
14.54.06.917,301.9,75.5,0,11.0,,85794.1,11.66,-0.4,0.18,-0.91,-8.3,-50.8,-16.4,36.44,,,,,,,,,,
14.54.06.929,,,0,11.0,,87254.1,11.46,,,,,,,,,,,,,,,,,
14.54.06.945,,,0,11.0,,87928.6,11.37,,,,,,,,,36.42,,,,,,,,
14.54.06.958,413.4,103.4,0,11.0,,88483.6,11.3,-0.42,0.18,-0.91,-9.3,-47.8,-21.8,36.44,,,,,,,,,,
14.54.06.966,372.3,93.1,0,11.0,,88699.0,11.27,-0.43,0.13,-0.92,-8.8,-51.6,-23.2,36.44,,,,,,,,,,
14.54.06.978,455.3,113.8,0,11.0,,86617.1,11.55,-0.43,0.14,-0.92,-5.3,-49.9,-22.0,36.44,,,,,,,,,,
14.54.06.990,385.8,96.4,0,11.0,,85559.4,11.69,-0.43,0.13,-0.92,1.9,-46.8,-19.4,36.44,,,,,,,,,,
14.54.06.999,415.9,104.0,0,11.0,,88936.2,11.24,-0.44,0.14,-0.93,4.3,-45.3,-19.0,36.44,,,,,,,,,,
14.54.07.011,333.3,83.3,0,11.0,,87129.4,11.48,-0.45,0.13,-0.92,7.6,-45.3,-17.1,36.44,,,,,,,,,,
14.54.07.019,354.4,88.6,0,11.0,,85067.3,11.76,-0.47,0.15,-0.91,9.1,-46.5,-13.9,36.44,,,,,,,,,,
14.54.07.031,362.3,90.6,0,11.0,,90367.2,11.07,-0.48,0.13,-0.93,10.3,-46.8,-13.3,36.44,,,,,,,,,,
14.54.07.044,246.2,61.6,0,11.0,,87769.3,11.39,-0.48,0.15,-0.92,12.7,-48.2,-11.5,36.44,,,,,,,,,,
14.54.07.080,115.6,28.9,0,11.0,,84389.0,11.85,-0.49,0.15,-0.93,13.4,-46.4,-11.0,36.38,,,,,,,,,,
14.54.07.093,67.8,17.0,0,11.0,,89130.1,11.22,-0.51,0.16,-0.92,16.1,-35.8,-12.5,36.38,,,,,,,,,,
14.54.07.101,-2.6,0.6,0,11.0,,86221.9,11.6,-0.51,0.16,-0.89,17.0,-34.1,-12.4,36.38,,,,,,,,,,
14.54.07.113,-7.1,1.8,0,11.0,,86667.4,11.54,-0.5,0.17,-0.91,14.8,-30.1,-15.2,36.38,,,,,,,,,,
14.54.07.126,51.5,12.9,0,11.0,,85298.1,11.72,-0.52,0.15,-0.89,20.2,-33.6,-9.6,36.38,,,,,,,,,,
14.54.07.134,30.7,7.7,0,11.0,,89516.9,11.17,-0.53,0.17,-0.91,17.7,-32.5,-7.3,36.38,,,,,,,,,,
14.54.07.146,38.5,9.6,0,11.0,,86379.5,11.58,-0.54,0.16,-0.9,14.7,-33.7,-5.5,36.38,,,,,,,,,,
14.54.07.154,62.0,15.5,0,11.0,,86977.3,11.5,-0.55,0.13,-0.91,17.4,-32.0,-5.1,36.38,,,,,,,,,,
14.54.07.167,38.3,9.6,0,11.0,,88304.8,11.32,-0.55,0.17,-0.89,21.6,-30.0,-4.5,36.38,,,,,,,,,,
14.54.07.179,94.2,23.6,0,11.0,,84847.1,11.79,-0.56,0.16,-0.83,22.5,-30.8,-6.2,36.38,,,,,,,,,,
14.54.07.187,53.2,13.3,0,11.0,,85530.9,11.69,-0.55,0.15,-0.91,22.1,-25.2,-8.5,36.38,,,,,,,,,,
14.54.07.200,74.9,18.7,0,11.0,,86388.0,11.58,-0.57,0.15,-0.86,26.7,-24.3,-7.7,36.38,,,,,,,,,,
14.54.07.208,77.0,19.2,0,11.0,,82712.8,12.09,-0.56,0.14,-0.87,27.1,-18.2,-9.0,36.38,,,,,,,,,,
14.54.07.220,41.9,10.5,0,11.0,,92391.3,10.82,-0.57,0.15,-0.87,26.8,-15.6,-8.9,36.38,,,,,,,,,,
14.54.07.228,27.6,6.9,0,11.0,,85674.5,11.67,-0.58,0.16,-0.86,25.3,-13.1,-8.2,36.38,,,,,,,,,,
14.54.07.240,6.2,1.6,0,11.0,,85314.0,11.72,-0.58,0.14,-0.87,21.4,-11.8,-8.2,36.38,,,,,,,,,,
14.54.07.253,3.7,0.9,0,11.0,,86992.2,11.5,-0.55,0.18,-0.89,13.3,-8.4,-12.6,36.38,,,,,,,,,,
14.54.07.261,-9.5,2.4,0,11.0,,87950.8,11.37,-0.55,0.22,-0.88,21.9,-29.5,8.1,36.38,,,,,,,,,,
14.54.07.273,1.1,0.3,0,11.0,,86309.2,11.59,-0.68,0.14,-0.85,14.7,-2.8,-0.1,36.38,,,,,,,,,,
14.54.07.281,12.1,3.0,0,11.0,,87128.7,11.48,-0.57,0.14,-0.88,9.1,-12.4,-7.0,36.38,,,,,,,,,,
14.54.07.294,12.2,3.0,0,11.0,,86958.2,11.5,-0.6,0.13,-0.83,1.3,-9.9,-7.4,36.38,,,,,,,,,,
14.54.07.302,-37.1,9.3,0,11.0,,87115.8,11.48,-0.63,0.11,-0.83,6.0,-13.7,-7.8,36.38,,,,,,,,,,
14.54.07.314,-40.8,10.2,0,11.0,,87807.7,11.39,-0.59,0.13,-0.82,3.3,-11.2,-9.5,36.38,,,,,,,,,,
14.54.07.326,-48.4,12.1,0,11.0,,92304.1,10.83,-0.62,0.12,-0.82,2.7,-7.6,-14.1,36.38,,,,,,,,,,
14.54.07.334,-27.7,6.9,0,11.0,,90614.0,11.04,-0.62,0.12,-0.82,3.4,-5.3,-13.8,36.38,,,,,,,,,,
14.54.07.347,-53.7,13.4,0,11.0,,88057.3,11.36,-0.63,0.13,-0.8,5.2,-4.3,-12.5,36.38,,,,,,,,,,
14.54.07.355,-46.2,11.6,0,11.0,,87625.8,11.41,-0.64,0.14,-0.79,3.6,-5.1,-12.3,36.38,,,,,,,,,,
14.54.07.367,-64.2,16.0,0,11.0,,85130.9,11.75,-0.66,0.14,-0.78,-0.2,-6.4,-12.3,36.38,,,,,,,,,,
14.54.07.376,-39.7,9.9,0,11.0,,83079.1,12.04,-0.65,0.13,-0.77,-3.3,-5.8,-12.4,36.38,,,,,,,,,,
14.54.07.388,-45.8,11.4,0,11.0,,88038.0,11.36,-0.66,0.14,-0.76,-6.5,-7.0,-9.9,36.38,,,,,,,,,,
14.54.07.400,-45.2,11.3,0,11.0,,88348.3,11.32,-0.65,0.14,-0.77,-9.8,-9.5,-8.8,36.38,,,,,,,,,,
14.54.07.408,-60.9,15.2,0,11.0,,87017.9,11.49,-0.66,0.13,-0.77,-11.3,-9.1,-6.9,36.38,,,,,,,,,,
14.54.07.421,-99.6,24.9,0,11.0,,80630.1,12.4,-0.65,0.11,-0.79,-8.3,-8.5,-6.1,36.38,,,,,,,,,,
14.54.07.429,-82.3,20.6,0,11.0,,85414.1,11.71,-0.65,0.11,-0.77,-6.7,-8.1,-6.8,36.38,,,,,,,,,,
14.54.07.441,-98.9,24.7,0,11.0,,87114.2,11.48,-0.66,0.09,-0.78,-3.6,-6.4,-7.6,36.38,,,,,,,,,,
14.54.07.453,-118.9,29.7,0,11.0,,83445.1,11.98,-0.63,0.09,-0.78,-1.3,-6.1,-7.0,36.38,,,,,,,,,,
14.54.07.461,-71.8,18.0,0,11.0,,88806.3,11.26,-0.64,0.15,-0.77,-18.1,-3.8,-16.0,36.38,,,,,,,,,,
14.54.07.474,-118.1,29.5,0,11.0,,86819.5,11.52,-0.67,0.1,-0.74,2.5,-7.5,-3.2,36.38,,,,,,,,,,
14.54.07.482,-94.4,23.6,0,11.0,,84359.0,11.85,-0.68,0.1,-0.74,-2.6,-7.3,-0.5,36.38,,,,,,,,,,
14.54.07.495,-84.6,21.2,0,11.0,,83441.5,11.98,-0.67,0.08,-0.74,-4.9,-9.1,-1.5,36.38,,,,,,,,,,
14.54.07.503,-125.6,31.4,0,11.0,,86763.1,11.53,-0.68,0.08,-0.74,1.0,-8.9,3.3,36.38,,,,,,,,,,
14.54.07.515,-89.2,22.3,0,11.0,,87884.8,11.38,-0.68,0.08,-0.73,-0.7,-8.5,5.9,36.38,,,,,,,,,,
14.54.07.523,-136.1,34.0,0,11.0,,83487.3,11.98,-0.67,0.06,-0.73,0.5,-10.2,4.9,36.38,,,,,,,,,,
14.54.07.535,-80.9,20.2,0,11.0,,85884.8,11.64,-0.69,0.06,-0.73,-2.5,-11.0,1.8,36.38,,,,,,,,,,
14.54.07.543,-148.2,37.0,0,11.0,,87720.6,11.4,-0.7,0.06,-0.73,10.4,-9.2,7.3,36.38,,,,,,,,,,
14.54.07.556,-136.1,34.0,0,11.0,,84062.9,11.9,-0.7,0.08,-0.73,5.9,-9.5,6.2,36.38,,,,,,,,,,
14.54.07.568,-120.1,30.0,0,11.0,,88784.3,11.26,-0.71,0.07,-0.75,5.3,-10.3,4.3,36.38,,,,,,,,,,
14.54.07.576,-158.9,39.7,0,11.0,,86700.0,11.53,-0.71,0.04,-0.75,11.2,-12.5,5.4,36.38,,,,,,,,,,
14.54.07.589,-174.2,43.6,0,11.0,,86347.3,11.58,-0.7,0.05,-0.76,9.0,-10.8,5.7,36.38,,,,,,,,,,
14.54.07.597,-102.3,25.6,0,11.0,,88771.6,11.26,-0.72,0.03,-0.77,10.9,-9.7,4.3,36.38,,,,,,,,,,
14.54.07.609,-32.2,8.0,1,12.0,76.8,89278.0,11.2,-0.71,0.03,-0.76,14.6,-9.1,5.7,36.38,,,,,,,,,,
14.54.07.617,16.0,4.0,0,12.0,,84115.5,11.89,-0.71,0.03,-0.78,16.5,-7.7,6.3,36.38,,,,,,,,,,
14.54.07.629,99.3,24.8,0,12.0,,89203.6,11.21,-0.71,0.04,-0.77,18.1,-6.9,6.5,36.38,,,,,,,,,,
14.54.07.638,114.5,28.6,0,12.0,,89969.6,11.11,-0.72,0.04,-0.78,20.5,-5.8,7.1,36.38,,,,,,,,,,
14.54.07.650,219.8,55.0,0,12.0,,85082.5,11.75,-0.72,0.04,-0.77,20.7,-6.3,7.3,36.38,,,,,,,,,,
14.54.07.658,200.0,50.0,0,12.0,,88080.1,11.35,-0.73,0.04,-0.77,20.6,-6.5,7.8,36.38,,,,,,,,,,
14.54.07.670,279.7,69.9,0,12.0,,86186.3,11.6,-0.73,0.03,-0.75,20.7,-7.1,8.3,36.38,,,,,,,,,,
14.54.07.679,299.6,74.9,0,12.0,,86570.0,11.55,-0.73,0.02,-0.76,21.5,-8.5,10.1,36.38,,,,,,,,,,
14.54.07.691,330.2,82.6,0,12.0,,87225.0,11.46,-0.73,0.02,-0.77,23.0,-8.7,12.6,36.38,,,,,,,,,,
14.54.07.703,411.0,102.8,0,12.0,,82754.8,12.08,-0.74,0.03,-0.77,25.7,-9.7,14.4,36.38,,,,,,,,,,
14.54.07.712,390.6,97.6,0,12.0,,82585.0,12.11,-0.74,0.02,-0.78,28.4,-8.4,15.1,36.38,,,,,,,,,,
14.54.07.724,413.9,103.5,0,12.0,,82860.0,12.07,-0.73,0.04,-0.77,28.4,-8.4,16.8,36.38,,,,,,,,,,
14.54.07.732,403.3,100.8,0,12.0,,89459.8,11.18,-0.72,0.03,-0.77,28.3,-8.5,17.3,36.38,,,,,,,,,,
14.54.07.744,455.0,113.8,0,12.0,,87461.8,11.43,-0.72,0.04,-0.76,27.7,-8.8,19.0,36.38,,,,,,,,,,
14.54.07.753,435.6,108.9,0,12.0,,85846.9,11.65,-0.72,0.04,-0.75,26.8,-9.4,20.3,36.38,,,,,,,,,,
14.54.07.765,357.6,89.4,0,12.0,,89840.8,11.13,-0.71,0.02,-0.75,26.8,-9.7,22.0,36.38,,,,,,,,,,
14.54.07.773,366.0,91.5,0,12.0,,87980.5,11.37,-0.72,0.01,-0.76,29.2,-8.6,24.0,36.38,,,,,,,,,,
14.54.07.785,386.0,96.5,0,12.0,,88659.0,11.28,-0.72,-0.01,-0.75,34.9,-7.1,24.9,36.38,,,,,,,,,,
14.54.07.797,344.9,86.2,0,12.0,,90057.8,11.1,-0.71,-0.01,-0.78,36.8,-2.5,26.1,36.38,,,,,,,,,,
14.54.07.806,329.8,82.4,0,12.0,,80546.2,12.42,-0.73,-0.01,-0.75,41.9,-3.9,28.5,36.38,,,,,,,,,,
14.54.07.818,307.0,76.8,0,12.0,,86189.3,11.6,-0.72,-0.01,-0.77,45.2,-3.3,29.9,36.38,,,,,,,,,,
14.54.07.826,218.2,54.6,0,12.0,,89100.9,11.22,-0.73,0.0,-0.76,45.9,-4.7,32.3,36.38,,,,,,,,,,
14.54.07.838,199.6,49.9,0,12.0,,88719.3,11.27,-0.73,0.0,-0.76,45.0,-6.0,34.2,36.38,,,,,,,,,,
14.54.07.847,163.3,40.8,0,12.0,,84614.4,11.82,-0.73,-0.01,-0.76,43.7,-8.3,36.9,36.38,,,,,,,,,,
14.54.07.883,-15.4,3.8,0,12.0,,85722.8,11.67,-0.75,-0.01,-0.76,43.4,-9.5,39.0,36.44,,,,,,,,,,
14.54.07.896,36.6,9.2,0,12.0,,87025.8,11.49,-0.75,-0.03,-0.75,46.3,-11.4,43.8,36.44,,,,,,,,,,
14.54.07.908,39.3,9.8,0,12.0,,87555.1,11.42,-0.75,-0.04,-0.75,47.3,-10.3,43.5,36.44,,,,,,,,,,
14.54.07.916,44.4,11.1,0,12.0,,87702.1,11.4,-0.76,-0.04,-0.75,48.0,-9.5,43.7,36.44,,,,,,,,,,
14.54.07.929,67.5,16.9,0,12.0,,86502.0,11.56,-0.76,-0.03,-0.73,47.6,-8.9,44.6,36.44,,,,,,,,,,
14.54.07.937,74.5,18.6,0,12.0,,85675.5,11.67,-0.75,-0.03,-0.73,46.0,-11.3,47.6,36.44,,,,,,,,,,
14.54.07.949,46.2,11.6,0,12.0,,86038.1,11.62,-0.77,-0.05,-0.73,46.8,-13.2,49.2,36.44,,,,,,,,,,
14.54.07.961,82.4,20.6,0,12.0,,91728.2,10.9,-0.77,-0.04,-0.72,48.0,-15.9,51.6,36.44,,,,,,,,,,
14.54.07.969,80.4,20.1,0,12.0,,84692.1,11.81,-0.78,-0.04,-0.72,48.5,-17.9,53.8,36.44,,,,,,,,,,
14.54.07.982,73.7,18.4,0,12.0,,85744.1,11.66,-0.78,-0.06,-0.72,51.0,-20.2,55.9,36.44,,,,,,,,,,
14.54.07.994,53.4,13.4,0,12.0,,89003.5,11.24,-0.77,-0.07,-0.71,55.1,-21.0,57.6,36.44,,,,,,,,,,
14.54.08.003,36.2,9.0,0,12.0,,86394.9,11.57,-0.77,-0.07,-0.71,58.6,-20.5,57.3,36.44,,,,,,,,,,
14.54.08.015,38.1,9.5,0,12.0,,85902.2,11.64,-0.76,-0.07,-0.7,62.8,-20.1,57.2,36.44,,,,,,,,,,
14.54.08.027,9.0,2.2,0,12.0,,85406.9,11.71,-0.77,-0.06,-0.71,65.6,-19.0,56.6,36.44,,,,,,,,,,
14.54.08.035,12.0,3.0,0,12.0,,88869.3,11.25,-0.77,-0.06,-0.7,67.7,-18.5,56.1,36.44,,,,,,,,,,
14.54.08.047,-12.4,3.1,0,12.0,,87726.6,11.4,-0.76,-0.06,-0.7,69.6,-18.4,56.1,36.44,,,,,,,,,,
14.54.08.060,8.1,2.0,0,12.0,,89292.1,11.2,-0.77,-0.06,-0.69,70.0,-20.1,57.1,36.44,,,,,,,,,,
14.54.08.068,-24.1,6.0,0,12.0,,85966.4,11.63,-0.77,-0.05,-0.69,70.6,-21.8,57.8,36.44,,,,,,,,,,
14.54.08.080,-2.8,0.7,0,12.0,,91006.2,10.99,-0.77,-0.03,-0.68,70.8,-24.0,58.3,36.44,,,,,,,,,,
14.54.08.092,-46.6,11.6,0,12.0,,85782.1,11.66,-0.75,-0.03,-0.68,70.4,-25.3,59.2,36.44,,,,,,,,,,
14.54.08.105,-43.9,11.0,0,12.0,,86317.2,11.59,-0.73,-0.02,-0.68,73.9,-21.6,64.2,36.44,,,,,,,,,,
14.54.08.113,-30.5,7.6,0,12.0,,90673.2,11.03,-0.75,0.02,-0.69,64.6,-28.2,56.8,36.44,,,,,,,,,,
14.54.08.125,-74.3,18.6,0,12.0,,87001.1,11.49,-0.76,0.0,-0.66,67.9,-26.2,54.5,36.44,,,,,,,,,,
14.54.08.138,-71.4,17.8,0,12.0,,86688.7,11.54,-0.76,0.01,-0.67,70.5,-27.7,54.4,36.44,,,,,,,,,,
14.54.08.146,-49.8,12.4,0,12.0,,83311.2,12.0,-0.78,0.04,-0.66,66.9,-28.4,49.3,36.44,,,,,,,,,,
14.54.08.158,-70.3,17.6,0,12.0,,86457.0,11.57,-0.8,0.05,-0.66,64.9,-30.6,45.9,36.44,,,,,,,,,,
14.54.08.170,-44.2,11.0,0,12.0,,89746.7,11.14,-0.8,0.06,-0.66,61.0,-32.8,42.6,36.44,,,,,,,,,,
14.54.08.179,-71.4,17.8,0,12.0,,84749.4,11.8,-0.8,0.08,-0.65,56.7,-36.2,40.2,36.44,,,,,,,,,,
14.54.08.191,-95.5,23.9,0,12.0,,81895.8,12.21,-0.79,0.07,-0.65,53.6,-38.0,39.6,36.44,,,,,,,,,,
14.54.08.199,-102.2,25.6,0,12.0,,86820.7,11.52,-0.8,0.08,-0.66,50.7,-38.7,39.1,36.44,,,,,,,,,,
14.54.08.211,-74.8,18.7,0,12.0,,82491.5,12.12,-0.79,0.06,-0.66,46.9,-36.7,40.2,36.44,,,,,,,,,,
14.54.08.224,-112.1,28.0,0,12.0,,88363.0,11.32,-0.78,0.11,-0.65,44.5,-39.4,37.2,36.44,,,,,,,,,,
14.54.08.232,-102.2,25.6,0,12.0,,88457.1,11.3,-0.78,0.11,-0.64,42.8,-39.1,35.6,36.44,,,,,,,,,,
14.54.08.244,-98.6,24.6,0,12.0,,91485.2,10.93,-0.77,0.11,-0.65,41.7,-39.0,34.7,36.44,,,,,,,,,,
14.54.08.252,-135.8,34.0,0,12.0,,88334.2,11.32,-0.76,0.11,-0.64,40.2,-38.5,34.6,36.44,,,,,,,,,,
14.54.08.264,-90.3,22.6,0,12.0,,88104.3,11.35,-0.76,0.13,-0.64,41.3,-35.7,35.4,36.44,,,,,,,,,,
14.54.08.277,-140.0,35.0,0,12.0,,85128.8,11.75,-0.74,0.12,-0.63,43.6,-33.1,37.3,36.44,,,,,,,,,,
14.54.08.285,-96.7,24.2,0,12.0,,82909.7,12.06,-0.77,0.17,-0.7,51.8,-20.1,59.3,36.44,,,,,,,,,,
14.54.08.297,-115.1,28.8,0,12.0,,85679.2,11.67,-0.74,0.1,-0.67,56.8,-19.6,59.0,36.44,,,,,,,,,,
14.54.08.305,-82.7,20.7,0,12.0,,87956.2,11.37,-0.71,0.17,-0.63,55.4,-23.7,39.3,36.44,,,,,,,,,,
14.54.08.318,-120.1,30.0,0,12.0,,89199.8,11.21,-0.73,0.17,-0.61,53.7,-21.5,38.1,36.44,,,,,,,,,,
14.54.08.330,-136.3,34.1,0,12.0,,87923.0,11.37,-0.75,0.14,-0.59,63.4,-14.1,33.3,36.44,,,,,,,,,,
14.54.08.338,-142.8,35.7,0,12.0,,87341.5,11.45,-0.74,0.19,-0.61,62.2,-22.5,39.1,36.44,,,,,,,,,,
14.54.08.350,-100.4,25.1,0,12.0,,89872.0,11.13,-0.73,0.21,-0.58,69.1,-14.9,40.0,36.44,,,,,,,,,,
14.54.08.359,-139.7,34.9,0,12.0,,86482.0,11.56,-0.72,0.21,-0.6,63.4,-17.5,39.7,36.44,75.8,,,,,,,,,
14.54.08.371,-156.5,39.1,0,12.0,,88998.9,11.24,-0.66,0.24,-0.52,59.9,-7.7,54.4,36.44,,,,,,,,,,
14.54.08.383,27.8,7.0,1,13.0,74.1,85158.4,11.74,-0.69,0.19,-0.6,73.0,-11.0,46.2,36.44,,,,,,,,,,
14.54.08.391,37.4,9.4,0,13.0,,88795.0,11.26,-0.67,0.21,-0.57,62.6,-8.3,40.0,36.44,,,,,,,,,,
14.54.08.404,126.9,31.7,0,13.0,,85913.6,11.64,-0.68,0.25,-0.59,63.8,-9.2,37.0,36.44,,,,,,,,,,
14.54.08.412,181.5,45.4,0,13.0,,86378.1,11.58,-0.67,0.26,-0.57,66.6,-7.8,36.2,36.44,,,,,,,,,,
14.54.08.424,194.8,48.7,0,13.0,,87827.3,11.39,-0.68,0.25,-0.57,63.2,-10.8,34.5,36.44,,,,,,,,,,
14.54.08.432,230.5,57.6,0,13.0,,89169.8,11.21,-0.66,0.26,-0.57,60.2,-10.6,32.0,36.44,,,,,,,,,,
14.54.08.445,279.2,69.8,0,13.0,,88198.0,11.34,-0.66,0.27,-0.57,56.6,-11.5,30.2,36.44,,,,,,,,,,
14.54.08.457,311.5,77.9,0,13.0,,88062.6,11.36,-0.66,0.27,-0.57,52.6,-11.4,27.2,36.44,,,,,,,,,,
14.54.08.465,334.4,83.6,0,13.0,,86799.6,11.52,-0.66,0.26,-0.58,50.1,-11.1,24.7,36.44,,,,,,,,,,
14.54.08.477,394.8,98.7,0,13.0,,87653.2,11.41,-0.66,0.27,-0.58,47.1,-9.6,21.7,36.44,,,,,,,,,,
14.54.08.486,389.3,97.3,0,13.0,,84082.7,11.89,-0.66,0.27,-0.59,44.7,-8.4,18.1,36.44,,,,,,,,,,
14.54.08.498,447.7,111.9,0,13.0,,88173.1,11.34,-0.66,0.27,-0.59,44.7,-6.8,15.2,36.44,,,,,,,,,,
14.54.08.506,352.7,88.2,0,13.0,,87062.2,11.49,-0.67,0.27,-0.6,43.2,-4.6,12.7,36.44,,,,,,,,,,
14.54.08.519,404.8,101.2,0,13.0,,83815.7,11.93,-0.67,0.28,-0.61,41.4,-2.5,9.9,36.44,,,,,,,,,,
14.54.08.531,448.4,112.1,0,13.0,,83952.6,11.91,-0.72,0.32,-0.62,49.6,1.4,13.1,36.44,,,,,,,,,,
14.54.08.539,417.1,104.3,0,13.0,,91115.3,10.98,-0.69,0.27,-0.63,39.3,1.3,8.0,36.44,,,,,,,,,,
14.54.08.551,397.4,99.4,0,13.0,,88453.9,11.31,-0.71,0.31,-0.62,30.3,2.7,2.8,36.44,,,,,,,,,,
14.54.08.559,399.5,99.9,0,13.0,,87877.6,11.38,-0.68,0.28,-0.64,30.8,1.3,4.3,36.44,,,,,,,,,,
14.54.08.572,362.5,90.6,0,13.0,,84727.2,11.8,-0.67,0.28,-0.64,25.7,2.1,2.6,36.44,,,,,,,,,,
14.54.08.580,354.2,88.6,0,13.0,,90510.1,11.05,-0.67,0.28,-0.64,23.6,2.9,1.8,36.44,,,,,,,,,,
14.54.08.592,250.5,62.6,0,13.0,,84677.4,11.81,-0.67,0.28,-0.65,21.4,6.3,1.3,36.44,,,,,,,,,,
14.54.08.600,207.9,52.0,0,13.0,,86918.2,11.51,-0.69,0.26,-0.66,18.8,11.6,-1.0,36.44,,,,,,,,,,
14.54.08.613,176.6,44.2,0,13.0,,87091.1,11.48,-0.71,0.25,-0.68,17.1,17.5,-4.3,36.44,,,,,,,,,,
14.54.08.621,172.4,43.1,0,13.0,,80740.6,12.39,-0.75,0.26,-0.69,13.2,22.6,-8.8,36.44,,,,,,,,,,
14.54.08.633,94.1,23.5,0,13.0,,86083.8,11.62,-0.78,0.23,-0.69,11.6,28.6,-10.3,36.44,,,,,,,,,,
14.54.08.642,65.3,16.3,0,13.0,,88495.7,11.3,-0.8,0.29,-0.72,13.8,26.7,-10.6,36.44,,,,,,,,,,
14.54.08.654,-1.3,0.3,0,13.0,,88178.7,11.34,-0.81,0.24,-0.72,4.9,23.8,-13.1,36.44,,,,,,,,,,
14.54.08.691,42.8,10.7,0,13.0,,85954.2,11.63,-0.8,0.24,-0.71,-0.2,22.0,-13.9,36.38,,,,,,,,,,
14.54.08.703,50.3,12.6,0,13.0,,85994.1,11.63,-0.84,0.21,-0.75,-15.5,24.3,-15.1,36.38,,,,,,,,,,
14.54.08.711,50.5,12.6,0,13.0,,86362.4,11.58,-0.84,0.29,-0.78,-12.3,28.0,-15.2,36.38,,,,,,,,,,
14.54.08.723,98.1,24.5,0,13.0,,86854.5,11.51,-0.85,0.19,-0.73,-20.8,26.7,-15.5,36.38,,,,,,,,,,
14.54.08.731,81.1,20.3,0,13.0,,85755.0,11.66,-0.85,0.2,-0.72,-24.2,27.7,-17.1,36.38,,,,,,,,,,
14.54.08.744,82.0,20.5,0,13.0,,87625.9,11.41,-0.83,0.2,-0.71,-24.1,28.0,-15.9,36.38,,,,,,,,,,
14.54.08.756,70.6,17.6,0,13.0,,87968.2,11.37,-0.81,0.2,-0.7,-29.1,29.6,-17.0,36.38,,,,,,,,,,
14.54.08.764,62.4,15.6,0,13.0,,88709.4,11.27,-0.81,0.17,-0.7,-33.0,31.2,-16.9,36.38,,,,,,,,,,
14.54.08.777,68.1,17.0,0,13.0,,88418.6,11.31,-0.81,0.16,-0.67,-34.0,32.2,-16.3,36.38,,,,,,,,,,
14.54.08.785,22.6,5.6,0,13.0,,90171.7,11.09,-0.81,0.16,-0.68,-33.7,33.3,-16.8,36.38,,,,,,,,,,
14.54.08.797,23.6,5.9,0,13.0,,85553.7,11.69,-0.82,0.14,-0.69,-35.5,35.0,-17.4,36.38,,,,,,,,,,
14.54.08.809,30.7,7.7,0,13.0,,87262.9,11.46,-0.84,0.13,-0.69,-35.7,35.4,-18.5,36.38,,,,,,,,,,
14.54.08.817,24.3,6.1,0,13.0,,85192.5,11.74,-0.83,0.12,-0.69,-36.3,35.3,-19.0,36.38,,,,,,,,,,
14.54.08.830,-0.4,0.1,0,13.0,,86027.6,11.62,-0.82,0.11,-0.69,-37.6,32.8,-17.2,36.38,,,,,,,,,,
14.54.08.838,-1.3,0.3,0,13.0,,86434.7,11.57,-0.81,0.1,-0.7,-39.5,29.8,-14.6,36.38,,,,,,,,,,
14.54.08.850,-13.2,3.3,0,13.0,,85550.4,11.69,-0.81,0.08,-0.71,-41.1,26.1,-11.9,36.38,,,,,,,,,,
14.54.08.863,-39.6,9.9,0,13.0,,89125.8,11.22,-0.8,0.09,-0.7,-41.1,21.7,-9.2,36.38,,,,,,,,,,
14.54.08.871,-47.7,11.9,0,13.0,,87004.0,11.49,-0.8,0.06,-0.7,-43.1,20.2,-8.0,36.38,,,,,,,,,,
14.54.08.883,-38.1,9.5,0,13.0,,86847.8,11.51,-0.79,0.04,-0.72,-42.1,20.9,-8.0,36.38,,,,,,,,,,
14.54.08.891,-31.7,7.9,0,13.0,,88158.9,11.34,-0.79,0.03,-0.71,-38.5,23.1,-7.9,36.38,,,,,,,,,,
14.54.08.904,-44.5,11.1,0,13.0,,88033.0,11.36,-0.78,0.01,-0.72,-35.4,24.8,-8.6,36.38,,,,,,,,,,
14.54.08.912,-39.5,9.9,0,13.0,,86563.0,11.55,-0.78,0.0,-0.72,-32.1,27.1,-8.9,36.38,,,,,,,,,,
14.54.08.924,-44.7,11.2,0,13.0,,86748.9,11.53,-0.77,0.0,-0.72,-27.2,27.8,-7.7,36.38,,,,,,,,,,
14.54.08.937,-75.7,18.9,0,13.0,,92077.7,10.86,-0.77,-0.01,-0.73,-25.0,28.2,-6.6,36.38,,,,,,,,,,
14.54.08.945,-85.8,21.4,0,13.0,,85693.3,11.67,-0.77,-0.01,-0.72,-23.6,26.4,-5.4,36.38,,,,,,,,,,
14.54.08.957,-92.4,23.1,0,13.0,,86170.1,11.6,-0.77,0.0,-0.71,-22.8,23.7,-4.1,36.38,,,,,,,,,,
14.54.08.965,-47.6,11.9,0,13.0,,84662.1,11.81,-0.77,0.0,-0.7,-22.9,20.8,-3.6,36.38,,,,,,,,,,
14.54.08.977,-100.1,25.0,0,13.0,,89154.7,11.22,-0.76,0.01,-0.7,-23.7,18.7,-3.5,36.38,,,,,,,,,,
14.54.08.985,-105.8,26.4,0,13.0,,83889.4,11.92,-0.76,0.01,-0.69,-23.6,17.8,-6.1,36.38,,,,,,,,,,
14.54.08.998,-75.4,18.8,0,13.0,,87521.8,11.43,-0.75,0.01,-0.7,-24.4,18.6,-9.0,36.38,,,,,,,,,,
14.54.09.010,-110.7,27.7,0,13.0,,84193.6,11.88,-0.75,0.01,-0.69,-25.4,19.0,-11.9,36.38,,,,,,,,,,
14.54.09.018,-110.3,27.6,0,13.0,,90931.4,11.0,-0.75,0.01,-0.69,-25.9,18.9,-13.7,36.38,,,,,,,,,,
14.54.09.031,-110.0,27.5,0,13.0,,82457.1,12.13,-0.75,0.02,-0.69,-28.6,17.7,-14.8,36.38,,,,,,,,,,
14.54.09.039,-132.5,33.1,0,13.0,,84926.6,11.77,-0.75,0.01,-0.68,-31.7,16.0,-15.8,36.38,,,,,,,,,,
14.54.09.051,-164.4,41.1,0,13.0,,86274.6,11.59,-0.75,0.0,-0.69,-32.2,12.5,-14.9,36.38,,,,,,,,,,
14.54.09.059,-126.9,31.7,0,13.0,,89587.5,11.16,-0.75,0.01,-0.69,-33.0,10.3,-14.8,36.38,,,,,,,,,,
14.54.09.072,-151.3,37.8,0,13.0,,82757.9,12.08,-0.73,-0.01,-0.69,-32.8,7.7,-14.2,36.38,,,,,,,,,,
14.54.09.084,-149.9,37.5,0,13.0,,86607.7,11.55,-0.74,-0.01,-0.7,-31.5,7.1,-13.3,36.38,,,,,,,,,,
14.54.09.092,-129.8,32.4,0,13.0,,84870.9,11.78,-0.73,-0.01,-0.71,-28.6,7.5,-12.9,36.38,,,,,,,,,,
14.54.09.104,-150.7,37.7,0,13.0,,87539.2,11.42,-0.74,-0.01,-0.7,-26.4,7.5,-11.9,36.38,,,,,,,,,,
14.54.09.113,-141.5,35.4,0,13.0,,86865.6,11.51,-0.74,-0.02,-0.71,-22.4,8.1,-10.8,36.38,,,,,,,,,,
14.54.09.125,-146.3,36.6,0,13.0,,86537.2,11.56,-0.74,-0.02,-0.71,-17.6,9.2,-9.5,36.38,,,,,,,,,,
14.54.09.137,-185.3,46.3,0,13.0,,86302.8,11.59,-0.74,0.0,-0.71,-14.5,10.8,-9.0,36.38,,,,,,,,,,
14.54.09.145,-157.3,39.3,0,13.0,,86184.2,11.6,-0.75,0.0,-0.71,-12.0,11.4,-9.3,36.38,,,,,,,,,,
14.54.09.158,28.5,7.1,1,14.0,73.9,84193.6,11.88,-0.75,0.0,-0.7,-10.5,11.8,-8.9,36.38,,,,,,,,,,
14.54.09.170,109.0,27.2,0,14.0,,81554.4,12.26,-0.76,0.01,-0.7,-9.3,13.1,-9.2,36.38,,,,,,,,,,
14.54.09.178,92.6,23.2,0,14.0,,85834.2,11.65,-0.76,0.02,-0.69,-7.6,13.9,-10.1,36.38,,,,,,,,,,
14.54.09.191,170.5,42.6,0,14.0,,87365.3,11.45,-0.76,0.03,-0.69,-7.9,15.5,-10.8,36.38,,,,,,,,,,
14.54.09.199,200.5,50.1,0,14.0,,88173.8,11.34,-0.77,0.04,-0.68,-8.2,16.6,-12.3,36.38,,,,,,,,,,
14.54.09.211,260.6,65.2,0,14.0,,85322.9,11.72,-0.77,0.04,-0.68,-8.5,17.0,-12.8,36.38,,,,,,,,,,
14.54.09.223,338.9,84.7,0,14.0,,88863.5,11.25,-0.77,0.04,-0.68,-8.3,17.5,-12.6,36.38,,,,,,,,,,
14.54.09.231,333.4,83.4,0,14.0,,83153.3,12.03,-0.77,0.05,-0.68,-7.9,16.5,-12.0,36.38,,,,,,,,,,
14.54.09.244,352.4,88.1,0,14.0,,87669.4,11.41,-0.76,0.05,-0.67,-8.2,15.4,-11.7,36.38,,,,,,,,,,
14.54.09.256,375.4,93.8,0,14.0,,89123.6,11.22,-0.76,0.06,-0.66,-8.2,14.9,-11.9,36.38,,,,,,,,,,
14.54.09.264,389.1,97.3,0,14.0,,86493.6,11.56,-0.75,0.06,-0.65,-7.7,14.1,-11.4,36.38,,,,,,,,,,
14.54.09.276,399.2,99.8,0,14.0,,86371.8,11.58,-0.74,0.06,-0.65,-6.7,14.3,-11.1,36.38,,,,,,,,,,
14.54.09.289,422.3,105.6,0,14.0,,87151.3,11.47,-0.74,0.07,-0.65,-6.2,14.2,-10.6,36.38,,,,,,,,,,
14.54.09.297,418.5,104.6,0,14.0,,85374.0,11.71,-0.75,0.08,-0.65,-5.5,15.5,-10.5,36.38,,,,,,,,,,
14.54.09.309,434.5,108.6,0,14.0,,90289.2,11.08,-0.75,0.09,-0.65,-5.6,15.0,-10.8,36.38,,,,,,,,,,
14.54.09.317,402.7,100.7,0,14.0,,85376.9,11.71,-0.76,0.09,-0.65,-6.1,13.9,-10.6,36.38,,,,,,,,,,
14.54.09.330,377.0,94.2,0,14.0,,85516.2,11.69,-0.76,0.1,-0.66,-6.3,10.9,-8.9,36.38,,,,,,,,,,
14.54.09.342,334.3,83.6,0,14.0,,88783.6,11.26,-0.75,0.1,-0.67,-6.3,8.0,-7.2,36.38,,,,,,,,,,
14.54.09.350,356.5,89.1,0,14.0,,87124.2,11.48,-0.74,0.09,-0.68,-4.4,5.3,-4.1,36.38,,,,,,,,,,
14.54.09.363,276.0,69.0,0,14.0,,87144.2,11.48,-0.74,0.1,-0.69,-2.2,5.7,-1.8,36.38,,,,,,,,,,
14.54.09.371,251.5,62.9,0,14.0,,85094.8,11.75,-0.73,0.11,-0.69,0.2,6.8,-0.1,36.38,,,,,,,,,,
14.54.09.383,192.0,48.0,0,14.0,,84474.6,11.84,-0.73,0.1,-0.7,1.9,8.8,1.0,36.38,,,,,,,,,,
14.54.09.395,135.5,33.9,0,14.0,,86617.0,11.55,-0.73,0.11,-0.71,5.4,10.6,0.9,36.38,,,,,,,,,,
14.54.09.403,124.4,31.1,0,14.0,,83958.9,11.91,-0.74,0.12,-0.71,6.8,11.9,2.1,36.38,,,,,,,,,,
14.54.09.416,69.5,17.4,0,14.0,,88173.1,11.34,-0.75,0.12,-0.71,7.2,11.6,3.1,36.38,,,,,,,,,,
14.54.09.424,23.3,5.8,0,14.0,,85640.2,11.68,-0.75,0.13,-0.71,7.7,10.5,5.3,36.38,,,,,,,,,,
14.54.09.436,43.6,10.9,0,14.0,,85028.7,11.76,-0.75,0.13,-0.71,8.5,7.9,8.2,36.38,,,,,,,,,,
14.54.09.445,22.8,5.7,0,14.0,,89958.7,11.12,-0.75,0.13,-0.7,7.6,5.6,10.9,36.38,,,,,,,,,,
14.54.09.457,28.4,7.1,0,14.0,,88323.4,11.32,-0.75,0.13,-0.71,7.1,3.8,13.2,36.38,,,,,,,,,,
14.54.09.493,72.3,18.1,0,14.0,,84426.1,11.84,-0.75,0.12,-0.71,8.6,3.3,14.6,36.38,,,,,,,,,,
14.54.09.506,67.5,16.9,0,14.0,,84280.9,11.87,-0.79,0.12,-0.72,12.0,3.0,13.0,36.38,,,,,,,,,,
14.54.09.514,35.7,8.9,0,14.0,,84327.7,11.86,-0.8,0.12,-0.73,11.1,1.5,13.2,36.38,,,,,,,,,,
14.54.09.526,58.1,14.5,0,14.0,,88579.2,11.29,-0.8,0.12,-0.73,11.3,-0.5,14.3,36.38,,,,,,,,,,
14.54.09.534,62.8,15.7,0,14.0,,85428.0,11.71,-0.8,0.11,-0.74,11.4,-3.5,16.9,36.38,,,,,,,,,,
14.54.09.551,21.8,5.4,0,14.0,,88538.3,11.29,-0.77,0.11,-0.73,13.3,-6.9,20.4,36.38,,,,,,,,,,
14.54.09.559,27.6,6.9,0,14.0,,84720.7,11.8,-0.74,0.1,-0.73,15.3,-7.0,23.6,36.38,,,,,,,,,,
14.54.09.571,15.3,3.8,0,14.0,,87970.9,11.37,-0.72,0.1,-0.72,17.8,-4.6,26.0,36.38,,,,,,,,,,
14.54.09.584,-3.1,0.8,0,14.0,,91481.9,10.93,-0.71,0.12,-0.7,20.6,-0.5,27.9,36.38,,,,,,,,,,
14.54.09.592,4.2,1.0,0,14.0,,86572.3,11.55,-0.7,0.12,-0.69,22.3,4.7,27.4,36.38,,,,,,,,,,
14.54.09.604,-12.1,3.0,0,14.0,,85210.3,11.74,-0.7,0.15,-0.68,23.0,8.1,26.8,36.38,,,,,,,,,,
14.54.09.612,-16.3,4.1,0,14.0,,85438.2,11.7,-0.71,0.17,-0.66,20.4,9.7,24.7,36.38,,,,,,,,,,
14.54.09.625,-17.8,4.4,0,14.0,,88459.5,11.3,-0.72,0.18,-0.64,16.9,10.2,22.7,36.38,,,,,,,,,,
14.54.09.633,-80.5,20.1,0,14.0,,84635.9,11.82,-0.72,0.18,-0.65,12.3,10.4,20.7,36.38,,,,,,,,,,
14.54.09.645,-10.3,2.6,0,14.0,,87365.2,11.45,-0.74,0.18,-0.63,9.6,10.0,19.2,36.38,,,,,,,,,,
14.54.09.657,-50.5,12.6,0,14.0,,91543.1,10.92,-0.74,0.18,-0.64,6.0,9.7,18.3,36.38,,,,,,,,,,
14.54.09.666,-45.7,11.4,0,14.0,,90442.0,11.06,-0.74,0.18,-0.64,4.2,9.9,18.4,36.38,,,,,,,,,,
14.54.09.678,-48.5,12.1,0,14.0,,89067.2,11.23,-0.73,0.16,-0.64,2.9,9.5,20.0,36.38,,,,,,,,,,
14.54.09.686,-60.9,15.2,0,14.0,,87386.4,11.44,-0.72,0.15,-0.64,3.4,10.8,22.1,36.38,,,,,,,,,,
14.54.09.699,-87.2,21.8,0,14.0,,85507.1,11.69,-0.71,0.15,-0.64,4.3,12.9,24.4,36.38,,,,,,,,,,
14.54.09.706,-68.7,17.2,0,14.0,,86651.0,11.54,-0.71,0.15,-0.65,4.9,15.4,26.1,36.38,,,,,,,,,,
14.54.09.719,-33.4,8.4,0,14.0,,81955.9,12.2,-0.73,0.16,-0.64,6.9,17.6,25.8,36.38,,,,,,,,,,
14.54.09.727,-73.6,18.4,0,14.0,,85056.3,11.76,-0.75,0.15,-0.65,7.3,17.5,27.1,36.38,,,,,,,,,,
14.54.09.739,-91.3,22.8,0,14.0,,90469.3,11.05,-0.76,0.14,-0.65,9.1,16.4,29.3,36.38,,,,,,,,,,
14.54.09.748,-67.0,16.8,0,14.0,,92600.4,10.8,-0.77,0.12,-0.66,12.1,14.8,32.9,36.38,,,,,,,,,,
14.54.09.760,-78.7,19.7,0,14.0,,86426.9,11.57,-0.77,0.11,-0.66,17.7,14.0,36.3,36.38,,,,,,,,,,
14.54.09.768,-70.2,17.6,0,14.0,,79714.2,12.54,-0.78,0.12,-0.66,24.2,13.5,38.6,36.38,,,,,,,,,,
14.54.09.780,-116.9,29.2,0,14.0,,86420.3,11.57,-0.78,0.13,-0.65,28.9,14.7,40.0,36.38,,,,,,,,,,
14.54.09.788,-102.0,25.5,0,14.0,,90144.2,11.09,-0.77,0.14,-0.65,32.7,16.2,39.9,36.38,,,,,,,,,,
14.54.09.801,-86.8,21.7,0,14.0,,88911.9,11.25,-0.77,0.15,-0.64,35.5,16.5,40.6,36.38,,,,,,,,,,
14.54.09.813,-123.2,30.8,0,14.0,,90098.8,11.1,-0.76,0.16,-0.63,37.2,16.0,40.5,36.38,,,,,,,,,,
14.54.09.821,-105.7,26.4,0,14.0,,86668.5,11.54,-0.75,0.17,-0.63,37.1,13.3,41.2,36.38,,,,,,,,,,
14.54.09.833,-104.5,26.1,0,14.0,,86982.0,11.5,-0.74,0.19,-0.62,35.9,11.5,40.9,36.38,,,,,,,,,,
14.54.09.842,-149.9,37.5,0,14.0,,84996.6,11.77,-0.73,0.18,-0.62,35.6,9.6,39.9,36.38,,,,,,,,,,
14.54.09.854,-114.7,28.7,0,14.0,,88128.2,11.35,-0.72,0.19,-0.62,34.8,9.2,37.1,36.38,,,,,,,,,,
14.54.09.862,-123.9,31.0,0,14.0,,86266.8,11.59,-0.72,0.19,-0.61,34.5,9.9,32.4,36.38,,,,,,,,,,
14.54.09.874,-117.5,29.4,0,14.0,,87363.2,11.45,-0.71,0.2,-0.61,33.2,10.9,27.7,36.38,,,,,,,,,,
14.54.09.883,-151.8,38.0,0,14.0,,87687.1,11.4,-0.71,0.21,-0.6,30.4,11.5,22.7,36.38,,,,,,,,,,
14.54.09.895,-120.5,30.1,0,14.0,,86147.4,11.61,-0.7,0.21,-0.59,27.9,10.7,19.1,36.38,,,,,,,,,,
14.54.09.907,-137.6,34.4,0,14.0,,90297.2,11.07,-0.7,0.22,-0.59,24.7,9.2,16.6,36.38,,,,,,,,,,
14.54.09.915,-173.7,43.4,0,14.0,,88296.5,11.33,-0.69,0.22,-0.59,22.9,5.8,15.8,36.38,,,,,,,,,,
14.54.09.928,-165.5,41.4,0,14.0,,86380.4,11.58,-0.69,0.23,-0.58,19.7,1.9,14.8,36.38,,,,,,,,,,
14.54.09.936,36.2,9.0,1,15.0,79.5,85054.0,11.76,-0.68,0.22,-0.58,15.9,-1.4,14.3,36.38,,,,,,,,,,
14.54.09.948,70.5,17.6,0,15.0,,84440.4,11.84,-0.67,0.2,-0.6,14.9,-3.3,12.9,36.38,,,,,,,,,,
14.54.09.957,139.4,34.8,0,15.0,,85061.0,11.76,-0.67,0.19,-0.6,15.9,-3.8,12.1,36.38,,,,,,,,,,
14.54.09.969,149.9,37.5,0,15.0,,85892.0,11.64,-0.67,0.19,-0.6,18.0,-4.1,12.0,36.38,,,,,,,,,,
14.54.09.981,241.2,60.3,0,15.0,,85165.6,11.74,-0.67,0.18,-0.62,20.4,-4.3,11.0,36.38,,,,,,,,,,
14.54.09.989,280.7,70.2,0,15.0,,83934.8,11.91,-0.67,0.19,-0.62,22.7,-3.9,11.4,36.38,,,,,,,,,,
14.54.10.001,320.3,80.1,0,15.0,,89560.5,11.17,-0.67,0.19,-0.63,24.2,-5.2,11.7,36.38,,,,,,,,,,
14.54.10.010,330.1,82.5,0,15.0,,86105.9,11.61,-0.67,0.19,-0.64,25.6,-7.1,12.8,36.38,,,,,,,,,,
14.54.10.026,330.4,82.6,0,15.0,,88542.8,11.29,-0.68,0.19,-0.66,26.8,-9.3,14.6,36.38,,,,,,,,,,
14.54.10.034,393.5,98.4,0,15.0,,86048.8,11.62,-0.69,0.19,-0.67,27.9,-10.3,15.7,36.38,,,,,,,,,,
14.54.10.046,395.7,98.9,0,15.0,,83313.7,12.0,-0.7,0.19,-0.69,28.5,-10.6,16.8,36.38,,,,,,,,,,
14.54.10.055,402.1,100.5,0,15.0,,83083.0,12.04,-0.7,0.19,-0.71,30.8,-9.9,17.4,36.38,,,,,,,,,,
14.54.10.067,420.3,105.1,0,15.0,,84476.1,11.84,-0.7,0.19,-0.71,32.9,-9.2,18.2,36.38,,,,,,,,,,
14.54.10.079,379.2,94.8,0,15.0,,88266.6,11.33,-0.7,0.18,-0.72,35.5,-7.9,18.9,36.38,,,,,,,,,,
14.54.10.088,409.6,102.4,0,15.0,,86881.2,11.51,-0.69,0.18,-0.73,38.2,-5.9,19.3,36.38,,,,,,,,,,
14.54.10.100,340.6,85.2,0,15.0,,88873.4,11.25,-0.69,0.2,-0.73,40.1,-4.0,19.8,36.38,,,,,,,,,,
14.54.10.108,342.8,85.7,0,15.0,,86629.2,11.54,-0.69,0.2,-0.74,39.5,-2.7,20.1,36.38,,,,,,,,,,
14.54.10.120,302.1,75.5,0,15.0,,85717.9,11.67,-0.7,0.21,-0.73,39.2,-2.6,20.7,36.38,,,,,,,,,,
14.54.10.129,308.9,77.2,0,15.0,,88650.3,11.28,-0.64,0.27,-0.6,48.8,-2.7,39.7,36.38,,,,,,,,,,
14.54.10.141,262.9,65.7,0,15.0,,88314.1,11.32,-0.67,0.25,-0.82,44.8,-1.8,26.4,36.38,,,,,,,,,,
14.54.10.149,194.7,48.7,0,15.0,,87469.1,11.43,-0.68,0.21,-0.71,28.9,0.4,19.3,36.38,,,,,,,,,,
14.54.10.161,144.6,36.2,0,15.0,,88562.7,11.29,-0.65,0.18,-0.72,40.0,4.5,24.5,36.38,,,,,,,,,,
14.54.10.169,116.5,29.1,0,15.0,,84396.6,11.85,-0.65,0.19,-0.72,38.2,8.4,23.8,36.38,,,,,,,,,,
14.54.10.182,98.4,24.6,0,15.0,,86330.9,11.58,-0.66,0.18,-0.72,37.8,13.7,19.5,36.38,,,,,,,,,,
14.54.10.190,38.9,9.7,0,15.0,,89047.9,11.23,-0.69,0.2,-0.72,37.2,16.4,19.5,36.38,,,,,,,,,,
14.54.10.202,4.3,1.1,0,15.0,,86850.8,11.51,-0.71,0.22,-0.72,33.0,15.4,18.0,36.38,,,,,,,,,,
14.54.10.215,42.6,10.6,0,15.0,,89319.9,11.2,-0.72,0.22,-0.73,28.8,12.9,17.8,36.38,,,,,,,,,,
14.54.10.223,40.7,10.2,0,15.0,,88688.9,11.28,-0.74,0.22,-0.72,25.3,9.0,19.4,36.38,,,,,,,,,,
14.54.10.235,51.9,13.0,0,15.0,,89554.4,11.17,-0.73,0.21,-0.73,21.0,5.0,19.6,36.38,,,,,,,,,,
14.54.10.243,56.1,14.0,0,15.0,,90489.8,11.05,-0.73,0.19,-0.73,16.0,2.8,20.2,36.38,,,,,,,,,,
14.54.10.256,61.1,15.3,0,15.0,,85312.4,11.72,-0.74,0.17,-0.75,14.5,2.1,20.8,36.38,,,,,,,,,,
14.54.10.264,102.2,25.6,0,15.0,,92696.0,10.79,-0.76,-0.01,-0.78,20.3,3.5,29.6,36.38,,,,,,,,,,
14.54.10.300,62.5,15.6,0,15.0,,87043.5,11.49,-0.73,0.15,-0.82,18.6,5.3,25.3,36.38,,,,,,,,,,
14.54.10.313,34.2,8.6,0,15.0,,87624.5,11.41,-0.74,0.12,-0.79,23.8,4.3,27.1,36.38,,,,,,,,,,
14.54.10.325,37.4,9.4,0,15.0,,89815.1,11.13,-0.73,0.11,-0.78,28.3,2.9,32.7,36.38,,,,,,,,,,
14.54.10.337,22.9,5.7,0,15.0,,87464.3,11.43,-0.73,0.1,-0.78,28.6,1.5,36.3,36.38,,,,,,,,,,
14.54.10.346,-3.3,0.8,0,15.0,,87925.3,11.37,-0.72,0.09,-0.77,28.7,1.4,39.5,36.38,,,,,,,,,,
14.54.10.358,17.1,4.3,0,15.0,,89819.7,11.13,-0.73,0.08,-0.78,31.4,2.6,42.4,36.38,,,,,,,,,,
14.54.10.366,-10.0,2.5,0,15.0,,83090.6,12.04,-0.74,0.08,-0.78,34.1,2.8,43.8,36.38,,,,,,,,,,
14.54.10.379,10.2,2.6,0,15.0,,89044.5,11.23,-0.74,0.08,-0.76,35.0,4.3,43.9,36.38,,,,,,,,,,
14.54.10.387,-19.4,4.8,0,15.0,,86681.0,11.54,-0.75,0.08,-0.76,35.6,4.8,43.8,36.38,,,,,,,,,,
14.54.10.399,-17.6,4.4,0,15.0,,87688.9,11.4,-0.74,0.08,-0.75,36.3,5.0,43.8,36.38,,,,,,,,,,
14.54.10.407,-12.0,3.0,0,15.0,,89066.3,11.23,-0.73,0.08,-0.75,36.4,5.3,43.7,36.38,,,,,,,,,,
14.54.10.420,-6.1,1.5,0,15.0,,83672.8,11.95,-0.73,0.07,-0.72,38.5,5.4,42.9,36.38,,,,,,,,,,
14.54.10.428,-41.0,10.2,0,15.0,,82355.9,12.14,-0.72,0.08,-0.72,39.3,6.6,41.2,36.38,,,,,,,,,,
14.54.10.440,-16.0,4.0,0,15.0,,91102.6,10.98,-0.71,0.08,-0.71,39.7,7.6,39.1,36.38,,,,,,,,,,
14.54.10.448,-30.8,7.7,0,15.0,,88431.2,11.31,-0.71,0.08,-0.7,39.2,8.0,36.8,36.38,,,,,,,,,,
14.54.10.460,-28.2,7.0,0,15.0,,83039.9,12.04,-0.71,0.08,-0.69,37.7,8.0,34.1,36.38,,,,,,,,,,
14.54.10.473,-50.7,12.7,0,15.0,,92185.5,10.85,-0.7,0.08,-0.67,35.1,6.7,32.6,36.38,,,,,,,,,,
14.54.10.481,-79.7,19.9,0,15.0,,86803.9,11.52,-0.7,0.08,-0.67,33.2,5.0,31.5,36.38,,,,,,,,,,
14.54.10.493,-101.1,25.3,0,15.0,,87381.9,11.44,-0.7,0.08,-0.67,31.1,2.4,30.7,36.38,,,,,,,,,,
14.54.10.501,-59.3,14.8,0,15.0,,88968.6,11.24,-0.7,0.09,-0.66,30.0,0.0,29.3,36.38,,,,,,,,,,
14.54.10.514,-108.5,27.1,0,15.0,,87631.8,11.41,-0.71,0.08,-0.66,28.0,-2.0,27.6,36.38,,,,,,,,,,
14.54.10.522,-91.8,23.0,0,15.0,,82501.1,12.12,-0.72,0.08,-0.66,27.1,-3.6,25.7,36.38,,,,,,,,,,
14.54.10.534,-84.0,21.0,0,15.0,,81851.9,12.22,-0.72,0.07,-0.68,25.7,-5.5,23.3,36.38,,,,,,,,,,
14.54.10.546,-97.9,24.5,0,15.0,,93241.2,10.72,-0.73,0.07,-0.68,26.1,-6.8,21.6,36.38,,,,,,,,,,
14.54.10.554,-112.1,28.0,0,15.0,,89282.5,11.2,-0.73,0.07,-0.69,26.1,-7.7,20.4,36.38,,,,,,,,,,
14.54.10.567,-131.7,32.9,0,15.0,,87713.0,11.4,-0.73,0.06,-0.7,26.3,-8.9,20.5,36.38,,,,,,,,,,
14.54.10.575,-109.6,27.4,0,15.0,,85051.2,11.76,-0.73,0.06,-0.71,26.6,-11.1,21.0,36.38,,,,,,,,,,
14.54.10.587,-141.4,35.4,0,15.0,,87098.1,11.48,-0.73,0.06,-0.73,27.3,-14.0,22.1,36.38,,,,,,,,,,
14.54.10.600,-125.9,31.5,0,15.0,,84024.9,11.9,-0.72,0.05,-0.74,29.2,-16.9,24.2,36.38,,,,,,,,,,
14.54.10.608,-124.3,31.1,0,15.0,,88775.9,11.26,-0.72,0.06,-0.73,32.1,-18.5,26.3,36.38,,,,,,,,,,
14.54.10.620,-112.8,28.2,0,15.0,,84735.9,11.8,-0.71,0.06,-0.74,34.7,-18.6,27.0,36.38,,,,,,,,,,
14.54.10.632,-144.6,36.2,0,15.0,,85528.4,11.69,-0.71,0.05,-0.75,37.8,-18.1,27.7,36.38,,,,,,,,,,
14.54.10.641,-115.2,28.8,0,15.0,,90588.7,11.04,-0.71,0.06,-0.76,41.3,-16.2,27.3,36.38,,,,,,,,,,
14.54.10.653,-143.1,35.8,0,15.0,,85983.7,11.63,-0.7,0.06,-0.76,44.4,-13.8,26.5,36.38,,,,,,,,,,
14.54.10.661,-153.3,38.3,0,15.0,,87504.1,11.43,-0.71,0.07,-0.75,48.8,-11.9,25.9,36.38,,,,,,,,,,
14.54.10.673,-150.2,37.6,0,15.0,,85408.8,11.71,-0.7,0.09,-0.75,50.7,-10.0,25.2,36.38,,,,,,,,,,
14.54.10.686,-136.3,34.1,0,15.0,,86350.4,11.58,-0.71,0.11,-0.75,51.1,-9.5,24.4,36.38,,,,,,,,,,
14.54.10.694,-137.3,34.3,0,15.0,,84779.4,11.8,-0.7,0.12,-0.75,49.2,-10.0,24.1,36.38,,,,,,,,,,
14.54.10.706,-2.3,0.6,1,16.0,78.1,92479.2,10.81,-0.71,0.13,-0.74,45.6,-11.4,23.0,36.38,,,,,,,,,,
14.54.10.715,76.6,19.2,0,16.0,,84520.2,11.83,-0.71,0.13,-0.74,41.6,-12.8,22.3,36.38,,,,,,,,,,
14.54.10.727,114.0,28.5,0,16.0,,87999.3,11.36,-0.72,0.13,-0.75,38.2,-13.9,21.7,36.38,,,,,,,,,,
14.54.10.739,162.4,40.6,0,16.0,,88490.5,11.3,-0.71,0.12,-0.74,37.1,-15.0,21.0,36.38,,,,,,,,,,
14.54.10.747,212.1,53.0,0,16.0,,87799.9,11.39,-0.72,0.12,-0.75,35.9,-15.2,20.3,36.38,,,,,,,,,,
14.54.10.760,209.0,52.2,0,16.0,,86652.6,11.54,-0.72,0.11,-0.75,35.1,-14.7,18.7,36.38,,,,,,,,,,
14.54.10.772,290.4,72.6,0,16.0,,87118.3,11.48,-0.71,0.11,-0.75,35.9,-13.8,17.2,36.38,,,,,,,,,,
14.54.10.780,325.5,81.4,0,16.0,,88505.1,11.3,-0.71,0.12,-0.74,36.4,-12.3,15.8,36.38,,,,,,,,,,
14.54.10.792,357.9,89.5,0,16.0,,83589.4,11.96,-0.71,0.12,-0.74,35.4,-11.5,14.2,36.38,,,,,,,,,,
14.54.10.800,371.7,92.9,0,16.0,,83623.5,11.96,-0.71,0.13,-0.74,34.6,-12.0,14.3,36.38,,,,,,,,,,
14.54.10.813,414.5,103.6,0,16.0,,85545.4,11.69,-0.7,0.14,-0.73,33.4,-12.8,15.7,36.38,,,,,,,,,,
14.54.10.825,396.3,99.1,0,16.0,,86080.0,11.62,-0.7,0.14,-0.73,31.5,-14.9,16.3,36.38,,,,,,,,,,
14.54.10.837,332.8,83.2,0,16.0,,85637.6,11.68,-0.7,0.14,-0.73,29.2,-15.8,17.0,36.38,,,,,,,,,,
14.54.10.845,386.7,96.7,0,16.0,,86877.4,11.51,-0.71,0.14,-0.73,26.9,-15.5,17.0,36.38,,,,,,,,,,
14.54.10.858,360.5,90.1,0,16.0,,86253.1,11.59,-0.7,0.14,-0.73,25.8,-15.1,17.3,36.38,,,,,,,,,,
14.54.10.870,378.2,94.6,0,16.0,,86193.3,11.6,-0.71,0.14,-0.75,26.1,-14.6,18.2,36.38,,,,,,,,,,
14.54.10.878,398.5,99.6,0,16.0,,85386.4,11.71,-0.71,0.13,-0.74,26.8,-12.7,18.3,36.38,,,,,,,,,,
14.54.10.891,279.2,69.8,0,16.0,,87338.8,11.45,-0.71,0.13,-0.74,27.9,-10.3,18.9,36.38,,,,,,,,,,
14.54.10.899,347.6,86.9,0,16.0,,87111.1,11.48,-0.72,0.12,-0.75,28.7,-8.9,19.7,36.38,,,,,,,,,,
14.54.10.911,288.1,72.0,0,16.0,,88890.7,11.25,-0.72,0.12,-0.74,29.4,-7.8,21.2,36.38,,,,,,,,,,
14.54.10.919,254.9,63.7,0,16.0,,85261.4,11.73,-0.71,0.11,-0.74,30.6,-7.0,22.6,36.38,,,,,,,,,,
14.54.10.932,191.4,47.8,0,16.0,,86461.0,11.57,-0.72,0.11,-0.73,31.6,-6.5,24.5,36.38,,,,,,,,,,
14.54.10.944,137.9,34.5,0,16.0,,83096.6,12.03,-0.71,0.12,-0.74,31.3,-6.5,26.5,36.38,,,,,,,,,,
14.54.10.952,129.9,32.5,0,16.0,,89713.7,11.15,-0.71,0.12,-0.72,32.1,-7.3,28.5,36.38,,,,,,,,,,
14.54.10.964,14.9,3.7,0,16.0,,88656.9,11.28,-0.71,0.12,-0.73,30.8,-7.8,30.4,36.38,,,,,,,,,,
14.54.10.972,17.7,4.4,0,16.0,,90527.1,11.05,-0.72,0.11,-0.73,29.3,-8.0,31.3,36.38,,,,,,,,,,
14.54.10.985,58.2,14.6,0,16.0,,88666.6,11.28,-0.72,0.11,-0.72,30.6,-7.4,32.9,36.38,,,,,,,,,,
14.54.10.997,31.7,7.9,0,16.0,,87650.4,11.41,-0.73,0.1,-0.73,31.7,-6.1,33.5,36.38,,,,,,,,,,
14.54.11.005,45.3,11.3,0,16.0,,87669.2,11.41,-0.74,0.11,-0.73,32.9,-4.2,33.2,36.38,,,,,,,,,,
14.54.11.017,41.2,10.3,0,16.0,,88976.1,11.24,-0.74,0.11,-0.73,35.1,-1.7,32.4,36.38,,,,,,,,,,
14.54.11.026,91.6,22.9,0,16.0,,85733.5,11.66,-0.74,0.12,-0.74,36.9,0.0,30.9,36.38,,,,,,,,,,
14.54.11.038,73.7,18.4,0,16.0,,88119.8,11.35,-0.73,0.14,-0.73,38.2,1.5,29.6,36.38,,,,,,,,,,
14.54.11.046,80.7,20.2,0,16.0,,89347.8,11.19,-0.72,0.15,-0.71,36.5,2.3,28.7,36.38,,,,,,,,,,
14.54.11.059,105.0,26.2,0,16.0,,86150.3,11.61,-0.71,0.16,-0.7,33.4,2.0,27.6,36.38,,,,,,,,,,
14.54.11.071,60.5,15.1,0,16.0,,86201.8,11.6,-0.71,0.17,-0.7,29.9,2.7,28.3,36.38,,,,,,,,,,
14.54.11.108,14.9,3.7,0,16.0,,81873.4,12.21,-0.71,0.18,-0.7,24.9,2.2,28.2,36.38,,,,,,,,,,
14.54.11.116,-12.0,3.0,0,16.0,,88106.7,11.35,-0.72,0.16,-0.7,16.0,0.8,26.5,36.38,,,,,,,,,,
14.54.11.128,-15.8,4.0,0,16.0,,90577.6,11.04,-0.73,0.16,-0.71,16.4,2.9,24.1,36.38,,,,,,,,,,
14.54.11.136,-10.1,2.5,0,16.0,,87393.7,11.44,-0.74,0.17,-0.7,16.9,5.0,20.7,36.38,,,,,,,,,,
14.54.11.149,-7.3,1.8,0,16.0,,86824.2,11.52,-0.75,0.17,-0.69,17.8,7.4,18.6,36.38,,,,,,,,,,
14.54.11.161,-11.0,2.8,0,16.0,,84559.4,11.83,-0.74,0.17,-0.69,18.6,7.6,17.4,36.38,,,,,,,,,,
14.54.11.169,1.0,0.2,0,16.0,,89716.7,11.15,-0.75,0.18,-0.68,1.1,7.7,-2.3,36.25,,,,,,,,,,
14.54.19.731,-18.4,4.6,0,16.0,,89601.6,11.16,-0.75,0.07,-0.68,0.7,7.7,-1.8,36.25,77.2,,,,,,,,,
14.54.19.743,-14.1,3.5,0,16.0,,90185.9,11.09,-0.75,0.07,-0.68,-0.6,6.1,-1.7,36.25,,,,,,,,,,
14.54.19.751,-43.3,10.8,0,16.0,,89705.0,11.15,-0.76,0.07,-0.68,-1.2,4.8,-1.1,36.25,,,,,,,,,,
14.54.19.764,-38.2,9.6,0,16.0,,89066.4,11.23,-0.75,0.07,-0.69,-1.3,3.3,-1.5,36.25,,,,,,,,,,
14.54.19.772,-1.7,0.4,0,16.0,,84680.0,11.81,-0.75,0.07,-0.68,-0.6,2.8,-2.3,36.25,,,,,,,,,,
14.54.19.784,-57.5,14.4,0,16.0,,83979.5,11.91,-0.75,0.08,-0.69,-1.0,2.9,-3.6,36.25,,,,,,,,,,
14.54.19.792,-41.8,10.4,0,16.0,,87535.8,11.42,-0.75,0.07,-0.69,-2.2,3.6,-5.3,36.25,,,,,,,,,,
14.54.19.805,-57.9,14.5,0,16.0,,87618.7,11.41,-0.75,0.07,-0.7,-2.7,4.6,-6.3,36.25,,,,,,,,,,
14.54.19.813,-52.6,13.2,0,16.0,,82233.1,12.16,-0.77,0.07,-0.7,-3.6,5.1,-7.2,36.25,,,,,,,,,,
14.54.19.825,-68.1,17.0,0,16.0,,88867.3,11.25,-0.77,0.08,-0.7,-4.1,3.9,-7.1,36.25,,,,,,,,,,
14.54.19.833,-58.7,14.7,0,16.0,,91036.0,10.98,-0.78,0.07,-0.7,-4.0,2.6,-6.4,36.25,,,,,,,,,,
14.54.19.846,-71.4,17.8,0,16.0,,89875.5,11.13,-0.78,0.07,-0.71,-4.6,1.6,-6.7,36.25,,,,,,,,,,
14.54.19.858,-76.3,19.1,0,16.0,,88548.9,11.29,-0.78,0.07,-0.71,-4.2,2.2,-7.3,36.25,,,,,,,,,,
14.54.19.870,-96.0,24.0,0,16.0,,85600.3,11.68,-0.78,0.08,-0.71,-3.3,2.0,-8.4,36.25,,,,,,,,,,
14.54.19.878,-84.0,21.0,0,16.0,,84864.1,11.78,-0.76,0.1,-0.7,-2.9,2.0,-8.9,36.25,,,,,,,,,,
14.54.19.891,-88.5,22.1,0,16.0,,87056.1,11.49,-0.75,0.1,-0.7,-3.3,1.8,-8.5,36.25,,,,,,,,,,
14.54.19.899,-51.1,12.8,0,16.0,,90406.7,11.06,-0.74,0.11,-0.7,-4.8,2.1,-8.6,36.25,,,,,,,,,,
14.54.19.911,-89.6,22.4,0,16.0,,89630.6,11.16,-0.73,0.1,-0.69,-6.3,2.6,-8.0,36.25,,,,,,,,,,
14.54.19.920,-113.7,28.4,0,16.0,,83084.6,12.04,-0.73,0.1,-0.68,-7.2,4.1,-7.4,36.25,,,,,,,,,,
14.54.19.956,-118.1,29.5,0,16.0,,85435.7,11.7,-0.73,0.1,-0.68,-7.2,4.1,-6.0,36.25,,,,,,,,,,
14.54.19.969,-108.4,27.1,0,16.0,,81514.6,12.27,-0.73,0.09,-0.67,-4.1,6.9,-3.8,36.25,,,,,,,,,,
14.54.19.981,-124.1,31.0,0,16.0,,84476.1,11.84,-0.73,0.1,-0.67,-2.9,7.8,-3.4,36.25,,,,,,,,,,
14.54.19.989,-135.1,33.8,0,16.0,,86427.4,11.57,-0.73,0.09,-0.66,-3.0,8.8,-2.2,36.25,,,,,,,,,,
14.54.20.001,-154.2,38.6,0,16.0,,84949.5,11.77,-0.73,0.08,-0.67,-3.4,9.2,-1.2,36.25,,,,,,,,,,
14.54.20.010,-127.3,31.8,0,16.0,,88215.9,11.34,-0.73,0.08,-0.67,-3.3,9.3,0.3,36.25,,,,,,,,,,
14.54.20.022,-146.7,36.7,0,16.0,,88189.1,11.34,-0.74,0.07,-0.67,-2.2,9.4,1.6,36.25,,,,,,,,,,
14.54.20.030,-131.9,33.0,0,16.0,,87972.6,11.37,-0.74,0.07,-0.67,-1.3,9.5,2.6,36.25,,,,,,,,,,
14.54.20.042,2.1,0.5,1,17.0,77.0,90723.3,11.02,-0.74,0.06,-0.67,-0.6,9.2,3.8,36.25,,,,,,,,,,
14.54.20.051,54.3,13.6,0,17.0,,88143.1,11.35,-0.74,0.06,-0.68,0.4,9.2,4.0,36.25,,,,,,,,,,
14.54.20.063,122.9,30.7,0,17.0,,86989.7,11.5,-0.75,0.05,-0.68,0.8,10.0,4.4,36.25,,,,,,,,,,
14.54.20.071,156.6,39.2,0,17.0,,86924.9,11.5,-0.75,0.06,-0.68,1.0,9.8,4.4,36.25,,,,,,,,,,
14.54.20.083,207.8,52.0,0,17.0,,88648.0,11.28,-0.75,0.05,-0.67,,,,,,,,,,,,,,
14.54.34.723,238.2,59.6,0,17.0,,88486.3,11.3,-0.77,0.04,-0.65,2.0,5.6,-0.5,36.06,79.9,,,,,,,,,
14.54.34.726,250.1,62.5,0,17.0,,89991.5,11.11,-0.77,0.04,-0.66,2.7,7.2,-0.1,36.06,,,,,,,,,,
14.54.34.737,266.1,66.5,0,17.0,,83045.0,12.04,-0.77,0.05,-0.64,3.3,5.9,-0.8,36.06,,,,,,,,,,
14.54.34.745,280.0,70.0,0,17.0,,90698.8,11.03,-0.77,0.05,-0.67,2.3,8.1,-1.7,36.06,,,,,,,,,,
14.54.34.757,381.5,95.4,0,17.0,,84335.6,11.86,-0.77,0.06,-0.65,2.0,6.7,-1.4,36.06,,,,,,,,,,
14.54.34.766,345.5,86.4,0,17.0,,88432.1,11.31,-0.77,0.06,-0.65,0.2,7.1,-1.7,36.06,,,,,,,,,,
14.54.34.778,382.7,95.7,0,17.0,,89278.5,11.2,-0.77,0.06,-0.65,0.5,6.2,-1.2,36.06,,,,,,,,,,
14.54.34.790,404.0,101.0,0,17.0,,88645.9,11.28,-0.77,0.05,-0.65,0.6,6.4,-1.7,36.06,,,,,,,,,,
14.54.34.798,390.6,97.6,0,17.0,,87951.4,11.37,-0.77,0.05,-0.66,0.3,6.0,-1.8,36.06,,,,,,,,,,
14.54.34.811,394.2,98.6,0,17.0,,88270.4,11.33,-0.78,0.05,-0.66,-0.2,5.7,-2.4,36.06,,,,,,,,,,
14.54.34.819,384.4,96.1,0,17.0,,85695.6,11.67,-0.77,0.05,-0.65,-0.2,5.3,-1.5,36.06,,,,,,,,,,
14.54.34.831,376.9,94.2,0,17.0,,87914.9,11.37,-0.77,0.06,-0.66,-0.2,5.2,-1.0,36.06,,,,,,,,,,
14.54.34.839,379.3,94.8,0,17.0,,88789.7,11.26,-0.77,0.05,-0.66,0.4,5.4,-1.0,36.06,,,,,,,,,,
14.54.49.720,367.7,91.9,0,17.0,,89347.4,11.19,-0.79,0.04,-0.64,4.3,6.8,-3.1,35.94,79.6,,,,,,,,,
14.54.49.724,370.1,92.5,0,17.0,,88247.0,11.33,-0.79,0.03,-0.64,2.7,6.2,-3.4,35.94,,,,,,,,,,
14.54.49.735,326.9,81.7,0,17.0,,89958.8,11.12,-0.78,0.04,-0.63,2.2,5.5,-3.3,35.94,,,,,,,,,,
14.54.49.772,208.7,52.2,0,17.0,,90193.9,11.09,-0.79,0.04,-0.64,1.7,5.0,-2.9,35.94,,,,,,,,,,
14.54.49.780,187.0,46.8,0,17.0,,89153.5,11.22,-0.79,0.02,-0.64,4.5,6.6,-4.0,35.94,,,,,,,,,,
14.54.49.792,132.6,33.2,0,17.0,,88657.1,11.28,-0.79,0.04,-0.63,4.3,6.6,-4.2,35.94,,,,,,,,,,
14.54.49.800,103.4,25.8,0,17.0,,84814.3,11.79,-0.79,0.05,-0.63,3.5,5.4,-3.5,35.94,,,,,,,,,,
14.54.49.813,52.5,13.1,0,17.0,,85081.0,11.75,-0.79,0.05,-0.62,1.6,3.1,-2.5,35.94,,,,,,,,,,
14.54.49.825,19.8,5.0,0,17.0,,90945.8,11.0,-0.79,0.05,-0.62,-1.5,-0.3,-1.6,35.94,,,,,,,,,,
14.54.49.833,18.7,4.7,0,17.0,,87957.7,11.37,-0.79,0.04,-0.63,-2.4,-2.4,-0.3,35.94,,,,,,,,,,
14.54.49.845,-5.0,1.2,0,17.0,,89826.3,11.13,-0.78,0.03,-0.64,-1.0,-54.8,18.5,35.88,,,,,,,,,,
14.55.00.722,40.2,10.0,0,17.0,,91628.0,10.91,-0.9,0.33,-0.58,103.0,-51.3,18.5,35.88,74.8,,,99.0,,,,,,
14.55.00.723,47.3,11.8,0,17.0,,87607.9,11.41,-0.9,0.33,-0.58,103.0,-51.3,6.1,35.88,,,,,,,,,,
14.55.00.726,34.2,8.6,0,17.0,,90779.1,11.02,-0.86,0.33,-0.54,111.8,-42.3,12.7,35.88,,,,,,,,,,
14.55.00.738,35.5,8.9,0,17.0,,87241.0,11.46,-0.89,0.35,-0.55,116.0,-65.9,21.8,35.88,,,,,,,,,,
14.55.00.751,50.6,12.6,0,17.0,,84931.8,11.77,-0.86,0.35,-0.55,109.7,-69.8,21.3,35.88,,,,,,,,,,
14.55.00.759,107.8,27.0,0,17.0,,89215.5,11.21,-0.85,0.33,-0.57,99.3,-71.5,15.2,35.88,,,,,,,,,,
14.55.00.771,72.2,18.0,0,17.0,,90764.3,11.02,-0.81,0.3,-0.55,92.6,-70.5,12.4,35.88,,,,,,,,,,
14.55.00.779,53.3,13.3,0,17.0,,91111.1,10.98,-0.8,0.25,-0.54,91.3,-66.2,11.9,35.88,,,,,,,,,,
14.55.00.791,50.2,12.6,0,17.0,,88279.1,11.33,-0.79,0.25,-0.54,88.7,-64.9,10.0,35.88,,,,,,,,,,
14.55.00.804,62.9,15.7,0,17.0,,86965.9,11.5,-0.77,0.21,-0.54,84.6,-69.7,4.5,35.88,,,,,,,,,,
14.55.00.812,65.3,16.3,0,17.0,,85774.2,11.66,-0.76,0.21,-0.52,80.9,-70.1,-4.0,35.88,,,,,,,,,,
14.55.00.824,47.3,11.8,0,17.0,,85860.4,11.65,-0.75,0.16,-0.49,82.4,-69.8,-1.7,35.88,,,,,,,,,,
14.55.00.832,28.0,7.0,0,17.0,,88600.2,11.29,-0.73,0.2,-0.52,79.1,-69.6,-3.5,35.88,,,,,,,,,,
14.55.00.845,33.9,8.5,0,17.0,,94529.7,10.58,-0.7,0.18,-0.5,82.7,-58.7,1.4,35.5,,,,,,,,,,
14.55.15.718,12.8,3.2,0,17.0,,88571.9,11.29,-0.86,0.47,-0.73,48.4,-19.7,-24.9,35.5,78.2,,,,,,,,,
14.55.15.719,2.8,0.7,0,17.0,,88232.8,11.33,-0.86,0.47,-0.73,48.4,-15.3,-23.3,35.5,,,,,,,,,,
14.55.15.724,-23.5,5.9,0,17.0,,88712.2,11.27,-0.85,0.44,-0.74,44.9,-11.9,-21.3,35.5,,,,,,,,,,
14.55.15.736,13.9,3.5,0,17.0,,86988.9,11.5,-0.85,0.43,-0.76,43.0,-5.2,-18.5,35.5,,,,,,,,,,
14.55.15.744,-12.7,3.2,0,17.0,,89265.5,11.2,-0.89,0.43,-0.78,40.8,3.5,-15.7,35.5,,,,,,,,,,
14.55.15.757,11.5,2.9,0,17.0,,86810.9,11.52,-0.92,0.44,-0.79,37.8,16.5,-12.1,35.5,,,,,,,,,,
14.55.15.769,-13.9,3.5,0,17.0,,90872.7,11.0,-0.95,0.44,-0.79,32.9,24.9,-6.8,35.5,,,,,,,,,,
14.55.15.781,-16.2,4.0,0,17.0,,86157.8,11.61,-0.93,0.41,-0.8,39.9,25.0,5.9,35.5,,,,,,,,,,
14.55.15.789,-34.3,8.6,0,17.0,,86412.2,11.57,-0.91,0.47,-0.79,29.1,24.1,5.8,35.5,,,,,,,,,,
14.55.15.802,-44.9,11.2,0,17.0,,88075.4,11.35,-0.94,0.45,-0.75,21.8,28.3,13.0,35.5,,,,,,,,,,
14.55.15.810,-35.7,8.9,0,17.0,,87137.3,11.48,-0.99,0.47,-0.73,13.9,39.0,14.3,35.5,,,,,,,,,,
14.55.15.822,-64.7,16.2,0,17.0,,89450.2,11.18,-0.97,0.49,-0.74,7.5,48.1,17.5,35.5,,,,,,,,,,
14.55.15.830,-47.4,11.8,0,17.0,,89021.0,11.23,-1.01,0.46,-0.72,2.4,44.8,19.4,35.5,,,,,,,,,,
14.55.15.843,-72.5,18.1,0,17.0,,87687.6,11.4,-0.97,0.48,-0.73,,,-29.3,35.38,,,,,,,,,,
14.55.30.721,-54.5,13.6,0,17.0,,87273.5,11.46,-0.71,0.29,-0.5,105.4,-63.3,-29.9,35.38,76.9,,,,,,,,,
14.55.30.722,-63.5,15.9,0,17.0,,86735.8,11.53,-0.72,0.29,-0.51,104.0,-64.9,-27.9,35.38,,,,,,,,,,
14.55.30.734,-76.0,19.0,0,17.0,,87122.1,11.48,-0.72,0.3,-0.53,104.1,-63.4,-27.1,35.38,,,,,,,,,,
14.55.30.746,-38.8,9.7,0,17.0,,82788.1,12.08,-0.73,0.32,-0.55,103.3,-60.9,-26.3,35.38,,,,,,,,,,
14.55.30.754,-53.0,13.2,0,17.0,,82936.3,12.06,-0.74,0.35,-0.56,101.5,-56.9,-26.6,35.38,,,,,,,,,,
14.55.30.767,-63.9,16.0,0,17.0,,82372.6,12.14,-0.75,0.39,-0.58,98.1,-52.8,-27.1,35.38,,,,,,,,,,
14.55.30.779,-90.6,22.6,0,17.0,,87782.3,11.39,-0.76,0.39,-0.58,93.8,-47.7,-28.0,35.38,,,,,,,,,,
14.55.30.787,-105.0,26.2,0,17.0,,88830.2,11.26,-0.77,0.41,-0.61,88.7,-45.8,-29.3,35.38,,,,,,,,,,
14.55.30.799,-97.0,24.2,0,17.0,,84910.6,11.78,-0.78,0.41,-0.63,83.4,-39.5,-31.2,35.38,,,,,,,,,,
14.55.30.812,-111.2,27.8,0,17.0,,87707.7,11.4,-0.81,0.4,-0.65,80.9,-35.4,-31.8,35.38,,,,,,,,,,
14.55.45.719,-109.6,27.4,0,17.0,,89874.5,11.13,,,,,,-32.2,35.25,78.7,,,,,,,,,
14.55.45.722,-110.8,27.7,0,17.0,,88000.5,11.36,-1.0,0.27,-0.33,101.0,-67.0,-32.8,35.25,,,,,,,,,,
14.55.45.725,-140.1,35.0,0,17.0,,85010.2,11.76,-1.0,0.3,-0.33,105.7,-69.3,-32.9,35.25,,,,,,,,,,
14.55.45.736,-105.3,26.3,0,17.0,,82711.5,12.09,-1.01,0.32,-0.33,108.7,-69.1,-34.2,35.25,,,,,,,,,,
14.55.45.748,-110.8,27.7,0,17.0,,86707.4,11.53,-1.01,0.35,-0.34,109.5,-66.3,-35.8,35.25,,,,,,,,,,
14.55.45.756,-119.2,29.8,0,17.0,,87239.9,11.46,-1.0,0.36,-0.33,106.0,-66.4,-37.7,35.25,,,,,,,,,,
14.55.45.769,-120.2,30.0,0,17.0,,86147.2,11.61,-0.98,0.37,-0.33,103.5,-70.6,-41.4,35.25,,,,,,,,,,
14.55.45.781,-141.5,35.4,0,17.0,,84306.5,11.86,-0.95,0.37,-0.34,99.9,-76.5,-45.8,35.25,,,,,,,,,,
14.55.45.789,-123.1,30.8,0,17.0,,88968.3,11.24,-0.93,0.37,-0.34,95.6,-82.9,-49.1,35.25,,,,,,,,,,
14.55.45.802,-101.2,25.3,0,17.0,,89105.5,11.22,-0.89,0.35,-0.34,92.8,-85.4,-54.9,35.25,,,,,,,,,,
14.55.45.810,-159.8,40.0,0,17.0,,87685.6,11.4,-0.86,0.34,-0.34,91.6,-84.2,-57.3,35.25,,,,,,,,,,
14.55.45.822,-135.4,33.8,0,17.0,,82825.2,12.07,-0.83,0.33,-0.35,89.8,-84.6,-59.0,35.25,,,,,,,,,,
14.55.45.834,-162.4,40.6,0,17.0,,84739.1,11.8,-0.81,0.31,-0.36,89.5,-81.9,-59.5,35.25,,,,,,,,,,
14.55.45.842,-157.6,39.4,0,17.0,,88385.2,11.31,0.0,,-0.43,95.1,-49.7,-77.5,35.13,,,,,,,,,,
14.56.00.723,-166.7,41.7,0,17.0,,86082.3,11.62,-0.74,0.41,-0.43,92.4,-43.5,-72.1,35.13,79.0,,,,,,,,,
14.56.00.729,21.7,5.4,1,18.0,78.3,83438.4,11.98,-0.73,0.42,-0.48,89.5,-42.6,-70.1,35.13,,,,,,,,,,
14.56.00.742,82.1,20.5,0,18.0,,85689.3,11.67,-0.76,0.4,-0.5,91.0,-41.7,-67.4,35.13,,,,,,,,,,
14.56.00.750,160.3,40.1,0,18.0,,87955.9,11.37,-0.77,0.41,-0.53,93.8,-35.6,-63.8,35.13,,,,,,,,,,
14.56.00.762,173.3,43.3,0,18.0,,84273.4,11.87,-0.8,0.42,-0.51,100.8,-32.8,-61.4,35.13,,,,,,,,,,
14.56.00.775,208.5,52.1,0,18.0,,89963.5,11.12,-0.82,0.45,-0.53,108.3,-30.5,-57.7,35.13,,,,,,,,,,
14.56.00.783,280.6,70.2,0,18.0,,85414.8,11.71,-0.83,0.48,-0.56,109.4,-27.8,-54.5,35.13,,,,,,,,,,
14.56.00.795,314.8,78.7,0,18.0,,85412.5,11.71,-0.85,0.5,-0.57,108.6,-24.5,-50.4,35.13,,,,,,,,,,
14.56.00.807,367.0,91.8,0,18.0,,86798.9,11.52,-0.87,0.54,-0.58,105.2,-21.8,-44.1,35.13,,,,,,,,,,
14.56.00.816,376.7,94.2,0,18.0,,86842.8,11.52,-0.89,0.56,-0.58,98.5,-20.4,-37.2,35.13,,,,,,,,,,
14.56.00.828,369.0,92.2,0,18.0,,84894.3,11.78,-0.9,0.59,-0.59,91.5,-22.1,-29.9,35.13,,,,,,,,,,
14.56.00.836,393.8,98.4,0,18.0,,82817.1,12.07,-0.91,0.58,-0.61,80.8,-18.6,-26.1,35.13,,,,,,,,,,
14.56.00.848,405.1,101.3,0,18.0,,86073.0,11.62,-0.77,0.33,-0.42,86.6,-66.3,-77.9,35.0,,,,,,,,,,
14.56.15.722,408.8,102.2,0,18.0,,86871.9,11.51,-0.8,0.33,-0.44,89.5,-67.6,-74.5,35.0,78.7,,,,,,,,,
14.56.15.731,416.7,104.2,0,18.0,,85553.0,11.69,-0.79,0.34,-0.47,91.1,-64.8,-70.4,35.0,,,,,,,,,,
14.56.15.744,410.1,102.5,0,18.0,,82481.0,12.12,-0.82,0.34,-0.51,95.4,-66.3,-67.4,35.0,,,,,,,,,,
14.56.15.756,394.4,98.6,0,18.0,,83900.9,11.92,-0.82,0.42,-0.53,92.5,-65.4,-65.5,35.0,,,,,,,,,,
14.56.15.768,326.2,81.6,0,18.0,,88099.8,11.35,-0.82,0.43,-0.55,87.6,-63.5,-71.6,35.0,,,,,,,,,,
14.56.15.777,344.5,86.1,0,18.0,,84776.0,11.8,-0.81,0.46,-0.58,82.5,-64.9,-74.7,35.0,,,,,,,,,,
14.56.15.789,321.7,80.4,0,18.0,,83383.8,11.99,-0.81,0.48,-0.58,76.9,-60.2,-76.0,35.0,,,,,,,,,,
14.56.15.797,262.1,65.5,0,18.0,,84926.6,11.77,-0.82,0.48,-0.58,72.5,-57.0,-75.8,35.0,,,,,,,,,,
14.56.15.809,239.9,60.0,0,18.0,,83132.0,12.03,-0.82,0.5,-0.6,70.5,-53.1,-74.8,35.0,,,,,,,,,,
14.56.15.822,147.0,36.8,0,18.0,,85305.1,11.72,-0.82,0.52,-0.59,67.2,-46.4,-73.5,35.0,,,,,,,,,,
14.56.15.830,112.2,28.0,0,18.0,,85478.4,11.7,-0.84,0.52,-0.63,60.5,-35.0,-73.0,35.0,,,,,,,,,,
14.56.15.842,57.7,14.4,0,18.0,,87695.4,11.4,-0.86,0.55,-0.64,52.9,-26.9,-72.8,35.0,,,,,,,,,,
14.56.30.720,72.0,,0,18.0,,84435.1,11.84,,,,,,,34.75,77.5,,,,,,,,,
14.56.30.721,35.9,9.0,0,18.0,,83881.4,11.92,-0.88,0.62,-0.64,70.6,-16.0,-47.8,34.75,,,,,,,,,,
14.56.30.722,45.8,11.4,0,18.0,,80085.1,12.49,-0.85,0.62,-0.64,70.6,-16.0,-47.8,34.75,,,,,,,,,,
14.56.30.723,62.2,15.6,0,18.0,,89248.9,11.2,-0.85,0.64,-0.62,61.7,-9.5,-43.8,34.75,,,,,,,,,,
14.56.30.729,-1.6,0.4,0,18.0,,86732.8,11.53,-0.83,0.64,-0.62,49.6,-3.8,-41.1,34.75,,,,,,,,,,
14.56.30.742,-5.6,1.4,0,18.0,,87280.2,11.46,-0.81,0.63,-0.59,38.6,1.6,-38.8,34.75,,,,,,,,,,
14.56.30.750,51.8,13.0,0,18.0,,85691.1,11.67,-0.78,0.62,-0.61,31.6,11.0,-30.5,34.75,,,,,,,,,,
14.56.30.762,31.4,7.8,0,18.0,,84712.7,11.8,-0.82,0.61,-0.63,24.1,25.8,-25.6,34.75,,,,,,,,,,
14.56.30.774,67.2,16.8,0,18.0,,84284.7,11.86,-0.89,0.61,-0.66,14.3,44.0,-19.5,34.75,,,,,,,,,,
14.56.30.783,82.6,20.6,0,18.0,,81669.6,12.24,-0.94,0.58,-0.69,9.3,48.2,-9.3,34.75,,,,,,,,,,
14.56.30.795,86.3,21.6,0,18.0,,78867.0,12.68,-0.95,0.58,-0.7,13.7,50.1,7.1,34.75,,,,,,,,,,
14.56.30.803,73.4,18.4,0,18.0,,84951.6,11.77,-1.02,0.55,-0.73,15.5,54.9,16.8,34.75,,,,,,,,,,
14.56.30.815,62.8,15.7,0,18.0,,85904.0,11.64,-1.07,0.57,-0.74,14.5,59.8,25.2,34.75,,,,,,,,,,
