timestamp,ppg,threshold,beat,beat_count,inst_bpm,gsr_resistance_ohm,gsr_conductance_us,accel_x,accel_y,accel_z,gyro_x,gyro_y,gyro_z,temp_c,window_bpm,window_temp_c,status_message,SpO2,bmi,age,height,weight,env_temp_c,env_humidity_pct
15.20.58.105,,,0,,,,,,,,0.9,5.1,-0.8,35.69,91.2,,,,28.5,22.0,167.64,80.0,31.44,45.0
15.20.58.109,-7.0,1.8,0,,,69123.0,14.47,-0.22,0.63,0.74,-1.0,6.9,-2.9,35.69,,,,,,,,,,
15.20.58.117,117.3,29.3,0,,,62999.7,15.87,-0.22,0.61,0.74,-1.2,7.2,-3.3,35.69,,,,,,,,,,
15.20.58.130,197.5,49.4,0,,,69615.9,14.36,-0.22,0.62,0.74,1.4,5.5,-0.7,35.69,,,,,,,,,,
15.20.58.142,289.0,72.2,0,,,64401.7,15.53,-0.22,0.62,0.74,3.5,4.9,1.3,35.69,,,,,,,,,,
15.20.58.150,236.0,59.0,0,,,65573.7,15.25,-0.22,0.64,0.74,2.5,4.9,0.9,35.69,,,,,,,,,,
15.20.58.162,324.8,81.2,0,,,63314.6,15.79,-0.22,0.63,0.75,0.3,5.8,-1.5,35.69,,,,,,,,,,
15.20.58.175,439.4,109.8,0,,,69321.6,14.43,-0.22,0.62,0.74,-0.4,6.6,-2.2,35.69,,,,,,,,,,
15.20.58.183,445.8,111.4,0,,,64523.6,15.5,-0.22,0.62,0.73,0.7,6.3,-1.0,35.69,,,,,,,,,,
15.20.58.195,466.2,116.6,0,,,64253.3,15.56,-0.23,0.62,0.74,2.1,5.3,0.0,35.69,,,,,,,,,,
15.20.58.236,396.1,99.0,0,,,68244.8,14.65,-0.22,0.64,0.74,-0.2,6.7,-1.6,35.63,,,,,,,,,,
15.20.58.248,507.3,126.8,0,,,69498.4,14.39,-0.22,0.62,0.74,-0.5,6.4,-1.9,35.63,,,,,,,,,,
15.20.58.257,380.3,95.1,0,,,65669.0,15.23,-0.23,0.62,0.75,0.5,5.8,-1.5,35.63,,,,,,,,,,
15.20.58.269,384.8,96.2,0,,,62112.8,16.1,-0.23,0.62,0.74,1.2,5.7,-0.8,35.63,,,,,,,,,,
15.20.58.281,314.6,78.6,0,,,68904.0,14.51,-0.22,0.63,0.74,1.5,5.8,-0.9,35.63,,,,,,,,,,
15.20.58.289,288.3,72.1,0,,,63313.0,15.79,-0.21,0.63,0.74,1.0,5.5,-1.3,35.63,,,,,,,,,,
15.20.58.302,125.6,31.4,0,,,64633.8,15.47,-0.21,0.64,0.74,-0.3,5.9,-1.8,35.63,,,,,,,,,,
15.20.58.314,21.8,5.4,0,,,65078.8,15.37,-0.21,0.62,0.74,-0.8,6.3,-2.1,35.63,,,,,,,,,,
15.20.58.322,0.4,0.1,0,,,64488.3,15.51,-0.23,0.62,0.75,-0.2,6.6,-1.8,35.63,,,,,,,,,,
15.20.58.334,3.1,0.8,0,,,64913.0,15.41,-0.22,0.61,0.73,0.6,6.2,-1.7,35.63,,,,,,,,,,
15.20.58.343,37.8,9.4,0,,,66901.7,14.95,-0.21,0.62,0.74,1.8,5.5,-0.5,35.63,,,,,,,,,,
15.20.58.355,13.0,3.2,0,,,64094.1,15.6,-0.22,0.63,0.74,1.9,5.9,-0.1,35.63,,,,,,,,,,
15.20.58.367,106.5,26.6,0,,,63974.2,15.63,-0.22,0.64,0.74,0.6,5.9,-0.9,35.63,,,,,,,,,,
15.20.58.375,107.3,26.8,0,,,66251.0,15.09,-0.23,0.63,0.74,-0.9,6.1,-2.1,35.63,,,,,,,,,,
15.20.58.388,133.7,33.4,0,,,68237.6,14.65,-0.22,0.62,0.73,-0.5,6.7,-2.4,35.63,,,,,,,,,,
15.20.58.400,82.7,20.7,0,,,64934.8,15.4,-0.22,0.62,0.74,1.2,5.9,-0.9,35.63,,,,,,,,,,
15.20.58.408,,,0,,,,,,,,,,,35.63,,,,,,,,,,
15.20.58.425,,,0,,,,,,,,,,,35.63,,35.65,,,,,,,,
15.20.58.437,16.1,4.0,0,,,65589.0,15.25,-0.21,0.63,0.74,-0.8,6.3,-2.7,35.63,,,,,,,,,,
15.20.58.449,17.8,4.4,0,,,62997.6,15.87,-0.22,0.63,0.74,0.3,7.2,-2.0,35.63,,,,,,,,,,
15.20.58.457,-16.8,4.2,0,,,60457.8,16.54,-0.22,0.63,0.74,0.6,6.5,-1.2,35.63,,,,,,,,,,
15.20.58.470,-70.2,17.6,0,,,63005.7,15.87,-0.22,0.62,0.74,0.1,5.9,-1.8,35.63,,,,,,,,,,
15.20.58.478,-17.2,4.3,0,,,63203.3,15.82,-0.22,0.62,0.74,-0.3,6.7,-2.5,35.63,,,,,,,,,,
15.20.58.490,-2.4,0.6,0,,,63293.4,15.8,-0.22,0.63,0.74,0.1,6.0,-1.8,35.63,,,,,,,,,,
15.20.58.502,-5.0,1.2,0,,,64981.5,15.39,-0.22,0.63,0.74,0.9,5.2,-1.0,35.63,,,,,,,,,,
15.20.58.511,-47.0,11.8,0,,,58580.8,17.07,-0.22,0.62,0.73,0.6,5.4,-1.2,35.63,,,,,,,,,,
15.20.58.523,-89.0,22.2,0,,,66279.2,15.09,-0.21,0.62,0.73,0.0,6.5,-2.0,35.63,,,,,,,,,,
15.20.58.535,-30.5,7.6,0,,,64086.6,15.6,-0.22,0.63,0.74,0.2,6.5,-1.9,35.63,,,,,,,,,,
15.20.58.543,-92.7,23.2,0,,,67276.1,14.86,-0.22,0.63,0.74,1.3,5.4,-0.6,35.63,,,,,,,,,,
15.20.58.556,-152.2,38.0,0,,,68464.5,14.61,-0.21,0.64,0.74,1.1,5.6,-0.4,35.63,,,,,,,,,,
15.20.58.568,-79.8,20.0,0,,,62427.4,16.02,-0.22,0.63,0.74,-0.7,7.0,-2.2,35.63,,,,,,,,,,
15.20.58.576,-165.8,41.4,0,,,63437.9,15.76,-0.22,0.62,0.74,-1.2,6.7,-3.1,35.63,,,,,,,,,,
15.20.58.588,-112.4,28.1,0,,,65740.1,15.21,-0.23,0.62,0.74,0.3,5.7,-1.5,35.63,,,,,,,,,,
15.20.58.601,-66.3,16.6,0,,,65022.2,15.38,-0.23,0.62,0.74,2.2,4.5,0.1,35.63,,,,,,,,,,
15.20.58.609,-83.1,20.8,0,,,61998.2,16.13,-0.22,0.63,0.74,2.5,4.7,0.2,35.63,,,,,,,,,,
15.20.58.621,-97.4,24.4,0,,,64329.1,15.55,-0.22,0.64,0.73,0.9,5.9,-1.2,35.63,,,,,,,,,,
15.20.58.633,-142.7,35.7,0,,,66004.6,15.15,-0.22,0.63,0.74,-0.5,6.0,-2.0,35.63,,,,,,,,,,
15.20.58.646,-117.1,29.3,0,,,61706.0,16.21,-0.22,0.63,0.74,-0.4,6.6,-1.6,35.63,,,,,,,,,,
15.20.58.654,-178.5,44.6,0,,,61269.1,16.32,-0.22,0.62,0.74,0.9,5.8,-0.8,35.63,,,,,,,,,,
15.20.58.666,-179.0,44.8,0,,,61120.5,16.36,-0.22,0.63,0.74,1.6,5.5,-0.4,35.63,,,,,,,,,,
15.20.58.679,-177.1,44.3,0,,,59568.9,16.79,-0.22,0.63,0.74,1.3,5.5,-0.8,35.63,,,,,,,,,,
15.20.58.687,-147.7,36.9,0,,,63378.5,15.78,-0.22,0.63,0.74,0.2,5.5,-1.5,35.63,,,,,,,,,,
15.20.58.699,-120.3,30.1,0,,,65808.4,15.2,-0.22,0.63,0.73,0.5,5.8,-1.5,35.63,,,,,,,,,,
15.20.58.711,-157.5,39.4,0,,,64867.6,15.42,-0.22,0.62,0.74,0.5,5.2,-1.5,35.63,,,,,,,,,,
15.20.58.720,-172.4,43.1,0,,,58693.4,17.04,-0.22,0.62,0.73,1.4,5.9,-1.0,35.63,,,,,,,,,,
15.20.58.732,-188.9,47.2,0,,,59378.8,16.84,-0.22,0.63,0.74,1.2,5.1,-0.9,35.63,,,,,,,,,,
15.20.58.744,53.3,13.3,1,1.0,94.6,61137.1,16.36,-0.22,0.63,0.74,0.7,5.3,-1.3,35.63,,,,,,,,,,
15.20.58.752,133.3,33.3,0,1.0,,63856.8,15.66,-0.21,0.63,0.74,0.0,6.0,-1.7,35.63,,,,,,,,,,
15.20.58.765,174.0,43.5,0,1.0,,61969.4,16.14,-0.22,0.62,0.74,-0.2,5.6,-1.8,35.63,,,,,,,,,,
15.20.58.777,279.5,69.9,0,1.0,,59242.1,16.88,-0.22,0.62,0.74,-0.1,6.6,-1.8,35.63,,,,,,,,,,
15.20.58.785,366.3,91.6,0,1.0,,61484.7,16.26,-0.22,0.61,0.74,0.0,5.7,-2.0,35.63,,,,,,,,,,
15.20.58.797,343.4,85.8,0,1.0,,62955.5,15.88,-0.23,0.62,0.74,1.2,5.7,-1.3,35.63,,,,,,,,,,
15.20.58.810,486.5,121.6,0,1.0,,64213.0,15.57,-0.22,0.63,0.73,2.1,5.2,-0.5,35.63,,,,,,,,,,
15.20.58.822,482.3,120.6,0,1.0,,57833.1,17.29,-0.22,0.63,0.74,1.8,4.3,-0.4,35.63,,,,,,,,,,
15.20.58.830,485.9,121.5,0,1.0,,67551.0,14.8,-0.22,0.64,0.73,0.3,5.9,-1.8,35.63,,,,,,,,,,
15.20.58.843,502.0,125.5,0,1.0,,61749.0,16.19,-0.22,0.63,0.74,-1.1,5.7,-3.0,35.63,,,,,,,,,,
15.20.58.855,459.2,114.8,0,1.0,,68496.8,14.6,-0.22,0.62,0.75,-0.6,5.8,-2.5,35.63,,,,,,,,,,
15.20.58.863,446.1,111.5,0,1.0,,67635.6,14.79,-0.22,0.62,0.74,1.2,5.5,-0.7,35.63,,,,,,,,,,
15.20.58.875,425.9,106.5,0,1.0,,61416.6,16.28,-0.22,0.63,0.75,2.2,4.6,-0.1,35.63,,,,,,,,,,
15.20.58.887,394.3,98.6,0,1.0,,66996.5,14.93,-0.21,0.63,0.74,1.5,5.9,-0.6,35.63,,,,,,,,,,
15.20.58.896,398.4,99.6,0,1.0,,66803.0,14.97,-0.22,0.63,0.74,0.0,5.6,-1.8,35.63,,,,,,,,,,
15.20.58.908,269.5,67.4,0,1.0,,62958.2,15.88,-0.22,0.62,0.74,-0.3,5.5,-1.9,35.63,,,,,,,,,,
15.20.58.920,215.4,53.8,0,1.0,,65205.6,15.34,-0.22,0.63,0.74,0.2,6.2,-1.1,35.63,,,,,,,,,,
15.20.58.928,194.5,48.6,0,1.0,,65980.4,15.16,-0.22,0.63,0.74,0.5,5.9,-1.1,35.63,,,,,,,,,,
15.20.58.941,128.4,32.1,0,1.0,,66075.0,15.13,-0.22,0.63,0.74,0.8,6.2,-1.4,35.63,,,,,,,,,,
15.20.58.953,-46.6,11.6,0,1.0,,62121.5,16.1,-0.22,0.62,0.74,0.8,5.6,-1.6,35.63,,,,,,,,,,
15.20.58.965,28.8,7.2,0,1.0,,67070.9,14.91,-0.22,0.62,0.74,1.1,5.0,-0.7,35.63,,,,,,,,,,
15.20.58.973,80.9,20.2,0,1.0,,64923.3,15.4,-0.22,0.62,0.74,1.1,5.1,-0.8,35.63,,,,,,,,,,
15.20.58.986,94.1,23.5,0,1.0,,64616.1,15.48,-0.22,0.62,0.74,0.6,5.1,-1.3,35.63,,,,,,,,,,
15.20.58.998,79.2,19.8,0,1.0,,54300.9,18.42,-0.21,0.62,0.74,0.1,6.0,-1.6,35.63,,,,,,,,,,
15.20.59.035,123.9,31.0,0,1.0,,69949.6,14.3,-0.22,0.63,0.73,0.9,6.3,-1.8,35.69,,,,,,,,,,
15.20.59.047,124.8,31.2,0,1.0,,60170.3,16.62,-0.22,0.63,0.73,0.1,5.6,-2.5,35.69,,,,,,,,,,
15.20.59.060,72.5,18.1,0,1.0,,66772.0,14.98,-0.22,0.63,0.74,-0.6,5.9,-2.9,35.69,,,,,,,,,,
15.20.59.068,0.8,0.2,0,1.0,,66797.9,14.97,-0.22,0.63,0.74,-0.7,5.7,-2.7,35.69,,,,,,,,,,
15.20.59.080,-24.7,6.2,0,1.0,,63855.2,15.66,-0.22,0.63,0.74,-1.1,6.5,-2.7,35.69,,,,,,,,,,
15.20.59.092,59.4,14.8,0,1.0,,64780.6,15.44,-0.22,0.62,0.75,-0.9,6.4,-2.8,35.69,,,,,,,,,,
15.20.59.105,-17.9,4.5,0,1.0,,62461.1,16.01,-0.22,0.61,0.74,-0.3,6.4,-2.6,35.69,,,,,,,,,,
15.20.59.113,-11.6,2.9,0,1.0,,65367.1,15.3,-0.22,0.63,0.74,0.8,5.6,-1.4,35.69,,,,,,,,,,
15.20.59.125,-61.2,15.3,0,1.0,,64570.7,15.49,-0.22,0.63,0.74,1.2,5.6,-1.2,35.69,,,,,,,,,,
15.20.59.137,-26.5,6.6,0,1.0,,59168.8,16.9,-0.21,0.63,0.74,0.1,6.0,-1.6,35.69,,,,,,,,,,
15.20.59.146,-43.0,10.8,0,1.0,,63576.5,15.73,-0.22,0.62,0.74,-1.0,6.3,-2.2,35.69,,,,,,,,,,
15.20.59.158,-76.3,19.1,0,1.0,,62431.6,16.02,-0.22,0.61,0.74,-0.4,6.5,-2.2,35.69,,,,,,,,,,
15.20.59.170,-56.5,14.1,0,1.0,,64940.9,15.4,-0.23,0.61,0.74,0.6,5.7,-0.9,35.69,,,,,,,,,,
15.20.59.178,-74.5,18.6,0,1.0,,69140.6,14.46,-0.23,0.63,0.75,2.3,4.9,0.2,35.69,,,,,,,,,,
15.20.59.191,-98.8,24.7,0,1.0,,66480.4,15.04,-0.22,0.63,0.74,1.5,5.5,-0.5,35.69,,,,,,,,,,
15.20.59.203,-49.5,12.4,0,1.0,,62257.1,16.06,-0.21,0.62,0.74,0.1,5.7,-1.8,35.69,,,,,,,,,,
15.20.59.216,-146.5,36.6,0,1.0,,64459.5,15.51,-0.22,0.63,0.74,0.0,6.4,-1.8,35.69,,,,,,,,,,
15.20.59.223,-62.7,15.7,0,1.0,,58996.4,16.95,-0.22,0.62,0.74,0.3,5.3,-1.1,35.69,,,,,,,,,,
15.20.59.236,-53.5,13.4,0,1.0,,65671.2,15.23,-0.22,0.63,0.74,0.6,5.1,-1.1,35.69,,,,,,,,,,
15.20.59.248,-126.6,31.6,0,1.0,,63822.9,15.67,-0.22,0.62,0.73,0.5,6.0,-1.3,35.69,,,,,,,,,,
15.20.59.256,-80.1,20.0,0,1.0,,59000.7,16.95,-0.22,0.62,0.74,0.2,5.1,-1.5,35.69,,,,,,,,,,
15.20.59.268,-90.6,22.6,0,1.0,,72370.5,13.82,-0.22,0.63,0.74,0.9,5.8,-1.3,35.69,,,,,,,,,,
15.20.59.281,-158.5,39.6,0,1.0,,69254.2,14.44,-0.22,0.62,0.74,0.1,5.5,-1.3,35.69,,,,,,,,,,
15.20.59.289,-148.8,37.2,0,1.0,,60502.2,16.53,-0.22,0.62,0.75,0.0,5.6,-1.4,35.69,,,,,,,,,,
15.20.59.301,-120.7,30.2,0,1.0,,62995.4,15.87,-0.22,0.61,0.74,0.3,7.3,-1.7,35.69,,,,,,,,,,
15.20.59.313,-105.0,26.2,0,1.0,,63514.0,15.74,-0.22,0.62,0.74,1.1,4.8,-0.8,35.69,,,,,,,,,,
15.20.59.322,-187.7,46.9,0,1.0,,70744.8,14.14,-0.22,0.62,0.74,2.6,6.0,0.4,35.69,,,,,,,,,,
15.20.59.334,-180.0,45.0,0,1.0,,65732.0,15.21,-0.21,0.64,0.73,1.8,5.7,-0.3,35.69,,,,,,,,,,
15.20.59.346,-211.8,53.0,0,1.0,,61169.3,16.35,-0.22,0.63,0.75,0.1,4.8,-1.7,35.69,,,,,,,,,,
15.20.59.355,-196.3,49.1,0,1.0,,63686.8,15.7,-0.22,0.62,0.73,-0.9,7.8,-2.9,35.69,,,,,,,,,,
15.20.59.367,-194.2,48.6,0,1.0,,65235.8,15.33,-0.22,0.62,0.74,-0.4,5.1,-2.2,35.69,,,,,,,,,,
15.20.59.379,8.7,2.2,1,2.0,95.2,60848.5,16.43,-0.22,0.61,0.75,1.5,5.5,-0.4,35.69,,,,,,,,,,
15.20.59.387,147.1,36.8,0,2.0,,68683.2,14.56,-0.22,0.62,0.74,2.2,5.5,-0.3,35.69,,,,,,,,,,
15.20.59.400,278.1,69.5,0,2.0,,63800.0,15.67,-0.22,0.63,0.75,1.3,4.3,-0.8,35.69,,,,,,,,,,
15.20.59.412,233.3,58.3,0,2.0,,64184.7,15.58,-0.22,0.63,0.74,0.5,6.5,-1.4,35.69,,,,,,,,,,
15.20.59.420,422.0,105.5,0,2.0,,66115.4,15.13,-0.22,0.62,0.74,-0.3,5.5,-2.2,35.69,,,,,,,,,,
15.20.59.432,342.3,85.6,0,2.0,,59773.1,16.73,-0.22,0.62,0.75,0.6,5.4,-1.6,35.69,,,,,,,,,,
15.20.59.445,458.8,114.7,0,2.0,,58765.7,17.02,-0.22,0.62,0.74,1.4,6.1,-1.0,35.69,,,,,,,,,,
15.20.59.453,471.1,117.8,0,2.0,,64593.9,15.48,-0.22,0.63,0.74,1.2,5.3,-0.8,35.69,,,,,,,,,,
15.20.59.465,467.7,116.9,0,2.0,,64227.5,15.57,-0.22,0.62,0.74,1.3,5.3,-0.8,35.69,,,,,,,,,,
15.20.59.477,476.0,119.0,0,2.0,,64692.3,15.46,-0.22,0.63,0.74,0.6,6.3,-1.3,35.69,,,,,,,,,,
15.20.59.486,470.8,117.7,0,2.0,,63613.9,15.72,-0.22,0.63,0.74,-0.1,5.2,-1.5,35.69,,,,,,,,,,
15.20.59.498,488.7,122.2,0,2.0,,65704.0,15.22,-0.22,0.62,0.74,0.6,6.1,-1.5,35.69,,,,,,,,,,
15.20.59.510,427.9,107.0,0,2.0,,60993.1,16.4,-0.22,0.63,0.74,0.5,5.6,-1.1,35.69,,,,,,,,,,
15.20.59.518,447.3,111.8,0,2.0,,65115.4,15.36,-0.22,0.63,0.74,0.9,5.3,-1.0,35.69,,,,,,,,,,
15.20.59.531,379.9,95.0,0,2.0,,62153.5,16.09,-0.22,0.62,0.75,0.7,6.1,-1.3,35.69,,,,,,,,,,
15.20.59.543,255.9,64.0,0,2.0,,62263.1,16.06,-0.22,0.62,0.74,0.4,6.1,-1.6,35.69,,,,,,,,,,
15.20.59.551,292.1,73.0,0,2.0,,62534.6,15.99,-0.22,0.62,0.74,0.5,5.8,-1.6,35.69,,,,,,,,,,
15.20.59.563,172.0,43.0,0,2.0,,63050.0,15.86,-0.22,0.62,0.74,1.2,5.9,-0.8,35.69,,,,,,,,,,
15.20.59.576,90.7,22.7,0,2.0,,59363.6,16.85,-0.22,0.63,0.74,1.2,5.7,-0.8,35.69,,,,,,,,,,
15.20.59.584,11.7,2.9,0,2.0,,62967.3,15.88,-0.22,0.63,0.74,0.3,6.3,-1.5,35.69,,,,,,,,,,
15.20.59.596,37.6,9.4,0,2.0,,65600.7,15.24,-0.22,0.63,0.74,0.0,6.1,-1.8,35.69,,,,,,,,,,
15.20.59.608,34.1,8.5,0,2.0,,62606.3,15.97,-0.22,0.62,0.74,0.0,5.7,-1.6,35.69,,,,,,,,,,
15.20.59.617,55.7,13.9,0,2.0,,61163.6,16.35,-0.21,0.62,0.75,0.7,5.7,-1.3,35.69,,,,,,,,,,
15.20.59.629,52.1,13.0,0,2.0,,63577.1,15.73,-0.22,0.62,0.74,1.5,5.4,-0.7,35.69,,,,,,,,,,
15.20.59.641,53.5,13.4,0,2.0,,60455.4,16.54,-0.22,0.62,0.74,1.5,5.5,-0.8,35.69,,,,,,,,,,
15.20.59.650,33.5,8.4,0,2.0,,63780.8,15.68,-0.22,0.63,0.74,1.2,5.1,-1.3,35.69,,,,,,,,,,
15.20.59.662,76.7,19.2,0,2.0,,67522.3,14.81,-0.22,0.63,0.74,0.9,5.0,-1.1,35.69,,,,,,,,,,
15.20.59.674,103.9,26.0,0,2.0,,66771.0,14.98,-0.22,0.62,0.75,1.0,5.2,-1.1,35.69,,,,,,,,,,
15.20.59.683,37.6,9.4,0,2.0,,69193.2,14.45,-0.22,0.63,0.74,1.5,4.9,-0.9,35.69,,,,,,,,,,
15.20.59.695,47.9,12.0,0,2.0,,62848.5,15.91,-0.22,0.62,0.74,1.5,5.1,-0.8,35.69,,,,,,,,,,
15.20.59.707,26.4,6.6,0,2.0,,64386.1,15.53,-0.22,0.63,0.74,1.0,5.7,-1.0,35.69,,,,,,,,,,
15.20.59.715,66.2,16.6,0,2.0,,64639.2,15.47,-0.22,0.63,0.74,0.9,4.8,-1.2,35.69,,,,,,,,,,
15.20.59.727,-21.3,5.3,0,2.0,,61750.5,16.19,-0.21,0.63,0.74,1.2,5.7,-1.5,35.69,,,,,,,,,,
15.20.59.740,-49.9,12.5,0,2.0,,60354.3,16.57,-0.22,0.63,0.74,1.3,5.9,-1.1,35.69,,,,,,,,,,
15.20.59.748,-11.8,3.0,0,2.0,,61764.1,16.19,-0.22,0.62,0.74,0.7,5.3,-1.5,35.69,,,,,,,,,,
15.20.59.760,-55.9,14.0,0,2.0,,71439.4,14.0,-0.22,0.62,0.74,0.5,6.7,-2.0,35.69,,,,,,,,,,
15.20.59.768,-53.8,13.4,0,2.0,,68437.6,14.61,-0.22,0.62,0.74,0.5,6.4,-1.6,35.69,,,,,,,,,,
15.20.59.781,-37.0,9.2,0,2.0,,60991.7,16.4,-0.22,0.62,0.74,0.5,5.0,-1.4,35.69,,,,,,,,,,
15.20.59.793,-33.8,8.4,0,2.0,,64555.4,15.49,-0.22,0.63,0.74,0.9,5.9,-1.2,35.69,,,,,,,,,,
15.20.59.801,-39.6,9.9,0,2.0,,63555.9,15.73,-0.22,0.62,0.74,0.4,5.3,-1.5,35.69,,,,,,,,,,
15.20.59.842,-25.5,6.4,0,2.0,,62339.8,16.04,-0.22,0.62,0.74,0.4,5.8,-1.3,35.69,,,,,,,,,,
15.20.59.854,-80.2,20.0,0,2.0,,64008.9,15.62,-0.22,0.62,0.74,0.8,5.7,-1.1,35.69,,,,,,,,,,
15.20.59.863,-23.8,6.0,0,2.0,,64541.7,15.49,-0.22,0.63,0.74,1.0,5.6,-0.8,35.69,,,,,,,,,,
15.20.59.875,-120.5,30.1,0,2.0,,71186.2,14.05,-0.22,0.63,0.74,0.6,5.7,-1.0,35.69,,,,,,,,,,
15.20.59.887,-75.8,19.0,0,2.0,,66123.1,15.12,-0.21,0.63,0.74,0.2,5.6,-1.4,35.69,,,,,,,,,,
15.20.59.895,-101.6,25.4,0,2.0,,66004.8,15.15,-0.22,0.62,0.74,0.0,6.3,-1.6,35.69,,,,,,,,,,
15.20.59.908,-164.3,41.1,0,2.0,,65395.2,15.29,-0.22,0.62,0.74,0.1,6.0,-1.8,35.69,,,,,,,,,,
15.20.59.920,-116.0,29.0,0,2.0,,68435.0,14.61,-0.22,0.62,0.73,0.3,5.8,-1.2,35.69,,,,,,,,,,
15.20.59.928,-138.5,34.6,0,2.0,,62423.2,16.02,-0.22,0.62,0.74,1.0,5.8,-1.0,35.69,,,,,,,,,,
15.20.59.940,-174.7,43.7,0,2.0,,62759.7,15.93,-0.22,0.62,0.73,0.8,5.3,-0.9,35.69,,,,,,,,,,
15.20.59.953,-139.7,34.9,0,2.0,,63733.8,15.69,-0.22,0.63,0.73,0.8,5.6,-0.8,35.69,,,,,,,,,,
15.20.59.961,-155.3,38.8,0,2.0,,67623.8,14.79,-0.22,0.63,0.74,0.1,6.1,-1.5,35.69,,,,,,,,,,
15.20.59.973,-198.1,49.5,0,2.0,,63449.8,15.76,-0.22,0.63,0.74,-0.2,6.7,-1.8,35.69,,,,,,,,,,
15.20.59.985,-241.2,60.3,0,2.0,,60123.1,16.63,-0.22,0.62,0.74,-0.5,6.3,-2.1,35.69,,,,,,,,,,
15.20.59.994,-119.4,29.8,0,2.0,,65467.8,15.27,-0.22,0.62,0.74,0.2,5.9,-1.7,35.69,,,,,,,,,,
15.21.00.006,29.1,7.3,1,3.0,93.8,66862.8,14.96,-0.22,0.63,0.74,0.6,5.8,-1.0,35.69,,,,,,,,,,
15.21.00.018,141.1,35.3,0,3.0,,60373.6,16.56,-0.22,0.62,0.75,0.8,5.6,-0.9,35.69,,,,,,,,,,
15.21.00.026,226.8,56.7,0,3.0,,65836.9,15.19,-0.22,0.62,0.75,0.8,6.2,-1.4,35.69,,,,,,,,,,
15.21.00.039,238.2,59.6,0,3.0,,66205.0,15.1,-0.22,0.63,0.74,0.8,5.6,-1.0,35.69,,,,,,,,,,
15.21.00.051,366.4,91.6,0,3.0,,64352.4,15.54,-0.22,0.62,0.75,0.9,5.4,-1.1,35.69,,,,,,,,,,
15.21.00.059,349.5,87.4,0,3.0,,66637.1,15.01,-0.21,0.62,0.74,1.2,5.5,-0.8,35.69,,,,,,,,,,
15.21.00.071,401.3,100.3,0,3.0,,67718.3,14.77,-0.22,0.63,0.74,0.5,5.4,-1.1,35.69,,,,,,,,,,
15.21.00.084,447.0,111.8,0,3.0,,65069.0,15.37,-0.22,0.63,0.74,0.6,6.2,-1.7,35.69,,,,,,,,,,
15.21.00.092,480.5,120.1,0,3.0,,67096.4,14.9,-0.22,0.62,0.74,0.4,6.0,-1.6,35.69,,,,,,,,,,
15.21.00.104,454.6,113.6,0,3.0,,62344.7,16.04,-0.22,0.62,0.74,0.7,5.8,-1.2,35.69,,,,,,,,,,
15.21.00.116,506.7,126.7,0,3.0,,60669.4,16.48,-0.22,0.62,0.74,1.0,5.7,-0.6,35.69,,,,,,,,,,
15.21.00.125,485.2,121.3,0,3.0,,68736.8,14.55,-0.22,0.63,0.73,1.3,5.3,-0.9,35.69,,,,,,,,,,
15.21.00.137,486.2,121.6,0,3.0,,62572.3,15.98,-0.22,0.63,0.74,0.8,6.1,-0.8,35.69,,,,,,,,,,
15.21.00.149,413.1,103.3,0,3.0,,64046.6,15.61,-0.22,0.62,0.73,0.7,5.9,-1.2,35.69,,,,,,,,,,
15.21.00.157,361.0,90.2,0,3.0,,61601.7,16.23,-0.22,0.62,0.74,0.9,5.3,-1.5,35.69,,,,,,,,,,
15.21.00.170,335.7,83.9,0,3.0,,61213.8,16.34,-0.22,0.62,0.74,1.2,5.7,-1.2,35.69,,,,,,,,,,
15.21.00.182,249.6,62.4,0,3.0,,65042.5,15.37,-0.22,0.63,0.74,1.0,5.6,-1.1,35.69,,,,,,,,,,
15.21.00.190,229.2,57.3,0,3.0,,63932.3,15.64,-0.22,0.64,0.74,0.6,5.5,-1.1,35.69,,,,,,,,,,
15.21.00.203,144.4,36.1,0,3.0,,64278.2,15.56,-0.22,0.63,0.74,0.1,6.1,-1.4,35.69,,,,,,,,,,
15.21.00.215,-23.2,5.8,0,3.0,,64384.1,15.53,-0.22,0.62,0.74,-0.3,6.2,-1.9,35.69,,,,,,,,,,
15.21.00.223,-10.9,2.7,0,3.0,,70133.0,14.26,-0.22,0.63,0.74,-0.1,6.3,-2.1,35.69,,,,,,,,,,
15.21.00.235,32.0,8.0,0,3.0,,68353.6,14.63,-0.22,0.62,0.74,0.4,6.2,-1.5,35.69,,,,,,,,,,
15.21.00.248,69.4,17.4,0,3.0,,68675.4,14.56,-0.21,0.62,0.74,0.5,6.2,-1.6,35.69,,,,,,,,,,
15.21.00.256,119.5,29.9,0,3.0,,58601.8,17.06,-0.21,0.62,0.73,0.5,5.3,-1.4,35.69,,,,,,,,,,
15.21.00.268,92.3,23.1,0,3.0,,66379.1,15.06,-0.21,0.63,0.74,0.3,5.3,-1.2,35.69,,,,,,,,,,
15.21.00.276,149.0,37.2,0,3.0,,59297.1,16.86,-0.22,0.63,0.74,-1.2,6.2,-1.8,35.69,,,,,,,,,,
15.21.00.289,82.8,20.7,0,3.0,,62204.7,16.08,-0.22,0.62,0.75,-1.8,7.1,-2.7,35.69,,,,,,,,,,
15.21.00.301,41.6,10.4,0,3.0,,69304.8,14.43,-0.23,0.61,0.75,-1.3,6.6,-2.6,35.69,,,,,,,,,,
15.21.00.309,72.3,18.1,0,3.0,,68649.9,14.57,-0.23,0.61,0.75,0.2,5.9,-1.6,35.69,,,,,,,,,,
15.21.00.321,84.4,21.1,0,3.0,,67159.1,14.89,-0.23,0.62,0.74,1.4,5.4,-0.6,35.69,,,,,,,,,,
15.21.00.334,-0.0,0.0,0,3.0,,66406.2,15.06,-0.22,0.63,0.75,1.8,5.0,-0.2,35.69,,,,,,,,,,
15.21.00.342,52.7,13.2,0,3.0,,65236.3,15.33,-0.21,0.63,0.74,1.4,5.5,-0.8,35.69,,,,,,,,,,
15.21.00.354,-6.4,1.6,0,3.0,,65654.3,15.23,-0.22,0.63,0.74,0.3,5.8,-1.6,35.69,,,,,,,,,,
15.21.00.366,-1.6,0.4,0,3.0,,67574.2,14.8,-0.22,0.63,0.75,0.2,6.0,-2.0,35.69,,,,,,,,,,
15.21.00.375,-79.7,19.9,0,3.0,,59897.2,16.7,-0.22,0.63,0.74,0.6,6.2,-1.6,35.69,,,,,,,,,,
15.21.00.387,-61.4,15.4,0,3.0,,65200.4,15.34,-0.22,0.62,0.74,0.8,5.8,-1.7,35.69,,,,,,,,,,
15.21.00.399,-10.1,2.5,0,3.0,,62042.4,16.12,-0.22,0.63,0.74,0.7,6.0,-1.2,35.69,,,,,,,,,,
15.21.00.407,-52.5,13.1,0,3.0,,63199.8,15.82,-0.22,0.63,0.74,0.3,6.4,-1.5,35.69,,,,,,,,,,
15.21.00.420,-79.2,19.8,0,3.0,,63713.9,15.7,-0.22,0.62,0.74,0.0,6.5,-2.0,35.69,,,,,,,,,,
15.21.00.428,-49.9,12.5,0,3.0,,64464.4,15.51,-0.22,0.62,0.74,-0.1,6.8,-2.1,35.69,,,,,,,,,,
15.21.00.440,-6.9,1.7,0,3.0,,62563.3,15.98,-0.23,0.62,0.75,-0.1,5.9,-1.9,35.69,,,,,,,,,,
15.21.00.452,-121.8,30.4,0,3.0,,57366.9,17.43,-0.22,0.61,0.74,1.0,6.2,-1.3,35.69,,,,,,,,,,
15.21.00.461,-77.0,19.2,0,3.0,,64574.1,15.49,-0.22,0.62,0.74,1.4,5.8,-1.2,35.69,,,,,,,,,,
15.21.00.473,-51.1,12.8,0,3.0,,62906.4,15.9,-0.21,0.63,0.74,1.3,5.4,-0.4,35.69,,,,,,,,,,
15.21.00.485,-45.1,11.3,0,3.0,,63353.5,15.78,-0.22,0.63,0.74,0.9,5.5,-0.8,35.69,,,,,,,,,,
15.21.00.493,-146.7,36.7,0,3.0,,66347.5,15.07,-0.22,0.63,0.74,0.1,6.4,-1.4,35.69,,,,,,,,,,
15.21.00.506,-69.9,17.5,0,3.0,,64938.0,15.4,-0.22,0.63,0.74,-0.5,6.3,-1.9,35.69,,,,,,,,,,
15.21.00.518,-124.7,31.2,0,3.0,,64654.5,15.47,-0.22,0.62,0.75,0.3,5.7,-1.5,35.69,,,,,,,,,,
15.21.00.530,-172.6,43.2,0,3.0,,63830.1,15.67,-0.22,0.62,0.74,1.4,5.7,-0.8,35.69,,,,,,,,,,
15.21.00.538,-130.7,32.7,0,3.0,,64140.4,15.59,-0.22,0.62,0.74,1.8,5.3,-0.7,35.69,,,,,,,,,,
15.21.00.551,-100.9,25.2,0,3.0,,61155.5,16.35,-0.22,0.62,0.74,1.8,5.7,-0.7,35.69,,,,,,,,,,
15.21.00.563,-154.6,38.6,0,3.0,,64669.9,15.46,-0.22,0.63,0.74,1.3,5.7,-0.8,35.69,,,,,,,,,,
15.21.00.571,-187.6,46.9,0,3.0,,61521.4,16.25,-0.21,0.63,0.74,1.2,5.4,-1.1,35.69,,,,,,,,,,
15.21.00.583,-190.8,47.7,0,3.0,,62535.9,15.99,-0.22,0.62,0.74,0.5,5.7,-1.3,35.69,,,,,,,,,,
15.21.00.596,-215.3,53.8,0,3.0,,60276.9,16.59,-0.22,0.63,0.74,0.2,5.6,-1.2,35.69,,,,,,,,,,
15.21.00.608,-195.4,48.8,0,3.0,,65818.8,15.19,-0.22,0.62,0.74,-0.1,5.7,-1.2,35.69,,,,,,,,,,
15.21.00.645,62.3,15.6,1,4.0,99.1,70140.3,14.26,-0.21,0.62,0.75,1.7,5.5,-0.5,35.69,,,,,,,,,,
15.21.00.657,172.4,43.1,0,4.0,,65854.3,15.19,-0.22,0.62,0.74,1.4,5.8,-0.9,35.69,,,,,,,,,,
15.21.00.670,245.8,61.4,0,4.0,,56049.3,17.84,-0.22,0.63,0.74,0.5,6.0,-1.3,35.69,,,,,,,,,,
15.21.00.678,328.4,82.1,0,4.0,,65180.0,15.34,-0.22,0.62,0.74,0.3,5.7,-1.7,35.69,,,,,,,,,,
15.21.00.691,394.1,98.5,0,4.0,,63361.3,15.78,-0.22,0.61,0.74,0.9,6.1,-1.4,35.69,,,,,,,,,,
15.21.00.702,479.0,119.8,0,4.0,,64910.8,15.41,-0.22,0.62,0.74,1.4,5.6,-0.8,35.69,,,,,,,,,,
15.21.00.715,491.7,122.9,0,4.0,,68063.9,14.69,-0.22,0.62,0.74,1.9,5.3,-0.5,35.69,,,,,,,,,,
15.21.00.723,527.4,131.8,0,4.0,,65032.3,15.38,-0.22,0.62,0.74,1.7,5.3,-0.7,35.69,,,,,,,,,,
15.21.00.735,515.4,128.8,0,4.0,,66868.9,14.95,-0.21,0.63,0.74,0.8,5.3,-0.9,35.69,,,,,,,,,,
15.21.00.748,378.2,94.6,0,4.0,,65503.8,15.27,-0.22,0.63,0.74,0.5,5.8,-1.5,35.69,,,,,,,,,,
15.21.00.756,507.3,126.8,0,4.0,,60749.4,16.46,-0.22,0.62,0.74,0.7,6.1,-1.3,35.69,,,,,,,,,,
15.21.00.768,502.2,125.6,0,4.0,,66894.1,14.95,-0.22,0.62,0.74,1.2,5.7,-1.4,35.69,,,,,,,,,,
15.21.00.780,411.4,102.8,0,4.0,,66706.4,14.99,-0.21,0.62,0.74,1.2,5.8,-1.0,35.69,,,,,,,,,,
15.21.00.788,428.1,107.0,0,4.0,,64371.6,15.53,-0.22,0.63,0.74,1.2,6.1,-1.1,35.69,,,,,,,,,,
15.21.00.801,308.4,77.1,0,4.0,,67101.7,14.9,-0.22,0.63,0.74,0.6,6.4,-1.1,35.69,,,,,,,,,,
15.21.00.813,232.9,58.2,0,4.0,,66739.2,14.98,-0.22,0.62,0.74,0.5,6.1,-1.4,35.69,,,,,,,,,,
15.21.00.825,178.4,44.6,0,4.0,,63936.6,15.64,-0.22,0.62,0.74,1.7,6.1,-0.3,35.69,,,,,,,,,,
15.21.00.834,125.3,31.3,0,4.0,,61963.9,16.14,-0.23,0.62,0.74,1.6,6.1,-0.8,35.69,,,,,,,,,,
15.21.00.846,11.7,2.9,0,4.0,,62503.0,16.0,-0.22,0.62,0.74,1.5,5.7,-1.0,35.69,,,,,,,,,,
15.21.00.858,69.9,17.5,0,4.0,,68071.1,14.69,-0.21,0.64,0.74,0.9,6.3,-1.0,35.69,,,,,,,,,,
15.21.00.867,85.0,21.2,0,4.0,,63177.4,15.83,-0.22,0.63,0.74,0.2,5.9,-1.5,35.69,,,,,,,,,,
15.21.00.879,62.6,15.6,0,4.0,,66148.6,15.12,-0.21,0.63,0.74,0.2,6.5,-1.3,35.69,,,,,,,,,,
15.21.00.891,-17.5,4.4,0,4.0,,62562.3,15.98,-0.22,0.62,0.74,0.3,6.4,-1.9,35.69,,,,,,,,,,
15.21.00.899,8.7,2.2,0,4.0,,63551.7,15.74,-0.22,0.62,0.75,0.6,5.5,-1.0,35.69,,,,,,,,,,
15.21.00.911,74.0,18.5,0,4.0,,66870.7,14.95,-0.22,0.62,0.74,1.3,6.2,-1.3,35.69,,,,,,,,,,
15.21.00.923,95.8,24.0,0,4.0,,66481.7,15.04,-0.22,0.62,0.74,1.5,5.9,-0.9,35.69,,,,,,,,,,
15.21.00.932,15.5,3.9,0,4.0,,63794.5,15.68,-0.22,0.63,0.74,1.7,5.4,-0.2,35.69,,,,,,,,,,
15.21.00.944,69.4,17.4,0,4.0,,68532.8,14.59,-0.22,0.63,0.74,1.4,4.5,-0.7,35.69,,,,,,,,,,
15.21.00.956,-23.0,5.8,0,4.0,,62149.6,16.09,-0.21,0.63,0.73,1.2,5.9,-1.1,35.69,,,,,,,,,,
15.21.00.964,-20.8,5.2,0,4.0,,61885.4,16.16,-0.22,0.63,0.74,-0.2,6.7,-1.5,35.69,,,,,,,,,,
15.21.00.977,-22.7,5.7,0,4.0,,64215.5,15.57,-0.22,0.62,0.74,-0.1,6.5,-1.8,35.69,,,,,,,,,,
15.21.00.989,-20.6,5.2,0,4.0,,66864.7,14.96,-0.22,0.62,0.74,1.0,6.4,-1.5,35.69,,,,,,,,,,
15.21.00.997,-39.1,9.8,0,4.0,,70982.6,14.09,-0.22,0.63,0.73,1.8,5.7,-0.4,35.69,,,,,,,,,,
15.21.01.010,-15.9,4.0,0,4.0,,59709.8,16.75,-0.22,0.63,0.75,2.1,5.5,-0.2,35.69,,,,,,,,,,
15.21.01.022,-28.1,7.0,0,4.0,,64562.9,15.49,-0.21,0.64,0.74,1.9,6.1,-0.7,35.69,,,,,,,,,,
15.21.01.030,-10.2,2.6,0,4.0,,68319.8,14.64,-0.22,0.63,0.73,1.0,6.2,-1.1,35.69,,,,,,,,,,
15.21.01.043,-12.0,3.0,0,4.0,,64982.2,15.39,-0.22,0.63,0.74,0.6,6.9,-1.6,35.69,,,,,,,,,,
15.21.01.055,-33.9,8.5,0,4.0,,62350.9,16.04,-0.22,0.62,0.73,0.8,6.7,-1.2,35.69,,,,,,,,,,
15.21.01.063,-48.5,12.1,0,4.0,,63824.9,15.67,-0.22,0.62,0.74,0.8,6.8,-1.2,35.69,,,,,,,,,,
15.21.01.075,-119.5,29.9,0,4.0,,64048.9,15.61,-0.23,0.63,0.74,0.1,6.2,-1.4,35.69,,,,,,,,,,
15.21.01.087,-77.3,19.3,0,4.0,,68795.4,14.54,-0.21,0.62,0.74,0.0,6.1,-1.5,35.69,,,,,,,,,,
15.21.01.096,-53.4,13.4,0,4.0,,68806.7,14.53,-0.22,0.62,0.75,0.4,6.0,-1.3,35.69,,,,,,,,,,
15.21.01.108,-159.0,39.8,0,4.0,,62086.5,16.11,-0.22,0.63,0.74,1.2,6.6,-1.2,35.69,,,,,,,,,,
15.21.01.120,-100.0,25.0,0,4.0,,70038.9,14.28,-0.22,0.62,0.74,1.2,5.8,-0.8,35.69,,,,,,,,,,
15.21.01.128,-102.6,25.6,0,4.0,,62939.7,15.89,-0.22,0.63,0.74,0.8,5.8,-0.8,35.69,,,,,,,,,,
15.21.01.141,-89.0,22.2,0,4.0,,65473.0,15.27,-0.22,0.63,0.73,1.3,5.7,-1.0,35.69,,,,,,,,,,
15.21.01.153,-67.8,17.0,0,4.0,,65614.8,15.24,-0.22,0.63,0.74,0.7,5.5,-1.0,35.69,,,,,,,,,,
15.21.01.165,-109.6,27.4,0,4.0,,62455.9,16.01,-0.21,0.63,0.74,0.3,5.8,-1.6,35.69,,,,,,,,,,
15.21.01.173,-150.0,37.5,0,4.0,,67105.7,14.9,-0.22,0.63,0.74,-0.2,5.8,-1.6,35.69,,,,,,,,,,
15.21.01.186,-156.4,39.1,0,4.0,,60045.8,16.65,-0.22,0.62,0.74,-0.2,5.7,-1.7,35.69,,,,,,,,,,
15.21.01.198,-180.5,45.1,0,4.0,,65784.6,15.2,-0.22,0.62,0.74,0.3,5.7,-1.6,35.69,,,,,,,,,,
15.21.01.206,-158.4,39.6,0,4.0,,66799.2,14.97,-0.22,0.62,0.74,0.9,6.2,-1.0,35.69,,,,,,,,,,
15.21.01.218,-146.8,36.7,0,4.0,,66412.3,15.06,-0.22,0.62,0.74,1.1,5.9,-0.6,35.69,,,,,,,,,,
15.21.01.231,-198.4,49.6,0,4.0,,68913.8,14.51,-0.22,0.63,0.74,1.0,5.7,-0.9,35.69,,,,,,,,,,
15.21.01.243,-191.8,48.0,0,4.0,,64273.3,15.56,-0.22,0.63,0.73,0.3,5.8,-1.3,35.69,,,,,,,,,,
15.21.01.251,-142.1,35.5,0,4.0,,58105.2,17.21,-0.22,0.63,0.74,-0.1,5.9,-1.6,35.69,,,,,,,,,,
15.21.01.264,6.4,1.6,1,5.0,93.1,69389.2,14.41,-0.22,0.63,0.75,-0.1,6.0,-1.9,35.69,,,,,,,,,,
15.21.01.276,116.3,29.1,0,5.0,,63616.1,15.72,-0.22,0.62,0.73,0.2,6.6,-1.3,35.69,,,,,,,,,,
15.21.01.284,136.0,34.0,0,5.0,,63102.4,15.85,-0.22,0.62,0.74,0.7,5.8,-1.2,35.69,,,,,,,,,,
15.21.01.296,192.5,48.1,0,5.0,,61669.3,16.22,-0.22,0.62,0.74,0.7,5.7,-1.1,35.69,,,,,,,,,,
15.21.01.309,299.0,74.8,0,5.0,,60294.3,16.59,-0.22,0.63,0.74,0.6,5.6,-1.3,35.69,,,,,,,,,,
15.21.01.321,365.8,91.4,0,5.0,,59227.4,16.88,-0.22,0.62,0.74,0.1,5.8,-1.5,35.69,,,,,,,,,,
15.21.01.329,376.9,94.2,0,5.0,,64966.8,15.39,-0.22,0.63,0.74,0.6,5.8,-1.6,35.69,,,,,,,,,,
15.21.01.341,420.0,105.0,0,5.0,,67745.3,14.76,-0.22,0.62,0.74,0.7,5.4,-1.7,35.69,,,,,,,,,,
15.21.01.354,471.4,117.8,0,5.0,,63006.9,15.87,-0.22,0.62,0.74,0.6,5.4,-1.6,35.69,,,,,,,,,,
15.21.01.362,464.2,116.0,0,5.0,,65585.3,15.25,-0.22,0.62,0.74,0.3,5.7,-1.9,35.69,,,,,,,,,,
15.21.01.375,422.1,105.5,0,5.0,,69504.6,14.39,-0.22,0.62,0.74,0.5,5.1,-1.7,35.69,,,,,,,,,,
15.21.01.387,513.9,128.5,0,5.0,,64798.7,15.43,-0.21,0.62,0.75,1.0,5.0,-1.2,35.69,,,,,,,,,,
15.21.01.395,498.0,124.5,0,5.0,,61433.9,16.28,-0.22,0.61,0.74,1.6,4.7,-1.3,35.69,,,,,,,,,,
15.21.01.407,464.6,116.2,0,5.0,,65120.1,15.36,-0.23,0.62,0.75,2.0,4.2,-0.8,35.69,,,,,,,,,,
15.21.01.448,237.3,59.3,0,5.0,,62186.1,16.08,-0.2,0.64,0.73,-0.3,4.1,-2.0,35.69,,,,,,,,,,
15.21.01.460,149.1,37.3,0,5.0,,65958.2,15.16,-0.22,0.63,0.75,-1.8,4.6,-3.3,35.69,,,,,,,,,,
15.21.01.468,76.9,19.2,0,5.0,,61686.0,16.21,-0.22,0.61,0.75,-1.0,6.4,-2.8,35.69,,,,,,,,,,
15.21.01.481,20.8,5.2,0,5.0,,59702.0,16.75,-0.22,0.6,0.74,1.2,5.7,-1.5,35.69,,,,,,,,,,
15.21.01.493,61.8,15.4,0,5.0,,67512.3,14.81,-0.23,0.61,0.74,3.2,5.3,0.0,35.69,,,,,,,,,,
15.21.01.501,27.2,6.8,0,5.0,,65033.8,15.38,-0.23,0.62,0.74,3.2,5.7,0.5,35.69,,,,,,,,,,
15.21.01.513,38.1,9.5,0,5.0,,66285.7,15.09,-0.21,0.63,0.74,2.3,4.7,-0.4,35.69,,,,,,,,,,
15.21.01.526,81.9,20.5,0,5.0,,62241.1,16.07,-0.19,0.62,0.74,4.5,4.8,0.5,35.69,,,,,,,,,,
15.21.01.534,106.0,26.5,0,5.0,,59794.5,16.72,-0.23,0.64,0.77,3.8,5.5,0.6,35.69,,,,,,,,,,
15.21.01.546,55.4,13.8,0,5.0,,67210.7,14.88,-0.22,0.61,0.74,3.5,6.3,-1.0,35.69,,,,,,,,,,
15.21.01.559,105.4,26.4,0,5.0,,67522.1,14.81,-0.21,0.63,0.74,4.0,5.7,1.0,35.69,,,,,,,,,,
15.21.01.567,75.3,18.8,0,5.0,,61725.3,16.2,-0.21,0.63,0.75,7.6,5.8,3.1,35.69,,,,,,,,,,
15.21.01.579,94.0,23.5,0,5.0,,67862.8,14.74,-0.21,0.65,0.74,8.6,4.4,3.5,35.69,,,,,,,,,,
15.21.01.591,-17.3,4.3,0,5.0,,64830.8,15.42,-0.21,0.64,0.72,7.0,4.0,2.0,35.69,,,,,,,,,,
15.21.01.599,-26.1,6.5,0,5.0,,63891.9,15.65,-0.23,0.64,0.75,5.2,7.5,0.5,35.69,,,,,,,,,,
15.21.01.612,-37.1,9.3,0,5.0,,61857.3,16.17,-0.23,0.63,0.72,5.0,6.5,0.1,35.69,,,,,,,,,,
15.21.01.624,19.6,4.9,0,5.0,,66299.6,15.08,-0.24,0.63,0.73,6.0,4.6,0.8,35.69,,,,,,,,,,
15.21.01.632,-47.8,12.0,0,5.0,,66036.4,15.14,-0.23,0.65,0.74,6.3,4.2,1.6,35.69,,,,,,,,,,
15.21.01.645,-29.9,7.5,0,5.0,,65856.0,15.18,-0.22,0.64,0.72,5.8,4.3,0.7,35.69,,,,,,,,,,
15.21.01.657,28.5,7.1,0,5.0,,57658.9,17.34,-0.21,0.65,0.74,3.6,4.4,-0.7,35.69,,,,,,,,,,
15.21.01.665,-0.8,0.2,0,5.0,,63046.8,15.86,-0.22,0.63,0.72,4.7,5.0,2.2,35.69,,,,,,,,,,
15.21.01.677,-40.2,10.0,0,5.0,,64805.8,15.43,-0.21,0.68,0.7,0.7,9.4,-4.3,35.69,,,,,,,,,,
15.21.01.690,-59.9,15.0,0,5.0,,64748.3,15.44,-0.2,0.67,0.72,-4.1,6.8,-7.4,35.69,,,,,,,,,,
15.21.01.698,-37.7,9.4,0,5.0,,59830.3,16.71,-0.22,0.66,0.73,-5.3,9.2,-8.2,35.69,,,,,,,,,,
15.21.01.710,-3.7,0.9,0,5.0,,65826.4,15.19,-0.22,0.63,0.73,-5.2,6.0,-7.1,35.69,,,,,,,,,,
15.21.01.722,-76.1,19.0,0,5.0,,67503.0,14.81,-0.23,0.62,0.74,-3.9,3.1,-5.4,35.69,,,,,,,,,,
15.21.01.731,-146.1,36.5,0,5.0,,58946.2,16.96,-0.22,0.62,0.73,-1.0,6.6,-4.1,35.69,,,,,,,,,,
15.21.01.743,-106.6,26.6,0,5.0,,64784.6,15.44,-0.22,0.62,0.73,-1.3,5.0,-3.9,35.69,,,,,,,,,,
15.21.01.755,-89.1,22.3,0,5.0,,61289.2,16.32,-0.22,0.63,0.74,-2.1,6.2,-4.6,35.69,,,,,,,,,,
15.21.01.763,-58.4,14.6,0,5.0,,64767.6,15.44,-0.21,0.64,0.73,-2.8,6.2,-5.3,35.69,,,,,,,,,,
15.21.01.776,-150.6,37.6,0,5.0,,61034.5,16.38,-0.22,0.64,0.75,-3.2,5.7,-5.0,35.69,,,,,,,,,,
15.21.01.788,-98.5,24.6,0,5.0,,64435.3,15.52,-0.21,0.64,0.74,-2.7,8.1,-4.5,35.69,,,,,,,,,,
15.21.01.800,-160.9,40.2,0,5.0,,64318.2,15.55,-0.22,0.63,0.74,-3.5,7.6,-4.2,35.69,,,,,,,,,,
15.21.01.808,-129.3,32.3,0,5.0,,69742.2,14.34,-0.23,0.63,0.75,-3.1,8.2,-5.1,35.69,,,,,,,,,,
15.21.01.821,-88.3,22.1,0,5.0,,67774.2,14.75,-0.23,0.62,0.74,-0.7,8.9,-4.3,35.69,,,,,,,,,,
15.21.01.833,-176.2,44.0,0,5.0,,69396.9,14.41,-0.22,0.62,0.73,2.1,7.2,-2.1,35.69,,,,,,,,,,
15.21.01.841,-157.1,39.3,0,5.0,,61832.0,16.17,-0.22,0.64,0.73,3.8,6.0,0.2,35.69,,,,,,,,,,
15.21.01.853,-214.2,53.6,0,5.0,,58511.1,17.09,-0.22,0.65,0.73,2.9,7.3,0.3,35.69,,,,,,,,,,
15.21.01.866,-173.3,43.3,0,5.0,,60189.3,16.61,-0.22,0.64,0.73,1.1,8.0,-1.1,35.69,,,,,,,,,,
15.21.01.874,-241.4,60.4,0,5.0,,61494.1,16.26,-0.22,0.64,0.74,-1.2,8.9,-1.5,35.69,,,,,,,,,,
15.21.01.886,-173.0,43.2,0,5.0,,64594.9,15.48,-0.22,0.62,0.73,-1.2,9.0,-1.5,35.69,,,,,,,,,,
15.21.01.899,24.9,6.2,1,6.0,95.1,69401.6,14.41,-0.22,0.61,0.74,-0.7,10.1,-0.4,35.69,,,,,,,,,,
15.21.01.907,102.6,25.6,0,6.0,,64155.3,15.59,-0.22,0.61,0.75,0.9,12.5,-1.7,35.69,,,,,,,,,,
15.21.01.919,162.1,40.5,0,6.0,,65648.1,15.23,-0.22,0.62,0.73,0.8,13.6,-2.3,35.69,,,,,,,,,,
15.21.01.931,232.7,58.2,0,6.0,,67036.7,14.92,-0.21,0.63,0.73,1.0,13.7,-2.9,35.69,,,,,,,,,,
15.21.01.940,296.8,74.2,0,6.0,,62909.9,15.9,-0.22,0.64,0.73,1.8,13.4,-2.3,35.69,,,,,,,,,,
15.21.01.952,367.9,92.0,0,6.0,,64738.0,15.45,-0.22,0.64,0.74,2.3,12.9,-1.4,35.69,,,,,,,,,,
15.21.01.964,390.2,97.6,0,6.0,,61026.7,16.39,-0.23,0.63,0.72,1.5,13.6,-2.5,35.69,,,,,,,,,,
15.21.01.972,486.9,121.7,0,6.0,,58122.7,17.2,-0.24,0.64,0.73,1.1,14.9,-3.3,35.69,,,,,,,,,,
15.21.01.985,409.8,102.4,0,6.0,,65107.8,15.36,-0.23,0.63,0.72,0.2,15.0,-3.8,35.69,,,,,,,,,,
15.21.01.997,512.3,128.1,0,6.0,,64514.4,15.5,-0.24,0.63,0.71,0.3,13.7,-4.4,35.69,,,,,,,,,,
15.21.02.005,511.9,128.0,0,6.0,,64887.3,15.41,-0.23,0.61,0.73,-0.3,11.2,-5.8,35.69,,,,,,,,,,
15.21.02.017,478.8,119.7,0,6.0,,67462.0,14.82,-0.23,0.62,0.75,0.2,12.6,-5.5,35.69,,,,,,,,,,
15.21.02.030,503.6,125.9,0,6.0,,68657.7,14.56,-0.24,0.61,0.75,-0.4,11.9,-5.8,35.69,,,,,,,,,,
15.21.02.042,435.1,108.8,0,6.0,,64116.9,15.6,-0.25,0.62,0.74,0.4,12.7,-4.0,35.69,,,,,,,,,,
15.21.02.050,355.5,88.9,0,6.0,,61512.4,16.26,-0.24,0.61,0.72,2.2,14.5,-2.5,35.69,,,,,,,,,,
15.21.02.063,363.8,91.0,0,6.0,,62014.6,16.13,-0.24,0.61,0.74,2.3,12.1,-1.6,35.69,,,,,,,,,,
15.21.02.075,230.2,57.6,0,6.0,,59484.8,16.81,-0.23,0.63,0.73,2.1,11.7,-1.3,35.69,,,,,,,,,,
15.21.02.083,206.1,51.5,0,6.0,,69342.1,14.42,-0.24,0.63,0.74,2.7,10.6,-1.0,35.69,,,,,,,,,,
15.21.02.095,187.6,46.9,0,6.0,,61014.0,16.39,-0.25,0.62,0.75,3.6,9.0,-0.7,35.69,,,,,,,,,,
15.21.02.108,60.0,15.0,0,6.0,,64767.9,15.44,-0.24,0.62,0.73,5.3,11.0,0.9,35.69,,,,,,,,,,
15.21.02.116,9.4,2.4,0,6.0,,59362.8,16.85,-0.23,0.63,0.74,5.7,9.9,2.3,35.69,,,,,,,,,,
15.21.02.128,51.9,13.0,0,6.0,,64965.3,15.39,-0.23,0.65,0.74,5.3,11.0,2.5,35.69,,,,,,,,,,
15.21.02.140,23.4,5.8,0,6.0,,63430.9,15.77,-0.24,0.64,0.73,4.3,14.2,1.5,35.69,,,,,,,,,,
15.21.02.148,45.1,11.3,0,6.0,,59502.1,16.81,-0.25,0.63,0.74,2.8,15.6,0.0,35.69,,,,,,,,,,
15.21.02.161,134.8,33.7,0,6.0,,61381.0,16.29,-0.25,0.64,0.73,3.4,16.2,0.5,35.69,,,,,,,,,,
15.21.02.173,132.6,33.2,0,6.0,,61621.8,16.23,-0.26,0.64,0.72,3.8,15.6,2.1,35.69,,,,,,,,,,
15.21.02.181,39.3,9.8,0,6.0,,65350.3,15.3,-0.27,0.65,0.72,3.6,13.0,2.3,35.69,,,,,,,,,,
15.21.02.193,44.0,11.0,0,6.0,,66365.9,15.07,-0.26,0.65,0.72,3.3,13.6,1.9,35.69,,,,,,,,,,
15.21.02.202,138.3,34.6,0,6.0,,65244.3,15.33,-0.25,0.63,0.71,3.4,13.7,0.6,35.69,,,,,,,,,,
15.21.02.214,83.9,21.0,0,6.0,,64215.1,15.57,-0.25,0.64,0.71,3.1,12.4,0.5,35.69,,,,,,,,,,
15.21.02.255,14.3,3.6,0,6.0,,65193.5,15.34,-0.25,0.65,0.72,-0.6,12.7,-1.0,35.63,,,,,,,,,,
15.21.02.267,24.3,6.1,0,6.0,,61588.3,16.24,-0.26,0.64,0.72,-1.0,14.1,-3.3,35.63,,,,,,,,,,
15.21.02.275,-4.6,1.2,0,6.0,,64753.8,15.44,-0.27,0.62,0.72,1.4,12.7,-3.2,35.63,,,,,,,,,,
15.21.02.288,-69.3,17.3,0,6.0,,63768.7,15.68,-0.26,0.63,0.71,3.3,12.1,-2.6,35.63,,,,,,,,,,
15.21.02.300,-21.3,5.3,0,6.0,,63659.2,15.71,-0.26,0.63,0.71,4.0,13.4,-2.4,35.63,,,,,,,,,,
15.21.02.308,-69.1,17.3,0,6.0,,64832.3,15.42,-0.25,0.64,0.69,2.4,15.7,-4.7,35.63,,,,,,,,,,
15.21.02.320,-30.4,7.6,0,6.0,,60289.8,16.59,-0.22,0.65,0.68,-0.4,15.2,-8.9,35.63,,,,,,,,,,
15.21.02.333,-94.6,23.6,0,6.0,,59988.3,16.67,-0.27,0.71,0.73,-1.5,12.6,-9.0,35.63,,,,,,,,,,
15.21.02.345,-58.1,14.5,0,6.0,,66589.7,15.02,-0.28,0.66,0.71,-4.4,15.7,-6.5,35.63,,,,,,,,,,
15.21.02.353,-101.4,25.4,0,6.0,,62604.0,15.97,-0.27,0.64,0.71,-6.2,14.3,-7.6,35.63,,,,,,,,,,
15.21.02.366,-136.3,34.1,0,6.0,,66442.2,15.05,-0.3,0.62,0.72,-5.5,14.3,-7.0,35.63,,,,,,,,,,
15.21.02.378,-102.4,25.6,0,6.0,,63884.9,15.65,-0.28,0.63,0.71,-3.1,12.8,-4.3,35.63,,,,,,,,,,
15.21.02.386,-112.2,28.0,0,6.0,,64096.8,15.6,-0.28,0.62,0.71,-1.3,10.5,-3.7,35.63,,,,,,,,,,
15.21.02.399,-110.3,27.6,0,6.0,,68172.7,14.67,-0.27,0.62,0.7,-1.1,10.8,-5.9,35.63,,,,,,,,,,
15.21.02.411,-168.4,42.1,0,6.0,,64420.6,15.52,-0.27,0.63,0.72,-1.4,10.1,-8.4,35.63,,,,,,,,,,
15.21.02.423,-100.7,25.2,0,6.0,,62526.9,15.99,-0.26,0.63,0.72,-2.3,10.9,-8.7,35.63,,,,,,,,,,
15.21.02.431,-161.0,40.2,0,6.0,,62872.4,15.91,-0.25,0.63,0.72,-2.8,10.8,-9.3,35.63,,,,,,,,,,
15.21.02.443,-125.3,31.3,0,6.0,,66055.5,15.14,-0.26,0.64,0.73,-3.3,12.9,-9.4,35.63,,,,,,,,,,
15.21.02.456,-119.4,29.8,0,6.0,,59985.8,16.67,-0.25,0.65,0.72,-4.4,15.3,-10.3,35.63,,,,,,,,,,
15.21.02.468,-102.6,25.6,0,6.0,,61902.1,16.15,-0.27,0.64,0.72,-5.5,16.8,-12.4,35.63,,,,,,,,,,
15.21.02.476,-153.2,38.3,0,6.0,,60068.2,16.65,-0.29,0.62,0.72,-6.5,17.4,-12.3,35.63,,,,,,,,,,
15.21.02.488,-161.2,40.3,0,6.0,,62159.5,16.09,-0.3,0.61,0.71,-5.0,15.5,-9.6,35.63,,,,,,,,,,
15.21.02.501,-167.1,41.8,0,6.0,,63624.0,15.72,-0.31,0.61,0.7,-2.4,10.7,-6.2,35.63,,,,,,,,,,
15.21.02.513,-216.4,54.1,0,6.0,,63029.8,15.87,-0.31,0.6,0.7,-0.3,7.6,-3.5,35.63,,,,,,,,,,
15.21.02.521,-171.5,42.9,0,6.0,,60242.5,16.6,-0.32,0.6,0.7,-0.9,8.2,-3.5,35.63,,,,,,,,,,
15.21.02.533,65.9,16.5,1,7.0,94.2,64408.1,15.53,-0.31,0.6,0.7,-2.2,11.7,-5.8,35.63,,,,,,,,,,
15.21.02.546,128.1,32.0,0,7.0,,65217.2,15.33,-0.32,0.61,0.7,-3.5,12.5,-7.4,35.63,,,,,,,,,,
15.21.02.558,248.2,62.0,0,7.0,,64691.5,15.46,-0.31,0.61,0.71,-3.6,10.3,-6.7,35.63,,,,,,,,,,
15.21.02.566,191.6,47.9,0,7.0,,68348.3,14.63,-0.29,0.61,0.7,-5.1,9.6,-4.7,35.63,,,,,,,,,,
15.21.02.579,329.8,82.4,0,7.0,,66191.4,15.11,-0.29,0.62,0.72,-5.3,11.1,-3.8,35.63,,,,,,,,,,
15.21.02.591,454.0,113.5,0,7.0,,63147.9,15.84,-0.3,0.63,0.74,-4.5,12.5,-2.5,35.63,,,,,,,,,,
15.21.02.599,397.6,99.4,0,7.0,,73749.5,13.56,-0.3,0.63,0.74,-3.7,11.2,-1.3,35.63,,,,,,,,,,
15.21.02.611,398.4,99.6,0,7.0,,60156.1,16.62,-0.31,0.61,0.73,-3.6,10.9,-1.2,35.63,,,,,,,,,,
15.21.02.624,517.9,129.5,0,7.0,,61471.0,16.27,-0.31,0.6,0.72,-3.1,11.9,-2.7,35.63,,,,,,,,,,
15.21.02.636,589.7,147.4,0,7.0,,63111.5,15.84,-0.3,0.58,0.7,-3.1,11.2,-6.0,35.63,,,,,,,,,,
15.21.02.644,463.3,115.8,0,7.0,,58817.6,17.0,-0.3,0.59,0.71,-3.2,9.0,-8.0,35.63,,,,,,,,,,
15.21.02.656,459.7,114.9,0,7.0,,68737.3,14.55,-0.31,0.62,0.72,-1.8,9.8,-7.3,35.63,,,,,,,,,,
15.21.02.669,370.2,92.6,0,7.0,,60858.3,16.43,-0.32,0.64,0.73,-1.6,9.9,-5.5,35.63,,,,,,,,,,
15.21.02.681,374.3,93.6,0,7.0,,61620.8,16.23,-0.31,0.63,0.74,-3.1,11.4,-5.5,35.63,,,,,,,,,,
15.21.02.689,355.2,88.8,0,7.0,,64148.8,15.59,-0.32,0.64,0.73,-3.3,15.5,-6.2,35.63,,,,,,,,,,
15.21.02.701,317.5,79.4,0,7.0,,65218.5,15.33,-0.32,0.63,0.7,-4.3,16.7,-5.5,35.63,,,,,,,,,,
15.21.02.714,187.7,46.9,0,7.0,,60701.9,16.47,-0.31,0.63,0.7,-4.3,15.4,-2.5,35.63,,,,,,,,,,
15.21.02.726,103.8,26.0,0,7.0,,61073.5,16.37,-0.31,0.64,0.71,-1.3,15.6,1.0,35.63,,,,,,,,,,
15.21.02.734,109.6,27.4,0,7.0,,64504.4,15.5,-0.32,0.63,0.71,-2.5,15.9,2.4,35.63,,,,,,,,,,
15.21.02.747,-22.0,5.5,0,7.0,,64288.2,15.55,-0.31,0.6,0.74,-5.4,13.3,0.4,35.63,,,,,,,,,,
15.21.02.759,-25.1,6.3,0,7.0,,68086.5,14.69,-0.36,0.57,0.74,-6.3,15.9,-3.2,35.63,,,,,,,,,,
15.21.02.771,79.0,19.8,0,7.0,,65091.1,15.36,-0.34,0.54,0.71,-4.5,14.2,-4.1,35.63,,,,,,,,,,
15.21.02.779,80.1,20.0,0,7.0,,65161.7,15.35,-0.34,0.56,0.74,0.7,11.7,-2.4,35.63,,,,,,,,,,
15.21.02.792,84.2,21.0,0,7.0,,65344.2,15.3,-0.33,0.58,0.71,4.7,15.7,0.4,35.63,,,,,,,,,,
15.21.02.804,77.8,19.4,0,7.0,,64492.8,15.51,-0.32,0.62,0.71,5.0,13.4,1.6,35.63,,,,,,,,,,
15.21.02.812,86.2,21.6,0,7.0,,60801.8,16.45,-0.31,0.63,0.72,3.8,13.2,1.7,35.63,,,,,,,,,,
15.21.02.824,70.6,17.6,0,7.0,,64478.1,15.51,-0.32,0.62,0.72,1.2,14.3,1.2,35.63,,,,,,,,,,
15.21.02.837,-0.0,0.0,0,7.0,,63075.1,15.85,-0.33,0.62,0.73,-0.1,12.5,1.3,35.63,,,,,,,,,,
15.21.02.849,45.2,11.3,0,7.0,,60141.9,16.63,-0.32,0.6,0.74,-0.4,11.5,1.8,35.63,,,,,,,,,,
15.21.02.857,23.3,5.8,0,7.0,,64479.8,15.51,-0.33,0.59,0.75,1.3,13.1,1.5,35.63,,,,,,,,,,
15.21.02.869,-30.6,7.6,0,7.0,,61080.5,16.37,-0.34,0.58,0.74,1.0,17.0,-0.3,35.63,,,,,,,,,,
15.21.02.882,57.0,14.2,0,7.0,,66829.6,14.96,-0.35,0.6,0.72,-1.7,18.5,-3.3,35.63,,,,,,,,,,
15.21.02.894,-35.6,8.9,0,7.0,,62793.8,15.93,-0.34,0.61,0.69,-2.1,15.5,-3.5,35.63,,,,,,,,,,
15.21.02.903,14.4,3.6,0,7.0,,67268.3,14.87,-0.33,0.59,0.71,0.0,8.4,-0.9,35.63,,,,,,,,,,
15.21.02.915,3.1,0.8,0,7.0,,62181.1,16.08,-0.32,0.6,0.75,4.1,6.1,6.7,35.63,,,,,,,,,,
15.21.02.927,-20.4,5.1,0,7.0,,65090.3,15.36,-0.32,0.61,0.75,6.3,5.5,10.1,35.63,,,,,,,,,,
15.21.02.935,-45.4,11.4,0,7.0,,63808.5,15.67,-0.31,0.6,0.73,7.5,8.3,9.9,35.63,,,,,,,,,,
15.21.02.947,-37.8,9.4,0,7.0,,61824.9,16.17,-0.33,0.58,0.7,6.7,10.9,8.5,35.63,,,,,,,,,,
15.21.02.960,-40.9,10.2,0,7.0,,63543.3,15.74,-0.38,0.58,0.69,9.3,17.2,7.2,35.63,,,,,,,,,,
15.21.02.968,-53.3,13.3,0,7.0,,64308.0,15.55,-0.35,0.6,0.7,10.7,17.9,5.6,35.63,,,,,,,,,,
15.21.02.980,-83.7,20.9,0,7.0,,64848.2,15.42,-0.35,0.62,0.68,10.3,20.5,6.3,35.63,,,,,,,,,,
15.21.02.992,-163.3,40.8,0,7.0,,59999.9,16.67,-0.35,0.67,0.73,10.1,11.3,11.9,35.63,,,,,,,,,,
15.21.03.005,-118.9,29.7,0,7.0,,65672.7,15.23,-0.32,0.65,0.75,9.4,11.8,17.8,35.63,,,,,,,,,,
15.21.03.013,-118.9,29.7,0,7.0,,64134.5,15.59,-0.3,0.68,0.73,3.6,14.3,20.4,35.63,,,,,,,,,,
15.21.03.054,-88.0,22.0,0,7.0,,64810.6,15.43,-0.31,0.62,0.72,-7.1,14.6,-3.3,35.69,,,,,,,,,,
15.21.03.066,-172.7,43.2,0,7.0,,61786.3,16.18,-0.33,0.59,0.69,-2.4,11.4,-1.6,35.69,,,,,,,,,,
15.21.03.078,-101.0,25.2,0,7.0,,60175.2,16.62,-0.31,0.56,0.65,5.1,7.8,2.9,35.69,,,,,,,,,,
15.21.03.087,-210.3,52.6,0,7.0,,61594.6,16.24,-0.27,0.56,0.66,12.9,6.2,7.9,35.69,,,,,,,,,,
15.21.03.099,-163.9,41.0,0,7.0,,66596.2,15.02,-0.02,0.41,0.82,-2.5,-8.8,11.8,35.69,,,,,,,,,,
15.21.03.111,-202.0,50.5,0,7.0,,57269.1,17.46,-0.45,0.96,0.45,28.4,5.3,23.4,35.69,96.1,,,,,,,,,
15.21.03.119,-149.3,37.3,0,7.0,,63071.6,15.86,-0.2,0.71,0.94,8.1,-9.0,36.2,35.69,,,,,,,,,,
15.21.03.132,-189.6,47.4,0,7.0,,67668.2,14.78,-0.06,0.59,0.77,-22.9,-8.8,13.0,35.69,,,,,,,,,,
15.21.03.144,-205.9,51.5,0,7.0,,63289.2,15.8,-0.2,0.57,0.57,-8.0,25.5,0.5,35.69,,,,,,,,,,
15.21.03.156,-176.1,44.0,0,7.0,,64006.0,15.62,-0.35,0.79,0.82,-1.4,0.9,15.9,35.69,,,,,,,,,,
15.21.03.164,72.6,18.2,1,8.0,101.4,60460.8,16.54,-0.18,0.67,0.77,-2.5,-14.2,28.6,35.69,,,,,,,,,,
15.21.03.177,100.5,25.1,0,8.0,,65560.2,15.25,-0.22,0.67,0.75,-6.0,15.2,19.7,35.69,,,,,,,,,,
15.21.03.189,220.5,55.1,0,8.0,,65322.3,15.31,-0.24,0.67,0.72,-11.3,13.7,8.3,35.69,,,,,,,,,,
15.21.03.201,268.0,67.0,0,8.0,,62549.0,15.99,-0.26,0.63,0.78,-4.4,16.2,14.8,35.69,,,,,,,,,,
15.21.03.209,332.2,83.0,0,8.0,,62847.2,15.91,-0.26,0.63,0.77,3.7,14.1,23.9,35.69,,,,,,,,,,
15.21.03.222,335.7,83.9,0,8.0,,61979.0,16.13,-0.26,0.64,0.75,6.7,10.4,25.5,35.69,,,,,,,,,,
15.21.03.234,404.8,101.2,0,8.0,,68107.5,14.68,-0.24,0.66,0.77,8.8,8.4,26.8,35.69,,,,,,,,,,
15.21.03.246,388.7,97.2,0,8.0,,68721.9,14.55,-0.25,0.67,0.78,5.3,8.6,24.3,35.69,,,,,,,,,,
15.21.03.255,542.8,135.7,0,8.0,,66019.3,15.15,-0.28,0.69,0.8,0.3,8.2,21.5,35.69,,,,,,,,,,
15.21.03.268,482.3,120.6,0,8.0,,66320.4,15.08,-0.25,0.73,0.79,-7.5,10.7,17.8,35.69,,,,,,,,,,
15.21.03.279,361.5,90.4,0,8.0,,63702.7,15.7,-0.25,0.7,0.8,-15.3,13.9,15.9,35.69,,,,,,,,,,
15.21.03.291,494.6,123.6,0,8.0,,64419.1,15.52,-0.25,0.68,0.8,-21.6,11.9,13.9,35.69,,,,,,,,,,
15.21.03.300,474.7,118.7,0,8.0,,67864.9,14.74,-0.24,0.69,0.81,-21.6,11.4,17.4,35.69,,,,,,,,,,
15.21.03.312,402.7,100.7,0,8.0,,58906.2,16.98,-0.27,0.68,0.8,-21.3,12.9,18.6,35.69,,,,,,,,,,
15.21.03.324,322.3,80.6,0,8.0,,62245.6,16.07,-0.29,0.65,0.79,-24.5,15.7,18.3,35.69,,,,,,,,,,
15.21.03.332,326.9,81.7,0,8.0,,62606.6,15.97,-0.27,0.66,0.79,-25.0,18.7,17.6,35.69,,,,,,,,,,
15.21.03.345,267.8,67.0,0,8.0,,63097.8,15.85,-0.31,0.66,0.79,-22.3,12.7,20.8,35.69,,,,,,,,,,
15.21.03.353,192.7,48.2,0,8.0,,66534.2,15.03,-0.3,0.65,0.78,-21.5,5.2,25.7,35.69,,,,,,,,,,
15.21.03.365,113.8,28.4,0,8.0,,65304.3,15.31,-0.28,0.64,0.8,-20.5,5.6,24.8,35.69,,,,,,,,,,
15.21.03.373,28.4,7.1,0,8.0,,65405.7,15.29,-0.31,0.61,0.78,-20.4,6.7,20.5,35.69,,,,,,,,,,
15.21.03.386,5.2,1.3,0,8.0,,66299.0,15.08,-0.32,0.59,0.78,-19.2,6.4,17.9,35.69,,,,,,,,,,
15.21.03.398,21.4,5.4,0,8.0,,65555.6,15.25,-0.35,0.56,0.79,-18.7,7.7,15.4,35.69,,,,,,,,,,
15.21.03.406,55.5,13.9,0,8.0,,61368.5,16.3,-0.35,0.54,0.74,-12.1,-3.2,19.9,35.69,,,,,,,,,,
15.21.03.418,53.7,13.4,0,8.0,,65467.9,15.27,-0.32,0.52,0.72,-11.9,-5.1,16.6,35.69,,,,,,,,,,
15.21.03.427,85.3,21.3,0,8.0,,59475.0,16.81,-0.3,0.51,0.74,-9.1,-3.8,16.4,35.69,,,,,,,,,,
15.21.03.439,125.5,31.4,0,8.0,,65029.5,15.38,-0.3,0.49,0.73,-4.6,-5.7,16.5,35.69,,,,,,,,,,
15.21.03.447,110.8,27.7,0,8.0,,64567.7,15.49,-0.26,0.52,0.72,-0.9,-4.8,14.9,35.69,,,,,,,,,,
15.21.03.459,82.8,20.7,0,8.0,,62608.2,15.97,-0.25,0.53,0.68,0.2,-4.6,14.7,35.69,,,,,,,,,,
15.21.03.468,77.1,19.3,0,8.0,,64402.0,15.53,-0.23,0.53,0.68,5.9,-3.4,12.1,35.69,,,,,,,,,,
15.21.03.480,-13.8,3.4,0,8.0,,59007.0,16.95,-0.23,0.49,0.67,6.9,-1.6,5.5,35.69,,,,,,,,,,
15.21.03.488,33.1,8.3,0,8.0,,67583.1,14.8,-0.23,0.49,0.66,7.7,-4.2,8.3,35.69,,,,,,,,,,
15.21.03.500,42.2,10.6,0,8.0,,64484.0,15.51,-0.22,0.52,0.68,10.6,-1.8,8.4,35.69,,,,,,,,,,
15.21.03.513,26.3,6.6,0,8.0,,67379.0,14.84,-0.23,0.54,0.69,12.0,-2.9,11.6,35.69,,,,,,,,,,
15.21.03.521,-16.1,4.0,0,8.0,,57795.7,17.3,-0.21,0.57,0.68,8.6,-1.0,10.1,35.69,,,,,,,,,,
15.21.03.533,-17.7,4.4,0,8.0,,60995.9,16.39,-0.22,0.57,0.69,6.0,3.6,9.8,35.69,,,,,,,,,,
15.21.03.541,-25.0,6.2,0,8.0,,64711.4,15.45,-0.24,0.56,0.68,0.1,9.6,5.5,35.69,,,,,,,,,,
15.21.03.554,-30.7,7.7,0,8.0,,64476.3,15.51,-0.25,0.55,0.66,-1.1,12.3,2.2,35.69,,,,,,,,,,
15.21.03.562,-40.9,10.2,0,8.0,,58276.0,17.16,-0.27,0.55,0.62,0.7,12.3,5.1,35.69,,,,,,,,,,
15.21.03.574,-59.9,15.0,0,8.0,,63125.8,15.84,-0.26,0.54,0.61,4.4,11.2,5.2,35.69,,,,,,,,,,
15.21.03.582,-88.2,22.0,0,8.0,,61745.6,16.2,-0.26,0.52,0.59,9.7,12.1,5.1,35.69,,,,,,,,,,
15.21.03.595,-64.6,16.2,0,8.0,,66882.3,14.95,-0.28,0.5,0.57,16.0,13.0,8.9,35.69,,,,,,,,,,
15.21.03.607,-34.9,8.7,0,8.0,,67737.6,14.76,-0.27,0.53,0.54,23.8,15.4,14.0,35.69,,,,,,,,,,
15.21.03.615,-69.3,17.3,0,8.0,,69332.8,14.42,-0.28,0.58,0.55,30.0,16.4,19.7,35.69,,,,,,,,,,
15.21.03.627,-126.4,31.6,0,8.0,,63450.5,15.76,-0.27,0.62,0.54,37.8,19.4,20.0,35.69,,,,,,,,,,
15.21.03.640,-68.2,17.0,0,8.0,,63765.5,15.68,-0.25,0.63,0.52,41.2,26.3,17.0,35.69,,,,,,,,,,
15.21.03.648,-125.5,31.4,0,8.0,,60435.6,16.55,-0.26,0.64,0.53,47.4,24.1,11.5,35.69,,,,,,,,,,
15.21.03.660,-68.9,17.2,0,8.0,,70799.6,14.12,-0.27,0.67,0.55,50.2,19.6,19.8,35.69,,,,,,,,,,
15.21.03.668,-121.5,30.4,0,8.0,,68618.8,14.57,-0.29,0.69,0.57,51.9,11.5,21.2,35.69,,,,,,,,,,
15.21.03.681,-106.9,26.7,0,8.0,,61064.1,16.38,-0.29,0.71,0.6,46.7,14.2,20.4,35.69,,,,,,,,,,
15.21.03.689,-155.7,38.9,0,8.0,,66432.5,15.05,-0.28,0.75,0.65,40.2,13.7,16.9,35.69,,,,,,,,,,
15.21.03.701,-83.0,20.8,0,8.0,,70433.7,14.2,-0.28,0.77,0.69,30.7,21.0,8.6,35.69,,,,,,,,,,
15.21.03.709,-172.9,43.2,0,8.0,,60719.0,16.47,-0.29,0.78,0.71,23.9,24.4,0.8,35.69,,,,,,,,,,
15.21.03.722,-205.4,51.4,0,8.0,,61063.2,16.38,-0.31,0.8,0.73,21.7,20.3,-0.1,35.69,,,,,,,,,,
15.21.03.730,-210.9,52.7,0,8.0,,64624.4,15.47,-0.3,0.82,0.74,18.5,28.6,-3.3,35.69,,,,,,,,,,
15.21.03.742,-146.7,36.7,0,8.0,,63932.4,15.64,-0.28,0.79,0.71,13.5,33.3,-10.3,35.69,,,,,,,,,,
15.21.03.754,-218.7,54.7,0,8.0,,64804.1,15.43,-0.28,0.78,0.69,10.9,27.0,-11.6,35.69,,,,,,,,,,
15.21.03.763,-166.5,41.6,0,8.0,,69483.4,14.39,-0.27,0.77,0.7,17.2,18.2,-1.3,35.69,,,,,,,,,,
15.21.03.775,-135.0,33.8,0,8.0,,64651.4,15.47,-0.25,0.79,0.73,24.7,13.8,8.5,35.69,,,,,,,,,,
15.21.03.783,-201.6,50.4,0,8.0,,63117.9,15.84,-0.23,0.83,0.75,27.1,19.5,8.8,35.69,,,,,,,,,,
15.21.03.795,12.3,3.1,1,9.0,95.9,64443.2,15.52,-0.25,0.87,0.76,26.3,29.3,2.6,35.69,,,,,,,,,,
15.21.03.804,193.4,48.4,0,9.0,,64278.3,15.56,-0.29,0.89,0.77,22.0,29.4,-4.8,35.69,,,,,,,,,,
15.21.03.816,177.7,44.4,0,9.0,,64159.7,15.59,-0.29,0.9,0.77,15.5,26.8,-9.0,35.69,,,,,,,,,,
15.21.03.824,239.7,59.9,0,9.0,,62595.9,15.98,-0.28,0.89,0.76,11.5,21.5,-9.5,35.69,,,,,,,,,,
15.21.03.861,371.0,92.8,0,9.0,,62867.2,15.91,-0.3,0.88,0.73,8.3,14.3,-5.1,35.69,,,,,,,,,,
15.21.03.873,448.5,112.1,0,9.0,,62956.1,15.88,-0.31,0.86,0.65,8.3,12.9,1.2,35.69,,,,,,,,,,
15.21.03.881,519.5,129.9,0,9.0,,62880.4,15.9,-0.3,0.82,0.62,11.0,13.2,-0.2,35.69,,,,,,,,,,
15.21.03.894,521.3,130.3,0,9.0,,66432.8,15.05,-0.29,0.79,0.58,16.7,11.3,-1.3,35.69,,,,,,,,,,
15.21.03.902,484.1,121.0,0,9.0,,61821.9,16.18,-0.27,0.79,0.59,21.8,7.0,1.1,35.69,,,,,,,,,,
15.21.03.914,507.8,127.0,0,9.0,,62122.6,16.1,-0.28,0.83,0.62,25.7,4.6,0.9,35.69,,,,,,,,,,
15.21.03.922,475.4,118.8,0,9.0,,66696.2,14.99,-0.47,1.31,-0.12,111.3,-250.1,-115.8,35.69,,,,,,,,,,
15.21.03.935,390.3,97.6,0,9.0,,63674.6,15.7,-0.3,0.69,0.86,25.8,-143.4,8.2,35.69,,,,,,,,,,
15.21.03.947,460.4,115.1,0,9.0,,62091.1,16.11,-0.17,0.93,0.84,41.2,-46.7,2.5,35.69,,,,,,,,,,
15.21.03.955,415.1,103.8,0,9.0,,65952.5,15.16,-0.29,0.82,0.63,25.8,12.8,24.1,35.69,,,,,,,,,,
15.21.03.967,221.5,55.4,0,9.0,,73720.6,13.56,-0.2,0.93,0.69,8.4,56.3,-15.7,35.69,,,,,,,,,,
15.21.03.976,200.8,50.2,0,9.0,,66040.6,15.14,-0.28,0.87,0.58,-6.7,60.0,-23.9,35.69,,,,,,,,,,
15.21.03.988,179.9,45.0,0,9.0,,63481.6,15.75,-0.25,0.9,0.74,-3.5,-25.1,-6.7,35.69,,,,,,,,,,
15.21.03.996,124.4,31.1,0,9.0,,66734.5,14.98,-0.19,0.88,0.84,-3.5,67.0,-11.8,35.69,,,,,,,,,,
15.21.04.008,60.2,15.0,0,9.0,,68874.6,14.52,0.15,-0.72,-1.16,250.1,-27.0,26.8,35.69,,,,,,,,,,
15.21.04.021,73.1,18.3,0,9.0,,60017.2,16.66,0.04,0.74,0.64,-16.0,-109.5,-16.0,35.69,,,,,,,,,,
15.21.04.029,30.1,7.5,0,9.0,,66010.3,15.15,-0.14,0.82,0.86,58.6,-90.2,30.0,35.69,,,,,,,,,,
15.21.04.041,37.2,9.3,0,9.0,,65413.3,15.29,-0.08,1.03,0.38,40.5,-45.1,40.1,35.69,,,,,,,,,,
15.21.04.049,80.3,20.1,0,9.0,,66964.8,14.93,-0.2,0.88,0.59,39.7,-36.9,2.6,35.69,,,,,,,,,,
15.21.04.062,92.5,23.1,0,9.0,,59953.3,16.68,-0.19,0.84,0.6,12.8,12.0,-9.6,35.69,,,,,,,,,,
15.21.04.070,139.1,34.8,0,9.0,,62254.0,16.06,-0.19,0.78,0.55,4.8,19.0,-21.8,35.69,,,,,,,,,,
15.21.04.082,100.7,25.2,0,9.0,,64193.4,15.58,-0.22,0.75,0.53,18.0,25.2,-15.2,35.69,,,,,,,,,,
15.21.04.090,92.7,23.2,0,9.0,,65853.2,15.19,-0.24,0.76,0.47,32.6,7.5,7.3,35.69,,,,,,,,,,
15.21.04.103,50.5,12.6,0,9.0,,61400.9,16.29,-0.14,0.77,0.53,35.1,25.8,-1.9,35.69,,,,,,,,,,
15.21.04.115,-8.1,2.0,0,9.0,,66126.4,15.12,-0.2,0.82,0.48,27.3,21.2,-4.8,35.69,,,,,,,,,,
15.21.04.123,84.5,21.1,0,9.0,,63487.9,15.75,-0.16,0.81,0.5,21.5,26.5,-7.6,35.69,,,,,,,,,,
15.21.04.135,53.8,13.4,0,9.0,,61118.9,16.36,-0.16,0.8,0.49,24.8,27.5,-6.6,35.69,,,,,,,,,,
15.21.04.144,98.1,24.5,0,9.0,,68935.1,14.51,-0.18,0.8,0.49,25.0,24.2,0.8,35.69,,,,,,,,,,
15.21.04.156,-42.1,10.5,0,9.0,,65017.6,15.38,-0.2,0.81,0.49,22.0,21.8,3.2,35.69,,,,,,,,,,
15.21.04.164,-53.0,13.2,0,9.0,,65978.6,15.16,-0.2,0.81,0.48,14.2,23.8,0.0,35.69,,,,,,,,,,
15.21.04.176,-14.2,3.6,0,9.0,,68204.6,14.66,-0.2,0.77,0.46,10.6,29.8,-3.7,35.69,,,,,,,,,,
15.21.04.185,-71.2,17.8,0,9.0,,64299.4,15.55,-0.19,0.75,0.46,9.6,32.5,-4.4,35.69,,,,,,,,,,
15.21.04.197,-31.2,7.8,0,9.0,,64084.5,15.6,-0.2,0.74,0.45,15.2,31.4,-3.1,35.69,,,,,,,,,,
15.21.04.205,-46.5,11.6,0,9.0,,65966.9,15.16,-0.2,0.75,0.46,21.0,27.5,-0.8,35.69,,,,,,,,,,
15.21.04.217,-97.0,24.2,0,9.0,,64186.0,15.58,-0.2,0.76,0.47,24.5,24.8,-2.1,35.69,,,,,,,,,,
15.21.04.230,-62.8,15.7,0,9.0,,64389.9,15.53,-0.21,0.77,0.49,27.0,22.7,-3.5,35.69,,,,,,,,,,
15.21.04.238,-52.3,13.1,0,9.0,,66660.0,15.0,-0.24,0.8,0.49,29.0,21.0,-3.7,35.69,,,,,,,,,,
15.21.04.250,-81.9,20.5,0,9.0,,64898.9,15.41,-0.25,0.8,0.47,29.9,16.3,-2.3,35.69,,,,,,,,,,
15.21.04.258,-60.3,15.1,0,9.0,,62702.2,15.95,-0.25,0.81,0.47,29.9,10.8,0.1,35.69,,,,,,,,,,
15.21.04.271,-115.0,28.8,0,9.0,,60844.8,16.44,-0.22,0.8,0.46,31.1,8.8,1.4,35.69,,,,,,,,,,
15.21.04.279,-80.6,20.2,0,9.0,,60337.4,16.57,-0.23,0.8,0.47,31.9,7.5,3.4,35.69,,,,,,,,,,
15.21.04.291,-107.8,27.0,0,9.0,,64053.4,15.61,-0.23,0.86,0.47,31.2,7.0,5.1,35.69,,,,,,,,,,
15.21.04.299,-112.2,28.0,0,9.0,,63031.3,15.87,-0.22,0.87,0.47,28.9,7.8,6.1,35.69,,,,,,,,,,
15.21.04.312,-69.8,17.4,0,9.0,,58995.7,16.95,-0.19,0.87,0.48,24.6,9.2,3.8,35.69,,,,,,,,,,
15.21.04.320,-209.2,52.3,0,9.0,,63845.3,15.66,-0.18,0.87,0.49,20.8,13.5,-0.4,35.69,,,,,,,,,,
15.21.04.332,-164.5,41.1,0,9.0,,68154.2,14.67,-0.18,0.86,0.46,19.0,15.1,0.9,35.69,,,,,,,,,,
15.21.04.340,-179.3,44.8,0,9.0,,63073.2,15.85,-0.18,0.84,0.43,19.3,16.4,-1.2,35.69,,,,,,,,,,
15.21.04.353,-106.3,26.6,0,9.0,,63786.8,15.68,-0.2,0.84,0.42,19.5,18.6,-1.7,35.69,,,,,,,,,,
15.21.04.361,-117.2,29.3,0,9.0,,63376.7,15.78,-0.2,0.83,0.39,22.0,18.0,0.2,35.69,,,,,,,,,,
15.21.04.373,-170.3,42.6,0,9.0,,69702.4,14.35,-0.19,0.83,0.39,28.0,16.7,1.9,35.69,,,,,,,,,,
15.21.04.381,-143.5,35.9,0,9.0,,64694.7,15.46,-0.19,0.85,0.4,31.1,15.7,6.1,35.69,,,,,,,,,,
15.21.04.393,-170.5,42.6,0,9.0,,62650.5,15.96,-0.21,0.87,0.43,30.7,14.4,5.1,35.69,,,,,,,,,,
15.21.04.406,-200.4,50.1,0,9.0,,65055.2,15.37,-0.22,0.89,0.44,26.6,14.6,2.8,35.69,,,,,,,,,,
15.21.04.414,-217.4,54.4,0,9.0,,63497.3,15.75,-0.21,0.9,0.44,20.6,15.8,1.3,35.69,,,,,,,,,,
15.21.04.426,61.3,15.3,1,10.0,94.4,57962.9,17.25,-0.22,0.9,0.44,16.6,19.6,2.0,35.69,,,,,,,,,,
15.21.04.434,110.5,27.6,0,10.0,,62832.5,15.92,-0.25,0.88,0.42,12.9,22.9,3.7,35.69,,,,,,,,,,
15.21.04.447,135.0,33.8,0,10.0,,63418.7,15.77,-0.25,0.84,0.41,11.5,23.8,3.4,35.69,,,,,,,,,,
15.21.04.455,201.0,50.2,0,10.0,,60529.2,16.52,-0.26,0.84,0.38,10.7,25.5,3.7,35.69,,,,,,,,,,
15.21.04.467,280.7,70.2,0,10.0,,63227.5,15.82,-0.25,0.84,0.37,10.8,24.4,5.1,35.69,,,,,,,,,,
15.21.04.476,370.2,92.6,0,10.0,,61922.9,16.15,-0.24,0.83,0.37,14.3,15.1,6.8,35.69,,,,,,,,,,
15.21.04.488,414.5,103.6,0,10.0,,61109.4,16.36,-0.23,0.82,0.39,20.0,12.2,7.3,35.69,,,,,,,,,,
15.21.04.496,419.6,104.9,0,10.0,,63541.6,15.74,-0.23,0.82,0.38,25.8,13.8,6.8,35.69,,,,,,,,,,
15.21.04.508,489.9,122.5,0,10.0,,64889.8,15.41,-0.23,0.84,0.39,30.9,13.3,5.1,35.69,,,,,,,,,,
15.21.04.516,515.1,128.8,0,10.0,,67163.1,14.89,-0.24,0.86,0.37,35.3,16.2,4.3,35.69,,,,,,,,,,
15.21.04.529,479.0,119.8,0,10.0,,63128.7,15.84,-0.26,0.87,0.36,36.9,17.4,4.1,35.69,,,,,,,,,,
15.21.04.537,438.6,109.6,0,10.0,,67206.9,14.88,-0.28,0.91,0.35,38.7,13.3,4.7,35.69,,,,,,,,,,
15.21.04.549,421.3,105.3,0,10.0,,62659.9,15.96,-0.26,0.97,0.41,29.8,11.0,7.2,35.69,,,,,,,,,,
15.21.04.557,427.4,106.8,0,10.0,,55267.3,18.09,-0.26,0.97,0.42,21.6,12.6,8.2,35.69,,,,,,,,,,
15.21.04.570,411.8,103.0,0,10.0,,68111.8,14.68,-0.24,0.94,0.42,13.2,6.5,7.0,35.69,,,,,,,,,,
15.21.04.578,395.5,98.9,0,10.0,,67657.7,14.78,-0.23,0.91,0.44,10.5,7.9,8.5,35.69,,,,,,,,,,
15.21.04.590,290.0,72.5,0,10.0,,60250.8,16.6,-0.23,0.91,0.43,11.3,9.9,11.5,35.69,,,,,,,,,,
15.21.04.598,337.9,84.5,0,10.0,,66378.8,15.07,-0.24,0.89,0.39,11.1,6.1,12.5,35.69,,,,,,,,,,
15.21.04.611,179.1,44.8,0,10.0,,65505.8,15.27,-0.23,0.84,0.37,13.4,8.2,11.3,35.69,,,,,,,,,,
15.21.04.619,143.9,36.0,0,10.0,,63164.6,15.83,-0.2,0.82,0.35,19.9,9.0,11.8,35.69,,,,,,,,,,
15.21.04.631,104.6,26.2,0,10.0,,66689.8,14.99,-0.21,0.83,0.36,26.5,6.3,13.7,35.69,,,,,,,,,,
15.21.04.668,12.7,3.2,0,10.0,,63372.2,15.78,-0.21,0.86,0.38,29.6,6.1,14.4,35.69,,,,,,,,,,
15.21.04.676,21.4,5.4,0,10.0,,65679.8,15.23,-0.24,0.91,0.43,8.6,9.4,4.3,35.69,,,,,,,,,,
15.21.04.688,62.0,15.5,0,10.0,,64426.7,15.52,-0.23,0.87,0.42,3.2,10.1,3.9,35.69,,,,,,,,,,
15.21.04.697,61.7,15.4,0,10.0,,66298.6,15.08,-0.22,0.85,0.39,2.5,12.9,5.6,35.69,,,,,,,,,,
15.21.04.709,58.7,14.7,0,10.0,,61740.0,16.2,-0.23,0.84,0.37,3.0,12.6,7.4,35.69,,,,,,,,,,
15.21.04.717,106.1,26.5,0,10.0,,67090.4,14.91,-0.21,0.81,0.35,5.4,11.8,8.4,35.69,,,,,,,,,,
15.21.04.729,10.8,2.7,0,10.0,,65975.7,15.16,-0.19,0.8,0.35,10.8,12.5,7.9,35.69,,,,,,,,,,
15.21.04.738,38.3,9.6,0,10.0,,67797.9,14.75,-0.19,0.81,0.35,16.3,11.4,7.6,35.69,,,,,,,,,,
15.21.04.750,58.5,14.6,0,10.0,,63593.9,15.72,-0.18,0.81,0.35,22.1,7.0,8.9,35.69,,,,,,,,,,
15.21.04.758,55.5,13.9,0,10.0,,67578.3,14.8,-0.18,0.83,0.36,26.2,3.1,9.2,35.69,,,,,,,,,,
15.21.04.770,-46.3,11.6,0,10.0,,63426.2,15.77,-0.2,0.89,0.36,24.3,2.9,7.8,35.69,,,,,,,,,,
15.21.04.779,-66.3,16.6,0,10.0,,62492.3,16.0,-0.21,0.89,0.33,17.1,3.7,4.2,35.69,,,,,,,,,,
15.21.04.791,-22.7,5.7,0,10.0,,61429.2,16.28,-0.19,0.87,0.32,11.2,7.1,0.0,35.69,,,,,,,,,,
15.21.04.799,-49.4,12.4,0,10.0,,65196.4,15.34,-0.2,0.86,0.32,9.0,11.4,-0.4,35.69,,,,,,,,,,
15.21.04.811,-27.3,6.8,0,10.0,,65990.5,15.15,-0.21,0.87,0.31,8.5,10.6,2.9,35.69,,,,,,,,,,
15.21.04.820,-35.8,9.0,0,10.0,,55943.5,17.88,-0.18,0.86,0.31,10.9,10.7,4.6,35.69,,,,,,,,,,
15.21.04.832,-65.4,16.4,0,10.0,,69133.0,14.46,-0.18,0.84,0.28,15.1,16.4,2.2,35.69,,,,,,,,,,
15.21.04.844,-21.5,5.4,0,10.0,,65000.2,15.38,-0.19,0.84,0.26,19.2,18.6,-0.3,35.69,,,,,,,,,,
15.21.04.852,-64.1,16.0,0,10.0,,66145.5,15.12,-0.19,0.83,0.24,25.5,18.1,-1.5,35.69,,,,,,,,,,
15.21.04.865,-124.0,31.0,0,10.0,,61322.4,16.31,-0.18,0.88,0.28,28.3,12.2,-0.7,35.69,,,,,,,,,,
15.21.04.877,-80.1,20.0,0,10.0,,64385.8,15.53,-0.17,0.93,0.3,25.5,5.0,0.6,35.69,,,,,,,,,,
15.21.04.885,-168.6,42.2,0,10.0,,65245.9,15.33,-0.17,0.93,0.34,20.6,5.1,0.5,35.69,,,,,,,,,,
15.21.04.897,-93.1,23.3,0,10.0,,61219.8,16.33,-0.23,1.05,0.42,5.5,-26.1,7.9,35.69,,,,,,,,,,
15.21.04.910,-94.0,23.5,0,10.0,,71073.5,14.07,-0.17,0.94,0.27,6.1,33.9,4.4,35.69,,,,,,,,,,
15.21.04.922,-145.6,36.4,0,10.0,,61800.6,16.18,-0.17,0.99,0.35,-8.2,19.2,-4.4,35.69,,,,,,,,,,
15.21.04.930,-110.9,27.7,0,10.0,,64268.6,15.56,-0.13,0.97,0.39,-16.4,12.1,1.0,35.69,,,,,,,,,,
15.21.04.942,-176.9,44.2,0,10.0,,66556.3,15.02,-0.17,0.92,0.25,-7.0,22.7,0.7,35.69,,,,,,,,,,
15.21.04.955,-160.8,40.2,0,10.0,,63437.5,15.76,-0.15,0.88,0.27,-10.5,8.4,-0.2,35.69,,,,,,,,,,
15.21.04.967,-178.3,44.6,0,10.0,,61191.3,16.34,-0.16,0.86,0.27,-1.0,15.0,-2.8,35.69,,,,,,,,,,
15.21.04.975,-136.6,34.2,0,10.0,,62881.3,15.9,-0.17,0.83,0.22,7.6,10.0,-0.8,35.69,,,,,,,,,,
15.21.04.987,-137.5,34.4,0,10.0,,62404.6,16.02,-0.19,0.9,0.23,14.5,4.9,2.5,35.69,,,,,,,,,,
15.21.05.000,-180.2,45.0,0,10.0,,62438.1,16.02,-0.2,0.95,0.25,18.4,5.3,7.3,35.69,,,,,,,,,,
15.21.05.008,-197.7,49.4,0,10.0,,64209.9,15.57,-0.2,0.97,0.3,14.2,4.8,6.1,35.69,,,,,,,,,,
15.21.05.020,-106.4,26.6,0,10.0,,65824.1,15.19,-0.19,1.0,0.37,8.0,9.6,2.7,35.69,,,,,,,,,,
15.21.05.032,-213.1,53.3,0,10.0,,65348.3,15.3,-0.19,0.99,0.39,2.0,13.2,2.8,35.69,,,,,,,,,,
15.21.05.041,-201.1,50.3,0,10.0,,61750.8,16.19,-0.21,0.97,0.37,-5.8,10.9,6.1,35.69,,,,,,,,,,
15.21.05.053,32.0,8.0,1,11.0,98.1,64998.3,15.39,-0.19,0.97,0.35,-12.2,9.0,10.0,35.69,,,,,,,,,,
15.21.05.065,101.5,25.4,0,11.0,,61732.1,16.2,-0.2,0.94,0.32,-17.6,9.0,10.6,35.69,,,,,,,,,,
15.21.05.078,109.4,27.4,0,11.0,,67594.4,14.79,-0.18,0.93,0.31,-20.4,10.5,8.9,35.69,,,,,,,,,,
15.21.05.086,198.4,49.6,0,11.0,,65910.5,15.17,-0.17,0.9,0.31,-19.4,11.6,8.0,35.69,,,,,,,,,,
15.21.05.098,279.3,69.8,0,11.0,,65680.7,15.23,-0.16,0.91,0.33,-15.6,10.8,8.2,35.69,,,,,,,,,,
15.21.05.110,282.7,70.7,0,11.0,,61235.3,16.33,-0.18,0.91,0.35,-11.3,12.2,8.4,35.69,,,,,,,,,,
15.21.05.123,416.3,104.1,0,11.0,,66782.5,14.97,-0.21,0.92,0.37,-10.4,13.6,6.9,35.69,,,,,,,,,,
15.21.05.131,424.5,106.1,0,11.0,,67056.7,14.91,-0.23,0.93,0.38,-12.5,14.5,3.9,35.69,,,,,,,,,,
15.21.05.143,516.3,129.1,0,11.0,,62513.6,16.0,-0.23,0.92,0.38,-14.7,15.5,0.5,35.69,,,,,,,,,,
15.21.05.155,441.9,110.5,0,11.0,,62023.0,16.12,-0.25,0.94,0.39,-17.0,14.4,-1.4,35.69,,,,,,,,,,
15.21.05.168,466.7,116.7,0,11.0,,64343.8,15.54,-0.26,0.92,0.37,-19.7,13.6,-2.5,35.69,,,,,,,,,,
15.21.05.176,454.6,113.6,0,11.0,,62804.5,15.92,-0.25,0.91,0.36,-20.6,12.1,-2.4,35.69,,,,,,,,,,
15.21.05.188,415.2,103.8,0,11.0,,64664.8,15.46,-0.25,0.88,0.35,-18.3,9.3,-0.7,35.69,,,,,,,,,,
15.21.05.200,363.7,90.9,0,11.0,,62835.1,15.91,-0.24,0.89,0.36,-14.7,6.2,2.4,35.69,,,,,,,,,,
15.21.05.213,284.0,71.0,0,11.0,,64209.7,15.57,-0.22,0.89,0.35,-11.0,4.9,3.4,35.69,,,,,,,,,,
15.21.05.221,303.8,76.0,0,11.0,,60077.6,16.65,-0.22,0.9,0.37,-8.0,7.1,3.6,35.69,,,,,,,,,,
15.21.05.233,277.2,69.3,0,11.0,,63642.5,15.71,-0.22,0.92,0.38,-8.1,6.5,2.5,35.69,,,,,,,,,,
15.21.05.245,155.5,38.9,0,11.0,,62527.7,15.99,-0.24,0.93,0.37,-11.0,5.7,0.5,35.69,,,,,,,,,,
15.21.05.254,69.6,17.4,0,11.0,,63244.9,15.81,-0.23,0.92,0.36,-15.2,4.7,-2.7,35.69,,,,,,,,,,
15.21.05.266,81.2,20.3,0,11.0,,65426.6,15.28,-0.23,0.9,0.35,-18.2,5.7,-6.3,35.69,,,,,,,,,,
15.21.05.278,26.5,6.6,0,11.0,,62035.5,16.12,-0.23,0.88,0.35,-17.1,7.2,-6.4,35.69,,,,,,,,,,
15.21.05.291,58.4,14.6,0,11.0,,70851.4,14.11,-0.23,0.89,0.34,-14.1,6.0,-4.7,35.69,,,,,,,,,,
15.21.05.299,78.5,19.6,0,11.0,,69231.5,14.44,-0.22,0.88,0.36,-11.3,4.7,-4.2,35.69,,,,,,,,,,
15.21.05.311,118.8,29.7,0,11.0,,68850.5,14.52,-0.22,0.91,0.37,-10.5,5.5,-5.8,35.69,,,,,,,,,,
15.21.05.324,107.3,26.8,0,11.0,,59792.6,16.72,-0.21,0.91,0.39,-12.4,5.3,-8.4,35.69,,,,,,,,,,
15.21.05.332,106.7,26.7,0,11.0,,64882.6,15.41,-0.21,0.91,0.39,-15.4,5.5,-11.0,35.69,,,,,,,,,,
15.21.05.344,65.7,16.4,0,11.0,,59010.9,16.95,-0.21,0.92,0.41,-18.1,6.0,-11.8,35.69,,,,,,,,,,
15.21.05.356,48.3,12.1,0,11.0,,59957.6,16.68,-0.23,0.92,0.41,-21.8,6.1,-12.3,35.69,,,,,,,,,,
15.21.05.368,123.7,30.9,0,11.0,,59631.9,16.77,-0.22,0.9,0.4,-24.0,6.0,-12.7,35.69,,,,,,,,,,
15.21.05.377,48.6,12.2,0,11.0,,65941.2,15.17,-0.22,0.88,0.38,-25.5,6.9,-14.1,35.69,,,,,,,,,,
15.21.05.389,-28.2,7.0,0,11.0,,61482.3,16.26,-0.23,0.86,0.37,-25.1,6.5,-15.5,35.69,,,,,,,,,,
15.21.05.401,-17.7,4.4,0,11.0,,60595.2,16.5,-0.23,0.85,0.37,-22.3,4.8,-15.2,35.69,,,,,,,,,,
15.21.05.409,-18.9,4.7,0,11.0,,62155.8,16.09,-0.23,0.86,0.36,-17.4,2.1,-13.7,35.69,,,,,,,,,,
15.21.05.422,-43.2,10.8,0,11.0,,65554.7,15.25,-0.21,0.85,0.37,-14.7,-0.7,-11.8,35.69,,,,,,,,,,
15.21.05.430,8.3,2.1,0,11.0,,63160.0,15.83,-0.2,0.86,0.39,-13.9,-2.3,-9.8,35.69,,,,,,,,,,
15.21.05.467,-0.0,0.0,0,11.0,,67692.6,14.77,-0.19,0.85,0.4,-13.4,-2.2,-8.5,35.69,,,,,,,,,,
15.21.05.479,-13.6,3.4,0,11.0,,66176.6,15.11,-0.22,0.87,0.4,-19.6,6.3,-7.9,35.69,,,,,,,,,,
15.21.05.487,-98.1,24.5,0,11.0,,65436.5,15.28,-0.22,0.86,0.4,-23.5,7.2,-9.6,35.69,,,,,,,,,,
15.21.05.500,-98.9,24.7,0,11.0,,69236.0,14.44,-0.21,0.86,0.39,-25.0,7.3,-10.5,35.69,,,,,,,,,,
15.21.05.512,-108.5,27.1,0,11.0,,66122.1,15.12,-0.22,0.85,0.38,-25.0,6.8,-11.6,35.69,,,,,,,,,,
15.21.05.520,-96.7,24.2,0,11.0,,60643.0,16.49,-0.21,0.86,0.38,-24.4,6.8,-11.4,35.69,,,,,,,,,,
15.21.05.532,-126.1,31.5,0,11.0,,63546.5,15.74,-0.21,0.85,0.36,-22.5,8.8,-12.2,35.69,,,,,,,,,,
15.21.05.541,-86.6,21.6,0,11.0,,67701.7,14.77,-0.21,0.85,0.38,-19.7,12.3,-12.3,35.69,,,,,,,,,,
15.21.05.553,-116.2,29.0,0,11.0,,69108.9,14.47,-0.22,0.85,0.4,-16.4,16.0,-11.2,35.69,,,,,,,,,,
15.21.05.565,-76.3,19.1,0,11.0,,61191.0,16.34,-0.22,0.84,0.42,-14.6,17.5,-10.2,35.69,,,,,,,,,,
15.21.05.573,-122.8,30.7,0,11.0,,64367.0,15.54,-0.22,0.85,0.42,-12.2,17.4,-8.7,35.69,,,,,,,,,,
15.21.05.586,-109.3,27.3,0,11.0,,71345.4,14.02,-0.25,0.86,0.44,-11.3,16.3,-7.7,35.69,,,,,,,,,,
15.21.05.594,-172.8,43.2,0,11.0,,57639.7,17.35,-0.25,0.87,0.42,-10.3,15.1,-5.8,35.69,,,,,,,,,,
15.21.05.606,-138.2,34.6,0,11.0,,60773.7,16.45,-0.24,0.85,0.4,-9.4,15.1,-5.6,35.69,,,,,,,,,,
15.21.05.614,-128.4,32.1,0,11.0,,58213.2,17.18,-0.25,0.85,0.38,-7.9,14.9,-3.0,35.69,,,,,,,,,,
15.21.05.627,-232.1,58.0,0,11.0,,66722.6,14.99,-0.24,0.85,0.37,-5.4,11.7,1.7,35.69,,,,,,,,,,
15.21.05.639,-143.0,35.8,0,11.0,,59998.3,16.67,-0.25,0.86,0.39,-4.0,10.1,5.3,35.69,,,,,,,,,,
15.21.05.647,-151.2,37.8,0,11.0,,63673.8,15.71,-0.25,0.87,0.38,-4.3,12.3,7.0,35.69,,,,,,,,,,
15.21.05.659,-157.3,39.3,0,11.0,,69309.5,14.43,-0.25,0.86,0.39,-7.9,16.3,5.8,35.69,,,,,,,,,,
15.21.05.668,-237.3,59.3,0,11.0,,63058.0,15.86,-0.25,0.85,0.4,-11.9,19.5,4.0,35.69,,,,,,,,,,
15.21.05.680,-183.2,45.8,0,11.0,,62240.8,16.07,-0.24,0.81,0.42,-15.1,19.5,2.7,35.69,,,,,,,,,,
15.21.05.688,19.0,4.8,1,12.0,95.5,65852.4,15.19,-0.23,0.8,0.43,-15.3,18.8,4.0,35.69,,,,,,,,,,
15.21.05.700,143.3,35.8,0,12.0,,64359.7,15.54,-0.23,0.81,0.45,-14.4,19.2,4.6,35.69,,,,,,,,,,
15.21.05.713,229.2,57.3,0,12.0,,67228.8,14.87,-0.22,0.82,0.48,-14.3,20.6,4.4,35.69,,,,,,,,,,
15.21.05.721,187.9,47.0,0,12.0,,71624.8,13.96,-0.24,0.84,0.49,-15.1,24.2,2.6,35.69,,,,,,,,,,
15.21.05.733,253.4,63.4,0,12.0,,63706.5,15.7,-0.25,0.83,0.5,-17.8,24.0,-0.3,35.69,,,,,,,,,,
15.21.05.741,383.5,95.9,0,12.0,,61965.6,16.14,-0.25,0.81,0.49,-18.8,22.9,-2.8,35.69,,,,,,,,,,
15.21.05.754,419.7,104.9,0,12.0,,72429.3,13.81,-0.26,0.8,0.5,-16.6,20.7,-2.6,35.69,,,,,,,,,,
15.21.05.762,456.2,114.0,0,12.0,,67689.8,14.77,-0.26,0.79,0.48,-12.2,16.6,-0.6,35.69,,,,,,,,,,
15.21.05.774,444.9,111.2,0,12.0,,69155.0,14.46,-0.25,0.79,0.48,-6.3,13.7,1.7,35.69,,,,,,,,,,
15.21.05.786,450.4,112.6,0,12.0,,65373.3,15.3,-0.24,0.8,0.49,-1.3,11.9,2.9,35.69,,,,,,,,,,
15.21.05.795,517.9,129.5,0,12.0,,58840.7,17.0,-0.24,0.8,0.51,2.7,9.8,3.6,35.69,,,,,,,,,,
15.21.05.807,461.3,115.3,0,12.0,,62207.7,16.08,-0.24,0.83,0.52,5.5,6.7,5.0,35.69,,,,,,,,,,
15.21.05.815,479.0,119.8,0,12.0,,62616.0,15.97,-0.25,0.86,0.53,5.6,2.9,5.4,35.69,,,,,,,,,,
15.21.05.827,414.7,103.7,0,12.0,,68839.6,14.53,-0.25,0.88,0.54,3.2,1.0,4.0,35.69,,,,,,,,,,
15.21.05.836,444.7,111.2,0,12.0,,63601.0,15.72,-0.24,0.88,0.52,-3.1,1.0,-0.2,35.69,,,,,,,,,,
15.21.05.848,425.3,106.3,0,12.0,,64836.8,15.42,-0.24,0.86,0.53,-8.5,0.1,-3.8,35.69,,,,,,,,,,
15.21.05.856,289.2,72.3,0,12.0,,60898.6,16.42,-0.24,0.86,0.53,-11.0,-3.0,-3.9,35.69,,,,,,,,,,
15.21.05.868,251.1,62.8,0,12.0,,67138.7,14.89,-0.23,0.86,0.52,-9.4,-5.8,-1.4,35.69,,,,,,,,,,
15.21.05.876,215.5,53.9,0,12.0,,68113.7,14.68,-0.22,0.85,0.52,-6.4,-6.5,0.8,35.69,,,,,,,,,,
15.21.05.889,82.0,20.5,0,12.0,,64413.0,15.52,-0.21,0.87,0.51,-4.0,-5.2,2.3,35.69,,,,,,,,,,
15.21.05.901,48.8,12.2,0,12.0,,64377.3,15.53,-0.23,0.9,0.53,-4.4,-4.5,1.9,35.69,,,,,,,,,,
15.21.05.909,8.7,2.2,0,12.0,,65492.7,15.27,-0.23,0.92,0.54,-8.8,-6.7,0.8,35.69,,,,,,,,,,
15.21.05.922,30.9,7.7,0,12.0,,64474.7,15.51,-0.22,0.93,0.56,-16.4,-8.6,-3.8,35.69,,,,,,,,,,
15.21.05.934,39.3,9.8,0,12.0,,66898.2,14.95,-0.2,0.92,0.56,-20.8,-10.2,-7.2,35.69,,,,,,,,,,
15.21.05.942,62.2,15.6,0,12.0,,65321.5,15.31,-0.2,0.9,0.56,-22.5,-12.2,-8.9,35.69,,,,,,,,,,
15.21.05.954,71.6,17.9,0,12.0,,64951.3,15.4,-0.2,0.88,0.55,-21.8,-14.4,-8.6,35.69,,,,,,,,,,
15.21.05.967,89.2,22.3,0,12.0,,63660.4,15.71,-0.19,0.87,0.55,-19.6,-14.7,-7.7,35.69,,,,,,,,,,
15.21.05.975,70.4,17.6,0,12.0,,64845.8,15.42,-0.18,0.87,0.55,-17.6,-15.5,-6.0,35.69,,,,,,,,,,
15.21.05.987,71.2,17.8,0,12.0,,63418.4,15.77,-0.2,0.86,0.55,-16.6,-15.6,-3.3,35.69,,,,,,,,,,
15.21.05.995,87.8,22.0,0,12.0,,65155.7,15.35,-0.2,0.86,0.55,-15.6,-17.6,0.8,35.69,,,,,,,,,,
15.21.06.008,55.5,13.9,0,12.0,,62820.5,15.92,-0.22,0.88,0.54,-16.6,-20.0,4.6,35.69,,,,,,,,,,
15.21.06.020,45.0,11.2,0,12.0,,62807.8,15.92,-0.22,0.89,0.54,-20.2,-24.0,4.9,35.69,,,,,,,,,,
15.21.06.028,-92.6,23.2,0,12.0,,65080.1,15.37,-0.2,0.86,0.56,-23.5,-23.9,3.1,35.69,,,,,,,,,,
15.21.06.040,-18.7,4.7,0,12.0,,66513.4,15.03,-0.19,0.83,0.55,-26.7,-24.1,-0.4,35.69,,,,,,,,,,
15.21.06.049,15.4,3.8,0,12.0,,57169.4,17.49,-0.19,0.82,0.56,-26.8,-23.5,-2.1,35.69,,,,,,,,,,
15.21.06.061,-4.3,1.1,0,12.0,,62900.0,15.9,-0.2,0.82,0.57,-25.0,-23.4,-2.4,35.69,,,,,,,,,,
15.21.06.069,-31.3,7.8,0,12.0,,62908.9,15.9,-0.21,0.83,0.58,-25.2,-23.4,-3.5,35.69,,,,,,,,,,
15.21.06.081,-83.1,20.8,0,12.0,,65066.0,15.37,-0.21,0.82,0.56,-27.6,-23.3,-6.1,35.69,,,,,,,,,,
15.21.06.094,-19.2,4.8,0,12.0,,65600.5,15.24,-0.22,0.81,0.57,-29.6,-22.0,-7.2,35.69,,,,,,,,,,
15.21.06.102,-80.9,20.2,0,12.0,,70109.0,14.26,-0.22,0.8,0.57,-30.5,-23.1,-5.0,35.69,,,,,,,,,,
15.21.06.114,17.2,4.3,0,12.0,,62082.0,16.11,-0.23,0.78,0.58,-30.1,-27.8,-1.1,35.69,,,,,,,,,,
15.21.06.122,-14.7,3.7,0,12.0,,69484.7,14.39,-0.21,0.75,0.59,-28.1,-32.3,3.5,35.69,,,,,,,,,,
15.21.06.135,-68.8,17.2,0,12.0,,57924.4,17.26,-0.21,0.75,0.6,-25.1,-34.8,5.8,35.69,,,,,,,,,,
15.21.06.147,-41.6,10.4,0,12.0,,59372.3,16.84,-0.21,0.75,0.61,-24.5,-35.9,4.5,35.69,,,,,,,,,,
15.21.06.155,-98.1,24.5,0,12.0,,60369.3,16.56,-0.2,0.74,0.6,-24.2,-35.0,0.1,35.69,,,,,,,,,,
15.21.06.167,-104.7,26.2,0,12.0,,68112.3,14.68,-0.21,0.73,0.6,-23.3,-32.3,-6.0,35.69,,,,,,,,,,
15.21.06.176,-90.7,22.7,0,12.0,,65437.1,15.28,-0.21,0.71,0.59,-22.0,-32.4,-11.1,35.69,,,,,,,,,,
15.21.06.188,-118.4,29.6,0,12.0,,67911.8,14.72,-0.23,0.71,0.6,-18.7,-33.3,-13.0,35.69,,,,,,,,,,
15.21.06.200,-10.4,2.6,0,12.0,,69086.7,14.47,-0.23,0.72,0.6,-13.0,-35.0,-12.1,35.69,,,,,,,,,,
15.21.06.208,-161.9,40.5,0,12.0,,63785.1,15.68,-0.24,0.71,0.59,-8.8,-38.6,-12.1,35.69,,,,,,,,,,
15.21.06.221,-96.3,24.1,0,12.0,,64411.4,15.53,-0.23,0.72,0.6,-4.4,-41.8,-14.1,35.69,,,,,,,,,,
15.21.06.229,-128.6,32.2,0,12.0,,64103.1,15.6,-0.22,0.72,0.61,-1.8,-43.1,-17.4,35.69,,,,,,,,,,
15.21.06.270,-239.1,59.8,0,12.0,,65271.2,15.32,-0.2,0.73,0.6,0.7,-46.4,-19.6,35.69,,,,,,,,,,
15.21.06.278,-191.6,47.9,0,12.0,,67436.7,14.83,-0.18,0.75,0.61,-2.1,-49.9,-30.0,35.69,,,,,,,,,,
15.21.06.290,-200.9,50.2,0,12.0,,63765.3,15.68,-0.18,0.75,0.6,-1.0,-47.0,-30.3,35.69,,,,,,,,,,
15.21.06.298,-213.5,53.4,0,12.0,,66827.3,14.96,-0.2,0.75,0.58,1.7,-46.9,-28.9,35.69,,,,,,,,,,
15.21.06.311,-237.0,59.2,0,12.0,,65198.2,15.34,-0.21,0.75,0.57,4.5,-47.2,-26.6,35.69,,,,,,,,,,
15.21.06.323,81.7,20.4,1,13.0,94.3,68588.0,14.58,-0.21,0.75,0.55,5.9,-47.8,-27.5,35.69,,,,,,,,,,
15.21.06.331,116.0,29.0,0,13.0,,60993.3,16.4,-0.19,0.75,0.54,6.7,-47.6,-30.1,35.69,,,,,,,,,,
15.21.06.343,215.0,53.8,0,13.0,,66046.7,15.14,-0.19,0.75,0.54,8.2,-44.8,-34.7,35.69,,,,,,,,,,
15.21.06.352,278.9,69.7,0,13.0,,58398.5,17.12,-0.17,0.74,0.54,11.3,-43.7,-37.8,35.69,,,,,,,,,,
15.21.06.364,288.3,72.1,0,13.0,,61502.9,16.26,-0.18,0.73,0.55,15.7,-44.1,-39.5,35.69,,,,,,,,,,
15.21.06.372,375.2,93.8,0,13.0,,62297.5,16.05,-0.18,0.77,0.55,19.9,-46.1,-38.4,35.69,,,,,,,,,,
15.21.06.384,453.6,113.4,0,13.0,,64007.4,15.62,-0.18,0.79,0.55,21.8,-48.5,-36.8,35.69,,,,,,,,,,
15.21.06.397,427.8,107.0,0,13.0,,68319.8,14.64,-0.17,0.81,0.57,20.2,-48.5,-35.0,35.69,,,,,,,,,,
15.21.06.405,496.8,124.2,0,13.0,,63446.5,15.76,-0.17,0.82,0.57,16.5,-46.4,-32.8,35.69,,,,,,,,,,
15.21.06.417,531.8,133.0,0,13.0,,60439.1,16.55,-0.15,0.83,0.58,12.2,-47.6,-29.4,35.69,,,,,,,,,,
15.21.06.425,442.0,110.5,0,13.0,,68597.4,14.58,-0.14,0.84,0.58,8.1,-48.0,-26.0,35.69,,,,,,,,,,
15.21.06.438,534.3,133.6,0,13.0,,60731.8,16.47,-0.12,0.82,0.58,4.5,-47.2,-23.1,35.69,,,,,,,,,,
15.21.06.450,487.8,122.0,0,13.0,,67097.7,14.9,-0.12,0.81,0.57,1.9,-44.7,-21.6,35.69,,,,,,,,,,
15.21.06.458,446.9,111.7,0,13.0,,58702.7,17.03,-0.11,0.8,0.57,0.7,-43.0,-20.6,35.69,,,,,,,,,,
15.21.06.471,410.5,102.6,0,13.0,,61722.2,16.2,-0.1,0.78,0.57,-0.9,-40.4,-22.1,35.69,,,,,,,,,,
15.21.06.483,357.1,89.3,0,13.0,,62887.0,15.9,-0.09,0.77,0.58,-0.3,-36.4,-24.7,35.69,,,,,,,,,,
15.21.06.491,257.9,64.5,0,13.0,,61606.8,16.23,-0.1,0.76,0.56,2.2,-31.4,-26.4,35.69,,,,,,,,,,
15.21.06.503,172.3,43.1,0,13.0,,66708.6,14.99,-0.1,0.77,0.55,4.1,-30.9,-25.4,35.69,,,,,,,,,,
15.21.06.516,119.0,29.8,0,13.0,,58642.4,17.05,-0.11,0.77,0.56,4.5,-32.0,-23.6,35.69,,,,,,,,,,
15.21.06.524,51.0,12.8,0,13.0,,64111.3,15.6,-0.1,0.78,0.59,4.6,-33.3,-20.0,35.69,,,,,,,,,,
15.21.06.536,24.3,6.1,0,13.0,,63349.1,15.79,-0.1,0.79,0.6,3.3,-33.5,-17.4,35.69,,,,,,,,,,
15.21.06.544,-14.3,3.6,0,13.0,,64468.6,15.51,-0.11,0.78,0.61,1.4,-31.6,-15.6,35.69,,,,,,,,,,
15.21.06.557,135.3,33.8,0,13.0,,63279.5,15.8,-0.11,0.79,0.63,-1.7,-29.1,-15.7,35.69,,,,,,,,,,
15.21.06.565,128.7,32.2,0,13.0,,64371.9,15.53,-0.11,0.76,0.61,-4.3,-27.6,-17.0,35.69,,,,,,,,,,
15.21.06.577,83.4,20.8,0,13.0,,61447.6,16.27,-0.1,0.74,0.59,-4.9,-25.5,-19.4,35.69,,,,,,,,,,
15.21.06.589,65.6,16.4,0,13.0,,63348.5,15.79,-0.1,0.71,0.57,-3.6,-24.9,-20.5,35.69,,,,,,,,,,
15.21.06.597,111.8,28.0,0,13.0,,64352.0,15.54,-0.09,0.7,0.56,1.7,-24.6,-22.0,35.69,,,,,,,,,,
15.21.06.610,65.9,16.5,0,13.0,,65560.4,15.25,-0.08,0.67,0.55,8.1,-24.9,-23.6,35.69,,,,,,,,,,
15.21.06.618,52.8,13.2,0,13.0,,69779.8,14.33,-0.06,0.67,0.56,14.4,-26.5,-25.3,35.69,,,,,,,,,,
15.21.06.630,39.0,9.8,0,13.0,,64824.1,15.43,-0.08,0.7,0.58,19.8,-28.0,-24.8,35.69,,,,,,,,,,
15.21.06.643,5.4,1.4,0,13.0,,69473.5,14.39,-0.09,0.71,0.61,22.3,-29.1,-23.6,35.69,,,,,,,,,,
15.21.06.651,31.8,8.0,0,13.0,,63106.8,15.85,-0.1,0.74,0.62,21.6,-29.4,-22.2,35.69,,,,,,,,,,
15.21.06.663,-26.3,6.6,0,13.0,,62394.2,16.03,-0.11,0.77,0.62,19.7,-29.3,-20.9,35.69,,,,,,,,,,
15.21.06.671,-16.1,4.0,0,13.0,,61497.1,16.26,-0.11,0.78,0.62,17.2,-30.6,-19.4,35.69,,,,,,,,,,
15.21.06.684,-56.5,14.1,0,13.0,,62307.2,16.05,-0.1,0.78,0.62,16.0,-31.5,-18.3,35.69,,,,,,,,,,
15.21.06.696,-35.1,8.8,0,13.0,,60613.5,16.5,-0.09,0.76,0.6,15.8,-32.6,-18.3,35.69,,,,,,,,,,
15.21.06.704,-39.6,9.9,0,13.0,,56405.3,17.73,-0.07,0.72,0.59,19.2,-30.8,-19.3,35.69,,,,,,,,,,
15.21.06.716,-54.5,13.6,0,13.0,,62876.0,15.9,-0.07,0.71,0.58,24.1,-29.4,-20.0,35.69,,,,,,,,,,
15.21.06.724,-52.8,13.2,0,13.0,,67245.8,14.87,-0.06,0.71,0.57,30.5,-31.3,-20.5,35.69,,,,,,,,,,
15.21.06.737,-81.6,20.4,0,13.0,,68800.3,14.53,-0.07,0.72,0.58,37.4,-33.8,-20.4,35.69,,,,,,,,,,
15.21.06.749,-78.9,19.7,0,13.0,,65739.7,15.21,-0.08,0.73,0.58,42.8,-35.6,-19.7,35.69,,,,,,,,,,
15.21.06.757,-81.7,20.4,0,13.0,,60747.7,16.46,-0.05,0.73,0.56,45.9,-38.3,-20.2,35.69,,,,,,,,,,
15.21.06.770,-157.0,39.2,0,13.0,,60979.6,16.4,-0.03,0.73,0.55,48.7,-40.6,-20.7,35.69,,,,,,,,,,
15.21.06.782,-94.0,23.5,0,13.0,,63831.1,15.67,-0.01,0.72,0.54,52.1,-42.1,-21.1,35.69,,,,,,,,,,
15.21.06.790,-43.1,10.8,0,13.0,,64360.7,15.54,0.0,0.73,0.54,55.2,-42.9,-21.0,35.69,,,,,,,,,,
15.21.06.802,-55.2,13.8,0,13.0,,65324.6,15.31,0.01,0.74,0.53,57.1,-43.0,-20.3,35.69,,,,,,,,,,
15.21.06.810,-107.5,26.9,0,13.0,,60174.2,16.62,0.01,0.77,0.54,57.3,-43.0,-20.3,35.69,,,,,,,,,,
15.21.06.823,-108.9,27.2,0,13.0,,62485.1,16.0,0.0,0.8,0.54,54.9,-41.9,-21.1,35.69,,,,,,,,,,
15.21.06.831,-118.8,29.7,0,13.0,,62845.4,15.91,-0.02,0.8,0.53,50.9,-37.3,-20.9,35.69,,,,,,,,,,
15.21.06.843,-168.9,42.2,0,13.0,,64836.0,15.42,-0.02,0.82,0.51,48.3,-32.6,-19.6,35.69,,,,,,,,,,
15.21.06.856,-163.9,41.0,0,13.0,,65755.4,15.21,0.0,0.83,0.49,47.7,-30.5,-16.8,35.69,,,,,,,,,,
15.21.06.864,-145.8,36.4,0,13.0,,66512.0,15.03,0.01,0.84,0.48,48.4,-28.7,-14.3,35.69,,,,,,,,,,
15.21.06.876,-152.3,38.1,0,13.0,,66805.6,14.97,0.04,0.84,0.48,49.0,-26.7,-13.6,35.69,,,,,,,,,,
15.21.06.884,-174.2,43.6,0,13.0,,63966.3,15.63,0.04,0.84,0.47,49.4,-24.2,-13.1,35.69,,,,,,,,,,
15.21.06.897,-156.0,39.0,0,13.0,,62523.8,15.99,0.05,0.86,0.45,49.5,-20.2,-11.6,35.69,,,,,,,,,,
15.21.06.909,-215.6,53.9,0,13.0,,67128.3,14.9,0.02,0.88,0.45,48.7,-16.5,-11.8,35.69,,,,,,,,,,
15.21.06.917,-133.7,33.4,0,13.0,,64664.2,15.46,0.02,0.89,0.43,47.1,-12.4,-13.0,35.69,,,,,,,,,,
15.21.06.929,-200.9,50.2,0,13.0,,61852.1,16.17,0.02,0.88,0.42,46.0,-5.2,-15.8,35.69,,,,,,,,,,
15.21.06.938,-199.4,49.8,0,13.0,,69078.9,14.48,0.02,0.9,0.42,44.5,1.3,-18.0,35.69,,,,,,,,,,
15.21.06.950,34.6,8.6,1,14.0,90.1,65536.0,15.26,0.01,0.92,0.41,40.9,3.6,-19.3,35.69,,,,,,,,,,
15.21.06.958,85.2,21.3,0,14.0,,60925.7,16.41,-0.01,0.94,0.44,35.7,3.1,-18.8,35.69,,,,,,,,,,
15.21.06.970,121.1,30.3,0,14.0,,67390.6,14.84,-0.02,0.94,0.43,31.7,4.4,-19.2,35.69,,,,,,,,,,
15.21.06.978,208.7,52.2,0,14.0,,63424.6,15.77,-0.02,0.94,0.42,28.8,6.2,-17.5,35.69,,,,,,,,,,
15.21.06.991,287.0,71.8,0,14.0,,64031.9,15.62,-0.05,0.95,0.41,26.1,6.8,-13.6,35.69,,,,,,,,,,
15.21.07.003,262.0,65.5,0,14.0,,62164.4,16.09,-0.07,0.97,0.4,20.7,2.0,-7.3,35.69,,,,,,,,,,
15.21.07.015,436.9,109.2,0,14.0,,67917.1,14.72,-0.06,0.96,0.39,17.1,1.6,-5.1,35.69,,,,,,,,,,
15.21.07.024,484.5,121.1,0,14.0,,63638.5,15.71,-0.03,0.97,0.39,15.5,4.5,-4.1,35.69,,,,,,,,,,
15.21.07.036,417.6,104.4,0,14.0,,64453.6,15.52,-0.01,0.96,0.38,14.7,7.9,-3.1,35.69,,,,,,,,,,
15.21.07.073,453.4,113.4,0,14.0,,66263.4,15.09,0.01,0.95,0.36,13.3,8.5,-1.0,35.69,,,,,,,,,,
15.21.07.081,532.6,133.2,0,14.0,,61548.1,16.25,0.0,1.01,0.37,-1.6,23.9,2.7,35.69,,,,,,,,,,
15.21.07.093,378.3,94.6,0,14.0,,62480.4,16.01,-0.02,1.05,0.37,-11.4,29.1,4.3,35.69,,,,,,,,,,
15.21.07.101,344.3,86.1,0,14.0,,63649.0,15.71,-0.03,1.08,0.39,-22.8,32.8,8.7,35.69,,,,,,,,,,
15.21.07.114,307.6,76.9,0,14.0,,58637.2,17.05,-0.02,1.08,0.41,-35.2,36.5,11.6,35.69,,,,,,,,,,
15.21.07.122,350.2,87.6,0,14.0,,71834.8,13.92,-0.02,1.04,0.43,-48.0,39.2,14.3,35.69,,,,,,,,,,
15.21.07.134,258.5,64.6,0,14.0,,62675.3,15.96,0.02,1.01,0.42,-59.1,44.5,17.7,35.69,,,,,,,,,,
15.21.07.143,168.2,42.0,0,14.0,,62183.4,16.08,0.04,1.0,0.41,-61.0,47.2,19.8,35.69,,,,,,,,,,
15.21.07.155,135.8,34.0,0,14.0,,64471.7,15.51,0.06,0.96,0.39,-60.9,48.8,24.1,35.69,,,,,,,,,,
15.21.07.167,20.2,5.0,0,14.0,,65778.6,15.2,0.08,0.95,0.4,-59.0,51.4,28.9,35.69,,,,,,,,,,
15.21.07.175,-39.5,9.9,0,14.0,,63539.9,15.74,0.09,0.93,0.39,-55.6,54.3,31.9,35.69,,,,,,,,,,
15.21.07.187,-55.6,13.9,0,14.0,,64657.1,15.47,0.08,0.93,0.43,-55.5,54.1,35.9,35.69,,,,,,,,,,
15.21.07.196,3.2,0.8,0,14.0,,64424.3,15.52,0.05,0.98,0.47,-56.8,52.3,39.5,35.69,,,,,,,,,,
15.21.07.208,74.6,18.6,0,14.0,,64639.1,15.47,0.04,0.96,0.5,-60.9,49.6,40.9,35.69,,,,,,,,,,
15.21.07.216,56.9,14.2,0,14.0,,65582.3,15.25,0.05,0.95,0.5,-65.0,48.5,41.8,35.69,,,,,,,,,,
15.21.07.228,82.2,20.6,0,14.0,,71713.5,13.94,0.03,0.92,0.51,-68.4,46.3,42.9,35.69,,,,,,,,,,
15.21.07.241,96.8,24.2,0,14.0,,69408.7,14.41,0.03,0.9,0.5,-70.0,41.3,46.3,35.69,,,,,,,,,,
15.21.07.249,104.7,26.2,0,14.0,,65922.0,15.17,0.05,0.89,0.51,-67.9,37.8,49.8,35.69,,,,,,,,,,
15.21.07.261,77.3,19.3,0,14.0,,65333.3,15.31,0.06,0.87,0.51,-64.8,37.9,53.2,35.69,,,,,,,,,,
15.21.07.269,48.6,12.2,0,14.0,,61930.9,16.15,0.06,0.84,0.49,-61.6,36.5,55.0,35.69,,,,,,,,,,
15.21.07.282,-20.8,5.2,0,14.0,,59132.8,16.91,0.09,0.84,0.51,-55.2,35.5,58.1,35.69,,,,,,,,,,
15.21.07.290,-60.3,15.1,0,14.0,,65894.6,15.18,0.1,0.83,0.5,-49.5,34.3,60.6,35.69,,,,,,,,,,
15.21.07.302,-12.1,3.0,0,14.0,,66317.6,15.08,0.08,0.83,0.52,-44.0,31.5,62.4,35.69,,,,,,,,,,
15.21.07.314,-59.9,15.0,0,14.0,,64503.2,15.5,0.08,0.85,0.55,-41.2,30.3,62.4,35.69,,,,,,,,,,
15.21.07.323,-29.5,7.4,0,14.0,,55792.3,17.92,0.08,0.83,0.55,-41.3,32.7,59.5,35.69,,,,,,,,,,
15.21.07.335,-32.5,8.1,0,14.0,,62315.8,16.05,0.1,0.82,0.55,-43.4,36.1,59.6,35.69,,,,,,,,,,
15.21.07.343,-62.2,15.6,0,14.0,,64633.8,15.47,0.11,0.81,0.56,-44.7,38.8,59.1,35.69,,,,,,,,,,
15.21.07.355,-84.8,21.2,0,14.0,,59630.2,16.77,0.12,0.81,0.58,-45.0,40.2,61.7,35.69,,,,,,,,,,
15.21.07.364,-53.7,13.4,0,14.0,,66940.8,14.94,0.12,0.82,0.58,-45.9,43.5,62.8,35.69,,,,,,,,,,
15.21.07.376,-46.3,11.6,0,14.0,,64231.2,15.57,0.12,0.81,0.58,-49.5,44.8,60.7,35.69,,,,,,,,,,
15.21.07.388,-117.5,29.4,0,14.0,,60875.8,16.43,0.11,0.76,0.58,-51.5,50.8,57.3,35.69,,,,,,,,,,
15.21.07.396,-10.7,2.7,0,14.0,,59624.3,16.77,0.11,0.71,0.58,-51.5,57.8,53.6,35.69,,,,,,,,,,
15.21.07.409,-75.7,18.9,0,14.0,,64153.5,15.59,0.1,0.67,0.56,-46.9,62.3,50.2,35.69,,,,,,,,,,
15.21.07.417,-69.9,17.5,0,14.0,,65682.9,15.22,0.11,0.66,0.57,-39.6,62.6,49.6,35.69,,,,,,,,,,
15.21.07.429,-139.2,34.8,0,14.0,,59686.1,16.75,0.09,0.66,0.58,-31.4,63.2,47.9,35.69,,,,,,,,,,
15.21.07.437,-201.2,50.3,0,14.0,,62955.3,15.88,0.07,0.64,0.59,-24.4,62.7,45.5,35.69,,,,,,,,,,
15.21.07.450,-75.2,18.8,0,14.0,,65458.4,15.28,0.05,0.63,0.6,-18.7,64.0,42.0,35.69,,,,,,,,,,
15.21.07.462,-74.5,18.6,0,14.0,,60470.4,16.54,0.02,0.64,0.62,-14.7,63.2,41.0,35.69,,,,,,,,,,
15.21.07.470,-112.5,28.1,0,14.0,,66908.3,14.95,0.0,0.66,0.64,-12.1,59.3,39.9,35.69,,,,,,,,,,
15.21.07.482,-91.3,22.8,0,14.0,,64065.9,15.61,-0.02,0.65,0.63,-11.4,54.0,37.9,35.69,,,,,,,,,,
15.21.07.491,-150.0,37.5,0,14.0,,63584.7,15.73,-0.03,0.64,0.65,-10.6,50.6,33.5,35.69,,,,,,,,,,
15.21.07.503,-103.2,25.8,0,14.0,,66890.3,14.95,-0.01,0.61,0.64,-7.6,51.2,25.3,35.69,,,,,,,,,,
15.21.07.511,-129.9,32.5,0,14.0,,67580.6,14.8,0.01,0.56,0.62,0.2,53.7,17.1,35.69,,,,,,,,,,
15.21.07.523,-142.4,35.6,0,14.0,,60540.7,16.52,0.01,0.59,0.63,10.1,52.1,14.9,35.69,,,,,,,,,,
15.21.07.532,-152.3,38.1,0,14.0,,67478.8,14.82,-0.01,0.6,0.62,19.3,46.5,16.5,35.69,,,,,,,,,,
15.21.07.544,-108.4,27.1,0,14.0,,68523.1,14.59,-0.02,0.61,0.62,27.1,39.3,21.4,35.69,,,,,,,,,,
15.21.07.556,-177.8,44.4,0,14.0,,61858.6,16.17,-0.03,0.64,0.64,34.4,32.1,27.0,35.69,,,,,,,,,,
15.21.07.568,-246.6,61.6,0,14.0,,65946.0,15.16,-0.06,0.71,0.68,34.4,26.7,28.9,35.69,,,,,,,,,,
15.21.07.577,-206.7,51.7,0,14.0,,63363.3,15.78,-0.05,0.73,0.68,29.9,24.8,25.3,35.69,,,,,,,,,,
15.21.07.589,93.3,23.3,1,15.0,99.3,63886.3,15.65,-0.04,0.72,0.68,24.3,28.9,16.9,35.69,,,,,,,,,,
15.21.07.597,107.2,26.8,0,15.0,,64779.3,15.44,-0.01,0.73,0.67,18.8,39.2,8.9,35.69,,,,,,,,,,
15.21.07.609,187.3,46.8,0,15.0,,58683.2,17.04,-0.01,0.77,0.66,14.4,45.1,3.0,35.69,,,,,,,,,,
15.21.07.622,291.2,72.8,0,15.0,,58451.5,17.11,-0.03,0.79,0.67,11.0,47.2,-1.1,35.69,,,,,,,,,,
15.21.07.630,327.5,81.9,0,15.0,,58826.3,17.0,-0.03,0.78,0.66,8.7,50.5,-4.5,35.69,,,,,,,,,,
15.21.07.642,372.1,93.0,0,15.0,,67825.8,14.74,-0.04,0.78,0.64,6.7,57.1,-7.8,35.69,,,,,,,,,,
15.21.07.650,427.7,106.9,0,15.0,,65101.0,15.36,-0.06,0.8,0.63,3.7,61.6,-8.9,35.69,,,,,,,,,,
15.21.07.663,505.1,126.3,0,15.0,,62898.6,15.9,-0.1,0.8,0.63,2.0,59.1,-8.2,35.69,,,,,,,,,,
15.21.07.671,422.9,105.7,0,15.0,,68344.6,14.63,-0.11,0.79,0.62,2.3,55.9,-4.1,35.69,,,,,,,,,,
15.21.07.683,503.9,126.0,0,15.0,,65807.6,15.2,-0.1,0.81,0.62,3.4,52.0,-0.1,35.69,,,,,,,,,,
15.21.07.691,475.6,118.9,0,15.0,,66732.5,14.99,-0.11,0.8,0.61,2.9,48.2,1.2,35.69,,,,,,,,,,
15.21.07.704,467.9,117.0,0,15.0,,68639.7,14.57,-0.1,0.81,0.6,3.5,44.9,3.7,35.69,,,,,,,,,,
15.21.07.712,451.9,113.0,0,15.0,,55669.2,17.96,-0.09,0.81,0.6,5.0,39.3,5.9,35.69,,,,,,,,,,
15.21.07.724,442.1,110.5,0,15.0,,63364.1,15.78,-0.07,0.8,0.61,6.6,33.5,8.7,35.69,,,,,,,,,,
15.21.07.732,436.2,109.0,0,15.0,,67334.3,14.85,-0.05,0.77,0.6,7.5,30.0,9.3,35.69,,,,,,,,,,
15.21.07.745,347.2,86.8,0,15.0,,66813.6,14.97,-0.03,0.77,0.6,9.0,29.0,9.1,35.69,,,,,,,,,,
15.21.07.753,325.0,81.2,0,15.0,,61215.9,16.34,-0.03,0.76,0.59,10.8,27.6,8.6,35.69,,,,,,,,,,
15.21.07.765,221.4,55.4,0,15.0,,62726.4,15.94,-0.03,0.76,0.59,13.6,28.0,8.2,35.69,,,,,,,,,,
15.21.07.777,204.7,51.2,0,15.0,,64502.9,15.5,-0.03,0.77,0.6,16.9,29.2,9.0,35.69,,,,,,,,,,
15.21.07.786,48.6,12.2,0,15.0,,65224.5,15.33,-0.04,0.77,0.6,18.1,28.6,10.7,35.69,,,,,,,,,,
15.21.07.798,52.3,13.1,0,15.0,,65424.8,15.28,-0.03,0.8,0.6,18.7,25.2,14.0,35.69,,,,,,,,,,
15.21.07.806,2.0,0.5,0,15.0,,63788.0,15.68,-0.03,0.81,0.61,16.8,23.2,14.6,35.69,,,,,,,,,,
15.21.07.818,23.8,6.0,0,15.0,,62660.7,15.96,0.0,0.83,0.61,13.3,25.5,13.4,35.69,,,,,,,,,,
15.21.07.827,36.5,9.1,0,15.0,,63155.0,15.83,0.01,0.83,0.62,10.1,30.9,9.6,35.69,,,,,,,,,,
15.21.07.839,99.2,24.8,0,15.0,,70913.8,14.1,0.0,0.82,0.61,7.6,36.9,6.0,35.69,,,,,,,,,,
15.21.07.876,102.7,25.7,0,15.0,,61319.0,16.31,-0.01,0.81,0.61,7.8,41.4,4.3,35.69,,,,,,,,,,
15.21.07.884,119.6,29.9,0,15.0,,62753.3,15.94,-0.04,0.84,0.56,9.2,38.5,2.3,35.69,,,,,,,,,,
15.21.07.896,99.5,24.9,0,15.0,,67197.6,14.88,-0.03,0.84,0.58,9.4,40.3,0.9,35.69,,,,,,,,,,
15.21.07.908,12.2,3.0,0,15.0,,63640.2,15.71,-0.04,0.84,0.58,11.7,40.6,2.8,35.69,,,,,,,,,,
15.21.07.917,-2.4,0.6,0,15.0,,62968.1,15.88,-0.06,0.86,0.59,14.1,36.9,7.6,35.69,,,,,,,,,,
15.21.07.929,39.6,9.9,0,15.0,,62292.5,16.05,-0.08,0.89,0.6,12.6,34.6,9.7,35.69,,,,,,,,,,
15.21.07.937,1.7,0.4,0,15.0,,67013.7,14.92,-0.09,0.88,0.6,7.0,34.8,9.8,35.69,,,,,,,,,,
15.21.07.949,-21.8,5.4,0,15.0,,65455.2,15.28,-0.1,0.87,0.6,2.3,37.0,9.3,35.69,,,,,,,,,,
15.21.07.958,-25.9,6.5,0,15.0,,67589.6,14.8,-0.1,0.85,0.61,0.1,36.1,9.5,35.69,,,,,,,,,,
15.21.07.970,-28.3,7.1,0,15.0,,63054.5,15.86,-0.09,0.83,0.61,1.2,33.0,12.0,35.69,,,,,,,,,,
15.21.07.978,-36.7,9.2,0,15.0,,69926.7,14.3,-0.09,0.83,0.61,2.9,31.4,11.0,35.69,,,,,,,,,,
15.21.07.990,38.9,9.7,0,15.0,,62802.6,15.92,-0.1,0.81,0.6,2.7,32.3,7.0,35.69,,,,,,,,,,
15.21.07.999,-54.8,13.7,0,15.0,,63532.0,15.74,-0.09,0.8,0.6,2.2,35.3,2.9,35.69,,,,,,,,,,
15.21.08.011,-57.6,14.4,0,15.0,,69471.8,14.39,-0.1,0.77,0.6,2.0,38.0,0.3,35.69,,,,,,,,,,
15.21.08.019,-66.8,16.7,0,15.0,,64464.1,15.51,-0.11,0.75,0.62,2.4,38.0,0.5,35.69,,,,,,,,,,
15.21.08.031,-139.9,35.0,0,15.0,,64037.9,15.62,-0.1,0.74,0.62,2.8,39.1,-0.1,35.69,,,,,,,,,,
15.21.08.044,-117.6,29.4,0,15.0,,59432.0,16.83,-0.1,0.75,0.61,2.4,41.9,-2.5,35.69,,,,,,,,,,
15.21.08.052,-99.2,24.8,0,15.0,,63721.4,15.69,-0.1,0.74,0.61,1.7,43.2,-7.0,35.69,,,,,,,,,,
15.21.08.064,-111.5,27.9,0,15.0,,68207.1,14.66,-0.12,0.74,0.6,2.3,43.0,-11.4,35.69,,,,,,,,,,
15.21.08.076,-106.1,26.5,0,15.0,,61392.4,16.29,-0.13,0.74,0.58,4.0,41.8,-13.5,35.69,,,,,,,,,,
15.21.08.085,-79.9,20.0,0,15.0,,57500.9,17.39,-0.14,0.75,0.59,5.7,40.8,-14.5,35.69,,,,,,,,,,
15.21.08.097,-139.0,34.8,0,15.0,,64216.4,15.57,-0.14,0.76,0.6,6.1,40.7,-15.8,35.69,,,,,,,,,,
15.21.08.105,-122.8,30.7,0,15.0,,58312.7,17.15,-0.15,0.76,0.61,4.3,39.9,-17.3,35.69,,,,,,,,,,
15.21.08.117,-159.6,39.9,0,15.0,,66319.1,15.08,-0.14,0.75,0.62,2.5,38.2,-17.6,35.69,95.4,,,,,,,,,
15.21.08.130,-162.4,40.6,0,15.0,,66447.2,15.05,-0.15,0.74,0.6,1.7,37.4,-18.2,35.69,,,,,,,,,,
15.21.08.138,-162.7,40.7,0,15.0,,70576.2,14.17,-0.15,0.74,0.6,1.5,36.7,-18.8,35.69,,,,,,,,,,
15.21.08.150,-133.1,33.3,0,15.0,,66279.1,15.09,-0.15,0.74,0.58,2.0,38.3,-20.8,35.69,,,,,,,,,,
15.21.08.158,-125.7,31.4,0,15.0,,65965.4,15.16,-0.16,0.76,0.59,1.8,40.6,-22.9,35.69,,,,,,,,,,
15.21.08.171,-143.5,35.9,0,15.0,,61907.6,16.15,-0.17,0.78,0.6,0.1,40.3,-24.1,35.69,,,,,,,,,,
15.21.08.179,-205.6,51.4,0,15.0,,58881.3,16.98,-0.18,0.8,0.6,-3.5,39.2,-24.4,35.69,,,,,,,,,,
15.21.08.191,-220.9,55.2,0,15.0,,62657.7,15.96,-0.2,0.8,0.61,-6.9,40.9,-24.7,35.69,,,,,,,,,,
15.21.08.199,-138.2,34.6,0,15.0,,65762.6,15.21,-0.22,0.8,0.62,-10.1,43.5,-24.3,35.69,,,,,,,,,,
15.21.08.212,37.5,9.4,1,16.0,95.5,67458.0,14.82,-0.23,0.81,0.61,-13.3,45.7,-24.6,35.69,,,,,,,,,,
15.21.08.224,105.2,26.3,0,16.0,,65716.7,15.22,-0.25,0.78,0.62,-15.3,44.9,-23.6,35.69,,,,,,,,,,
15.21.08.232,162.3,40.6,0,16.0,,64923.5,15.4,-0.25,0.77,0.61,-14.8,42.1,-21.7,35.69,,,,,,,,,,
15.21.08.244,187.8,47.0,0,16.0,,68373.9,14.63,-0.26,0.76,0.59,-13.4,37.9,-19.9,35.69,,,,,,,,,,
15.21.08.253,303.7,75.9,0,16.0,,63751.0,15.69,-0.27,0.75,0.58,-10.7,34.7,-19.2,35.69,,,,,,,,,,
15.21.08.265,383.8,96.0,0,16.0,,67182.8,14.88,-0.28,0.75,0.57,-7.6,34.9,-19.9,35.69,,,,,,,,,,
15.21.08.277,385.1,96.3,0,16.0,,61945.6,16.14,-0.29,0.74,0.56,-5.9,34.4,-20.8,35.69,,,,,,,,,,
15.21.08.285,451.5,112.9,0,16.0,,66904.4,14.95,-0.29,0.74,0.56,-5.1,31.2,-21.5,35.69,,,,,,,,,,
15.21.08.298,462.3,115.6,0,16.0,,62974.9,15.88,-0.29,0.74,0.56,-5.1,29.6,-22.5,35.69,,,,,,,,,,
15.21.08.306,552.4,138.1,0,16.0,,63608.1,15.72,-0.29,0.75,0.57,-6.0,27.6,-24.2,35.69,,,,,,,,,,
15.21.08.318,466.8,116.7,0,16.0,,65584.1,15.25,-0.29,0.75,0.59,-7.1,24.3,-25.8,35.69,,,,,,,,,,
15.21.08.330,450.0,112.5,0,16.0,,67414.6,14.83,-0.31,0.75,0.58,-8.0,22.9,-25.9,35.69,,,,,,,,,,
15.21.08.339,409.2,102.3,0,16.0,,66089.1,15.13,-0.31,0.73,0.55,-8.9,22.6,-25.8,35.69,,,,,,,,,,
15.21.08.351,419.5,104.9,0,16.0,,65904.2,15.17,-0.31,0.72,0.54,-8.0,21.9,-24.9,35.69,,,,,,,,,,
15.21.08.359,394.0,98.5,0,16.0,,64181.7,15.58,-0.29,0.72,0.53,-5.7,22.3,-23.7,35.69,,,,,,,,,,
15.21.08.371,366.7,91.7,0,16.0,,65345.4,15.3,-0.27,0.73,0.55,-4.3,21.5,-24.6,35.69,,,,,,,,,,
15.21.08.384,289.8,72.4,0,16.0,,60476.4,16.54,-0.28,0.74,0.56,-5.0,25.5,-28.1,35.69,,,,,,,,,,
15.21.08.392,220.2,55.0,0,16.0,,66054.0,15.14,-0.29,0.75,0.58,-7.0,30.3,-31.4,35.69,,,,,,,,,,
15.21.08.404,204.3,51.1,0,16.0,,64538.9,15.49,-0.31,0.75,0.58,-8.3,30.4,-30.9,35.69,,,,,,,,,,
15.21.08.412,161.1,40.3,0,16.0,,60111.6,16.64,-0.33,0.75,0.57,-7.7,28.1,-28.0,35.69,,,,,,,,,,
15.21.08.425,,,0,16.0,,,,,,,,,,35.69,,,,,,,,,,
15.21.08.441,,,0,16.0,,,,,,,,,,35.69,,35.68,,,,,,,,
15.21.08.453,90.0,22.5,0,16.0,,66435.6,15.05,-0.37,0.68,0.54,-2.9,22.7,-16.6,35.69,,,,,,,,,,
15.21.08.461,113.2,28.3,0,16.0,,65649.6,15.23,-0.36,0.67,0.55,0.7,17.4,-11.2,35.69,,,,,,,,,,
15.21.08.474,41.2,10.3,0,16.0,,61353.3,16.3,-0.35,0.67,0.57,4.2,10.7,-7.2,35.69,,,,,,,,,,
15.21.08.482,78.9,19.7,0,16.0,,69239.0,14.44,-0.36,0.67,0.58,5.1,6.6,-5.2,35.69,,,,,,,,,,
15.21.08.494,56.2,14.0,0,16.0,,61284.9,16.32,-0.39,0.68,0.59,4.4,3.5,-5.4,35.69,,,,,,,,,,
15.21.08.503,53.0,13.2,0,16.0,,64340.4,15.54,-0.38,0.67,0.55,4.5,3.9,-4.7,35.69,,,,,,,,,,
15.21.08.515,31.0,7.8,0,16.0,,64575.9,15.49,-0.38,0.65,0.53,7.0,3.5,-2.7,35.69,,,,,,,,,,
15.21.08.527,21.0,5.2,0,16.0,,55916.0,17.88,-0.35,0.63,0.51,12.2,-1.4,1.5,35.69,,,,,,,,,,
15.21.08.535,35.9,9.0,0,16.0,,63201.8,15.82,-0.31,0.62,0.52,21.1,-4.2,7.0,35.69,,,,,,,,,,
15.21.08.548,77.2,19.3,0,16.0,,66490.6,15.04,-0.3,0.65,0.55,30.2,-3.9,11.8,35.69,,,,,,,,,,
15.21.08.556,-2.4,0.6,0,16.0,,66058.0,15.14,-0.3,0.68,0.56,33.0,-2.6,13.8,35.69,,,,,,,,,,
15.21.08.568,30.4,7.6,0,16.0,,63023.8,15.87,-0.3,0.7,0.58,32.5,0.5,13.8,35.69,,,,,,,,,,
15.21.08.576,1.9,0.5,0,16.0,,63078.0,15.85,-0.32,0.73,0.58,31.0,6.1,13.8,35.69,,,,,,,,,,
15.21.08.588,46.7,11.7,0,16.0,,63580.0,15.73,-0.33,0.74,0.57,27.1,9.9,13.6,35.69,,,,,,,,,,
15.21.08.601,1.4,0.4,0,16.0,,64250.8,15.56,-0.31,0.74,0.53,20.8,12.8,13.4,35.69,,,,,,,,,,
15.21.08.609,-18.2,4.6,0,16.0,,62751.3,15.94,-0.28,0.72,0.52,17.9,15.0,14.6,35.69,,,,,,,,,,
15.21.08.621,-64.5,16.1,0,16.0,,65302.2,15.31,-0.25,0.73,0.54,17.5,17.0,17.7,35.69,,,,,,,,,,
15.21.08.629,-76.7,19.2,0,16.0,,65768.7,15.2,-0.23,0.74,0.55,18.0,22.3,19.1,35.69,,,,,,,,,,
15.21.08.642,-63.5,15.9,0,16.0,,66779.3,14.97,-0.25,0.76,0.58,16.7,33.5,18.3,35.69,,,,,,,,,,
15.21.08.679,-92.3,23.1,0,16.0,,66382.4,15.06,-0.27,0.78,0.59,13.2,43.2,15.8,35.63,,,,,,,,,,
15.21.08.691,-79.9,20.0,0,16.0,,68772.8,14.54,-0.29,0.83,0.56,1.2,50.7,14.5,35.63,,,,,,,,,,
15.21.08.699,-146.2,36.6,0,16.0,,62475.3,16.01,-0.31,0.83,0.54,0.0,54.1,15.1,35.63,,,,,,,,,,
15.21.08.711,-88.8,22.2,0,16.0,,64805.7,15.43,-0.31,0.84,0.53,1.1,60.4,17.1,35.63,,,,,,,,,,
15.21.08.720,-90.6,22.6,0,16.0,,61982.3,16.13,-0.31,0.84,0.55,3.6,60.3,20.5,35.63,,,,,,,,,,
15.21.08.732,-129.9,32.5,0,16.0,,63120.8,15.84,-0.32,0.84,0.52,6.6,54.4,25.7,35.63,,,,,,,,,,
15.21.08.740,-99.4,24.8,0,16.0,,63675.7,15.7,-0.33,0.82,0.51,10.0,47.4,30.2,35.63,,,,,,,,,,
15.21.08.752,-122.6,30.6,0,16.0,,62469.6,16.01,-0.34,0.83,0.49,11.4,43.1,35.3,35.63,,,,,,,,,,
15.21.08.761,-162.3,40.6,0,16.0,,67344.9,14.85,-0.33,0.83,0.51,10.3,39.5,39.5,35.63,,,,,,,,,,
15.21.08.773,-146.4,36.6,0,16.0,,64451.4,15.52,-0.32,0.82,0.51,6.0,38.8,41.7,35.63,,,,,,,,,,
15.21.08.785,-212.5,53.1,0,16.0,,64238.1,15.57,-0.3,0.82,0.52,1.2,43.1,41.9,35.63,,,,,,,,,,
15.21.08.793,-183.0,45.8,0,16.0,,66025.7,15.15,-0.33,0.84,0.53,-4.5,46.7,39.7,35.63,,,,,,,,,,
15.21.08.806,-195.6,48.9,0,16.0,,65853.8,15.19,-0.33,0.83,0.51,-13.1,50.3,37.3,35.63,,,,,,,,,,
15.21.08.814,-121.0,30.2,0,16.0,,63849.0,15.66,-0.33,0.79,0.47,-21.1,53.7,34.3,35.63,,,,,,,,,,
15.21.08.826,-170.2,42.6,0,16.0,,64102.3,15.6,-0.32,0.75,0.46,-22.9,58.6,31.4,35.63,,,,,,,,,,
15.21.08.834,-186.1,46.5,0,16.0,,71368.6,14.01,-0.31,0.74,0.45,-18.9,64.2,29.5,35.63,,,,,,,,,,
15.21.08.847,67.8,17.0,1,17.0,93.4,62662.3,15.96,-0.31,0.75,0.45,-13.9,66.9,29.1,35.63,,,,,,,,,,
15.21.08.859,123.3,30.8,0,17.0,,63312.3,15.79,-0.32,0.77,0.47,-10.6,69.3,29.0,35.63,,,,,,,,,,
15.21.08.867,175.2,43.8,0,17.0,,61255.8,16.32,-0.35,0.78,0.47,-9.9,72.8,27.8,35.63,,,,,,,,,,
15.21.08.879,271.9,68.0,0,17.0,,67381.7,14.84,-0.35,0.8,0.48,-10.9,75.8,26.8,35.63,,,,,,,,,,
15.21.08.888,322.7,80.7,0,17.0,,60201.5,16.61,-0.35,0.82,0.48,-14.5,78.6,24.3,35.63,,,,,,,,,,
15.21.08.900,334.7,83.7,0,17.0,,65154.5,15.35,-0.37,0.83,0.46,-19.4,79.9,20.2,35.63,,,,,,,,,,
15.21.08.912,396.6,99.2,0,17.0,,60615.8,16.5,-0.37,0.84,0.45,-22.4,81.4,15.2,35.63,,,,,,,,,,
15.21.08.920,487.3,121.8,0,17.0,,69803.6,14.33,-0.37,0.82,0.43,-21.6,80.1,12.6,35.63,,,,,,,,,,
15.21.08.933,434.3,108.6,0,17.0,,58247.4,17.17,-0.37,0.8,0.4,-16.1,78.3,11.4,35.63,,,,,,,,,,
15.21.08.941,517.2,129.3,0,17.0,,61614.7,16.23,-0.36,0.8,0.4,-7.8,73.7,13.7,35.63,,,,,,,,,,
15.21.08.953,452.4,113.1,0,17.0,,63452.7,15.76,-0.35,0.82,0.38,0.8,67.9,16.2,35.63,,,,,,,,,,
15.21.08.961,450.8,112.7,0,17.0,,67970.0,14.71,-0.36,0.84,0.38,7.0,62.3,18.9,35.63,,,,,,,,,,
15.21.08.974,485.1,121.3,0,17.0,,58656.7,17.05,-0.35,0.87,0.4,9.0,56.1,20.9,35.63,,,,,,,,,,
15.21.08.986,417.4,104.4,0,17.0,,63906.1,15.65,-0.33,0.88,0.41,9.2,51.4,23.0,35.63,,,,,,,,,,
15.21.08.994,446.7,111.7,0,17.0,,61537.6,16.25,-0.32,0.88,0.43,7.5,49.3,23.6,35.63,,,,,,,,,,
15.21.09.006,323.7,80.9,0,17.0,,65175.9,15.34,-0.32,0.87,0.45,5.8,48.9,25.0,35.63,,,,,,,,,,
15.21.09.015,352.9,88.2,0,17.0,,64257.2,15.56,-0.33,0.88,0.45,3.0,49.0,25.2,35.63,,,,,,,,,,
15.21.09.027,242.1,60.5,0,17.0,,63809.1,15.67,-0.34,0.87,0.44,-0.6,49.7,23.7,35.63,,,,,,,,,,
15.21.09.035,180.0,45.0,0,17.0,,63489.1,15.75,-0.35,0.87,0.43,-5.1,50.6,21.2,35.63,,,,,,,,,,
15.21.09.047,96.6,24.2,0,17.0,,63327.3,15.79,-0.37,0.83,0.4,-9.3,53.8,17.9,35.63,,,,,,,,,,
15.21.09.060,22.0,5.5,0,17.0,,60612.5,16.5,-0.38,0.82,0.41,-12.3,57.1,14.9,35.63,,,,,,,,,,
15.21.09.068,11.5,2.9,0,17.0,,57013.3,17.54,-0.39,0.83,0.41,-14.9,59.8,13.7,35.63,,,,,,,,,,
15.21.09.080,80.3,20.1,0,17.0,,62849.2,15.91,-0.39,0.83,0.43,-16.5,59.0,12.7,35.63,,,,,,,,,,
15.21.09.088,42.8,10.7,0,17.0,,64936.8,15.4,-0.38,0.83,0.43,-16.5,57.8,12.4,35.63,,,,,,,,,,
15.21.09.105,51.9,13.0,0,17.0,,66039.1,15.14,-0.39,0.82,0.44,-14.8,55.7,10.7,35.63,,,,,,,,,,
15.21.09.113,92.3,23.1,0,17.0,,62151.2,16.09,-0.38,0.83,0.43,-12.4,53.8,10.5,35.63,,,,,,,,,,
15.21.09.125,94.5,23.6,0,17.0,,66979.1,14.93,-0.4,0.84,0.44,-9.6,51.4,7.1,35.63,,,,,,,,,,
15.21.09.133,127.5,31.9,0,17.0,,59192.2,16.89,-0.41,0.83,0.41,-8.2,49.7,3.4,35.63,,,,,,,,,,
15.21.09.146,99.9,25.0,0,17.0,,65350.2,15.3,-0.39,0.83,0.41,-6.4,44.8,0.0,35.63,,,,,,,,,,
15.21.09.154,73.9,18.5,0,17.0,,67333.1,14.85,-0.39,0.81,0.41,-1.9,38.4,-2.4,35.63,,,,,,,,,,
15.21.09.166,55.4,13.8,0,17.0,,63746.5,15.69,-0.4,0.83,0.42,3.9,31.4,-2.2,35.63,,,,,,,,,,
15.21.09.174,9.1,2.3,0,17.0,,63580.1,15.73,-0.4,0.85,0.41,8.7,23.2,-0.5,35.63,,,,,,,,,,
15.21.09.187,-25.1,6.3,0,17.0,,64642.8,15.47,-0.4,0.86,0.42,9.3,16.1,0.5,35.63,,,,,,,,,,
15.21.09.195,-55.7,13.9,0,17.0,,62219.0,16.07,-0.4,0.87,0.42,8.9,12.6,0.8,35.63,,,,,,,,,,
15.21.09.207,-44.4,11.1,0,17.0,,68921.2,14.51,-0.39,0.86,0.4,7.7,9.5,0.5,35.63,,,,,,,,,,
15.21.09.215,6.2,1.6,0,17.0,,62222.5,16.07,-0.41,0.85,0.4,5.2,8.0,1.9,35.63,,,,,,,,,,
15.21.09.228,-26.3,6.6,0,17.0,,62412.1,16.02,-0.42,0.83,0.37,3.3,4.4,5.1,35.63,,,,,,,,,,
15.21.09.236,-50.2,12.6,0,17.0,,66867.4,14.95,-0.42,0.78,0.33,3.9,6.3,7.6,35.63,,,,,,,,,,
15.21.09.248,-12.4,3.1,0,17.0,,64604.4,15.48,-0.4,0.81,0.36,5.4,1.7,16.5,35.63,,,,,,,,,,
15.21.09.256,-31.2,7.8,0,17.0,,64631.5,15.47,-0.41,0.86,0.38,9.1,-1.8,25.8,35.63,,,,,,,,,,
15.21.09.269,-41.3,10.3,0,17.0,,61836.6,16.17,-0.4,0.88,0.38,9.7,-1.9,29.8,35.63,,,,,,,,,,
15.21.09.277,-112.9,28.2,0,17.0,,60990.7,16.4,-0.36,0.88,0.39,5.6,0.4,25.7,35.63,,,,,,,,,,
15.21.09.289,8.4,2.1,0,17.0,,63911.9,15.65,-0.36,0.86,0.39,0.4,7.4,17.4,35.63,,,,,,,,,,
15.21.09.297,-107.8,27.0,0,17.0,,60286.9,16.59,-0.34,0.85,0.38,-3.1,10.2,10.4,35.63,,,,,,,,,,
15.21.09.309,-99.2,24.8,0,17.0,,66033.2,15.14,-0.34,0.82,0.38,-2.9,10.3,5.6,35.63,,,,,,,,,,
15.21.09.322,-30.1,7.5,0,17.0,,62579.1,15.98,-0.35,0.81,0.38,0.3,12.1,3.2,35.63,,,,,,,,,,
15.21.09.330,-109.9,27.5,0,17.0,,61745.0,16.2,-0.35,0.8,0.37,2.1,13.8,1.2,35.63,,,,,,,,,,
15.21.09.342,-93.0,23.2,0,17.0,,68467.6,14.61,-0.36,0.81,0.37,3.8,15.7,-0.3,35.63,,,,,,,,,,
15.21.09.350,-164.6,41.2,0,17.0,,66237.3,15.1,-0.36,0.81,0.38,6.2,16.9,-2.0,35.63,,,,,,,,,,
15.21.09.363,-113.9,28.5,0,17.0,,60922.0,16.41,-0.37,0.82,0.39,9.7,15.7,-1.9,35.63,,,,,,,,,,
15.21.09.371,-90.8,22.7,0,17.0,,60723.7,16.47,-0.36,0.84,0.39,12.3,12.4,-1.1,35.63,,,,,,,,,,
15.21.09.383,-122.5,30.6,0,17.0,,60787.4,16.45,-0.37,0.86,0.39,12.6,9.2,-1.4,35.63,,,,,,,,,,
15.21.09.391,-162.3,40.6,0,17.0,,66584.5,15.02,-0.37,0.86,0.39,11.5,7.6,-5.1,35.63,,,,,,,,,,
15.21.09.404,-140.6,35.2,0,17.0,,62287.3,16.05,-0.39,0.86,0.38,8.2,10.2,-9.5,35.63,,,,,,,,,,
15.21.09.412,-123.0,30.8,0,17.0,,66528.3,15.03,-0.39,0.85,0.35,5.1,12.7,-13.0,35.63,,,,,,,,,,
15.21.09.424,-201.0,50.2,0,17.0,,61322.2,16.31,-0.4,0.85,0.35,4.4,14.2,-14.6,35.63,,,,,,,,,,
15.21.09.433,-213.7,53.4,0,17.0,,65754.0,15.21,-0.39,0.83,0.35,6.1,14.9,-15.7,35.63,,,,,,,,,,
15.21.09.445,-113.3,28.3,0,17.0,,70541.4,14.18,-0.38,0.83,0.37,9.9,15.5,-16.7,35.63,,,,,,,,,,
15.21.09.481,21.1,5.3,1,18.0,96.3,63846.4,15.66,-0.36,0.86,0.37,11.9,15.8,-18.4,35.69,,,,,,,,,,
15.21.09.494,137.9,34.5,0,18.0,,61988.8,16.13,-0.37,0.86,0.37,8.6,21.3,-28.6,35.69,,,,,,,,,,
15.21.09.502,235.7,58.9,0,18.0,,62299.5,16.05,-0.4,0.87,0.36,7.0,23.0,-29.1,35.69,,,,,,,,,,
15.21.09.514,207.0,51.8,0,18.0,,66419.1,15.06,-0.4,0.85,0.35,6.4,24.3,-28.2,35.69,,,,,,,,,,
15.21.09.523,361.4,90.4,0,18.0,,61204.9,16.34,-0.41,0.85,0.35,7.3,23.9,-26.3,35.69,,,,,,,,,,
15.21.09.535,398.2,99.6,0,18.0,,64926.4,15.4,-0.41,0.86,0.35,8.3,21.5,-23.5,35.69,,,,,,,,,,
15.21.09.543,426.3,106.6,0,18.0,,70623.3,14.16,-0.42,0.87,0.37,8.6,18.3,-21.3,35.69,,,,,,,,,,
15.21.09.555,453.5,113.4,0,18.0,,69121.5,14.47,-0.43,0.88,0.37,6.0,16.8,-22.5,35.69,,,,,,,,,,
15.21.09.568,495.7,123.9,0,18.0,,67246.6,14.87,-0.43,0.86,0.37,3.2,16.1,-26.2,35.69,,,,,,,,,,
15.21.09.576,505.5,126.4,0,18.0,,64954.4,15.4,-0.44,0.83,0.35,1.1,16.5,-30.6,35.69,,,,,,,,,,
15.21.09.588,491.0,122.8,0,18.0,,62391.5,16.03,-0.45,0.81,0.33,2.1,17.2,-33.1,35.69,,,,,,,,,,
15.21.09.596,516.3,129.1,0,18.0,,63951.1,15.64,-0.47,0.79,0.32,5.0,14.9,-33.2,35.69,,,,,,,,,,
15.21.09.609,475.5,118.9,0,18.0,,57548.5,17.38,-0.47,0.79,0.3,10.5,12.4,-30.4,35.69,,,,,,,,,,
15.21.09.617,484.4,121.1,0,18.0,,61776.2,16.19,-0.49,0.82,0.3,13.2,10.1,-27.1,35.69,,,,,,,,,,
15.21.09.633,310.4,77.6,0,18.0,,69157.1,14.46,-0.5,0.85,0.31,13.8,5.6,-23.2,35.69,,,,,,,,,,
15.21.09.641,338.7,84.7,0,18.0,,72063.0,13.88,-0.48,0.86,0.33,10.2,3.8,-22.8,35.69,,,,,,,,,,
15.21.09.654,274.7,68.7,0,18.0,,63644.3,15.71,-0.46,0.86,0.35,5.3,4.8,-23.7,35.69,,,,,,,,,,
15.21.09.662,234.2,58.6,0,18.0,,54490.4,18.35,-0.45,0.85,0.35,1.0,6.2,-24.1,35.69,,,,,,,,,,
15.21.09.674,115.4,28.8,0,18.0,,63635.0,15.71,-0.45,0.82,0.36,-0.7,6.6,-23.6,35.69,,,,,,,,,,
15.21.09.682,56.8,14.2,0,18.0,,68712.7,14.55,-0.46,0.82,0.36,-0.9,8.7,-20.7,35.69,,,,,,,,,,
15.21.09.695,7.9,2.0,0,18.0,,67032.1,14.92,-0.47,0.82,0.35,-1.3,11.7,-18.4,35.69,,,,,,,,,,
15.21.09.703,74.0,18.5,0,18.0,,68650.3,14.57,-0.49,0.81,0.35,-3.1,13.9,-17.5,35.69,,,,,,,,,,
15.21.09.715,4.6,1.2,0,18.0,,63972.5,15.63,-0.51,0.81,0.35,-6.4,16.6,-17.8,35.69,,,,,,,,,,
15.21.09.723,79.2,19.8,0,18.0,,64399.6,15.53,-0.51,0.81,0.35,-9.0,17.5,-18.5,35.69,,,,,,,,,,
15.21.09.736,51.2,12.8,0,18.0,,61692.1,16.21,-0.53,0.81,0.35,-11.4,16.3,-20.5,35.69,,,,,,,,,,
15.21.09.748,43.8,11.0,0,18.0,,65962.3,15.16,-0.52,0.79,0.34,-11.7,15.0,-22.5,35.69,,,,,,,,,,
15.21.09.756,112.3,28.1,0,18.0,,63423.8,15.77,-0.51,0.77,0.33,-8.8,15.0,-24.8,35.69,,,,,,,,,,
15.21.09.768,141.1,35.3,0,18.0,,64918.5,15.4,-0.52,0.77,0.33,-4.3,14.9,-25.8,35.69,,,,,,,,,,
15.21.09.776,118.5,29.6,0,18.0,,65360.1,15.3,-0.52,0.77,0.33,0.7,13.1,-25.2,35.69,,,,,,,,,,
15.21.09.789,30.3,7.6,0,18.0,,63260.1,15.81,-0.51,0.78,0.33,5.3,10.8,-23.6,35.69,,,,,,,,,,
15.21.09.797,59.8,15.0,0,18.0,,68918.7,14.51,-0.52,0.79,0.33,8.5,8.5,-21.0,35.69,,,,,,,,,,
15.21.09.809,6.0,1.5,0,18.0,,66190.3,15.11,-0.52,0.8,0.33,10.4,4.6,-17.8,35.69,,,,,,,,,,
15.21.09.822,-37.5,9.4,0,18.0,,63577.2,15.73,-0.52,0.81,0.33,10.7,1.2,-14.8,35.69,,,,,,,,,,
15.21.09.830,-0.1,0.0,0,18.0,,61768.2,16.19,-0.53,0.83,0.33,9.5,-0.4,-11.9,35.69,,,,,,,,,,
15.21.09.842,-10.8,2.7,0,18.0,,60931.3,16.41,-0.53,0.83,0.33,6.0,-2.1,-9.5,35.69,,,,,,,,,,
15.21.09.851,-122.5,30.6,0,18.0,,61777.3,16.19,-0.52,0.82,0.33,2.8,-2.7,-8.0,35.69,,,,,,,,,,
15.21.09.863,-32.1,8.0,0,18.0,,62910.3,15.9,-0.5,0.81,0.33,0.3,-1.2,-6.9,35.69,,,,,,,,,,
15.21.09.871,-57.8,14.4,0,18.0,,61919.4,16.15,-0.5,0.8,0.33,-2.4,-1.0,-7.5,35.69,,,,,,,,,,
15.21.09.883,2.1,0.5,0,18.0,,60240.8,16.6,-0.5,0.77,0.34,-3.1,0.9,-8.7,35.69,,,,,,,,,,
15.21.09.891,-71.2,17.8,0,18.0,,67912.0,14.72,-0.5,0.77,0.34,-3.9,4.0,-9.9,35.69,,,,,,,,,,
15.21.09.904,-125.3,31.3,0,18.0,,63201.0,15.82,-0.51,0.76,0.35,-4.9,5.7,-10.3,35.69,,,,,,,,,,
15.21.09.916,-68.8,17.2,0,18.0,,66523.7,15.03,-0.52,0.78,0.36,-5.8,7.6,-9.2,35.69,,,,,,,,,,
15.21.09.924,-30.4,7.6,0,18.0,,63122.6,15.84,-0.53,0.79,0.36,-6.3,9.0,-8.6,35.69,,,,,,,,,,
15.21.09.936,-97.4,24.4,0,18.0,,59392.6,16.84,-0.55,0.79,0.35,-7.3,11.3,-8.0,35.69,,,,,,,,,,
15.21.09.944,-80.0,20.0,0,18.0,,59077.8,16.93,-0.54,0.78,0.35,-9.8,11.2,-7.3,35.69,,,,,,,,,,
15.21.09.957,-32.9,8.2,0,18.0,,60977.2,16.4,-0.53,0.77,0.35,-10.1,9.0,-5.5,35.69,,,,,,,,,,
15.21.09.965,-110.7,27.7,0,18.0,,66145.8,15.12,-0.52,0.75,0.35,-8.1,7.3,-3.6,35.69,,,,,,,,,,
15.21.09.977,-111.1,27.8,0,18.0,,64256.5,15.56,-0.52,0.75,0.34,-5.9,5.4,-2.0,35.69,,,,,,,,,,
15.21.09.985,-52.3,13.1,0,18.0,,66972.8,14.93,-0.51,0.74,0.35,-3.6,4.9,-1.7,35.69,,,,,,,,,,
15.21.09.998,-107.5,26.9,0,18.0,,63912.4,15.65,-0.52,0.74,0.35,-2.5,6.3,-2.0,35.69,,,,,,,,,,
15.21.10.006,-95.1,23.8,0,18.0,,62669.4,15.96,-0.52,0.73,0.34,-1.7,7.0,-2.0,35.69,,,,,,,,,,
15.21.10.018,-79.8,20.0,0,18.0,,66668.0,15.0,-0.52,0.73,0.34,-0.7,6.4,-0.7,35.69,,,,,,,,,,
15.21.10.027,-154.6,38.6,0,18.0,,66209.2,15.1,-0.54,0.74,0.35,-1.0,5.4,0.9,35.69,,,,,,,,,,
15.21.10.039,-116.9,29.2,0,18.0,,65056.7,15.37,-0.54,0.74,0.35,-1.9,4.9,2.9,35.69,,,,,,,,,,
15.21.10.047,-113.1,28.3,0,18.0,,66547.8,15.03,-0.54,0.75,0.36,-3.7,5.5,3.4,35.69,,,,,,,,,,
15.21.10.059,-177.5,44.4,0,18.0,,60866.5,16.43,-0.53,0.74,0.36,-5.8,7.1,2.9,35.69,,,,,,,,,,
15.21.10.067,-138.0,34.5,0,18.0,,63503.9,15.75,-0.52,0.74,0.37,-6.9,8.3,1.4,35.69,,,,,,,,,,
15.21.10.080,-208.9,52.2,0,18.0,,67208.7,14.88,-0.52,0.74,0.37,-6.8,9.8,0.9,35.69,,,,,,,,,,
15.21.10.088,-176.1,44.0,0,18.0,,64212.4,15.57,-0.52,0.74,0.36,-6.6,10.3,0.3,35.69,,,,,,,,,,
15.21.10.100,-175.7,43.9,0,18.0,,67579.1,14.8,-0.52,0.73,0.36,-6.4,11.8,-0.2,35.69,,,,,,,,,,
15.21.10.112,82.3,20.6,1,19.0,100.0,66718.5,14.99,-0.51,0.73,0.37,-6.4,14.7,-0.8,35.69,,,,,,,,,,
15.21.10.121,95.6,23.9,0,19.0,,67898.5,14.73,-0.5,0.73,0.38,-6.0,15.7,-0.7,35.69,,,,,,,,,,
15.21.10.133,199.1,49.8,0,19.0,,69173.8,14.46,-0.5,0.73,0.39,-4.6,16.1,1.0,35.69,,,,,,,,,,
15.21.10.145,199.8,50.0,0,19.0,,62113.4,16.1,-0.5,0.74,0.4,-4.2,16.2,2.4,35.69,,,,,,,,,,
15.21.10.153,308.8,77.2,0,19.0,,72181.8,13.85,-0.52,0.75,0.4,-5.9,16.8,3.3,35.69,,,,,,,,,,
15.21.10.166,295.2,73.8,0,19.0,,64473.1,15.51,-0.52,0.75,0.4,-8.3,18.1,3.5,35.69,,,,,,,,,,
15.21.10.174,418.3,104.6,0,19.0,,65265.0,15.32,-0.52,0.74,0.4,-9.8,18.1,4.0,35.69,,,,,,,,,,
15.21.10.186,380.4,95.1,0,19.0,,68251.9,14.65,-0.51,0.72,0.4,-10.9,17.8,5.2,35.69,,,,,,,,,,
15.21.10.194,418.9,104.7,0,19.0,,65046.0,15.37,-0.51,0.73,0.4,-11.8,17.7,6.2,35.69,,,,,,,,,,
15.21.10.207,466.2,116.6,0,19.0,,65674.4,15.23,-0.52,0.74,0.4,-12.7,18.0,7.4,35.69,,,,,,,,,,
15.21.10.219,484.6,121.2,0,19.0,,68257.4,14.65,-0.52,0.74,0.41,-13.4,18.5,8.1,35.69,,,,,,,,,,
15.21.10.227,449.3,112.3,0,19.0,,59081.2,16.93,-0.52,0.74,0.4,-14.8,20.5,8.3,35.69,,,,,,,,,,
15.21.10.240,430.6,107.6,0,19.0,,67199.9,14.88,-0.53,0.73,0.4,-15.0,21.5,7.5,35.69,,,,,,,,,,
15.21.10.248,453.8,113.4,0,19.0,,63976.8,15.63,-0.52,0.72,0.38,-14.2,22.5,7.7,35.69,,,,,,,,,,
15.21.10.284,255.2,63.8,0,19.0,,65350.9,15.3,-0.52,0.72,0.37,-12.1,21.4,8.2,35.69,,,,,,,,,,
15.21.10.297,142.6,35.6,0,19.0,,67229.0,14.87,-0.51,0.75,0.37,-6.8,20.5,10.6,35.69,,,,,,,,,,
15.21.10.305,119.1,29.8,0,19.0,,59873.9,16.7,-0.5,0.74,0.37,-7.8,21.0,11.8,35.69,,,,,,,,,,
15.21.10.317,106.7,26.7,0,19.0,,58078.0,17.22,-0.5,0.74,0.36,-7.6,21.1,13.6,35.69,,,,,,,,,,
15.21.10.325,-30.1,7.5,0,19.0,,70005.0,14.28,-0.49,0.74,0.36,-8.0,21.3,16.2,35.69,,,,,,,,,,
15.21.10.338,75.4,18.8,0,19.0,,66362.1,15.07,-0.49,0.74,0.36,-9.3,21.9,17.1,35.69,,,,,,,,,,
15.21.10.350,75.5,18.9,0,19.0,,59010.0,16.95,-0.48,0.74,0.35,-10.7,23.9,15.6,35.69,,,,,,,,,,
15.21.10.358,63.9,16.0,0,19.0,,71480.9,13.99,-0.48,0.73,0.36,-11.8,27.4,13.2,35.69,,,,,,,,,,
15.21.10.371,155.6,38.9,0,19.0,,64142.2,15.59,-0.48,0.73,0.36,-11.6,31.3,11.9,35.69,,,,,,,,,,
15.21.10.379,80.5,20.1,0,19.0,,64930.1,15.4,-0.49,0.72,0.36,-11.4,34.0,10.2,35.69,,,,,,,,,,
15.21.10.391,99.3,24.8,0,19.0,,67093.6,14.9,-0.49,0.73,0.36,-12.8,35.5,9.6,35.69,,,,,,,,,,
15.21.10.399,106.9,26.7,0,19.0,,65270.5,15.32,-0.51,0.74,0.38,-15.0,36.5,8.8,35.69,,,,,,,,,,
15.21.10.411,48.4,12.1,0,19.0,,58273.8,17.16,-0.52,0.76,0.37,-17.1,37.4,9.0,35.69,,,,,,,,,,
15.21.10.424,40.0,10.0,0,19.0,,57388.3,17.43,-0.53,0.76,0.37,-18.8,38.6,10.2,35.69,,,,,,,,,,
15.21.10.432,-7.2,1.8,0,19.0,,72918.8,13.71,-0.52,0.76,0.36,-19.1,40.3,12.0,35.69,,,,,,,,,,
15.21.10.444,20.6,5.2,0,19.0,,67520.6,14.81,-0.52,0.75,0.35,-19.4,41.1,13.4,35.69,,,,,,,,,,
15.21.10.453,6.2,1.6,0,19.0,,65380.0,15.3,-0.52,0.76,0.36,-19.8,41.0,16.1,35.69,,,,,,,,,,
15.21.10.465,-6.4,1.6,0,19.0,,61750.1,16.19,-0.52,0.77,0.35,-19.8,38.3,17.8,35.69,,,,,,,,,,
15.21.10.473,12.8,3.2,0,19.0,,64541.1,15.49,-0.52,0.77,0.36,-18.9,37.7,19.4,35.69,,,,,,,,,,
15.21.10.485,-37.3,9.3,0,19.0,,60350.0,16.57,-0.52,0.78,0.35,-19.3,36.9,19.0,35.69,,,,,,,,,,
15.21.10.498,-14.1,3.5,0,19.0,,66828.4,14.96,-0.53,0.77,0.36,-18.5,37.5,18.2,35.69,,,,,,,,,,
15.21.10.506,-76.5,19.1,0,19.0,,61319.0,16.31,-0.54,0.77,0.35,-17.5,38.1,17.9,35.69,,,,,,,,,,
15.21.10.518,-95.2,23.8,0,19.0,,62399.5,16.03,-0.55,0.77,0.35,-17.1,36.1,18.0,35.69,,,,,,,,,,
15.21.10.526,-54.3,13.6,0,19.0,,69299.7,14.43,-0.55,0.77,0.33,-15.5,35.4,18.5,35.69,,,,,,,,,,
15.21.10.539,-55.6,13.9,0,19.0,,63019.9,15.87,-0.55,0.77,0.33,-13.2,34.7,18.4,35.69,,,,,,,,,,
15.21.10.547,-94.1,23.5,0,19.0,,65093.0,15.36,-0.55,0.78,0.32,-10.3,36.0,18.2,35.69,,,,,,,,,,
15.21.10.559,-71.6,17.9,0,19.0,,62235.4,16.07,-0.55,0.78,0.31,-9.9,36.1,17.6,35.69,,,,,,,,,,
15.21.10.571,-127.1,31.8,0,19.0,,63519.2,15.74,-0.54,0.79,0.31,-10.6,36.9,16.1,35.69,,,,,,,,,,
15.21.10.579,-70.9,17.7,0,19.0,,61376.8,16.29,-0.53,0.79,0.3,-10.2,38.7,15.7,35.69,,,,,,,,,,
15.21.10.592,-49.8,12.4,0,19.0,,71876.2,13.91,-0.52,0.81,0.3,-9.8,37.4,17.0,35.69,,,,,,,,,,
15.21.10.604,-120.4,30.1,0,19.0,,61022.8,16.39,-0.51,0.82,0.31,-10.8,35.0,19.1,35.69,,,,,,,,,,
15.21.10.612,-121.5,30.4,0,19.0,,65766.7,15.21,-0.5,0.82,0.31,-14.4,36.4,18.4,35.69,,,,,,,,,,
15.21.10.625,-123.7,30.9,0,19.0,,66436.3,15.05,-0.5,0.8,0.3,-18.1,39.9,17.2,35.69,,,,,,,,,,
15.21.10.637,-129.2,32.3,0,19.0,,65494.5,15.27,-0.51,0.8,0.3,-19.8,43.7,17.3,35.69,,,,,,,,,,
15.21.10.645,-254.2,63.6,0,19.0,,63929.6,15.64,-0.52,0.8,0.29,-19.0,46.9,18.4,35.69,,,,,,,,,,
15.21.10.657,-113.5,28.4,0,19.0,,64564.3,15.49,-0.52,0.79,0.28,-18.1,46.3,18.8,35.69,,,,,,,,,,
15.21.10.666,-174.2,43.6,0,19.0,,66455.3,15.05,-0.52,0.79,0.29,-18.5,45.8,18.0,35.69,,,,,,,,,,
15.21.10.678,-109.9,27.5,0,19.0,,59751.8,16.74,-0.51,0.79,0.3,-19.2,46.0,16.8,35.69,,,,,,,,,,
15.21.10.686,-113.3,28.3,0,19.0,,59798.1,16.72,-0.5,0.79,0.31,-19.9,44.6,16.0,35.69,,,,,,,,,,
15.21.10.698,-138.4,34.6,0,19.0,,62418.6,16.02,-0.49,0.79,0.32,-18.3,45.5,16.0,35.69,,,,,,,,,,
15.21.10.707,-218.4,54.6,0,19.0,,63147.4,15.84,-0.48,0.8,0.32,-16.8,46.3,15.8,35.69,,,,,,,,,,
15.21.10.719,-186.1,46.5,0,19.0,,62543.8,15.99,-0.48,0.8,0.32,-17.8,47.4,15.1,35.69,,,,,,,,,,
15.21.10.731,-173.0,43.2,0,19.0,,64234.2,15.57,-0.48,0.81,0.33,-19.5,48.6,15.2,35.69,,,,,,,,,,
15.21.10.739,14.0,3.5,1,20.0,97.5,63382.7,15.78,-0.48,0.81,0.33,-21.3,48.6,17.6,35.69,,,,,,,,,,
15.21.10.752,65.3,16.3,0,20.0,,63300.9,15.8,-0.48,0.82,0.34,-23.5,47.8,20.8,35.69,,,,,,,,,,
15.21.10.760,191.3,47.8,0,20.0,,62200.4,16.08,-0.48,0.82,0.35,-26.7,47.6,22.8,35.69,,,,,,,,,,
15.21.10.772,241.6,60.4,0,20.0,,64862.4,15.42,-0.48,0.82,0.35,-29.9,47.8,23.2,35.69,,,,,,,,,,
15.21.10.780,241.0,60.2,0,20.0,,64551.7,15.49,-0.48,0.82,0.35,-31.7,48.4,23.4,35.69,,,,,,,,,,
15.21.10.792,370.2,92.6,0,20.0,,66978.2,14.93,-0.47,0.81,0.35,-32.4,47.6,22.9,35.69,,,,,,,,,,
15.21.10.801,408.6,102.2,0,20.0,,62028.9,16.12,-0.47,0.79,0.34,-31.2,47.4,21.8,35.69,,,,,,,,,,
15.21.10.813,473.1,118.3,0,20.0,,63664.6,15.71,-0.47,0.78,0.33,-27.2,47.7,21.3,35.69,,,,,,,,,,
15.21.10.825,500.5,125.1,0,20.0,,59076.4,16.93,-0.47,0.78,0.32,-21.7,47.4,20.9,35.69,,,,,,,,,,
15.21.10.833,479.1,119.8,0,20.0,,68099.5,14.68,-0.49,0.8,0.32,-16.6,47.7,21.6,35.69,,,,,,,,,,
15.21.10.846,496.4,124.1,0,20.0,,66658.2,15.0,-0.5,0.82,0.32,-14.1,48.5,20.2,35.69,,,,,,,,,,
15.21.10.854,498.6,124.6,0,20.0,,69208.3,14.45,-0.52,0.85,0.33,-16.6,48.7,18.5,35.69,,,,,,,,,,
15.21.10.866,441.8,110.4,0,20.0,,66670.9,15.0,-0.52,0.85,0.34,-21.1,47.4,16.0,35.69,,,,,,,,,,
15.21.10.875,469.5,117.4,0,20.0,,65284.9,15.32,-0.52,0.85,0.33,-25.5,46.0,14.7,35.69,,,,,,,,,,
15.21.10.887,467.6,116.9,0,20.0,,65310.5,15.31,-0.51,0.83,0.33,-27.3,42.2,13.5,35.69,,,,,,,,,,
15.21.10.895,314.2,78.6,0,20.0,,67092.2,14.9,-0.5,0.81,0.33,-24.9,40.9,14.2,35.69,,,,,,,,,,
15.21.10.907,372.9,93.2,0,20.0,,62670.4,15.96,-0.49,0.81,0.32,-21.4,40.3,12.8,35.69,,,,,,,,,,
15.21.10.919,236.8,59.2,0,20.0,,65924.1,15.17,-0.48,0.81,0.33,-18.4,39.6,10.9,35.69,,,,,,,,,,
15.21.10.928,187.6,46.9,0,20.0,,67598.5,14.79,-0.47,0.8,0.33,-14.9,38.6,9.3,35.69,,,,,,,,,,
15.21.10.940,89.1,22.3,0,20.0,,63238.0,15.81,-0.47,0.8,0.33,-11.5,37.5,7.8,35.69,,,,,,,,,,
15.21.10.948,44.0,11.0,0,20.0,,63307.9,15.8,-0.48,0.82,0.33,-8.2,35.2,7.2,35.69,,,,,,,,,,
15.21.10.961,50.0,12.5,0,20.0,,57404.7,17.42,-0.48,0.82,0.33,-7.0,33.1,6.6,35.69,,,,,,,,,,
15.21.10.969,32.1,8.0,0,20.0,,65904.4,15.17,-0.48,0.83,0.33,-6.9,32.1,5.6,35.69,,,,,,,,,,
15.21.10.981,48.3,12.1,0,20.0,,69273.6,14.44,-0.49,0.81,0.34,-8.0,30.9,6.9,35.69,,,,,,,,,,
15.21.10.989,52.2,13.0,0,20.0,,64931.8,15.4,-0.5,0.83,0.35,-9.2,28.1,9.9,35.69,,,,,,,,,,
15.21.11.001,89.9,22.5,0,20.0,,64154.9,15.59,-0.5,0.82,0.34,-11.2,26.7,13.1,35.69,,,,,,,,,,
15.21.11.014,120.1,30.0,0,20.0,,61066.2,16.38,-0.5,0.82,0.34,-13.6,25.4,14.7,35.69,,,,,,,,,,
15.21.11.026,68.6,17.2,0,20.0,,68098.8,14.68,-0.49,0.8,0.33,-14.4,24.9,16.6,35.69,,,,,,,,,,
15.21.11.034,98.0,24.5,0,20.0,,67749.2,14.76,-0.5,0.78,0.33,-13.2,23.0,17.2,35.69,,,,,,,,,,
15.21.11.047,88.1,22.0,0,20.0,,68545.6,14.59,-0.5,0.78,0.32,-11.4,23.7,16.0,35.69,,,,,,,,,,
15.21.11.055,28.3,7.1,0,20.0,,67889.7,14.73,-0.51,0.78,0.31,-10.3,25.1,14.5,35.69,,,,,,,,,,
15.21.11.096,39.3,9.8,0,20.0,,67018.6,14.92,-0.53,0.78,0.31,-9.1,24.9,13.2,35.69,,,,,,,,,,
15.21.11.104,68.4,17.1,0,20.0,,61037.0,16.38,-0.53,0.81,0.31,-11.0,23.6,4.5,35.69,,,,,,,,,,
15.21.11.116,-49.5,12.4,0,20.0,,60081.4,16.64,-0.53,0.81,0.32,-10.2,22.3,4.5,35.69,,,,,,,,,,
15.21.11.124,-63.8,16.0,0,20.0,,64930.8,15.4,-0.54,0.82,0.32,-8.5,19.1,5.1,35.69,,,,,,,,,,
15.21.11.137,-45.9,11.5,0,20.0,,65043.5,15.37,-0.54,0.82,0.33,-8.1,18.1,4.5,35.69,,,,,,,,,,
15.21.11.145,-69.5,17.4,0,20.0,,57699.4,17.33,-0.54,0.81,0.32,-8.0,17.5,2.3,35.69,,,,,,,,,,
15.21.11.157,4.1,1.0,0,20.0,,66745.7,14.98,-0.54,0.81,0.32,-7.0,15.6,1.0,35.69,,,,,,,,,,
15.21.11.165,-56.2,14.0,0,20.0,,69702.8,14.35,-0.53,0.81,0.33,-4.4,13.3,0.9,35.69,,,,,,,,,,
15.21.11.178,-49.9,12.5,0,20.0,,68120.0,14.68,-0.53,0.81,0.32,-2.3,11.0,0.9,35.69,,,,,,,,,,
15.21.11.186,-86.2,21.6,0,20.0,,66310.8,15.08,-0.52,0.81,0.34,-2.4,9.9,0.6,35.69,,,,,,,,,,
15.21.11.198,-69.7,17.4,0,20.0,,62289.8,16.05,-0.52,0.81,0.35,-3.5,8.7,0.2,35.69,,,,,,,,,,
15.21.11.206,-82.1,20.5,0,20.0,,61285.6,16.32,-0.51,0.81,0.35,-4.2,7.0,1.0,35.69,,,,,,,,,,
15.21.11.219,-101.0,25.2,0,20.0,,64274.4,15.56,-0.5,0.81,0.35,-4.5,5.6,2.8,35.69,,,,,,,,,,
15.21.11.227,-94.3,23.6,0,20.0,,68843.3,14.53,-0.49,0.8,0.36,-5.3,4.1,3.4,35.69,,,,,,,,,,
15.21.11.239,-82.2,20.6,0,20.0,,67784.7,14.75,-0.48,0.78,0.36,-5.6,4.2,2.2,35.69,,,,,,,,,,
15.21.11.251,-117.9,29.5,0,20.0,,58858.1,16.99,-0.48,0.77,0.36,-5.0,4.9,-0.3,35.69,,,,,,,,,,
15.21.11.259,-73.8,18.4,0,20.0,,62063.2,16.11,-0.49,0.77,0.35,-3.4,6.1,-4.2,35.69,,,,,,,,,,
15.21.11.272,-118.9,29.7,0,20.0,,56716.1,17.63,-0.51,0.77,0.33,-1.9,7.6,-6.8,35.69,,,,,,,,,,
15.21.11.280,-94.7,23.7,0,20.0,,60754.2,16.46,-0.55,0.78,0.32,-4.0,7.4,-8.5,35.69,,,,,,,,,,
15.21.11.292,-134.1,33.5,0,20.0,,63414.9,15.77,-0.56,0.81,0.34,-6.5,5.0,-6.5,35.69,,,,,,,,,,
15.21.11.300,-137.5,34.4,0,20.0,,61399.3,16.29,-0.54,0.81,0.35,-9.1,2.4,-4.1,35.69,,,,,,,,,,
15.21.11.313,-146.3,36.6,0,20.0,,65853.3,15.19,-0.55,0.8,0.34,-12.0,1.1,-3.0,35.69,,,,,,,,,,
15.21.11.321,-196.7,49.2,0,20.0,,65816.5,15.19,-0.54,0.79,0.33,-12.7,0.6,-3.2,35.69,,,,,,,,,,
15.21.11.332,-105.3,26.3,0,20.0,,65521.0,15.26,-0.55,0.79,0.32,-9.9,0.0,-2.8,35.69,,,,,,,,,,
15.21.11.341,-137.1,34.3,0,20.0,,69271.8,14.44,-0.55,0.78,0.3,-4.9,-1.6,-1.6,35.69,,,,,,,,,,
15.21.11.354,-203.9,51.0,0,20.0,,65753.1,15.21,-0.54,0.77,0.29,-0.5,-4.6,-2.4,35.69,,,,,,,,,,
15.21.11.362,-258.1,64.5,0,20.0,,64180.1,15.58,-0.52,0.77,0.3,4.3,-5.9,-2.8,35.69,,,,,,,,,,
15.21.11.374,67.5,16.9,1,21.0,89.9,64091.5,15.6,-0.5,0.76,0.31,8.4,-8.7,-3.2,35.69,,,,,,,,,,
15.21.11.387,95.9,24.0,0,21.0,,66440.9,15.05,-0.48,0.76,0.32,11.2,-10.8,-2.3,35.69,,,,,,,,,,
15.21.11.395,181.3,45.3,0,21.0,,65890.9,15.18,-0.46,0.76,0.33,12.9,-11.4,-0.4,35.69,,,,,,,,,,
15.21.11.407,218.5,54.6,0,21.0,,67943.5,14.72,-0.45,0.78,0.34,11.9,-11.2,1.3,35.69,,,,,,,,,,
15.21.11.415,254.6,63.6,0,21.0,,58470.7,17.1,-0.44,0.77,0.35,8.2,-10.5,1.7,35.69,,,,,,,,,,
15.21.11.427,358.4,89.6,0,21.0,,68907.5,14.51,-0.43,0.78,0.37,3.3,-8.5,0.8,35.69,,,,,,,,,,
15.21.11.436,403.9,101.0,0,21.0,,60230.1,16.6,-0.43,0.77,0.37,-2.1,-4.1,-1.7,35.69,,,,,,,,,,
15.21.11.448,491.0,122.8,0,21.0,,65816.1,15.19,-0.45,0.75,0.36,-6.3,1.4,-3.7,35.69,,,,,,,,,,
15.21.11.460,449.5,112.4,0,21.0,,66970.0,14.93,-0.46,0.74,0.36,-8.9,6.6,-4.9,35.69,,,,,,,,,,
15.21.11.468,465.4,116.4,0,21.0,,66107.1,15.13,-0.48,0.73,0.34,-8.7,10.2,-5.4,35.69,,,,,,,,,,
15.21.11.481,504.4,126.1,0,21.0,,65159.9,15.35,-0.47,0.74,0.34,-7.0,11.0,-5.8,35.69,,,,,,,,,,
15.21.11.489,471.8,118.0,0,21.0,,65594.6,15.25,-0.48,0.75,0.35,-4.6,10.9,-7.3,35.69,,,,,,,,,,
15.21.11.501,413.4,103.4,0,21.0,,62083.4,16.11,-0.49,0.76,0.36,-3.3,10.1,-9.3,35.69,,,,,,,,,,
15.21.11.514,417.8,104.4,0,21.0,,65109.4,15.36,-0.49,0.79,0.36,-3.2,10.4,-9.9,35.69,,,,,,,,,,
15.21.11.522,403.6,100.9,0,21.0,,66302.0,15.08,-0.5,0.79,0.36,-3.9,9.0,-11.2,35.69,,,,,,,,,,
15.21.11.534,308.0,77.0,0,21.0,,66727.8,14.99,-0.5,0.79,0.36,-4.5,8.1,-10.1,35.69,,,,,,,,,,
15.21.11.542,294.5,73.6,0,21.0,,65227.1,15.33,-0.52,0.79,0.37,-4.1,5.6,-7.0,35.69,,,,,,,,,,
15.21.11.555,203.1,50.8,0,21.0,,67561.1,14.8,-0.51,0.79,0.37,-2.6,1.5,-2.5,35.69,,,,,,,,,,
15.21.11.567,96.0,24.0,0,21.0,,67880.9,14.73,-0.51,0.79,0.38,-1.7,-0.6,0.7,35.69,,,,,,,,,,
15.21.11.575,123.9,31.0,0,21.0,,66462.1,15.05,-0.5,0.78,0.37,-0.6,-2.3,2.3,35.69,,,,,,,,,,
15.21.11.587,-15.5,3.9,0,21.0,,65784.8,15.2,-0.51,0.77,0.36,1.1,-4.1,3.5,35.69,,,,,,,,,,
15.21.11.596,-22.5,5.6,0,21.0,,60544.4,16.52,-0.5,0.77,0.37,3.8,-6.0,5.1,35.69,,,,,,,,,,
15.21.11.608,-50.7,12.7,0,21.0,,60907.8,16.42,-0.49,0.77,0.37,5.9,-8.5,6.3,35.69,,,,,,,,,,
15.21.11.616,60.5,15.1,0,21.0,,68905.1,14.51,-0.48,0.78,0.37,6.7,-10.2,6.2,35.69,,,,,,,,,,
15.21.11.628,71.3,17.8,0,21.0,,64830.1,15.42,-0.48,0.77,0.39,5.1,-8.4,4.0,35.69,,,,,,,,,,
15.21.11.640,82.7,20.7,0,21.0,,67378.0,14.84,-0.47,0.77,0.39,4.0,-4.2,2.6,35.69,,,,,,,,,,
15.21.11.653,97.9,24.5,0,21.0,,69637.9,14.36,-0.49,0.78,0.39,2.9,-1.7,3.3,35.69,,,,,,,,,,
15.21.11.661,50.4,12.6,0,21.0,,64156.0,15.59,-0.49,0.78,0.4,1.1,-0.3,4.2,35.69,,,,,,,,,,
15.21.11.673,107.2,26.8,0,21.0,,68480.5,14.6,-0.48,0.77,0.4,-2.7,2.2,3.0,35.69,,,,,,,,,,
15.21.11.681,92.5,23.1,0,21.0,,63656.3,15.71,-0.48,0.76,0.4,-5.4,4.4,1.4,35.69,,,,,,,,,,
15.21.11.694,5.4,1.4,0,21.0,,60508.0,16.53,-0.49,0.75,0.4,-6.3,5.4,0.9,35.69,,,,,,,,,,
15.21.11.702,71.9,18.0,0,21.0,,66349.8,15.07,-0.5,0.75,0.41,-4.3,5.4,1.4,35.69,,,,,,,,,,
15.21.11.714,-25.5,6.4,0,21.0,,68462.3,14.61,-0.5,0.75,0.4,-2.3,5.1,1.6,35.69,,,,,,,,,,
15.21.11.723,-34.7,8.7,0,21.0,,68935.5,14.51,-0.5,0.75,0.39,-1.5,5.4,-0.4,35.69,,,,,,,,,,
15.21.11.735,-103.7,25.9,0,21.0,,65074.3,15.37,-0.51,0.76,0.38,-0.8,6.4,-1.3,35.69,,,,,,,,,,
15.21.11.743,15.4,3.8,0,21.0,,63284.1,15.8,-0.52,0.76,0.39,-0.1,4.7,-0.3,35.69,,,,,,,,,,
15.21.11.755,-11.3,2.8,0,21.0,,61659.4,16.22,-0.52,0.78,0.4,1.1,2.0,3.1,35.69,,,,,,,,,,
15.21.11.763,-34.0,8.5,0,21.0,,61777.5,16.19,-0.52,0.78,0.39,1.4,-1.0,6.0,35.69,,,,,,,,,,
15.21.11.776,-37.4,9.4,0,21.0,,65514.0,15.26,-0.51,0.78,0.4,0.8,-1.7,6.6,35.69,,,,,,,,,,
15.21.11.784,-80.6,20.2,0,21.0,,73600.2,13.59,-0.5,0.78,0.39,0.0,-0.7,5.8,35.69,,,,,,,,,,
15.21.11.796,-78.2,19.6,0,21.0,,66126.6,15.12,-0.49,0.77,0.4,-0.4,-0.1,5.2,35.69,,,,,,,,,,
15.21.11.804,-121.8,30.4,0,21.0,,65664.3,15.23,-0.49,0.77,0.4,1.1,-0.3,5.5,35.69,,,,,,,,,,
15.21.11.817,-78.9,19.7,0,21.0,,66318.1,15.08,-0.49,0.78,0.4,2.4,0.1,5.8,35.69,,,,,,,,,,
15.21.11.825,-120.4,30.1,0,21.0,,63968.7,15.63,-0.49,0.78,0.39,1.3,1.6,4.7,35.69,,,,,,,,,,
15.21.11.837,-26.8,6.7,0,21.0,,67073.6,14.91,-0.48,0.78,0.4,0.1,4.6,4.3,35.69,,,,,,,,,,
15.21.11.845,-61.9,15.5,0,21.0,,63726.9,15.69,-0.5,0.78,0.4,-1.3,6.4,5.5,35.69,,,,,,,,,,
15.21.11.858,-117.2,29.3,0,21.0,,69266.3,14.44,-0.48,0.76,0.39,-1.5,5.8,7.0,35.69,,,,,,,,,,
15.21.11.899,-156.9,39.2,0,21.0,,62837.5,15.91,-0.47,0.77,0.4,-3.7,10.7,4.7,35.63,,,,,,,,,,
15.21.11.907,-150.1,37.5,0,21.0,,63184.7,15.83,-0.47,0.76,0.4,-3.1,12.0,3.9,35.63,,,,,,,,,,
15.21.11.919,-156.0,39.0,0,21.0,,65453.3,15.28,-0.47,0.76,0.4,-3.1,12.9,2.5,35.63,,,,,,,,,,
15.21.11.931,-108.5,27.1,0,21.0,,64174.4,15.58,-0.48,0.77,0.4,-2.9,13.3,1.9,35.63,,,,,,,,,,
15.21.11.944,-150.7,37.7,0,21.0,,67328.9,14.85,-0.48,0.76,0.39,-2.8,13.3,2.3,35.63,,,,,,,,,,
15.21.11.952,-190.8,47.7,0,21.0,,66743.9,14.98,-0.49,0.77,0.4,-2.5,12.6,4.4,35.63,,,,,,,,,,
15.21.11.964,-159.1,39.8,0,21.0,,64926.2,15.4,-0.48,0.78,0.4,-2.3,12.6,5.4,35.63,,,,,,,,,,
15.21.11.976,-218.9,54.7,0,21.0,,65012.5,15.38,-0.47,0.77,0.42,-2.3,13.2,5.0,35.63,,,,,,,,,,
15.21.11.985,-133.8,33.4,0,21.0,,64279.2,15.56,-0.47,0.77,0.42,-2.1,14.6,4.2,35.63,,,,,,,,,,
15.21.11.997,-269.3,67.3,0,21.0,,64806.6,15.43,-0.47,0.78,0.41,-3.1,14.9,4.8,35.63,,,,,,,,,,
15.21.12.009,64.6,16.2,1,22.0,92.0,58897.1,16.98,-0.47,0.78,0.42,-3.8,14.8,6.0,35.63,,,,,,,,,,
15.21.12.021,137.9,34.5,0,22.0,,59099.5,16.92,-0.47,0.78,0.42,-5.8,16.1,5.9,35.63,,,,,,,,,,
15.21.12.030,182.9,45.7,0,22.0,,58331.4,17.14,-0.47,0.78,0.4,-7.6,17.3,6.4,35.63,,,,,,,,,,
15.21.12.042,314.2,78.6,0,22.0,,65708.9,15.22,-0.47,0.77,0.41,-8.3,18.0,7.0,35.63,,,,,,,,,,
15.21.12.054,342.2,85.6,0,22.0,,67138.1,14.89,-0.46,0.76,0.4,-7.7,18.0,7.9,35.63,,,,,,,,,,
15.21.12.067,336.6,84.2,0,22.0,,61793.7,16.18,-0.45,0.76,0.41,-7.5,17.5,7.3,35.63,,,,,,,,,,
15.21.12.075,395.2,98.8,0,22.0,,65608.5,15.24,-0.44,0.75,0.41,-7.0,18.2,6.1,35.63,,,,,,,,,,
15.21.12.087,492.0,123.0,0,22.0,,69215.5,14.45,-0.45,0.75,0.41,-6.6,19.5,4.9,35.63,,,,,,,,,,
15.21.12.099,439.4,109.8,0,22.0,,66660.1,15.0,-0.45,0.75,0.41,-6.0,19.8,5.6,35.63,,,,,,,,,,
15.21.12.107,410.8,102.7,0,22.0,,62582.5,15.98,-0.46,0.75,0.41,-5.3,19.9,7.5,35.63,,,,,,,,,,
15.21.12.120,485.4,121.4,0,22.0,,59448.4,16.82,-0.46,0.77,0.4,-6.4,19.6,8.6,35.63,,,,,,,,,,
15.21.12.132,487.8,122.0,0,22.0,,64897.9,15.41,-0.46,0.76,0.4,-8.8,19.9,8.4,35.63,,,,,,,,,,
15.21.12.144,450.2,112.6,0,22.0,,65624.4,15.24,-0.45,0.75,0.4,-10.2,20.7,7.6,35.63,,,,,,,,,,
15.21.12.153,355.6,88.9,0,22.0,,64135.0,15.59,-0.45,0.74,0.39,-9.4,20.9,7.4,35.63,,,,,,,,,,
15.21.12.165,380.7,95.2,0,22.0,,61625.5,16.23,-0.45,0.74,0.39,-7.3,21.8,6.9,35.63,,,,,,,,,,
15.21.12.177,294.0,73.5,0,22.0,,67982.8,14.71,-0.47,0.75,0.39,-7.1,23.6,5.5,35.63,,,,,,,,,,
15.21.12.185,258.2,64.6,0,22.0,,68170.5,14.67,-0.47,0.76,0.38,-7.8,24.8,3.7,35.63,,,,,,,,,,
15.21.12.198,150.0,37.5,0,22.0,,66234.6,15.1,-0.48,0.77,0.39,-6.9,24.8,4.0,35.63,,,,,,,,,,
15.21.12.210,127.9,32.0,0,22.0,,59607.2,16.78,-0.48,0.77,0.38,-5.5,24.3,5.4,35.63,,,,,,,,,,
15.21.12.218,-41.3,10.3,0,22.0,,62217.7,16.07,-0.48,0.78,0.37,-4.1,24.6,6.5,35.63,,,,,,,,,,
15.21.12.230,-24.6,6.2,0,22.0,,67189.9,14.88,-0.49,0.8,0.38,-4.0,24.3,7.5,35.63,,,,,,,,,,
15.21.12.243,74.4,18.6,0,22.0,,64700.7,15.46,-0.48,0.8,0.37,-4.3,24.7,7.7,35.63,,,,,,,,,,
15.21.12.255,27.4,6.8,0,22.0,,61095.6,16.37,-0.48,0.81,0.37,-5.2,24.0,8.3,35.63,,,,,,,,,,
15.21.12.263,37.7,9.4,0,22.0,,64165.6,15.58,-0.49,0.82,0.37,-6.1,24.8,7.5,35.63,,,,,,,,,,
15.21.12.275,64.1,16.0,0,22.0,,67256.8,14.87,-0.5,0.81,0.36,-5.9,26.5,5.8,35.63,,,,,,,,,,
15.21.12.288,141.7,35.4,0,22.0,,62235.7,16.07,-0.51,0.82,0.34,-5.4,26.8,4.0,35.63,,,,,,,,,,
15.21.12.296,77.6,19.4,0,22.0,,69995.4,14.29,-0.5,0.81,0.34,-3.7,24.3,3.3,35.63,,,,,,,,,,
15.21.12.308,16.8,4.2,0,22.0,,63793.1,15.68,-0.48,0.8,0.34,-2.3,20.0,3.6,35.63,,,,,,,,,,
15.21.12.320,26.1,6.5,0,22.0,,63790.4,15.68,-0.45,0.79,0.35,-0.3,15.6,6.8,35.63,,,,,,,,,,
15.21.12.329,19.1,4.8,0,22.0,,65681.5,15.22,-0.43,0.79,0.37,1.3,14.0,10.3,35.63,,,,,,,,,,
15.21.12.341,33.6,8.4,0,22.0,,65741.8,15.21,-0.43,0.81,0.38,-0.6,16.0,11.8,35.63,,,,,,,,,,
15.21.12.353,-47.7,11.9,0,22.0,,63085.2,15.85,-0.44,0.81,0.38,-5.5,20.5,10.4,35.63,,,,,,,,,,
15.21.12.366,-24.8,6.2,0,22.0,,60253.1,16.6,-0.45,0.79,0.37,-10.3,23.7,9.7,35.63,,,,,,,,,,
15.21.12.374,-27.8,7.0,0,22.0,,64693.4,15.46,-0.46,0.76,0.35,-11.7,22.5,9.6,35.63,,,,,,,,,,
15.21.12.386,-22.9,5.7,0,22.0,,66433.6,15.05,-0.47,0.75,0.34,-10.7,19.2,10.0,35.63,,,,,,,,,,
15.21.12.398,-9.3,2.3,0,22.0,,64635.5,15.47,-0.48,0.76,0.35,-8.4,17.8,8.7,35.63,,,,,,,,,,
15.21.12.407,-50.8,12.7,0,22.0,,60446.9,16.54,-0.48,0.77,0.34,-7.5,18.9,5.2,35.63,,,,,,,,,,
15.21.12.419,21.5,5.4,0,22.0,,62383.8,16.03,-0.48,0.78,0.34,-6.0,19.3,2.4,35.63,,,,,,,,,,
15.21.12.431,-89.9,22.5,0,22.0,,68110.0,14.68,-0.5,0.78,0.33,-4.4,16.6,2.7,35.63,,,,,,,,,,
15.21.12.443,-50.8,12.7,0,22.0,,63578.0,15.73,-0.5,0.78,0.33,-0.9,13.0,5.2,35.63,,,,,,,,,,
15.21.12.456,-68.7,17.2,0,22.0,,61680.1,16.21,-0.5,0.79,0.33,2.1,8.9,7.1,35.63,,,,,,,,,,
15.21.12.464,-33.6,8.4,0,22.0,,63784.2,15.68,-0.48,0.81,0.33,3.6,7.2,8.0,35.63,,,,,,,,,,
15.21.12.476,-85.3,21.3,0,22.0,,61337.6,16.3,-0.49,0.81,0.32,4.1,5.7,7.4,35.63,,,,,,,,,,
15.21.12.488,-115.9,29.0,0,22.0,,64301.4,15.55,-0.48,0.81,0.33,5.6,4.3,8.5,35.63,,,,,,,,,,
15.21.12.497,-180.7,45.2,0,22.0,,64538.1,15.49,-0.48,0.81,0.33,7.1,1.2,11.8,35.63,,,,,,,,,,
15.21.12.509,-67.4,16.8,0,22.0,,67561.8,14.8,-0.47,0.8,0.34,7.0,-2.0,13.5,35.63,,,,,,,,,,
15.21.12.521,-162.7,40.7,0,22.0,,63766.8,15.68,-0.46,0.8,0.33,5.8,-1.7,13.4,35.63,,,,,,,,,,
15.21.12.534,-103.9,26.0,0,22.0,,63011.9,15.87,-0.46,0.8,0.34,3.6,-0.6,11.9,35.63,,,,,,,,,,
15.21.12.542,-108.9,27.2,0,22.0,,57835.2,17.29,-0.45,0.79,0.35,2.8,2.3,12.2,35.63,,,,,,,,,,
15.21.12.554,-149.3,37.3,0,22.0,,70331.2,14.22,-0.45,0.79,0.36,2.1,4.3,11.5,35.63,,,,,,,,,,
15.21.12.566,-151.6,37.9,0,22.0,,66900.5,14.95,-0.44,0.8,0.37,0.3,6.9,9.1,35.63,,,,,,,,,,
15.21.12.579,-158.7,39.7,0,22.0,,67647.5,14.78,-0.44,0.8,0.37,-2.2,11.0,4.3,35.63,,,,,,,,,,
15.21.12.587,-103.9,26.0,0,22.0,,65480.9,15.27,-0.45,0.79,0.36,-3.0,14.2,0.8,35.63,,,,,,,,,,
15.21.12.599,-202.3,50.6,0,22.0,,64147.2,15.59,-0.46,0.8,0.37,-2.3,14.7,0.5,35.63,,,,,,,,,,
15.21.12.611,-175.1,43.8,0,22.0,,63564.1,15.73,-0.47,0.8,0.37,-1.4,14.2,0.8,35.63,,,,,,,,,,
15.21.12.620,-202.4,50.6,0,22.0,,59998.5,16.67,-0.46,0.81,0.38,-1.0,14.1,0.4,35.63,,,,,,,,,,
15.21.12.632,-12.9,3.2,1,23.0,94.3,56177.3,17.8,-0.46,0.82,0.38,-1.2,13.2,0.0,35.63,,,,,,,,,,
15.21.12.644,99.8,25.0,0,23.0,,64474.8,15.51,-0.47,0.81,0.37,0.1,10.4,1.3,35.63,,,,,,,,,,
15.21.12.656,200.0,50.0,0,23.0,,65774.1,15.2,-0.47,0.81,0.37,2.1,7.6,2.8,35.63,,,,,,,,,,
15.21.12.693,352.1,88.0,0,23.0,,63126.4,15.84,-0.46,0.81,0.36,3.5,5.4,4.8,35.63,,,,,,,,,,
15.21.12.706,406.1,101.5,0,23.0,,65786.2,15.2,-0.44,0.82,0.35,3.7,3.1,4.8,35.63,,,,,,,,,,
15.21.12.714,502.7,125.7,0,23.0,,62502.4,16.0,-0.43,0.82,0.36,3.7,3.4,5.4,35.63,,,,,,,,,,
