timestamp,ppg,threshold,beat,beat_count,inst_bpm,gsr_resistance_ohm,gsr_conductance_us,accel_x,accel_y,accel_z,gyro_x,gyro_y,gyro_z,temp_c,window_bpm,window_temp_c,status_message,SpO2,bmi,age,height,weight,env_temp_c,env_humidity_pct
14.30.01.072,,,0,,,122646.1,8.15,0.03,0.97,-0.23,2.4,4.1,-1.5,32.81,88.4,,,98.0,28.5,22.0,167.64,80.0,31.44,45.0
14.30.01.076,18.8,4.7,0,,,122436.5,8.17,0.03,0.96,-0.23,2.7,2.8,-2.4,32.81,,,,,,,,,,
14.30.01.088,71.4,17.8,0,,,119374.9,8.38,0.02,0.97,-0.24,2.6,3.7,-1.2,32.81,,,,,,,,,,
14.30.01.097,122.1,30.5,0,,,122682.9,8.15,0.02,0.97,-0.22,2.7,3.7,-0.6,32.81,,,,,,,,,,
14.30.01.109,148.7,37.2,0,,,120075.8,8.33,0.03,0.97,-0.24,6.6,2.9,-1.4,32.81,,,,,,,,,,
14.30.01.117,198.1,49.5,0,,,120661.8,8.29,0.03,0.96,-0.22,7.9,2.1,-2.1,32.81,,,,,,,,,,
14.30.01.129,237.2,59.3,0,,,119532.3,8.37,0.03,0.97,-0.22,7.7,3.1,-1.3,32.81,,,,,,,,,,
14.30.01.137,245.5,61.4,0,,,122535.8,8.16,0.04,0.96,-0.24,8.2,2.5,-0.9,32.81,,,,,,,,,,
14.30.01.150,262.1,65.5,0,,,120136.8,8.32,0.03,0.96,-0.24,9.3,2.7,-1.7,32.81,,,,,,,,,,
14.30.01.162,322.5,80.6,0,,,120001.7,8.33,0.04,0.96,-0.23,9.4,3.8,-2.5,32.81,,,,,,,,,,
14.30.01.170,311.1,77.8,0,,,121997.4,8.2,0.03,0.97,-0.25,7.7,4.2,-2.6,32.81,,,,,,,,,,
14.30.01.183,330.0,82.5,0,,,122624.2,8.15,0.03,0.96,-0.25,5.5,5.6,-3.0,32.81,,,,,,,,,,
14.30.01.191,357.0,89.2,0,,,120709.5,8.28,0.02,0.97,-0.25,4.2,7.1,-2.9,32.81,,,,,,,,,,
14.30.01.203,315.8,79.0,0,,,118931.4,8.41,0.02,0.97,-0.25,2.8,5.7,-2.0,32.81,,,,,,,,,,
14.30.01.211,361.0,90.2,0,,,122327.0,8.17,0.02,0.97,-0.24,3.7,5.4,-1.6,32.81,,,,,,,,,,
14.30.01.224,288.0,72.0,0,,,119531.5,8.37,0.02,0.96,-0.24,4.8,5.2,-2.0,32.81,,,,,,,,,,
14.30.01.232,282.1,70.5,0,,,120191.9,8.32,0.03,0.96,-0.24,5.4,6.5,-1.8,32.81,,,,,,,,,,
14.30.01.244,266.0,66.5,0,,,120414.4,8.3,0.03,0.95,-0.25,7.6,6.0,-1.8,32.81,,,,,,,,,,
14.30.01.256,192.8,48.2,0,,,120119.1,8.33,0.02,0.97,-0.25,7.4,5.9,-1.2,32.81,,,,,,,,,,
14.30.01.265,150.3,37.6,0,,,120331.5,8.31,0.03,0.97,-0.26,5.7,5.2,-0.4,32.81,,,,,,,,,,
14.30.01.277,120.3,30.1,0,,,121325.8,8.24,0.02,0.97,-0.27,4.0,5.4,-0.4,32.81,,,,,,,,,,
14.30.01.285,93.3,23.3,0,,,119922.1,8.34,0.03,0.97,-0.27,1.3,4.0,-0.2,32.81,,,,,,,,,,
14.30.01.297,41.0,10.2,0,,,119862.1,8.34,0.03,0.96,-0.25,-0.6,3.5,-0.1,32.81,,,,,,,,,,
14.30.01.305,3.5,0.9,0,,,121000.5,8.26,0.03,0.95,-0.25,-1.9,3.5,-1.3,32.81,,,,,,,,,,
14.30.01.318,19.5,4.9,0,,,121993.8,8.2,0.04,0.96,-0.25,-4.8,4.2,-1.3,32.81,,,,,,,,,,
14.30.01.330,43.6,10.9,0,,,120342.4,8.31,0.04,0.96,-0.26,-8.0,3.7,-0.7,32.81,,,,,,,,,,
14.30.01.338,41.4,10.4,0,,,120294.0,8.31,0.03,0.96,-0.26,-9.7,2.8,-0.8,32.81,,,,,,,,,,
14.30.01.351,62.0,15.5,0,,,121928.4,8.2,0.03,0.95,-0.24,-9.4,2.4,-2.1,32.81,,,,,,,,,,
14.30.01.387,47.6,11.9,0,,,120669.5,8.29,0.02,0.97,-0.26,-8.0,5.7,-2.3,32.81,,,,,,,,,,
14.30.01.396,49.4,12.4,0,,,119373.8,8.38,0.02,0.96,-0.24,-6.6,3.2,-1.9,32.81,,,,,,,,,,
14.30.01.408,28.3,7.1,0,,,118103.9,8.47,0.02,0.96,-0.24,-6.6,4.4,-2.0,32.81,,,,,,,,,,
14.30.01.416,24.5,6.1,0,,,119377.9,8.38,0.03,0.97,-0.23,-5.7,5.7,-1.2,32.81,,,,,,,,,,
14.30.01.428,26.1,6.5,0,,,119476.7,8.37,0.02,0.97,-0.23,-5.4,5.9,-0.9,32.81,,,,,,,,,,
14.30.01.437,-1.7,0.4,0,,,119521.7,8.37,0.02,0.97,-0.23,-5.3,7.0,-0.6,32.81,,,,,,,,,,
14.30.01.449,6.2,1.6,0,,,120365.8,8.31,0.02,0.96,-0.23,-6.5,6.1,0.0,32.81,,,,,,,,,,
14.30.01.461,-10.5,2.6,0,,,117165.4,8.53,0.01,0.96,-0.23,-5.8,4.4,0.6,32.81,,,,,,,,,,
14.30.01.469,-2.1,0.5,0,,,121014.6,8.26,0.02,0.96,-0.21,-4.7,3.8,-0.1,32.81,,,,,,,,,,
14.30.01.482,-35.1,8.8,0,,,119918.3,8.34,0.02,0.96,-0.22,-1.4,3.4,-1.4,32.81,,,,,,,,,,
14.30.01.490,-20.3,5.1,0,,,121513.1,8.23,0.03,0.97,-0.21,2.8,4.0,-1.7,32.81,,,,,,,,,,
14.30.01.502,-20.3,5.1,0,,,122107.3,8.19,0.03,0.95,-0.23,4.5,4.6,-2.0,32.81,,,,,,,,,,
14.30.01.510,-28.8,7.2,0,,,119088.7,8.4,0.03,0.96,-0.24,4.1,5.9,-2.6,32.81,,,,,,,,,,
14.30.01.523,-38.7,9.7,0,,,119593.9,8.36,0.02,0.97,-0.24,3.8,4.5,-3.4,32.81,,,,,,,,,,
14.30.01.531,-45.5,11.4,0,,,120745.1,8.28,0.02,0.97,-0.25,1.6,5.2,-3.4,32.81,,,,,,,,,,
14.30.01.543,-41.8,10.4,0,,,120386.1,8.31,0.03,0.97,-0.25,1.2,4.6,-3.7,32.81,,,,,,,,,,
14.30.01.551,-49.5,12.4,0,,,118874.1,8.41,0.01,0.98,-0.23,0.0,5.5,-2.1,32.81,,,,,,,,,,
14.30.01.564,-58.8,14.7,0,,,120039.6,8.33,0.03,0.96,-0.23,0.0,4.8,-2.1,32.81,,,,,,,,,,
14.30.01.576,-42.6,10.6,0,,,120877.3,8.27,0.03,0.97,-0.23,3.3,5.2,-3.4,32.81,,,,,,,,,,
14.30.01.584,-58.5,14.6,0,,,118728.0,8.42,0.02,0.96,-0.23,2.1,6.9,-2.8,32.81,,,,,,,,,,
14.30.01.596,-82.5,20.6,0,,,118509.6,8.44,0.02,0.96,-0.24,0.2,7.1,-0.9,32.81,,,,,,,,,,
14.30.01.605,-73.0,18.2,0,,,118435.3,8.44,0.02,0.97,-0.24,-1.4,6.0,-0.6,32.81,,,,,,,,,,
14.30.01.617,-80.7,20.2,0,,,117659.5,8.5,0.02,0.96,-0.22,-1.9,4.6,-1.5,32.81,,,,,,,,,,
14.30.01.625,-71.5,17.9,0,,,119564.2,8.36,0.02,0.96,-0.23,-2.5,0.9,-1.5,32.81,,,,,,,,,,
14.30.01.637,-107.3,26.8,0,,,120779.2,8.28,0.02,0.96,-0.23,-1.6,3.5,-2.5,32.81,,,,,,,,,,
14.30.01.646,-84.9,21.2,0,,,120308.8,8.31,0.02,0.96,-0.23,-0.8,2.8,-2.7,32.81,,,,,,,,,,
14.30.01.658,-100.5,25.1,0,,,117221.7,8.53,0.02,0.97,-0.23,-0.1,4.3,-2.5,32.81,,,,,,,,,,
14.30.01.670,-108.0,27.0,0,,,117564.4,8.51,0.02,0.96,-0.23,0.4,5.4,-2.5,32.81,,,,,,,,,,
14.30.01.678,-105.4,26.4,0,,,118443.5,8.44,0.02,0.95,-0.23,0.5,3.9,-2.5,32.81,,,,,,,,,,
14.30.01.691,-119.7,29.9,0,,,119803.4,8.35,0.02,0.97,-0.24,-0.3,3.2,-2.5,32.81,,,,,,,,,,
14.30.01.699,-121.5,30.4,0,,,118859.7,8.41,0.02,0.96,-0.23,0.2,3.7,-3.0,32.81,,,,,,,,,,
14.30.01.711,-121.8,30.4,0,,,117496.1,8.51,0.02,0.97,-0.23,0.1,4.9,-3.0,32.81,,,,,,,,,,
14.30.01.719,-124.2,31.0,0,,,118617.3,8.43,0.02,0.97,-0.24,0.3,4.1,-2.5,32.81,,,,,,,,,,
14.30.01.732,-134.7,33.7,0,,,119352.8,8.38,0.01,0.97,-0.24,-0.3,4.9,-1.7,32.81,,,,,,,,,,
14.30.01.740,4.9,1.2,1,1.0,89.1,119981.5,8.33,0.01,0.97,-0.24,-1.6,2.8,-1.0,32.81,,,,,,,,,,
14.30.01.752,58.6,14.6,0,1.0,,116791.5,8.56,0.01,0.97,-0.24,-2.3,2.5,-0.3,32.81,,,,,,,,,,
14.30.01.760,108.1,27.0,0,1.0,,121650.5,8.22,0.02,0.96,-0.23,-3.3,3.3,-0.7,32.81,,,,,,,,,,
14.30.01.772,161.5,40.4,0,1.0,,118749.5,8.42,0.03,0.97,-0.22,-4.1,2.9,0.2,32.81,,,,,,,,,,
14.30.01.781,179.2,44.8,0,1.0,,122123.4,8.19,0.02,0.96,-0.23,-3.9,2.3,-0.1,32.81,,,,,,,,,,
14.30.01.793,198.8,49.7,0,1.0,,121692.8,8.22,0.02,0.96,-0.23,-5.6,1.9,0.1,32.81,,,,,,,,,,
14.30.01.805,245.8,61.4,0,1.0,,118583.3,8.43,0.03,0.94,-0.22,-5.2,-0.2,-0.4,32.81,,,,,,,,,,
14.30.01.813,254.1,63.5,0,1.0,,121373.3,8.24,0.02,0.97,-0.23,-4.3,1.0,-0.7,32.81,,,,,,,,,,
14.30.01.826,301.8,75.4,0,1.0,,121276.5,8.25,0.02,0.96,-0.23,-2.5,3.2,-0.7,32.81,,,,,,,,,,
14.30.01.834,321.7,80.4,0,1.0,,119354.1,8.38,0.02,0.98,-0.24,-1.3,6.3,0.0,32.81,,,,,,,,,,
14.30.01.846,295.1,73.8,0,1.0,,120477.8,8.3,0.01,0.96,-0.23,-1.6,6.3,0.4,32.81,,,,,,,,,,
14.30.01.854,311.6,77.9,0,1.0,,120865.2,8.27,0.02,0.97,-0.21,-2.1,4.9,0.7,32.81,,,,,,,,,,
14.30.01.867,362.9,90.7,0,1.0,,120912.5,8.27,0.02,0.96,-0.21,-3.1,5.0,0.4,32.81,,,,,,,,,,
14.30.01.879,342.8,85.7,0,1.0,,118935.7,8.41,0.02,0.96,-0.23,-3.8,5.4,0.7,32.81,,,,,,,,,,
14.30.01.887,294.9,73.7,0,1.0,,121410.5,8.24,0.02,0.97,-0.22,-4.2,4.5,1.0,32.81,,,,,,,,,,
14.30.01.899,275.7,68.9,0,1.0,,120336.7,8.31,0.02,0.97,-0.21,-4.3,3.4,0.4,32.81,,,,,,,,,,
14.30.01.908,261.1,65.3,0,1.0,,120183.1,8.32,0.02,0.98,-0.21,-5.4,3.1,0.8,32.81,,,,,,,,,,
14.30.01.920,196.0,49.0,0,1.0,,115025.5,8.69,0.03,0.96,-0.22,-6.2,2.5,0.1,32.81,,,,,,,,,,
14.30.01.928,163.7,40.9,0,1.0,,122849.8,8.14,0.03,0.96,-0.21,-8.5,2.4,0.0,32.81,,,,,,,,,,
14.30.01.940,137.1,34.3,0,1.0,,117960.1,8.48,0.03,0.97,-0.21,-11.9,0.7,0.3,32.81,,,,,,,,,,
14.30.01.953,77.5,19.4,0,1.0,,121261.0,8.25,0.02,0.95,-0.2,-17.6,0.0,0.3,32.81,,,,,,,,,,
14.30.01.961,40.7,10.2,0,1.0,,121274.0,8.25,0.02,0.95,-0.22,-20.0,-2.5,-0.4,32.81,,,,,,,,,,
14.30.01.973,14.8,3.7,0,1.0,,119802.6,8.35,0.03,0.98,-0.2,-18.2,-0.8,-0.8,32.81,,,,,,,,,,
14.30.01.981,2.9,0.7,0,1.0,,120265.3,8.31,0.02,0.98,-0.23,-16.7,1.6,-0.5,32.81,,,,,,,,,,
14.30.01.994,39.5,9.9,0,1.0,,119105.6,8.4,0.01,0.97,-0.2,-18.9,2.0,2.0,32.81,,,,,,,,,,
14.30.02.002,30.8,7.7,0,1.0,,120558.6,8.29,0.02,0.96,-0.2,-20.5,2.7,2.5,32.81,,,,,,,,,,
14.30.02.014,54.9,13.7,0,1.0,,120160.3,8.32,0.02,0.99,-0.2,-17.5,3.8,2.9,32.81,,,,,,,,,,
14.30.02.026,56.5,14.1,0,1.0,,117459.4,8.51,0.02,0.95,-0.2,-6.2,6.7,-0.9,32.81,,,,,,,,,,
14.30.02.035,48.4,12.1,0,1.0,,119663.3,8.36,0.02,0.97,-0.18,-3.8,7.3,-0.8,32.81,,,,,,,,,,
14.30.02.047,60.9,15.2,0,1.0,,119090.8,8.4,0.02,0.97,-0.17,-1.6,6.5,-0.9,32.81,,,,,,,,,,
14.30.02.055,58.5,14.6,0,1.0,,120345.4,8.31,0.02,0.97,-0.17,-0.6,5.2,-0.6,32.81,,,,,,,,,,
14.30.02.067,45.3,11.3,0,1.0,,122445.3,8.17,0.02,0.98,-0.16,-0.8,3.3,0.3,32.81,,,,,,,,,,
14.30.02.076,41.1,10.3,0,1.0,,121115.2,8.26,0.02,0.96,-0.2,-0.3,2.5,0.7,32.81,,,,,,,,,,
14.30.02.088,29.2,7.3,0,1.0,,119003.6,8.4,0.02,0.97,-0.2,0.5,3.6,0.9,32.81,,,,,,,,,,
14.30.02.096,19.6,4.9,0,1.0,,120104.8,8.33,0.03,0.97,-0.21,2.3,3.7,0.4,32.81,,,,,,,,,,
14.30.02.108,3.1,0.8,0,1.0,,117373.2,8.52,0.03,0.97,-0.19,2.0,4.3,0.4,32.81,,,,,,,,,,
14.30.02.117,-10.4,2.6,0,1.0,,120710.6,8.28,0.03,0.98,-0.2,1.6,5.4,0.4,32.81,,,,,,,,,,
14.30.02.129,-7.4,1.8,0,1.0,,119786.5,8.35,0.03,0.98,-0.19,1.9,5.4,-0.7,32.81,,,,,,,,,,
14.30.02.137,-11.1,2.8,0,1.0,,117375.4,8.52,0.03,0.98,-0.19,1.9,6.6,-1.4,32.81,,,,,,,,,,
14.30.02.149,-21.7,5.4,0,1.0,,124060.3,8.06,0.03,0.97,-0.19,0.9,6.7,-1.6,32.81,,,,,,,,,,
14.30.02.162,-31.0,7.8,0,1.0,,122502.1,8.16,0.03,0.97,-0.19,0.6,7.3,-1.8,32.81,,,,,,,,,,
14.30.02.199,-47.0,11.8,0,1.0,,118126.1,8.47,0.03,0.97,-0.18,0.1,6.7,-1.5,32.81,,,,,,,,,,
14.30.02.207,-42.8,10.7,0,1.0,,119372.7,8.38,0.03,0.97,-0.19,0.5,7.1,-0.7,32.81,,,,,,,,,,
14.30.02.219,-41.8,10.4,0,1.0,,119632.0,8.36,0.03,0.98,-0.19,1.0,7.5,-0.6,32.81,,,,,,,,,,
14.30.02.227,-50.7,12.7,0,1.0,,123247.4,8.11,0.03,0.97,-0.19,-0.1,7.3,-0.2,32.81,,,,,,,,,,
14.30.02.239,-57.2,14.3,0,1.0,,120741.0,8.28,0.03,0.97,-0.19,-0.8,6.8,-0.6,32.81,,,,,,,,,,
14.30.02.248,-59.5,14.9,0,1.0,,118459.6,8.44,0.03,0.97,-0.18,-1.8,6.8,-1.3,32.81,,,,,,,,,,
14.30.02.260,-59.6,14.9,0,1.0,,119718.4,8.35,0.03,0.97,-0.19,-2.9,6.8,-1.8,32.81,,,,,,,,,,
14.30.02.272,-72.4,18.1,0,1.0,,120492.9,8.3,0.03,0.97,-0.2,-2.9,7.8,-1.5,32.81,,,,,,,,,,
14.30.02.280,-80.5,20.1,0,1.0,,118299.2,8.45,0.03,0.98,-0.19,-3.3,9.3,-0.9,32.81,,,,,,,,,,
14.30.02.293,-66.3,16.6,0,1.0,,122216.6,8.18,0.03,0.97,-0.19,-3.8,9.1,-0.7,32.81,,,,,,,,,,
14.30.02.301,-77.6,19.4,0,1.0,,119775.0,8.35,0.02,0.98,-0.18,-4.6,7.8,-0.8,32.81,,,,,,,,,,
14.30.02.313,-91.7,22.9,0,1.0,,119967.4,8.34,0.02,0.97,-0.18,-5.3,6.8,-1.4,32.81,,,,,,,,,,
14.30.02.321,-96.0,24.0,0,1.0,,120932.7,8.27,0.02,0.97,-0.18,-4.6,5.4,-1.2,32.81,,,,,,,,,,
14.30.02.334,-85.0,21.2,0,1.0,,117761.6,8.49,0.03,0.98,-0.18,-3.1,6.3,-1.5,32.81,,,,,,,,,,
14.30.02.342,-117.3,29.3,0,1.0,,117257.8,8.53,0.03,0.97,-0.18,-2.3,6.5,-1.2,32.81,,,,,,,,,,
14.30.02.354,-109.0,27.2,0,1.0,,120172.0,8.32,0.03,0.98,-0.19,-1.8,6.4,-1.0,32.81,,,,,,,,,,
14.30.02.367,-115.6,28.9,0,1.0,,119988.7,8.33,0.03,0.98,-0.18,-2.4,6.1,-1.5,32.81,,,,,,,,,,
14.30.02.375,-128.1,32.0,0,1.0,,120221.2,8.32,0.02,0.98,-0.18,-2.7,6.8,-1.2,32.81,,,,,,,,,,
14.30.02.387,-131.6,32.9,0,1.0,,119682.0,8.36,0.03,0.98,-0.17,-2.2,6.0,-1.4,32.81,,,,,,,,,,
14.30.02.395,-128.5,32.1,0,1.0,,120727.0,8.28,0.03,0.98,-0.17,-2.5,6.2,-0.7,32.81,,,,,,,,,,
14.30.02.407,3.7,0.9,1,2.0,89.6,118371.6,8.45,0.03,0.97,-0.17,-2.7,6.1,-0.8,32.81,,,,,,,,,,
14.30.02.416,48.1,12.0,0,2.0,,120432.7,8.3,0.03,0.97,-0.17,-2.3,6.1,-1.1,32.81,,,,,,,,,,
14.30.02.428,113.4,28.4,0,2.0,,118951.7,8.41,0.03,0.97,-0.17,-1.6,6.1,-1.1,32.81,,,,,,,,,,
14.30.02.436,144.7,36.2,0,2.0,,119006.5,8.4,0.02,0.98,-0.17,-0.8,6.0,-0.9,32.81,,,,,,,,,,
14.30.02.448,162.6,40.6,0,2.0,,119142.3,8.39,0.03,0.98,-0.17,-0.1,6.4,-0.9,32.81,,,,,,,,,,
14.30.02.457,208.1,52.0,0,2.0,,119400.0,8.38,0.02,0.97,-0.17,1.5,5.8,-1.8,32.81,,,,,,,,,,
14.30.02.469,253.9,63.5,0,2.0,,117556.8,8.51,0.03,0.98,-0.18,2.5,6.1,-1.4,32.81,,,,,,,,,,
14.30.02.477,287.6,71.9,0,2.0,,119358.7,8.38,0.03,0.98,-0.18,3.0,5.8,-1.2,32.81,,,,,,,,,,
14.30.02.493,324.7,81.2,0,2.0,,120675.3,8.29,0.03,0.97,-0.18,2.1,5.9,-1.3,32.81,,,,,,,,,,
14.30.02.502,327.4,81.8,0,2.0,,119178.1,8.39,0.03,0.98,-0.18,0.7,5.7,-1.6,32.81,,,,,,,,,,
14.30.02.514,340.7,85.2,0,2.0,,118456.8,8.44,0.03,0.97,-0.18,-0.5,5.9,-1.9,32.81,,,,,,,,,,
14.30.02.522,308.5,77.1,0,2.0,,119663.5,8.36,0.03,0.98,-0.18,-1.5,6.7,-1.5,32.81,,,,,,,,,,
14.30.02.534,333.2,83.3,0,2.0,,118102.7,8.47,0.03,0.98,-0.18,-2.3,6.6,-1.5,32.81,,,,,,,,,,
14.30.02.543,306.7,76.7,0,2.0,,119765.4,8.35,0.02,0.97,-0.18,-2.3,7.3,-1.1,32.81,,,,,,,,,,
14.30.02.555,312.7,78.2,0,2.0,,121636.2,8.22,0.03,0.98,-0.18,-2.6,6.2,-1.5,32.81,,,,,,,,,,
14.30.02.563,259.4,64.8,0,2.0,,121260.5,8.25,0.02,0.98,-0.18,-2.5,6.0,-1.5,32.81,,,,,,,,,,
14.30.02.576,258.0,64.5,0,2.0,,122471.6,8.17,0.03,0.98,-0.17,-1.7,5.8,-1.7,32.81,,,,,,,,,,
14.30.02.588,205.1,51.3,0,2.0,,119299.2,8.38,0.02,0.97,-0.18,-1.3,6.2,-1.5,32.81,,,,,,,,,,
14.30.02.596,180.9,45.2,0,2.0,,120068.0,8.33,0.03,0.97,-0.17,-0.4,6.3,-1.3,32.81,,,,,,,,,,
14.30.02.608,126.2,31.6,0,2.0,,120194.6,8.32,0.03,0.97,-0.17,0.7,5.0,-1.8,32.81,,,,,,,,,,
14.30.02.616,86.3,21.6,0,2.0,,118750.3,8.42,0.03,0.97,-0.17,1.0,5.3,-2.3,32.81,,,,,,,,,,
14.30.02.629,39.2,9.8,0,2.0,,118052.1,8.47,0.03,0.98,-0.18,1.1,5.9,-1.7,32.81,,,,,,,,,,
14.30.02.637,1.5,0.4,0,2.0,,118757.1,8.42,0.02,0.98,-0.18,1.2,5.9,-1.3,32.81,,,,,,,,,,
14.30.02.649,13.2,3.3,0,2.0,,123594.7,8.09,0.02,0.98,-0.18,0.8,6.2,-1.3,32.81,,,,,,,,,,
14.30.02.657,26.0,6.5,0,2.0,,122093.8,8.19,0.02,0.98,-0.18,0.6,6.3,-0.9,32.81,,,,,,,,,,
14.30.02.670,28.6,7.2,0,2.0,,118370.9,8.45,0.03,0.97,-0.17,0.2,6.2,-0.7,32.81,,,,,,,,,,
14.30.02.678,51.4,12.8,0,2.0,,120152.7,8.32,0.02,0.98,-0.17,0.3,6.2,-0.9,32.81,,,,,,,,,,
14.30.02.690,50.9,12.7,0,2.0,,119652.9,8.36,0.03,0.98,-0.17,1.2,6.0,-1.2,32.81,,,,,,,,,,
14.30.02.698,49.8,12.4,0,2.0,,119044.9,8.4,0.02,0.97,-0.18,1.4,6.1,-1.9,32.81,,,,,,,,,,
14.30.02.711,69.6,17.4,0,2.0,,119879.5,8.34,0.02,0.98,-0.18,0.9,5.2,-1.8,32.81,,,,,,,,,,
14.30.02.719,58.6,14.6,0,2.0,,120145.8,8.32,0.03,0.98,-0.18,-0.2,6.0,-1.3,32.81,,,,,,,,,,
14.30.02.731,50.0,12.5,0,2.0,,123468.1,8.1,0.03,0.98,-0.18,0.0,5.4,-1.6,32.81,,,,,,,,,,
14.30.02.743,31.9,8.0,0,2.0,,120936.5,8.27,0.02,0.98,-0.17,0.2,5.0,-1.4,32.81,,,,,,,,,,
14.30.02.752,25.8,6.4,0,2.0,,120877.4,8.27,0.02,0.98,-0.17,0.6,4.4,-1.6,32.81,,,,,,,,,,
14.30.02.764,8.2,2.0,0,2.0,,120572.6,8.29,0.03,0.97,-0.18,0.3,4.3,-1.6,32.81,,,,,,,,,,
14.30.02.772,-7.8,2.0,0,2.0,,122092.5,8.19,0.03,0.98,-0.17,-0.3,3.9,-1.9,32.81,,,,,,,,,,
14.30.02.784,3.5,0.9,0,2.0,,119086.6,8.4,0.03,0.97,-0.18,-0.8,3.8,-1.9,32.81,,,,,,,,,,
14.30.02.793,-2.4,0.6,0,2.0,,119254.8,8.39,0.03,0.99,-0.18,-0.3,5.6,-0.8,32.81,,,,,,,,,,
14.30.02.805,-11.6,2.9,0,2.0,,119741.9,8.35,0.02,0.98,-0.18,-0.7,6.5,-0.1,32.81,,,,,,,,,,
14.30.02.813,-9.9,2.5,0,2.0,,121686.9,8.22,0.03,0.98,-0.18,-1.7,6.4,0.1,32.81,,,,,,,,,,
14.30.02.825,-17.0,4.2,0,2.0,,119599.9,8.36,0.03,0.98,-0.18,-3.0,6.3,-0.3,32.81,,,,,,,,,,
14.30.02.838,-30.8,7.7,0,2.0,,117936.5,8.48,0.02,0.98,-0.18,-3.9,6.0,-0.5,32.81,,,,,,,,,,
14.30.02.846,-36.3,9.1,0,2.0,,120608.9,8.29,0.02,0.98,-0.18,-4.4,6.0,-1.0,32.81,,,,,,,,,,
14.30.02.858,-41.0,10.2,0,2.0,,121306.4,8.24,0.03,0.98,-0.18,-5.5,6.0,-0.9,32.81,,,,,,,,,,
14.30.02.866,-32.9,8.2,0,2.0,,118061.8,8.47,0.02,0.99,-0.19,-7.3,6.3,-0.6,32.81,,,,,,,,,,
14.30.02.879,-45.7,11.4,0,2.0,,120793.4,8.28,0.03,0.99,-0.17,-8.8,6.8,0.6,32.81,,,,,,,,,,
14.30.02.887,-53.3,13.3,0,2.0,,120977.5,8.27,0.03,0.97,-0.17,-10.0,7.6,0.4,32.81,,,,,,,,,,
14.30.02.899,-57.0,14.2,0,2.0,,120051.2,8.33,0.03,0.97,-0.16,-9.8,8.5,0.1,32.81,,,,,,,,,,
14.30.02.907,-65.2,16.3,0,2.0,,121193.6,8.25,0.03,0.98,-0.16,-8.7,6.1,-0.4,32.81,,,,,,,,,,
14.30.02.920,-66.9,16.7,0,2.0,,121734.1,8.21,0.03,0.97,-0.14,-7.9,6.1,-0.7,32.81,,,,,,,,,,
14.30.02.928,-72.7,18.2,0,2.0,,120409.5,8.3,0.03,0.97,-0.15,-6.0,5.6,-1.2,32.81,,,,,,,,,,
14.30.02.940,-73.6,18.4,0,2.0,,121423.2,8.24,0.03,0.98,-0.14,-4.9,5.5,-1.0,32.81,,,,,,,,,,
14.30.02.952,-86.5,21.6,0,2.0,,119047.4,8.4,0.03,0.98,-0.15,-4.3,6.8,-0.1,32.81,,,,,,,,,,
14.30.02.961,-74.0,18.5,0,2.0,,118209.7,8.46,0.03,0.98,-0.16,-3.4,6.7,0.1,32.81,,,,,,,,,,
14.30.02.997,-97.4,24.4,0,2.0,,122243.4,8.18,0.02,0.99,-0.16,-3.6,6.9,0.4,32.81,,,,,,,,,,
14.30.03.010,-102.4,25.6,0,2.0,,119161.2,8.39,0.03,0.99,-0.17,-12.9,6.6,1.7,32.81,,,,,,,,,,
14.30.03.018,-113.0,28.2,0,2.0,,119898.3,8.34,0.03,0.99,-0.17,-15.2,7.3,2.0,32.81,,,,,,,,,,
14.30.03.030,-106.7,26.7,0,2.0,,118675.8,8.43,0.03,1.0,-0.17,-17.7,7.6,3.3,32.81,,,,,,,,,,
14.30.03.038,-107.4,26.8,0,2.0,,118481.9,8.44,0.03,1.0,-0.16,-21.6,7.9,4.5,32.81,,,,,,,,,,
14.30.03.051,-119.7,29.9,0,2.0,,120396.2,8.31,0.03,1.0,-0.16,-25.1,8.1,5.7,32.81,,,,,,,,,,
14.30.03.063,-122.6,30.6,0,2.0,,119841.1,8.34,0.03,1.0,-0.16,-28.5,7.3,5.7,32.81,,,,,,,,,,
14.30.03.071,-132.0,33.0,0,2.0,,120014.1,8.33,0.04,0.99,-0.14,-29.9,8.9,5.2,32.81,,,,,,,,,,
14.30.03.083,43.0,10.8,1,3.0,91.6,120067.1,8.33,0.04,0.99,-0.13,-31.3,10.0,5.5,32.81,,,,,,,,,,
14.30.03.092,88.5,22.1,0,3.0,,122941.5,8.13,0.04,0.98,-0.1,-31.6,10.5,6.0,32.81,,,,,,,,,,
14.30.03.104,141.0,35.2,0,3.0,,122051.8,8.19,0.04,0.97,-0.1,-30.1,10.2,6.2,32.81,,,,,,,,,,
14.30.03.112,177.8,44.4,0,3.0,,122212.7,8.18,0.04,0.97,-0.08,-27.8,9.1,5.6,32.81,,,,,,,,,,
14.30.03.124,211.1,52.8,0,3.0,,117175.9,8.53,0.04,0.97,-0.08,-24.8,7.9,5.0,32.81,,,,,,,,,,
14.30.03.133,227.8,57.0,0,3.0,,121064.5,8.26,0.04,0.97,-0.07,-20.9,7.9,3.9,32.81,,,,,,,,,,
14.30.03.149,306.1,76.5,0,3.0,,117523.6,8.51,0.04,0.97,-0.06,-13.4,7.8,2.0,32.81,,,,,,,,,,
14.30.03.157,311.7,77.9,0,3.0,,118977.3,8.4,0.03,0.97,-0.06,-8.5,7.4,1.6,32.81,,,,,,,,,,
14.30.03.169,354.2,88.6,0,3.0,,122527.4,8.16,0.04,0.97,-0.06,-4.4,6.7,1.4,32.81,,,,,,,,,,
14.30.03.178,313.6,78.4,0,3.0,,122200.0,8.18,0.04,0.97,-0.07,-0.6,6.0,1.4,32.81,,,,,,,,,,
14.30.03.190,372.4,93.1,0,3.0,,121454.5,8.23,0.08,0.93,-0.1,15.7,-8.6,3.4,32.81,,,,,,,,,,
14.30.03.198,337.8,84.4,0,3.0,,121078.1,8.26,0.05,0.98,-0.07,3.7,5.0,0.3,32.81,,,,,,,,,,
14.30.03.210,307.3,76.8,0,3.0,,120493.1,8.3,0.05,0.99,-0.1,0.9,4.6,0.4,32.81,,,,,,,,,,
14.30.03.219,279.8,70.0,0,3.0,,120702.2,8.28,0.05,0.99,-0.11,-0.8,4.9,0.0,32.81,,,,,,,,,,
14.30.03.231,289.1,72.3,0,3.0,,121662.1,8.22,0.05,1.0,-0.11,-2.1,4.9,0.3,32.81,,,,,,,,,,
14.30.03.239,252.1,63.0,0,3.0,,117823.6,8.49,0.05,0.99,-0.1,-4.8,3.7,-0.6,32.81,,,,,,,,,,
14.30.03.251,204.2,51.0,0,3.0,,120475.2,8.3,0.05,0.99,-0.1,-6.0,4.0,-0.5,32.81,,,,,,,,,,
14.30.03.260,192.2,48.0,0,3.0,,118896.2,8.41,0.04,0.99,-0.08,-5.9,2.7,0.1,32.81,,,,,,,,,,
14.30.03.272,146.0,36.5,0,3.0,,119474.9,8.37,0.05,0.99,-0.08,-9.5,6.1,0.0,32.81,,,,,,,,,,
14.30.03.280,123.7,30.9,0,3.0,,119732.0,8.35,0.07,0.98,-0.09,-8.8,4.9,0.7,32.81,,,,,,,,,,
14.30.03.292,60.8,15.2,0,3.0,,120107.2,8.33,0.07,0.97,-0.06,-10.3,6.5,1.3,32.81,,,,,,,,,,
14.30.03.305,6.3,1.6,0,3.0,,119156.7,8.39,0.1,0.95,-0.07,-6.3,1.7,1.6,32.81,,,,,,,,,,
14.30.03.313,15.2,3.8,0,3.0,,116558.4,8.58,0.03,1.02,-0.12,-5.1,6.5,0.3,32.81,,,,,,,,,,
14.30.03.325,22.2,5.6,0,3.0,,120162.1,8.32,0.04,0.99,-0.1,-6.1,7.9,0.6,32.81,,,,,,,,,,
14.30.03.333,33.4,8.4,0,3.0,,119328.2,8.38,0.05,1.0,-0.07,-3.6,5.6,0.8,32.81,,,,,,,,,,
14.30.03.346,42.4,10.6,0,3.0,,119551.8,8.36,0.04,0.97,-0.07,-2.0,5.2,0.3,32.81,,,,,,,,,,
14.30.03.354,60.3,15.1,0,3.0,,121048.8,8.26,0.05,0.98,-0.06,-1.8,5.8,0.6,32.81,,,,,,,,,,
14.30.03.366,49.8,12.4,0,3.0,,120344.0,8.31,0.06,0.97,-0.05,-0.8,5.1,0.3,32.81,,,,,,,,,,
14.30.03.374,53.7,13.4,0,3.0,,120202.3,8.32,0.05,0.99,-0.07,-0.3,6.2,0.8,32.81,,,,,,,,,,
14.30.03.387,61.1,15.3,0,3.0,,119790.1,8.35,0.05,0.99,-0.07,-0.7,7.2,1.4,32.81,,,,,,,,,,
14.30.03.395,43.4,10.8,0,3.0,,119945.2,8.34,0.02,1.0,-0.05,-1.7,12.4,1.8,32.81,,,,,,,,,,
14.30.03.407,43.7,10.9,0,3.0,,118452.7,8.44,0.04,0.99,-0.1,-5.0,6.6,1.3,32.81,,,,,,,,,,
14.30.03.415,28.4,7.1,0,3.0,,120209.9,8.32,0.07,1.0,-0.1,-3.1,10.3,1.0,32.81,,,,,,,,,,
14.30.03.428,15.4,3.8,0,3.0,,118635.7,8.43,0.05,1.0,-0.08,-7.4,8.2,1.3,32.81,,,,,,,,,,
14.30.03.440,4.7,1.2,0,3.0,,119142.9,8.39,0.06,1.0,-0.09,-9.7,9.6,2.0,32.81,,,,,,,,,,
14.30.03.448,-5.6,1.4,0,3.0,,118013.5,8.47,0.06,1.0,-0.09,-12.7,8.9,2.1,32.81,,,,,,,,,,
14.30.03.460,-16.8,4.2,0,3.0,,120784.4,8.28,0.05,0.99,-0.08,-15.1,8.4,2.1,32.81,,,,,,,,,,
14.30.03.469,-9.1,2.3,0,3.0,,122945.1,8.13,0.05,0.99,-0.08,-17.3,8.6,2.7,32.81,,,,,,,,,,
14.30.03.481,-17.0,4.2,0,3.0,,120802.2,8.28,0.03,0.98,-0.04,-13.3,3.9,4.7,32.81,,,,,,,,,,
14.30.03.489,-15.3,3.8,0,3.0,,115899.7,8.63,0.08,0.97,-0.03,-15.6,8.0,3.5,32.81,,,,,,,,,,
14.30.03.501,-20.7,5.2,0,3.0,,120465.0,8.3,0.07,0.97,-0.03,-17.2,10.8,2.7,32.81,,,,,,,,,,
14.30.03.510,-31.3,7.8,0,3.0,,119555.7,8.36,0.05,0.98,0.01,-12.4,15.4,4.1,32.81,,,,,,,,,,
14.30.03.522,-36.8,9.2,0,3.0,,120330.4,8.31,0.04,0.97,-0.05,-3.5,27.8,3.9,32.81,,,,,,,,,,
14.30.03.534,-46.2,11.6,0,3.0,,121907.0,8.2,0.08,0.95,0.0,-6.4,13.5,2.4,32.81,,,,,,,,,,
14.30.03.542,-37.3,9.3,0,3.0,,120391.2,8.31,0.06,0.98,-0.03,-1.9,10.3,4.1,32.81,,,,,,,,,,
14.30.03.555,-60.4,15.1,0,3.0,,121309.4,8.24,0.05,0.98,-0.02,5.0,8.4,3.6,32.81,,,,,,,,,,
14.30.03.563,-55.1,13.8,0,3.0,,120626.9,8.29,0.06,1.0,-0.05,1.8,8.8,3.1,32.81,,,,,,,,,,
14.30.03.575,-69.4,17.4,0,3.0,,118249.7,8.46,0.06,0.99,-0.03,5.2,6.2,1.7,32.81,,,,,,,,,,
14.30.03.583,-67.4,16.8,0,3.0,,121322.0,8.24,0.06,0.99,-0.04,6.9,6.6,1.0,32.81,,,,,,,,,,
14.30.03.596,-60.6,15.2,0,3.0,,121228.2,8.25,0.07,0.98,-0.04,8.3,6.0,0.7,32.81,,,,,,,,,,
14.30.03.604,-70.5,17.6,0,3.0,,120060.8,8.33,0.07,0.99,-0.05,8.4,6.5,0.7,32.81,,,,,,,,,,
14.30.03.616,-80.8,20.2,0,3.0,,121425.8,8.24,0.06,0.99,-0.06,7.3,6.3,0.5,32.81,,,,,,,,,,
14.30.03.624,-81.6,20.4,0,3.0,,121244.6,8.25,0.06,1.0,-0.07,5.3,5.8,0.4,32.81,,,,,,,,,,
14.30.03.636,-100.8,25.2,0,3.0,,119843.3,8.34,0.07,1.0,-0.07,2.1,5.0,1.0,32.81,,,,,,,,,,
14.30.03.645,-94.2,23.6,0,3.0,,118857.0,8.41,0.09,1.01,-0.06,2.8,6.4,0.2,32.81,,,,,,,,,,
14.30.03.657,-98.2,24.6,0,3.0,,119126.5,8.39,0.04,1.03,-0.2,7.2,17.0,-2.7,32.81,,,,,,,,,,
14.30.03.665,-104.5,26.1,0,3.0,,121910.6,8.2,0.08,1.05,-0.1,-2.0,7.5,2.3,32.81,,,,,,,,,,
14.30.03.677,-126.2,31.6,0,3.0,,119463.7,8.37,0.08,0.97,0.02,6.0,0.0,-1.0,32.81,,,,,,,,,,
14.30.03.686,-113.8,28.4,0,3.0,,120949.3,8.27,0.12,1.0,0.0,3.5,5.4,1.3,32.81,,,,,,,,,,
14.30.03.698,-111.9,28.0,0,3.0,,119156.2,8.39,0.1,0.94,0.02,4.7,8.3,1.6,32.81,,,,,,,,,,
14.30.03.706,-105.5,26.4,0,3.0,,119650.8,8.36,0.07,0.96,-0.05,8.7,2.3,-1.5,32.81,,,,,,,,,,
14.30.03.718,-121.7,30.4,0,3.0,,121310.3,8.24,0.07,0.99,-0.07,12.5,5.8,-1.6,32.81,,,,,,,,,,
14.30.03.727,-130.9,32.7,0,3.0,,121115.9,8.26,0.06,1.0,-0.06,11.5,4.9,-1.0,32.81,,,,,,,,,,
14.30.03.739,0.8,0.2,1,4.0,88.3,119772.3,8.35,0.06,1.0,-0.07,14.5,3.7,-1.2,32.81,,,,,,,,,,
14.30.03.751,53.9,13.5,0,4.0,,122141.4,8.19,0.06,1.0,-0.08,14.7,2.5,-1.7,32.81,,,,,,,,,,
14.30.03.759,104.8,26.2,0,4.0,,118949.8,8.41,0.07,0.99,-0.08,13.9,3.2,-1.1,32.81,,,,,,,,,,
14.30.03.772,128.6,32.2,0,4.0,,118817.7,8.42,0.08,1.0,-0.07,11.6,2.4,-0.2,32.81,,,,,,,,,,
14.30.03.809,271.5,67.9,0,4.0,,119982.8,8.33,0.07,0.97,-0.07,10.1,3.5,-1.0,32.81,,,,,,,,,,
14.30.03.817,293.8,73.4,0,4.0,,121307.4,8.24,0.07,1.0,-0.09,4.9,6.1,-2.1,32.81,,,,,,,,,,
14.30.03.829,307.7,76.9,0,4.0,,123366.3,8.11,0.07,1.01,-0.09,2.9,6.7,-1.8,32.81,,,,,,,,,,
14.30.03.837,310.7,77.7,0,4.0,,117729.9,8.49,0.06,1.01,-0.1,0.6,5.0,-1.2,32.81,,,,,,,,,,
14.30.03.850,338.2,84.6,0,4.0,,120156.5,8.32,0.07,0.99,-0.09,-1.1,5.0,-1.0,32.81,,,,,,,,,,
14.30.03.858,336.1,84.0,0,4.0,,122034.9,8.19,0.07,0.99,-0.08,-2.6,5.3,-1.4,32.81,,,,,,,,,,
14.30.03.870,329.4,82.4,0,4.0,,120366.1,8.31,0.08,0.99,-0.07,-2.3,6.5,-1.0,32.81,,,,,,,,,,
14.30.03.878,317.9,79.5,0,4.0,,119050.5,8.4,0.08,0.98,-0.06,-2.5,7.3,-0.9,32.81,,,,,,,,,,
14.30.03.895,283.6,70.9,0,4.0,,119787.4,8.35,0.07,0.97,-0.06,-2.4,7.4,-1.3,32.81,,,,,,,,,,
14.30.03.903,258.5,64.6,0,4.0,,119899.4,8.34,0.07,0.98,-0.07,-1.8,6.5,-2.4,32.81,,,,,,,,,,
14.30.03.915,236.7,59.2,0,4.0,,122272.7,8.18,0.07,0.98,-0.07,-2.0,5.3,-3.6,32.81,,,,,,,,,,
14.30.03.923,210.9,52.7,0,4.0,,122278.3,8.18,0.07,0.99,-0.08,-2.9,3.8,-3.7,32.81,,,,,,,,,,
14.30.03.936,153.1,38.3,0,4.0,,118918.2,8.41,0.07,0.99,-0.09,-3.6,3.2,-4.0,32.81,,,,,,,,,,
14.30.03.944,106.8,26.7,0,4.0,,122894.4,8.14,0.06,1.0,-0.09,-4.6,3.0,-3.3,32.81,,,,,,,,,,
14.30.03.956,84.8,21.2,0,4.0,,119344.8,8.38,0.07,1.0,-0.08,-6.3,4.3,-2.1,32.81,,,,,,,,,,
14.30.03.964,42.5,10.6,0,4.0,,120611.5,8.29,0.06,1.0,-0.08,-7.5,4.2,-1.7,32.81,,,,,,,,,,
14.30.03.977,0.6,0.2,0,4.0,,120682.4,8.29,0.06,0.99,-0.08,-8.2,2.5,-1.8,32.81,,,,,,,,,,
14.30.03.985,26.4,6.6,0,4.0,,119102.9,8.4,0.09,1.0,-0.06,-10.1,4.3,-0.9,32.81,,,,,,,,,,
14.30.03.997,31.6,7.9,0,4.0,,121427.8,8.24,0.06,1.0,-0.07,-8.3,2.5,0.1,32.81,,,,,,,,,,
14.30.04.009,49.0,12.2,0,4.0,,117897.9,8.48,0.07,1.0,-0.07,-9.1,0.9,0.6,32.81,,,,,,,,,,
14.30.04.017,48.3,12.1,0,4.0,,120767.3,8.28,0.06,0.99,-0.05,-8.3,-0.3,1.8,32.81,,,,,,,,,,
14.30.04.030,62.2,15.6,0,4.0,,121274.6,8.25,0.01,1.02,0.0,-12.4,3.6,3.8,32.81,,,,,,,,,,
14.30.04.038,48.2,12.0,0,4.0,,121081.2,8.26,0.15,0.99,-0.05,-10.4,11.4,3.6,32.81,,,,,,,,,,
14.30.04.050,45.4,11.4,0,4.0,,122331.9,8.17,0.09,1.0,-0.02,-10.9,4.1,3.3,32.81,,,,,,,,,,
14.30.04.059,51.6,12.9,0,4.0,,120011.6,8.33,0.06,0.98,0.01,-10.7,-1.0,1.7,32.81,,,,,,,,,,
14.30.04.071,38.2,9.6,0,4.0,,116927.6,8.55,0.09,0.98,-0.03,-8.9,-4.7,2.6,32.81,,,,,,,,,,
14.30.04.079,28.3,7.1,0,4.0,,122569.6,8.16,-0.01,0.98,-0.02,-9.2,2.8,3.0,32.81,,,,,,,,,,
14.30.04.091,22.1,5.5,0,4.0,,119683.0,8.36,0.12,0.96,-0.08,-8.9,-3.0,2.5,32.81,,,,,,,,,,
14.30.04.104,0.4,0.1,0,4.0,,119426.2,8.37,0.09,0.99,-0.07,-0.6,-7.7,0.9,32.81,,,,,,,,,,
14.30.04.112,-5.1,1.3,0,4.0,,118709.7,8.42,0.07,0.97,-0.07,0.7,-3.5,-0.5,32.81,,,,,,,,,,
14.30.04.124,-9.2,2.3,0,4.0,,118022.1,8.47,0.09,0.96,-0.11,2.6,-3.7,-3.0,32.81,,,,,,,,,,
14.30.04.132,-10.9,2.7,0,4.0,,117488.7,8.51,0.09,0.99,-0.13,4.5,-3.8,-6.0,32.81,,,,,,,,,,
14.30.04.144,-16.6,4.2,0,4.0,,120358.4,8.31,0.08,1.02,-0.09,0.6,-3.9,-6.8,32.81,,,,,,,,,,
14.30.04.153,-23.1,5.8,0,4.0,,121747.7,8.21,0.08,1.02,-0.09,-5.4,-3.1,-6.1,32.81,,,,,,,,,,
14.30.04.165,-40.8,10.2,0,4.0,,119378.4,8.38,0.08,1.01,-0.09,-12.3,-1.0,-5.3,32.81,,,,,,,,,,
14.30.04.177,-33.0,8.2,0,4.0,,120667.6,8.29,0.08,1.0,-0.08,-18.1,1.0,-5.2,32.81,,,,,,,,,,
14.30.04.185,-38.1,9.5,0,4.0,,122627.3,8.15,0.17,1.03,-0.03,-25.9,13.8,-0.8,32.81,,,,,,,,,,
14.30.04.198,-39.2,9.8,0,4.0,,120274.3,8.31,0.13,0.97,-0.11,-25.1,6.1,0.3,32.81,,,,,,,,,,
14.30.04.206,-38.2,9.6,0,4.0,,118591.9,8.43,0.09,0.98,-0.02,-27.1,5.6,1.8,32.81,,,,,,,,,,
14.30.04.218,-50.8,12.7,0,4.0,,120435.0,8.3,0.07,0.98,0.01,-26.5,9.9,1.0,32.81,,,,,,,,,,
14.30.04.226,-65.0,16.2,0,4.0,,118968.0,8.41,0.07,0.96,0.02,-19.5,10.4,-0.5,32.81,,,,,,,,,,
14.30.04.239,-51.3,12.8,0,4.0,,120854.1,8.27,0.06,0.97,0.01,-13.5,10.4,-1.9,32.81,,,,,,,,,,
14.30.04.251,-71.0,17.8,0,4.0,,118718.0,8.42,0.05,0.95,0.02,-4.8,7.1,-2.4,32.81,,,,,,,,,,
14.30.04.259,-71.2,17.8,0,4.0,,117726.0,8.49,0.05,0.96,0.01,0.5,3.0,-2.9,32.81,,,,,,,,,,
14.30.04.272,-77.5,19.4,0,4.0,,121631.1,8.22,0.05,0.97,0.01,6.1,-0.2,-3.7,32.81,,,,,,,,,,
14.30.04.280,-66.0,16.5,0,4.0,,120391.9,8.31,0.06,0.99,0.0,9.4,0.0,-3.3,32.81,,,,,,,,,,
14.30.04.292,-76.1,19.0,0,4.0,,121017.8,8.26,0.07,0.99,-0.02,11.2,0.8,-3.1,32.81,,,,,,,,,,
14.30.04.300,-85.6,21.4,0,4.0,,118995.5,8.4,0.07,1.0,-0.03,10.5,1.8,-3.1,32.81,,,,,,,,,,
14.30.04.312,-83.8,21.0,0,4.0,,117772.2,8.49,0.07,1.0,-0.04,8.3,3.1,-2.4,32.81,,,,,,,,,,
14.30.04.321,-90.9,22.7,0,4.0,,121480.3,8.23,0.08,1.0,-0.03,5.5,4.8,-1.4,32.81,,,,,,,,,,
14.30.04.333,-108.6,27.2,0,4.0,,121636.0,8.22,0.07,0.99,-0.03,4.0,5.4,-1.7,32.81,,,,,,,,,,
14.30.04.341,-100.3,25.1,0,4.0,,118737.7,8.42,0.07,0.99,-0.04,5.0,4.4,-3.0,32.81,,,,,,,,,,
14.30.04.353,-109.2,27.3,0,4.0,,121806.4,8.21,0.07,1.0,-0.03,3.6,3.8,-1.9,32.81,,,,,,,,,,
14.30.04.362,-110.1,27.5,0,4.0,,120290.4,8.31,0.07,0.99,-0.03,3.9,3.2,-1.4,32.81,,,,,,,,,,
14.30.04.374,-119.6,29.9,0,4.0,,119821.0,8.35,0.07,0.98,-0.04,4.1,3.3,0.2,32.81,,,,,,,,,,
14.30.04.382,-118.9,29.7,0,4.0,,118803.6,8.42,0.07,0.98,-0.02,4.2,4.5,0.9,32.81,,,,,,,,,,
14.30.04.394,-115.1,28.8,0,4.0,,121024.8,8.26,0.07,0.99,-0.02,4.5,6.4,1.7,32.81,,,,,,,,,,
14.30.04.403,-132.1,33.0,0,4.0,,120893.2,8.27,0.06,0.98,-0.02,4.0,8.3,2.2,32.81,,,,,,,,,,
14.30.04.415,45.6,11.4,1,5.0,88.6,120803.0,8.28,0.06,0.98,-0.02,3.6,10.1,2.7,32.81,,,,,,,,,,
14.30.04.423,78.3,19.6,0,5.0,,116704.5,8.57,0.06,0.99,-0.03,3.6,9.6,1.5,32.81,,,,,,,,,,
14.30.04.435,116.4,29.1,0,5.0,,119398.4,8.38,0.06,0.99,-0.04,3.8,7.9,0.9,32.81,,,,,,,,,,
14.30.04.444,155.0,38.8,0,5.0,,120277.9,8.31,0.06,1.0,-0.04,5.5,6.5,0.6,32.81,,,,,,,,,,
14.30.04.456,213.4,53.4,0,5.0,,120249.1,8.32,0.06,0.99,-0.04,6.9,5.7,0.0,32.81,,,,,,,,,,
14.30.04.468,201.0,50.2,0,5.0,,117790.1,8.49,0.07,0.99,-0.04,6.5,4.6,-0.4,32.81,,,,,,,,,,
14.30.04.476,265.6,66.4,0,5.0,,120788.2,8.28,0.08,0.99,-0.04,5.4,4.9,-0.7,32.81,,,,,,,,,,
14.30.04.489,299.6,74.9,0,5.0,,121626.5,8.22,0.08,0.99,-0.04,3.7,5.5,-0.7,32.81,,,,,,,,,,
14.30.04.497,297.7,74.4,0,5.0,,117348.1,8.52,0.08,0.99,-0.05,2.4,7.2,-0.5,32.81,,,,,,,,,,
14.30.04.509,363.7,90.9,0,5.0,,120267.3,8.31,0.08,0.99,-0.05,0.6,8.0,-0.8,32.81,,,,,,,,,,
14.30.04.517,310.6,77.6,0,5.0,,118519.6,8.44,0.08,0.99,-0.04,-0.1,9.2,-1.2,32.81,,,,,,,,,,
14.30.04.530,299.0,74.8,0,5.0,,120258.8,8.32,0.08,0.98,-0.04,0.0,10.1,-1.1,32.81,,,,,,,,,,
14.30.04.538,332.3,83.1,0,5.0,,118392.3,8.45,0.07,0.99,-0.04,1.3,10.2,-0.8,32.81,,,,,,,,,,
14.30.04.550,325.4,81.4,0,5.0,,120092.7,8.33,0.07,0.98,-0.04,3.7,9.6,-1.2,32.81,,,,,,,,,,
14.30.04.558,316.5,79.1,0,5.0,,120034.1,8.33,0.1,1.0,0.01,10.3,25.0,-6.0,32.81,,,,,,,,,,
14.30.04.571,257.3,64.3,0,5.0,,122746.1,8.15,0.08,0.99,-0.04,8.1,7.8,-1.8,32.81,,,,,,,,,,
14.30.04.612,100.7,25.2,0,5.0,,121762.1,8.21,0.07,0.99,-0.04,10.1,6.9,-2.2,32.81,,,,,,,,,,
14.30.04.620,77.3,19.3,0,5.0,,122573.4,8.16,0.08,1.0,-0.08,4.8,5.4,-2.2,32.81,,,,,,,,,,
14.30.04.632,38.4,9.6,0,5.0,,118791.0,8.42,0.07,0.99,-0.07,2.0,5.7,-2.0,32.81,,,,,,,,,,
14.30.04.640,3.4,0.8,0,5.0,,117130.5,8.54,0.08,0.99,-0.07,-0.6,5.3,-1.9,32.81,,,,,,,,,,
14.30.04.652,10.0,2.5,0,5.0,,117969.7,8.48,0.07,0.99,-0.06,-1.9,5.1,-2.4,32.81,,,,,,,,,,
14.30.04.661,41.6,10.4,0,5.0,,118622.0,8.43,0.07,1.0,-0.05,-2.5,4.5,-2.2,32.81,,,,,,,,,,
14.30.04.673,35.6,8.9,0,5.0,,120172.5,8.32,0.07,0.99,-0.05,-2.6,4.5,-2.8,32.81,,,,,,,,,,
14.30.04.681,54.8,13.7,0,5.0,,122575.8,8.16,0.07,0.98,-0.05,-2.9,4.6,-2.8,32.81,,,,,,,,,,
14.30.04.693,58.4,14.6,0,5.0,,119952.6,8.34,0.07,0.98,-0.04,-2.9,4.7,-2.2,32.81,,,,,,,,,,
14.30.04.702,49.3,12.3,0,5.0,,120699.1,8.29,0.07,0.98,-0.04,-3.4,6.0,-2.5,32.81,,,,,,,,,,
14.30.04.714,48.4,12.1,0,5.0,,121393.4,8.24,0.07,0.98,-0.04,-2.4,6.2,-2.2,32.81,,,,,,,,,,
14.30.04.722,51.0,12.8,0,5.0,,119329.9,8.38,0.06,0.99,-0.06,-2.9,5.9,-2.1,32.81,,,,,,,,,,
14.30.04.734,42.0,10.5,0,5.0,,120244.0,8.32,0.06,1.0,-0.05,-3.4,4.4,-2.1,32.81,,,,,,,,,,
14.30.04.747,40.3,10.1,0,5.0,,118388.4,8.45,0.07,0.99,-0.04,-3.4,4.2,-1.9,32.81,,,,,,,,,,
14.30.04.755,20.6,5.2,0,5.0,,116936.4,8.55,0.07,1.0,-0.05,-3.0,4.5,-2.1,32.81,,,,,,,,,,
14.30.04.767,10.2,2.6,0,5.0,,120428.9,8.3,0.07,1.0,-0.05,-3.3,4.4,-1.7,32.81,,,,,,,,,,
14.30.04.775,-3.1,0.8,0,5.0,,120132.2,8.32,0.07,0.99,-0.04,-3.8,4.9,-1.7,32.81,,,,,,,,,,
14.30.04.788,-6.2,1.6,0,5.0,,120318.7,8.31,0.07,0.99,-0.04,-5.2,6.0,-1.1,32.81,,,,,,,,,,
14.30.04.796,-5.8,1.4,0,5.0,,121606.0,8.22,0.07,0.99,-0.04,-5.8,5.5,-1.3,32.81,,,,,,,,,,
14.30.04.808,-24.1,6.0,0,5.0,,122203.9,8.18,0.07,0.99,-0.05,-6.8,4.8,-1.1,32.81,,,,,,,,,,
14.30.04.816,-21.3,5.3,0,5.0,,119933.5,8.34,0.07,0.99,-0.04,-8.3,4.0,-1.1,32.81,,,,,,,,,,
14.30.04.829,-24.6,6.2,0,5.0,,118631.2,8.43,0.07,0.99,-0.03,-6.9,3.8,-0.9,32.81,,,,,,,,,,
14.30.04.841,-29.2,7.3,0,5.0,,118882.3,8.41,0.07,0.97,-0.01,-4.6,5.1,-0.7,32.81,,,,,,,,,,
14.30.04.849,-50.6,12.6,0,5.0,,117617.4,8.5,0.07,0.96,-0.01,-1.8,8.3,-0.4,32.81,,,,,,,,,,
14.30.04.861,-34.7,8.7,0,5.0,,122546.0,8.16,0.07,0.97,-0.01,2.1,7.4,-0.4,32.81,,,,,,,,,,
14.30.04.870,-35.8,9.0,0,5.0,,118382.0,8.45,0.07,0.97,-0.02,4.1,6.2,-1.7,32.81,,,,,,,,,,
14.30.04.882,-43.6,10.9,0,5.0,,120258.9,8.32,0.07,0.98,-0.02,5.8,6.0,-2.4,32.81,,,,,,,,,,
14.30.04.890,-51.9,13.0,0,5.0,,117556.4,8.51,0.07,0.99,-0.04,6.4,6.1,-2.5,32.81,,,,,,,,,,
14.30.04.902,-59.2,14.8,0,5.0,,120357.6,8.31,0.07,1.0,-0.05,5.8,5.8,-2.4,32.81,,,,,,,,,,
14.30.04.911,-70.6,17.6,0,5.0,,119590.4,8.36,0.07,0.99,-0.05,4.4,6.3,-1.7,32.81,,,,,,,,,,
14.30.04.923,-60.1,15.0,0,5.0,,117626.0,8.5,0.07,1.0,-0.05,3.4,6.9,-1.0,32.81,,,,,,,,,,
14.30.04.931,-77.3,19.3,0,5.0,,118565.5,8.43,0.07,1.0,-0.06,1.4,6.6,-0.5,32.81,,,,,,,,,,
14.30.04.943,-76.8,19.2,0,5.0,,118685.9,8.43,0.07,1.0,-0.06,-0.8,5.7,0.0,32.81,,,,,,,,,,
14.30.04.956,-84.7,21.2,0,5.0,,120550.1,8.3,0.07,1.0,-0.05,-3.9,5.2,-0.8,32.81,,,,,,,,,,
14.30.04.964,-95.7,23.9,0,5.0,,121057.9,8.26,0.08,0.99,-0.05,-7.4,4.9,-0.9,32.81,,,,,,,,,,
14.30.04.976,-84.2,21.0,0,5.0,,120497.2,8.3,0.07,1.0,-0.05,-7.4,5.8,-0.8,32.81,,,,,,,,,,
14.30.04.984,-96.8,24.2,0,5.0,,119982.5,8.33,0.07,0.99,-0.03,-8.4,6.2,-0.3,32.81,,,,,,,,,,
14.30.04.997,-99.3,24.8,0,5.0,,120471.8,8.3,0.06,0.98,-0.04,-7.9,7.7,0.1,32.81,,,,,,,,,,
14.30.05.005,-110.0,27.5,0,5.0,,118669.1,8.43,0.07,0.98,-0.03,-7.2,8.1,1.0,32.81,,,,,,,,,,
14.30.05.017,-115.3,28.8,0,5.0,,120251.9,8.32,0.07,0.97,-0.01,-5.2,8.5,1.2,32.81,,,,,,,,,,
14.30.05.025,-100.7,25.2,0,5.0,,119759.3,8.35,0.07,0.97,0.0,-3.5,9.7,1.5,32.81,,,,,,,,,,
14.30.05.038,-120.9,30.2,0,5.0,,119704.6,8.35,0.08,0.98,-0.02,-0.8,9.7,1.1,32.81,,,,,,,,,,
14.30.05.046,-100.1,25.0,0,5.0,,120291.1,8.31,0.07,0.97,-0.02,0.6,8.9,0.3,32.81,,,,,,,,,,
14.30.05.058,-132.3,33.1,0,5.0,,118019.9,8.47,0.07,0.99,-0.02,2.9,7.5,-0.3,32.81,,,,,,,,,,
14.30.05.066,-152.1,38.0,0,5.0,,117869.2,8.48,0.07,0.98,-0.02,4.4,7.1,-0.8,32.81,,,,,,,,,,
14.30.05.079,35.5,8.9,1,6.0,86.7,121169.9,8.25,0.07,0.98,-0.03,4.9,6.8,-0.9,32.81,,,,,,,,,,
14.30.05.087,69.4,17.4,0,6.0,,119177.0,8.39,0.07,0.99,-0.04,4.6,6.6,-0.8,32.81,,,,,,,,,,
14.30.05.099,124.6,31.2,0,6.0,,121096.1,8.26,0.08,1.0,-0.04,3.2,7.5,0.0,32.81,,,,,,,,,,
14.30.05.111,184.6,46.2,0,6.0,,119817.5,8.35,0.07,1.0,-0.05,2.2,7.8,0.9,32.81,,,,,,,,,,
14.30.05.120,218.7,54.7,0,6.0,,119923.4,8.34,0.07,0.99,-0.04,-0.2,7.6,0.5,32.81,,,,,,,,,,
14.30.05.132,229.9,57.5,0,6.0,,121961.3,8.2,0.07,1.0,-0.04,-1.8,7.8,0.7,32.81,,,,,,,,,,
14.30.05.140,270.8,67.7,0,6.0,,120085.3,8.33,0.07,0.99,-0.04,-2.7,6.7,0.2,32.81,,,,,,,,,,
14.30.05.152,294.1,73.5,0,6.0,,119138.5,8.39,0.07,0.99,-0.03,-2.3,6.9,0.3,32.81,,,,,,,,,,
14.30.05.160,314.9,78.7,0,6.0,,119311.2,8.38,0.07,0.99,-0.02,-1.9,6.4,0.3,32.81,,,,,,,,,,
14.30.05.173,308.5,77.1,0,6.0,,120902.8,8.27,0.07,0.98,-0.02,-0.5,6.1,0.3,32.81,,,,,,,,,,
14.30.05.181,325.9,81.5,0,6.0,,117867.9,8.48,0.07,0.98,-0.02,1.0,6.6,-0.2,32.81,,,,,,,,,,
14.30.05.193,335.5,83.9,0,6.0,,118826.1,8.42,0.07,0.99,-0.03,2.8,7.3,0.0,32.81,,,,,,,,,,
14.30.05.201,314.1,78.5,0,6.0,,117909.1,8.48,0.07,0.99,-0.03,3.1,8.1,0.4,32.81,,,,,,,,,,
14.30.05.214,344.6,86.2,0,6.0,,118954.7,8.41,0.07,0.99,-0.01,1.9,12.7,0.7,32.81,,,,,,,,,,
14.30.05.222,314.7,78.7,0,6.0,,119687.0,8.36,0.08,0.99,-0.03,6.3,7.0,2.2,32.81,,,,,,,,,,
14.30.05.234,264.0,66.0,0,6.0,,119389.9,8.38,-0.05,0.96,0.04,18.1,-6.2,7.8,32.81,,,,,,,,,,
14.30.05.242,265.0,66.2,0,6.0,,117996.3,8.47,0.08,1.0,-0.03,3.6,6.5,1.9,32.81,,,,,,,,,,
14.30.05.255,213.0,53.2,0,6.0,,120079.0,8.33,0.04,0.99,-0.03,6.6,-6.4,0.8,32.81,,,,,,,,,,
14.30.05.263,170.8,42.7,0,6.0,,120483.6,8.3,0.09,0.98,-0.04,4.1,-2.7,-2.2,32.81,,,,,,,,,,
14.30.05.275,128.9,32.2,0,6.0,,120220.8,8.32,0.08,0.99,-0.03,2.6,-1.9,-2.5,32.81,,,,,,,,,,
14.30.05.283,101.1,25.3,0,6.0,,122049.2,8.19,0.08,0.99,-0.01,1.9,-3.6,-3.1,32.81,,,,,,,,,,
14.30.05.296,31.3,7.8,0,6.0,,120970.7,8.27,0.06,0.98,-0.04,2.9,0.5,-4.6,32.81,,,,,,,,,,
14.30.05.304,1.2,0.3,0,6.0,,119449.0,8.37,0.06,1.0,-0.02,2.0,-4.1,-3.0,32.81,,,,,,,,,,
14.30.05.316,16.1,4.0,0,6.0,,124749.8,8.02,0.1,0.98,-0.04,0.1,-2.8,-2.1,32.81,,,,,,,,,,
14.30.05.324,26.3,6.6,0,6.0,,117953.1,8.48,0.23,1.08,0.07,6.8,21.6,7.7,32.81,,,,,,,,,,
14.30.05.341,41.6,10.4,0,6.0,,118610.5,8.43,-0.05,1.03,0.05,2.6,-7.4,-5.3,32.81,,,,,,,,,,
14.30.05.349,49.6,12.4,0,6.0,,119430.7,8.37,0.07,1.01,-0.02,-6.3,-0.4,-3.5,32.81,,,,,,,,,,
14.30.05.361,54.2,13.6,0,6.0,,117283.8,8.53,0.09,1.0,-0.08,-1.7,8.6,2.4,32.81,,,,,,,,,,
14.30.05.369,56.2,14.0,0,6.0,,122243.7,8.18,0.17,0.99,-0.06,-15.4,26.5,-0.4,32.81,,,,,,,,,,
14.30.05.382,56.7,14.2,0,6.0,,118304.1,8.45,0.09,0.96,0.0,5.4,-14.8,-4.8,32.81,,,,,,,,,,
14.30.05.419,37.3,9.3,0,6.0,,118685.4,8.43,0.06,1.01,-0.02,-5.7,1.5,0.7,32.88,,,,,,,,,,
14.30.05.427,10.9,2.7,0,6.0,,119949.4,8.34,0.12,0.96,-0.02,-8.4,7.7,-0.4,32.88,,,,,,,,,,
14.30.05.439,-4.4,1.1,0,6.0,,120484.2,8.3,0.08,0.96,-0.03,3.7,-15.2,-8.2,32.88,,,,,,,,,,
14.30.05.451,-10.9,2.7,0,6.0,,118226.0,8.46,0.01,1.05,-0.02,-1.1,1.2,0.9,32.88,,,,,,,,,,
14.30.05.460,-8.9,2.2,0,6.0,,118411.8,8.45,0.17,0.94,-0.07,19.7,36.9,1.8,32.88,,,,,,,,,,
14.30.05.472,-8.1,2.0,0,6.0,,120127.2,8.32,0.07,0.99,-0.01,-0.1,-5.2,-5.0,32.88,,,,,,,,,,
14.30.05.480,,,0,6.0,,120019.1,8.33,,,,,,,32.88,,,,,,,,,,
14.30.05.496,,,0,6.0,,121918.2,8.2,,,,,,,32.88,,32.81,,,,,,,,
14.30.05.509,-41.8,10.4,0,6.0,,120420.6,8.3,0.09,0.98,-0.04,-1.8,-0.3,-0.8,32.88,,,,,,,,,,
14.30.05.517,-35.2,8.8,0,6.0,,120455.8,8.3,0.11,0.99,-0.05,-2.1,0.7,-0.5,32.88,,,,,,,,,,
14.30.05.529,-33.0,8.2,0,6.0,,120547.1,8.3,0.1,0.98,-0.05,-0.9,0.8,0.5,32.88,,,,,,,,,,
14.30.05.541,-44.0,11.0,0,6.0,,120121.4,8.32,0.09,0.97,-0.06,1.8,-0.6,1.1,32.88,,,,,,,,,,
14.30.05.550,-43.4,10.8,0,6.0,,118275.9,8.45,0.1,0.99,-0.04,1.1,0.3,1.0,32.88,,,,,,,,,,
14.30.05.562,-47.1,11.8,0,6.0,,120114.1,8.33,0.07,0.99,0.01,4.3,19.4,-3.0,32.88,,,,,,,,,,
14.30.05.570,-56.1,14.0,0,6.0,,119412.6,8.37,0.1,1.0,-0.04,-3.9,3.8,-1.9,32.88,,,,,,,,,,
14.30.05.582,-60.5,15.1,0,6.0,,117945.9,8.48,0.05,0.99,-0.04,-2.7,5.7,-3.2,32.88,,,,,,,,,,
14.30.05.591,-55.6,13.9,0,6.0,,120114.9,8.33,0.07,0.99,-0.04,-6.6,1.5,-2.9,32.88,,,,,,,,,,
14.30.05.603,-75.3,18.8,0,6.0,,118415.3,8.44,0.07,1.0,-0.04,-9.5,0.9,-2.3,32.88,,,,,,,,,,
14.30.05.611,-66.8,16.7,0,6.0,,121289.8,8.24,0.07,1.0,-0.05,-12.9,0.2,-0.9,32.88,,,,,,,,,,
14.30.05.623,-79.1,19.8,0,6.0,,119271.9,8.38,0.07,1.0,-0.04,-14.7,0.0,0.3,32.88,,,,,,,,,,
14.30.05.632,-78.4,19.6,0,6.0,,121509.1,8.23,0.08,1.0,-0.04,-16.5,1.5,1.6,32.88,,,,,,,,,,
14.30.05.644,-88.9,22.2,0,6.0,,118965.6,8.41,0.07,0.99,-0.03,-16.5,3.4,2.6,32.88,,,,,,,,,,
14.30.05.656,-98.4,24.6,0,6.0,,120420.1,8.3,0.07,1.0,-0.03,-17.2,3.2,2.5,32.88,,,,,,,,,,
14.30.05.664,-94.6,23.6,0,6.0,,119779.2,8.35,0.08,1.0,-0.02,-18.3,3.6,2.7,32.88,,,,,,,,,,
14.30.05.677,-96.1,24.0,0,6.0,,118787.4,8.42,0.08,0.99,-0.01,-19.9,3.5,3.1,32.88,,,,,,,,,,
14.30.05.685,-101.4,25.4,0,6.0,,119646.6,8.36,0.08,0.99,-0.01,-20.8,4.7,2.7,32.88,,,,,,,,,,
14.30.05.697,-135.0,33.8,0,6.0,,120029.0,8.33,0.08,0.99,-0.02,-22.8,5.1,3.3,32.88,,,,,,,,,,
14.30.05.705,-122.4,30.6,0,6.0,,120299.1,8.31,0.1,1.03,0.14,-5.9,29.7,7.4,32.88,,,,,,,,,,
14.30.05.718,-110.6,27.6,0,6.0,,117874.9,8.48,-0.07,0.97,-0.13,-23.4,14.5,4.9,32.88,,,,,,,,,,
14.30.05.730,-132.6,33.2,0,6.0,,120711.3,8.28,0.1,0.96,0.01,-21.6,8.2,2.6,32.88,,,,,,,,,,
14.30.05.738,-126.0,31.5,0,6.0,,119942.2,8.34,0.08,0.97,0.05,-17.7,9.6,3.2,32.88,,,,,,,,,,
14.30.05.750,55.0,13.8,1,7.0,98.0,120280.3,8.31,0.09,0.96,0.05,-14.9,10.5,2.5,32.88,,,,,,,,,,
14.30.05.759,92.4,23.1,0,7.0,,118768.1,8.42,0.08,0.95,0.04,-11.1,10.5,2.4,32.88,,,,,,,,,,
14.30.05.771,137.3,34.3,0,7.0,,117962.6,8.48,0.07,0.95,0.06,-2.1,4.3,0.9,32.88,,,,,,,,,,
14.30.05.779,159.1,39.8,0,7.0,,118672.3,8.43,0.08,0.96,0.05,1.4,5.4,2.3,32.88,,,,,,,,,,
14.30.05.791,198.9,49.7,0,7.0,,121173.1,8.25,0.09,0.98,0.05,-0.1,6.3,0.0,32.88,,,,,,,,,,
14.30.05.800,252.7,63.2,0,7.0,,116509.5,8.58,0.08,0.98,0.02,0.7,9.7,0.1,32.88,,,,,,,,,,
14.30.05.812,280.9,70.2,0,7.0,,119410.8,8.37,0.09,0.99,0.02,2.4,8.4,-0.5,32.88,,,,,,,,,,
14.30.05.820,285.2,71.3,0,7.0,,121709.1,8.22,0.1,0.98,0.03,2.9,8.1,0.5,32.88,,,,,,,,,,
14.30.05.832,303.0,75.8,0,7.0,,119519.6,8.37,0.09,1.0,0.01,1.5,6.4,0.3,32.88,,,,,,,,,,
14.30.05.841,341.4,85.4,0,7.0,,119878.0,8.34,0.08,0.98,-0.01,-2.0,8.2,-0.4,32.88,,,,,,,,,,
14.30.05.853,323.6,80.9,0,7.0,,118105.4,8.47,0.09,1.01,-0.05,-4.6,10.0,-0.1,32.88,,,,,,,,,,
14.30.05.865,301.0,75.2,0,7.0,,120655.1,8.29,0.09,0.99,-0.01,-6.8,7.9,0.4,32.88,,,,,,,,,,
14.30.05.873,338.4,84.6,0,7.0,,120536.2,8.3,0.09,0.99,0.02,-7.2,7.5,0.9,32.88,,,,,,,,,,
14.30.05.886,329.7,82.4,0,7.0,,119149.5,8.39,0.09,0.98,0.04,-6.7,9.4,0.9,32.88,,,,,,,,,,
14.30.05.894,307.6,76.9,0,7.0,,119298.6,8.38,0.08,0.99,0.03,-4.5,9.6,1.2,32.88,,,,,,,,,,
14.30.05.906,238.1,59.5,0,7.0,,118864.5,8.41,0.09,0.97,0.05,-5.3,8.2,0.6,32.88,,,,,,,,,,
14.30.05.914,247.3,61.8,0,7.0,,121928.7,8.2,0.08,0.97,0.04,-3.0,8.0,-0.2,32.88,,,,,,,,,,
14.30.05.927,181.6,45.4,0,7.0,,122235.9,8.18,0.08,0.99,0.03,-2.1,7.1,-0.4,32.88,,,,,,,,,,
14.30.05.935,147.1,36.8,0,7.0,,120884.6,8.27,0.09,0.98,0.02,-2.3,5.7,-0.3,32.88,,,,,,,,,,
14.30.05.947,105.2,26.3,0,7.0,,121035.2,8.26,0.09,0.99,0.03,-1.8,5.3,-0.6,32.88,,,,,,,,,,
14.30.05.955,78.0,19.5,0,7.0,,119726.4,8.35,0.1,0.99,0.02,-2.7,6.7,0.2,32.88,,,,,,,,,,
14.30.05.967,18.3,4.6,0,7.0,,120084.6,8.33,0.1,0.99,0.02,-3.1,7.6,0.7,32.88,,,,,,,,,,
14.30.05.976,4.7,1.2,0,7.0,,121807.4,8.21,0.09,1.0,0.03,-3.9,8.9,1.2,32.88,,,,,,,,,,
14.30.05.988,28.2,7.0,0,7.0,,117328.1,8.52,0.09,0.99,0.03,-4.8,9.7,1.9,32.88,,,,,,,,,,
14.30.06.000,34.6,8.6,0,7.0,,118997.8,8.4,0.09,0.98,0.04,-4.2,10.1,1.6,32.88,,,,,,,,,,
14.30.06.008,45.2,11.3,0,7.0,,119178.3,8.39,0.09,0.99,0.05,-3.3,9.8,1.2,32.88,,,,,,,,,,
14.30.06.021,65.1,16.3,0,7.0,,119423.9,8.37,0.09,0.98,0.04,-3.1,8.3,0.5,32.88,,,,,,,,,,
14.30.06.033,62.6,15.6,0,7.0,,121142.1,8.25,0.08,0.99,0.04,-3.0,7.8,0.4,32.88,,,,,,,,,,
14.30.06.041,52.7,13.2,0,7.0,,120527.1,8.3,0.09,0.99,0.03,-3.7,8.0,0.6,32.88,,,,,,,,,,
14.30.06.053,48.6,12.2,0,7.0,,120577.8,8.29,0.09,0.99,0.03,-4.9,7.8,1.3,32.88,,,,,,,,,,
14.30.06.066,51.3,12.8,0,7.0,,121024.5,8.26,0.1,0.99,0.02,-5.8,9.3,1.8,32.88,,,,,,,,,,
14.30.06.074,30.8,7.7,0,7.0,,120652.8,8.29,0.1,1.0,0.02,-7.9,9.3,2.2,32.88,91.1,,,,,,,,,
14.30.06.086,23.4,5.8,0,7.0,,118559.2,8.43,0.1,1.0,0.03,-9.7,10.9,3.3,32.88,,,,,,,,,,
14.30.06.099,8.3,2.1,0,7.0,,120609.0,8.29,0.1,0.99,0.02,-10.9,12.3,3.7,32.88,,,,,,,,,,
14.30.06.111,3.0,0.8,0,7.0,,117612.5,8.5,0.09,0.99,0.06,-12.7,12.2,3.3,32.88,,,,,,,,,,
14.30.06.119,-3.7,0.9,0,7.0,,120389.8,8.31,0.1,0.98,0.05,-12.7,11.7,2.8,32.88,,,,,,,,,,
14.30.06.131,-6.8,1.7,0,7.0,,120158.9,8.32,0.1,0.98,0.06,-11.7,11.5,2.7,32.88,,,,,,,,,,
14.30.06.144,-17.3,4.3,0,7.0,,119179.1,8.39,0.1,0.95,0.07,-8.3,10.5,2.3,32.88,,,,,,,,,,
14.30.06.155,-24.2,6.0,0,7.0,,120076.0,8.33,0.09,0.98,0.08,-11.0,15.5,2.5,32.88,,,,,,,,,,
14.30.06.168,-22.0,5.5,0,7.0,,117378.5,8.52,0.09,0.97,0.08,-4.5,11.7,1.7,32.88,,,,,,,,,,
14.30.06.176,-21.2,5.3,0,7.0,,121666.6,8.22,0.09,0.95,0.08,-0.2,10.0,2.3,32.88,,,,,,,,,,
14.30.06.189,-48.4,12.1,0,7.0,,120117.0,8.33,0.1,0.96,0.06,5.1,7.3,1.0,32.88,,,,,,,,,,
14.30.06.225,-60.0,15.0,0,7.0,,121564.5,8.23,0.1,0.99,0.05,2.2,7.0,-0.2,32.81,,,,,,,,,,
14.30.06.238,-52.4,13.1,0,7.0,,116772.8,8.56,0.09,0.99,0.04,2.7,5.4,0.9,32.81,,,,,,,,,,
14.30.06.250,-61.9,15.5,0,7.0,,118373.0,8.45,0.11,1.0,0.04,-1.4,6.3,0.5,32.81,,,,,,,,,,
14.30.06.258,-76.0,19.0,0,7.0,,120230.7,8.32,0.11,1.0,0.05,-5.0,8.6,1.4,32.81,,,,,,,,,,
14.30.06.271,-67.4,16.8,0,7.0,,120113.1,8.33,0.11,0.99,0.05,-6.5,10.9,2.1,32.81,,,,,,,,,,
14.30.06.283,-77.0,19.2,0,7.0,,117013.0,8.55,0.11,0.98,0.05,-5.5,11.5,1.6,32.81,,,,,,,,,,
14.30.06.295,-80.8,20.2,0,7.0,,119437.9,8.37,0.1,0.98,0.07,-5.6,9.8,0.7,32.81,,,,,,,,,,
14.30.06.303,-86.7,21.7,0,7.0,,118747.8,8.42,0.09,0.97,0.07,-4.2,7.7,0.2,32.81,,,,,,,,,,
14.30.06.316,-85.9,21.5,0,7.0,,121316.2,8.24,0.1,0.96,0.07,-2.6,7.9,-0.7,32.81,,,,,,,,,,
14.30.06.328,-96.8,24.2,0,7.0,,121743.8,8.21,0.1,0.97,0.08,0.1,5.8,-2.0,32.81,,,,,,,,,,
14.30.06.336,-100.4,25.1,0,7.0,,122541.4,8.16,0.09,0.97,0.09,2.7,7.0,-1.5,32.81,,,,,,,,,,
14.30.06.348,-104.5,26.1,0,7.0,,119600.2,8.36,0.1,0.97,0.08,4.5,5.9,-2.1,32.81,,,,,,,,,,
14.30.06.361,-110.3,27.6,0,7.0,,119757.8,8.35,0.11,0.96,0.07,5.2,6.2,-2.3,32.81,,,,,,,,,,
14.30.06.369,-108.7,27.2,0,7.0,,118092.8,8.47,0.11,0.97,0.06,6.5,6.5,-3.1,32.81,,,,,,,,,,
14.30.06.381,-127.3,31.8,0,7.0,,123274.8,8.11,0.11,0.98,0.06,7.0,4.9,-4.1,32.81,,,,,,,,,,
14.30.06.393,-128.2,32.0,0,7.0,,122184.4,8.18,0.11,0.98,0.06,6.7,4.7,-4.4,32.81,,,,,,,,,,
14.30.06.406,9.4,2.4,1,8.0,93.8,118407.1,8.45,0.11,0.99,0.05,5.1,6.4,-4.8,32.81,,,,,,,,,,
14.30.06.414,42.2,10.6,0,8.0,,121091.2,8.26,0.05,1.01,0.04,13.4,21.2,-6.9,32.81,,,,,,,,,,
14.30.06.426,91.7,22.9,0,8.0,,123091.8,8.12,0.1,0.99,0.06,1.8,4.1,-6.2,32.81,,,,,,,,,,
14.30.06.439,140.3,35.1,0,8.0,,118234.5,8.46,0.1,1.0,0.04,1.4,5.7,-6.4,32.81,,,,,,,,,,
14.30.06.447,165.8,41.4,0,8.0,,118406.6,8.45,0.09,0.98,0.04,1.3,5.4,-6.1,32.81,,,,,,,,,,
14.30.06.459,214.4,53.6,0,8.0,,120187.2,8.32,0.1,0.98,0.05,3.1,7.0,-6.9,32.81,,,,,,,,,,
14.30.06.471,264.1,66.0,0,8.0,,119841.2,8.34,0.1,0.98,0.06,5.2,4.2,-7.5,32.81,,,,,,,,,,
14.30.06.484,306.4,76.6,0,8.0,,120277.1,8.31,0.1,0.97,0.07,12.6,4.9,-11.3,32.81,,,,,,,,,,
14.30.06.492,323.1,80.8,0,8.0,,122616.7,8.16,0.09,0.96,0.07,15.0,3.5,-11.2,32.81,,,,,,,,,,
14.30.06.504,334.8,83.7,0,8.0,,120200.7,8.32,0.08,0.97,0.06,18.9,1.0,-11.0,32.81,,,,,,,,,,
14.30.06.516,331.3,82.8,0,8.0,,119434.0,8.37,0.09,0.97,0.06,21.2,-2.1,-11.4,32.81,,,,,,,,,,
14.30.06.529,331.5,82.9,0,8.0,,120096.6,8.33,0.08,0.98,0.05,20.5,-7.5,-10.4,32.81,,,,,,,,,,
14.30.06.537,329.5,82.4,0,8.0,,120014.1,8.33,0.08,0.99,0.04,19.1,-11.5,-11.6,32.81,,,,,,,,,,
14.30.06.549,319.6,79.9,0,8.0,,119954.8,8.34,0.07,0.99,0.05,15.9,-15.4,-12.3,32.81,,,,,,,,,,
14.30.06.561,278.1,69.5,0,8.0,,119172.9,8.39,0.08,0.99,0.03,14.5,-19.7,-12.2,32.81,,,,,,,,,,
14.30.06.574,252.3,63.1,0,8.0,,119308.6,8.38,0.08,0.98,0.03,13.5,-28.0,-13.7,32.81,,,,,,,,,,
14.30.06.582,204.9,51.2,0,8.0,,119353.0,8.38,0.06,0.99,0.07,8.8,-35.6,-15.1,32.81,,,,,,,,,,
14.30.06.594,187.0,46.8,0,8.0,,119315.2,8.38,0.07,0.96,0.04,10.2,-37.1,-15.7,32.81,,,,,,,,,,
14.30.06.607,143.4,35.8,0,8.0,,121091.4,8.26,0.05,1.01,0.05,14.9,-31.7,-13.4,32.81,,,,,,,,,,
14.30.06.619,86.9,21.7,0,8.0,,118785.9,8.42,-0.05,1.12,0.07,46.9,45.1,2.3,32.81,,,,,,,,,,
14.30.06.627,48.7,12.2,0,8.0,,118936.3,8.41,0.08,0.99,-0.03,6.8,-39.5,-4.7,32.81,,,,,,,,,,
14.30.06.639,4.3,1.1,0,8.0,,121223.1,8.25,0.09,0.94,0.0,15.5,-28.4,-3.9,32.81,,,,,,,,,,
14.30.06.652,17.3,4.3,0,8.0,,119712.3,8.35,0.13,1.01,0.03,19.1,-18.2,-10.7,32.81,,,,,,,,,,
14.30.06.664,44.9,11.2,0,8.0,,118920.6,8.41,0.06,1.0,0.02,25.9,-35.8,-5.1,32.81,,,,,,,,,,
14.30.06.672,36.7,9.2,0,8.0,,120851.2,8.27,0.06,1.01,0.12,50.1,7.8,-2.9,32.81,,,,,,,,,,
14.30.06.684,51.0,12.8,0,8.0,,124735.3,8.02,0.06,0.97,-0.16,19.1,-31.6,-4.1,32.81,,,,,,,,,,
14.30.06.697,58.2,14.6,0,8.0,,120895.3,8.27,0.15,0.97,-0.05,28.4,-21.9,-7.7,32.81,,,,,,,,,,
14.30.06.709,54.5,13.6,0,8.0,,119615.8,8.36,0.13,0.93,-0.06,27.9,-26.0,-4.9,32.81,,,,,,,,,,
14.30.06.717,61.6,15.4,0,8.0,,121242.2,8.25,0.12,0.95,-0.04,40.9,-13.1,-1.1,32.81,,,,,,,,,,
14.30.06.729,45.8,11.4,0,8.0,,122312.3,8.18,0.1,0.99,-0.08,37.9,-16.4,-2.9,32.81,,,,,,,,,,
14.30.06.742,39.6,9.9,0,8.0,,117883.6,8.48,0.08,0.97,-0.05,36.0,-7.1,-5.4,32.81,,,,,,,,,,
14.30.06.754,28.0,7.0,0,8.0,,120880.2,8.27,0.08,0.95,-0.14,38.1,-15.0,-5.0,32.81,,,,,,,,,,
14.30.06.762,6.2,1.6,0,8.0,,120581.7,8.29,0.05,1.02,-0.11,45.0,-0.2,-5.8,32.81,,,,,,,,,,
14.30.06.775,8.0,2.0,0,8.0,,121357.4,8.24,0.08,0.95,-0.13,43.2,6.6,-8.0,32.81,,,,,,,,,,
14.30.06.787,-12.0,3.0,0,8.0,,117851.6,8.49,0.06,0.99,-0.12,41.6,7.5,-7.0,32.81,,,,,,,,,,
14.30.06.799,-12.2,3.0,0,8.0,,119002.0,8.4,0.06,1.0,-0.15,40.3,8.0,-5.2,32.81,,,,,,,,,,
14.30.06.807,-16.1,4.0,0,8.0,,119971.7,8.34,0.05,1.0,-0.14,34.5,6.2,-3.9,32.81,,,,,,,,,,
14.30.06.820,-19.6,4.9,0,8.0,,120801.6,8.28,0.06,1.01,-0.15,25.8,8.2,-4.4,32.81,,,,,,,,,,
14.30.06.832,-22.6,5.6,0,8.0,,118575.5,8.43,0.06,1.0,-0.14,19.1,5.7,-4.2,32.81,,,,,,,,,,
14.30.06.844,-34.2,8.6,0,8.0,,120938.2,8.27,0.06,1.0,-0.15,13.2,6.0,-1.9,32.81,,,,,,,,,,
14.30.06.852,-35.5,8.9,0,8.0,,119619.0,8.36,0.07,1.0,-0.15,7.7,7.9,-1.2,32.81,,,,,,,,,,
14.30.06.865,-47.4,11.8,0,8.0,,118434.5,8.44,0.06,1.0,-0.15,2.2,8.9,0.4,32.81,,,,,,,,,,
14.30.06.877,-36.7,9.2,0,8.0,,122342.6,8.17,0.06,0.99,-0.15,-1.7,7.7,0.0,32.81,,,,,,,,,,
14.30.06.885,-34.9,8.7,0,8.0,,120383.8,8.31,0.06,0.99,-0.11,-2.8,7.9,0.7,32.81,,,,,,,,,,
14.30.06.897,-52.8,13.2,0,8.0,,120864.3,8.27,0.09,1.1,-0.04,-14.7,1.2,4.9,32.81,,,,,,,,,,
14.30.06.910,-61.8,15.4,0,8.0,,121977.3,8.2,0.07,1.03,-0.07,-20.8,-13.9,8.7,32.81,,,,,,,,,,
14.30.06.918,-73.4,18.4,0,8.0,,120024.7,8.33,0.03,0.94,-0.08,-24.3,-14.3,7.9,32.81,,,,,,,,,,
14.30.06.930,-64.1,16.0,0,8.0,,119917.3,8.34,0.07,0.92,-0.11,-19.4,-9.2,3.1,32.81,,,,,,,,,,
14.30.06.942,-72.0,18.0,0,8.0,,120858.5,8.27,0.06,0.89,-0.15,-5.3,-4.4,-4.2,32.81,,,,,,,,,,
14.30.06.955,-82.9,20.7,0,8.0,,119968.0,8.34,0.07,0.93,-0.18,11.2,3.0,-7.1,32.81,,,,,,,,,,
14.30.06.963,-79.4,19.8,0,8.0,,120070.0,8.33,0.05,1.05,-0.11,14.7,3.1,-2.5,32.81,,,,,,,,,,
14.30.06.975,-86.8,21.7,0,8.0,,121205.0,8.25,0.05,1.01,-0.14,14.6,5.1,-1.3,32.81,,,,,,,,,,
14.30.06.988,-93.3,23.3,0,8.0,,120324.5,8.31,0.07,0.98,-0.13,8.3,8.7,-1.0,32.81,,,,,,,,,,
14.30.07.029,-100.0,25.0,0,8.0,,119226.1,8.39,0.07,1.0,-0.14,3.4,4.3,-1.5,32.81,,,,,,,,,,
14.30.07.041,-93.5,23.4,0,8.0,,118297.4,8.45,0.06,0.99,-0.12,3.7,3.9,-1.5,32.81,,,,,,,,,,
14.30.07.049,-115.1,28.8,0,8.0,,118043.7,8.47,0.06,0.98,-0.13,2.2,3.4,-1.5,32.81,,,,,,,,,,
14.30.07.061,-112.7,28.2,0,8.0,,119901.7,8.34,0.06,0.98,-0.13,1.2,2.2,-1.4,32.81,,,,,,,,,,
14.30.07.074,5.9,1.5,1,9.0,88.2,119390.6,8.38,0.06,0.99,-0.13,1.5,2.4,-0.9,32.81,,,,,,,,,,
14.30.07.082,50.3,12.6,0,9.0,,117372.8,8.52,0.06,0.98,-0.13,1.3,1.6,-0.6,32.81,,,,,,,,,,
14.30.07.094,106.5,26.6,0,9.0,,119797.7,8.35,0.07,0.98,-0.12,1.9,4.2,-0.4,32.81,,,,,,,,,,
14.30.07.106,143.6,35.9,0,9.0,,121952.1,8.2,0.07,0.98,-0.12,3.9,7.8,0.6,32.81,,,,,,,,,,
14.30.07.119,182.3,45.6,0,9.0,,119411.6,8.37,0.29,0.89,-0.11,29.3,35.5,3.9,32.81,,,,,,,,,,
14.30.07.127,225.6,56.4,0,9.0,,119768.4,8.35,0.05,1.01,-0.11,9.3,7.5,-1.4,32.81,,,,,,,,,,
14.30.07.139,256.5,64.1,0,9.0,,119563.3,8.36,0.07,0.98,-0.1,4.8,9.5,-2.1,32.81,,,,,,,,,,
14.30.07.151,306.0,76.5,0,9.0,,122726.2,8.15,0.06,0.99,-0.11,4.5,8.0,-1.5,32.81,,,,,,,,,,
14.30.07.160,311.4,77.8,0,9.0,,120222.3,8.32,0.06,0.99,-0.13,3.2,6.3,-1.1,32.81,,,,,,,,,,
14.30.07.172,317.9,79.5,0,9.0,,119200.3,8.39,0.06,0.99,-0.14,1.0,5.8,-1.1,32.81,,,,,,,,,,
14.30.07.184,314.6,78.6,0,9.0,,120402.6,8.31,0.1,0.98,-0.14,0.6,0.3,0.2,32.81,,,,,,,,,,
14.30.07.196,350.1,87.5,0,9.0,,119623.6,8.36,0.06,0.99,-0.14,-1.4,4.4,-0.1,32.81,,,,,,,,,,
14.30.07.205,304.7,76.2,0,9.0,,116856.4,8.56,0.08,1.0,-0.15,-3.7,7.6,0.2,32.81,,,,,,,,,,
14.30.07.217,307.6,76.9,0,9.0,,119291.3,8.38,0.25,0.96,-0.17,29.0,50.9,-2.2,32.81,,,,,,,,,,
14.30.07.229,278.8,69.7,0,9.0,,119584.4,8.36,0.01,1.06,-0.23,-11.8,-3.9,1.4,32.81,,,,,,,,,,
14.30.07.242,249.0,62.2,0,9.0,,118139.6,8.46,0.07,0.98,-0.14,-3.9,13.5,3.2,32.81,,,,,,,,,,
14.30.07.250,226.2,56.6,0,9.0,,119488.7,8.37,0.07,0.98,-0.13,-5.2,9.8,3.3,32.81,,,,,,,,,,
14.30.07.262,160.0,40.0,0,9.0,,118836.4,8.41,0.07,0.98,-0.12,-4.2,4.8,4.0,32.81,,,,,,,,,,
14.30.07.274,124.6,31.2,0,9.0,,118429.7,8.44,0.08,0.98,-0.1,-2.5,5.1,4.3,32.81,,,,,,,,,,
14.30.07.287,83.8,21.0,0,9.0,,119645.8,8.36,0.09,0.98,-0.1,-0.7,4.9,4.4,32.81,,,,,,,,,,
14.30.07.295,46.4,11.6,0,9.0,,120319.9,8.31,0.06,0.98,-0.1,0.5,5.9,4.6,32.81,,,,,,,,,,
14.30.07.307,14.9,3.7,0,9.0,,121456.6,8.23,0.14,0.93,-0.12,36.2,52.1,9.7,32.81,,,,,,,,,,
14.30.07.319,4.6,1.2,0,9.0,,119439.3,8.37,0.06,0.96,-0.11,4.7,4.4,3.4,32.81,,,,,,,,,,
14.30.07.328,36.1,9.0,0,9.0,,121478.5,8.23,0.05,0.96,-0.12,13.6,15.4,4.3,32.81,,,,,,,,,,
14.30.07.340,55.2,13.8,0,9.0,,119204.9,8.39,0.08,0.98,-0.13,14.8,11.7,4.2,32.81,,,,,,,,,,
14.30.07.352,53.9,13.5,0,9.0,,115508.7,8.66,0.06,0.97,-0.14,15.8,10.1,4.1,32.81,,,,,,,,,,
14.30.07.364,68.6,17.2,0,9.0,,121930.9,8.2,0.07,0.98,-0.14,15.6,11.3,5.0,32.81,,,,,,,,,,
14.30.07.373,58.4,14.6,0,9.0,,121703.9,8.22,0.09,0.98,-0.15,13.5,9.4,5.8,32.81,,,,,,,,,,
14.30.07.385,52.8,13.2,0,9.0,,118000.4,8.47,0.11,0.95,-0.18,13.8,9.1,3.2,32.81,,,,,,,,,,
14.30.07.397,49.7,12.4,0,9.0,,121064.4,8.26,0.09,0.99,-0.18,11.3,11.5,0.9,32.81,,,,,,,,,,
14.30.07.405,32.3,8.1,0,9.0,,120627.9,8.29,0.1,0.99,-0.17,10.2,14.5,-1.1,32.81,,,,,,,,,,
14.30.07.418,29.7,7.4,0,9.0,,119457.3,8.37,0.12,0.99,-0.18,11.5,20.3,0.2,32.81,,,,,,,,,,
14.30.07.430,13.0,3.2,0,9.0,,121219.9,8.25,0.11,0.97,-0.16,7.5,22.0,3.7,32.81,,,,,,,,,,
14.30.07.442,-3.0,0.8,0,9.0,,119561.1,8.36,0.14,0.97,-0.15,7.9,29.8,4.4,32.81,,,,,,,,,,
14.30.07.450,-3.6,0.9,0,9.0,,120714.9,8.28,0.06,0.97,-0.18,5.4,31.6,6.7,32.81,,,,,,,,,,
14.30.07.463,-7.4,1.8,0,9.0,,120088.3,8.33,0.08,0.98,-0.16,3.3,26.9,6.1,32.81,,,,,,,,,,
14.30.07.475,-20.0,5.0,0,9.0,,121024.3,8.26,0.09,1.0,-0.15,6.8,29.6,1.1,32.81,,,,,,,,,,
14.30.07.483,-12.3,3.1,0,9.0,,118745.0,8.42,0.1,0.99,-0.15,1.7,26.5,2.7,32.81,,,,,,,,,,
14.30.07.496,-24.6,6.2,0,9.0,,121420.2,8.24,0.09,0.97,-0.14,1.3,23.6,1.4,32.81,,,,,,,,,,
14.30.07.508,-30.0,7.5,0,9.0,,120862.9,8.27,0.11,0.97,-0.16,-5.9,15.6,2.6,32.81,,,,,,,,,,
14.30.07.516,-34.9,8.7,0,9.0,,121773.9,8.21,0.1,0.99,-0.19,9.9,21.4,-0.1,32.81,,,,,,,,,,
14.30.07.528,-47.1,11.8,0,9.0,,119671.9,8.36,0.15,0.97,-0.15,-1.6,18.3,1.4,32.81,,,,,,,,,,
14.30.07.541,-44.4,11.1,0,9.0,,121664.1,8.22,0.09,0.96,-0.19,-9.2,22.8,3.8,32.81,,,,,,,,,,
14.30.07.553,-52.0,13.0,0,9.0,,119588.1,8.36,0.1,0.99,-0.17,-7.8,31.0,-5.7,32.81,,,,,,,,,,
14.30.07.561,-55.4,13.8,0,9.0,,119121.1,8.39,0.1,0.98,-0.14,-11.5,25.7,0.2,32.81,,,,,,,,,,
14.30.07.573,-52.1,13.0,0,9.0,,118589.6,8.43,0.04,1.01,-0.14,-12.6,14.9,4.5,32.81,,,,,,,,,,
14.30.07.586,-70.8,17.7,0,9.0,,120473.2,8.3,0.06,0.96,-0.14,-10.0,21.5,5.2,32.81,,,,,,,,,,
14.30.07.598,-67.9,17.0,0,9.0,,120870.3,8.27,0.1,0.97,-0.12,-0.5,21.8,5.0,32.81,,,,,,,,,,
14.30.07.606,-70.6,17.6,0,9.0,,115846.8,8.63,0.08,0.98,-0.13,-1.2,19.5,3.4,32.81,,,,,,,,,,
14.30.07.618,-76.3,19.1,0,9.0,,122441.5,8.17,0.09,0.96,-0.11,0.8,16.6,2.4,32.81,,,,,,,,,,
14.30.07.631,-92.6,23.2,0,9.0,,120375.1,8.31,0.09,0.95,-0.12,5.2,12.6,-0.4,32.81,,,,,,,,,,
14.30.07.643,-70.9,17.7,0,9.0,,120947.7,8.27,0.1,0.95,-0.13,6.9,7.4,-3.2,32.81,,,,,,,,,,
14.30.07.651,-85.8,21.4,0,9.0,,118536.2,8.44,0.14,0.96,-0.15,2.1,-2.7,-3.3,32.81,,,,,,,,,,
14.30.07.664,-103.4,25.8,0,9.0,,120067.9,8.33,0.05,0.99,-0.15,13.7,0.0,-3.5,32.81,,,,,,,,,,
14.30.07.672,-99.4,24.8,0,9.0,,120497.9,8.3,0.07,0.96,-0.15,18.6,0.8,-3.8,32.81,,,,,,,,,,
14.30.07.684,-116.3,29.1,0,9.0,,118484.9,8.44,0.07,0.99,-0.21,15.9,2.6,-2.9,32.81,,,,,,,,,,
14.30.07.692,-110.0,27.5,0,9.0,,123411.8,8.1,0.09,0.98,-0.16,18.7,-0.3,-6.1,32.81,,,,,,,,,,
14.30.07.704,-122.7,30.7,0,9.0,,118775.3,8.42,0.09,1.01,-0.17,22.0,4.7,-3.3,32.81,,,,,,,,,,
14.30.07.713,-115.9,29.0,0,9.0,,120009.3,8.33,0.1,0.99,-0.2,24.8,4.2,-3.3,32.81,,,,,,,,,,
14.30.07.725,-123.1,30.8,0,9.0,,121153.1,8.25,0.1,1.0,-0.19,22.6,2.6,-3.6,32.81,,,,,,,,,,
14.30.07.737,-115.9,29.0,0,9.0,,119593.7,8.36,0.11,1.0,-0.19,21.6,-0.4,-6.1,32.81,,,,,,,,,,
14.30.07.745,31.6,7.9,1,10.0,88.0,118470.6,8.44,0.12,0.99,-0.19,23.3,-0.4,-6.8,32.81,,,,,,,,,,
14.30.07.758,89.2,22.3,0,10.0,,119315.6,8.38,0.12,1.0,-0.2,26.4,4.0,-7.6,32.81,,,,,,,,,,
14.30.07.766,116.7,29.2,0,10.0,,119077.3,8.4,0.11,1.0,-0.19,27.4,3.4,-9.1,32.81,,,,,,,,,,
14.30.07.778,169.5,42.4,0,10.0,,119094.1,8.4,0.1,1.03,-0.24,26.9,-6.3,-11.4,32.81,,,,,,,,,,
14.30.07.787,187.2,46.8,0,10.0,,119979.9,8.33,0.1,1.06,-0.27,25.4,-14.8,-13.2,32.81,,,,,,,,,,
14.30.07.828,316.9,79.2,0,10.0,,120787.1,8.28,0.1,1.08,-0.3,26.0,-17.5,-14.2,32.81,,,,,,,,,,
14.30.07.836,325.7,81.4,0,10.0,,120549.2,8.3,0.11,1.06,-0.42,27.9,29.9,-6.3,32.81,,,,,,,,,,
14.30.07.848,327.2,81.8,0,10.0,,118750.4,8.42,0.08,1.08,-0.39,23.5,32.4,-3.2,32.81,,,,,,,,,,
14.30.07.856,308.8,77.2,0,10.0,,120374.2,8.31,0.1,1.07,-0.38,17.5,26.9,2.1,32.81,,,,,,,,,,
14.30.07.868,313.2,78.3,0,10.0,,118741.1,8.42,0.12,1.09,-0.35,-5.9,19.5,-0.6,32.81,,,,,,,,,,
14.30.07.877,305.4,76.4,0,10.0,,121672.2,8.22,0.09,1.05,-0.31,-9.5,12.9,2.2,32.81,,,,,,,,,,
14.30.07.889,329.2,82.3,0,10.0,,120830.2,8.28,0.08,1.0,-0.28,-11.1,18.7,3.4,32.81,,,,,,,,,,
14.30.07.901,273.0,68.2,0,10.0,,120715.4,8.28,0.08,0.9,-0.35,-8.9,16.9,5.8,32.81,,,,,,,,,,
14.30.07.909,288.7,72.2,0,10.0,,118492.6,8.44,0.12,0.94,-0.26,-1.2,35.9,-2.2,32.81,,,,,,,,,,
14.30.07.922,199.0,49.8,0,10.0,,121266.2,8.25,0.11,0.93,-0.26,7.4,37.6,1.6,32.81,,,,,,,,,,
14.30.07.930,185.8,46.4,0,10.0,,121403.4,8.24,0.11,0.92,-0.23,9.1,43.8,0.2,32.81,,,,,,,,,,
14.30.07.942,128.5,32.1,0,10.0,,119131.8,8.39,0.11,0.91,-0.19,8.9,39.9,0.5,32.81,,,,,,,,,,
14.30.07.950,96.7,24.2,0,10.0,,118886.5,8.41,0.1,0.88,-0.15,13.6,37.9,0.1,32.81,,,,,,,,,,
14.30.07.963,40.5,10.1,0,10.0,,120046.9,8.33,0.08,0.9,-0.2,7.0,23.5,-2.6,32.81,,,,,,,,,,
14.30.07.975,3.8,1.0,0,10.0,,119277.2,8.38,0.08,0.87,-0.16,8.2,26.6,-6.4,32.81,,,,,,,,,,
14.30.07.983,17.0,4.2,0,10.0,,120207.4,8.32,0.09,0.88,-0.17,3.0,19.6,-8.6,32.81,,,,,,,,,,
14.30.07.995,27.7,6.9,0,10.0,,119292.5,8.38,0.11,0.87,-0.16,1.8,18.5,-7.7,32.81,,,,,,,,,,
14.30.08.004,45.8,11.4,0,10.0,,119979.9,8.33,0.09,0.86,-0.15,4.9,23.2,-9.6,32.81,,,,,,,,,,
14.30.08.016,49.7,12.4,0,10.0,,117913.8,8.48,0.12,0.85,-0.17,9.2,23.4,-10.0,32.81,,,,,,,,,,
14.30.08.024,48.5,12.1,0,10.0,,119696.2,8.35,0.1,0.87,-0.16,6.5,21.9,-14.3,32.81,,,,,,,,,,
14.30.08.036,34.6,8.6,0,10.0,,119138.9,8.39,0.09,0.88,-0.15,6.5,24.9,-15.3,32.81,,,,,,,,,,
14.30.08.049,46.0,11.5,0,10.0,,119497.5,8.37,0.06,0.87,-0.18,1.1,17.2,-16.4,32.81,,,,,,,,,,
14.30.08.057,49.0,12.2,0,10.0,,120588.3,8.29,0.08,0.87,-0.17,1.5,27.0,-16.5,32.81,,,,,,,,,,
14.30.08.069,54.8,13.7,0,10.0,,118892.8,8.41,0.08,0.88,-0.16,-2.6,24.6,-15.4,32.81,,,,,,,,,,
14.30.08.077,29.4,7.4,0,10.0,,123300.7,8.11,0.07,0.82,-0.14,-1.9,19.9,-15.9,32.81,,,,,,,,,,
14.30.08.090,27.5,6.9,0,10.0,,122490.8,8.16,0.07,0.78,-0.16,4.0,14.2,-19.2,32.81,,,,,,,,,,
14.30.08.102,-5.9,1.5,0,10.0,,122300.3,8.18,0.02,0.75,-0.18,9.5,2.1,-23.1,32.81,,,,,,,,,,
14.30.08.110,-12.2,3.0,0,10.0,,117771.3,8.49,0.04,0.72,-0.18,21.1,16.2,-31.5,32.81,,,,,,,,,,
14.30.08.122,-10.1,2.5,0,10.0,,120316.3,8.31,0.06,0.75,-0.19,24.0,14.5,-36.8,32.81,,,,,,,,,,
14.30.08.131,-9.7,2.4,0,10.0,,117380.5,8.52,0.06,0.81,-0.18,26.4,14.9,-37.9,32.81,,,,,,,,,,
14.30.08.143,-17.5,4.4,0,10.0,,117853.8,8.49,0.08,0.84,-0.18,25.5,17.4,-37.5,32.81,,,,,,,,,,
14.30.08.155,-19.7,4.9,0,10.0,,117690.9,8.5,0.08,0.89,-0.17,21.3,21.1,-32.9,32.81,,,,,,,,,,
14.30.08.163,-22.3,5.6,0,10.0,,120845.6,8.28,0.08,0.92,-0.19,14.1,17.3,-28.7,32.81,,,,,,,,,,
14.30.08.176,-41.7,10.4,0,10.0,,118616.1,8.43,0.08,0.92,-0.18,9.8,14.6,-24.3,32.81,,,,,,,,,,
14.30.08.184,-33.6,8.4,0,10.0,,118172.6,8.46,0.05,0.93,-0.19,4.1,10.7,-22.2,32.81,,,,,,,,,,
14.30.08.196,-49.4,12.4,0,10.0,,118952.9,8.41,0.04,0.94,-0.21,6.6,9.9,-22.3,32.81,,,,,,,,,,
14.30.08.208,-38.5,9.6,0,10.0,,120652.4,8.29,0.04,0.97,-0.21,6.9,9.0,-22.7,32.81,,,,,,,,,,
14.30.08.217,-58.7,14.7,0,10.0,,119455.0,8.37,0.03,1.01,-0.22,6.2,9.7,-21.3,32.81,,,,,,,,,,
14.30.08.229,-50.6,12.6,0,10.0,,121721.3,8.22,0.03,1.02,-0.22,3.5,7.2,-17.4,32.81,,,,,,,,,,
14.30.08.237,-56.2,14.0,0,10.0,,120963.3,8.27,0.0,1.06,-0.22,-0.2,7.9,-10.1,32.81,,,,,,,,,,
14.30.08.249,-53.2,13.3,0,10.0,,120593.3,8.29,0.0,1.03,-0.21,-3.0,6.5,-2.7,32.81,,,,,,,,,,
14.30.08.258,-63.8,16.0,0,10.0,,122493.0,8.16,0.0,0.98,-0.22,-3.1,7.2,-0.1,32.81,,,,,,,,,,
14.30.08.270,-64.2,16.0,0,10.0,,120936.0,8.27,-0.03,0.99,-0.22,-3.1,6.2,2.1,32.81,,,,,,,,,,
14.30.08.278,-72.0,18.0,0,10.0,,118196.5,8.46,-0.04,0.98,-0.23,-8.2,0.7,3.3,32.81,,,,,,,,,,
14.30.08.290,-82.5,20.6,0,10.0,,119648.2,8.36,-0.05,1.03,-0.24,-12.2,-1.2,4.8,32.81,,,,,,,,,,
14.30.08.303,-92.3,23.1,0,10.0,,121725.9,8.22,0.03,1.14,-0.29,-11.0,7.4,12.8,32.81,,,,,,,,,,
14.30.08.311,-99.8,25.0,0,10.0,,122429.5,8.17,0.05,1.3,-0.34,-9.8,10.0,25.1,32.81,,,,,,,,,,
14.30.08.323,-88.7,22.2,0,10.0,,118470.5,8.44,-0.01,1.35,-0.35,-14.4,9.3,33.8,32.81,,,,,,,,,,
14.30.08.331,-103.2,25.8,0,10.0,,120058.5,8.33,0.04,1.21,-0.36,-16.1,13.3,33.5,32.81,,,,,,,,,,
14.30.08.344,-112.1,28.0,0,10.0,,123547.7,8.09,0.04,1.04,-0.3,-15.0,15.2,26.5,32.81,,,,,,,,,,
14.30.08.356,-107.2,26.8,0,10.0,,116694.8,8.57,0.01,0.89,-0.24,-16.5,14.1,19.6,32.81,,,,,,,,,,
14.30.08.368,-102.8,25.7,0,10.0,,118261.9,8.46,0.0,0.83,-0.21,-21.2,8.8,16.0,32.81,,,,,,,,,,
14.30.08.376,-130.5,32.6,0,10.0,,116981.6,8.55,0.01,0.85,-0.2,-24.6,4.2,15.1,32.81,,,,,,,,,,
14.30.08.389,-123.3,30.8,0,10.0,,121236.3,8.25,0.03,0.93,-0.23,-29.1,1.0,14.5,32.81,,,,,,,,,,
14.30.08.397,-124.5,31.1,0,10.0,,117874.1,8.48,0.06,0.98,-0.24,-35.5,2.3,15.7,32.81,,,,,,,,,,
14.30.08.409,17.2,4.3,1,11.0,89.8,119711.9,8.35,0.07,1.06,-0.29,-36.7,9.5,16.4,32.81,,,,,,,,,,
14.30.08.417,59.4,14.8,0,11.0,,122529.8,8.16,0.06,1.07,-0.28,-35.5,15.2,15.3,32.81,,,,,,,,,,
14.30.08.430,104.4,26.1,0,11.0,,119404.0,8.37,0.07,1.02,-0.25,-34.1,12.8,12.7,32.81,,,,,,,,,,
14.30.08.442,150.7,37.7,0,11.0,,118995.4,8.4,0.06,0.96,-0.21,-33.2,9.1,10.4,32.81,,,,,,,,,,
14.30.08.450,193.3,48.3,0,11.0,,120801.2,8.28,0.04,0.95,-0.19,-31.0,6.1,10.6,32.81,,,,,,,,,,
14.30.08.462,240.4,60.1,0,11.0,,120054.8,8.33,0.06,0.96,-0.18,-30.1,3.5,12.1,32.81,,,,,,,,,,
14.30.08.471,230.0,57.5,0,11.0,,121489.4,8.23,0.09,0.98,-0.16,-26.8,5.7,12.7,32.81,,,,,,,,,,
14.30.08.483,304.3,76.1,0,11.0,,123687.4,8.08,0.1,0.98,-0.14,-22.5,9.0,9.5,32.81,,,,,,,,,,
14.30.08.491,316.7,79.2,0,11.0,,119728.3,8.35,0.09,0.96,-0.13,-15.5,12.1,5.4,32.81,,,,,,,,,,
14.30.08.503,293.3,73.3,0,11.0,,118857.8,8.41,0.09,0.94,-0.12,-8.6,10.4,2.8,32.81,,,,,,,,,,
14.30.08.516,315.7,78.9,0,11.0,,124089.7,8.06,0.09,0.95,-0.13,-0.6,9.3,1.7,32.81,,,,,,,,,,
14.30.08.524,312.5,78.1,0,11.0,,121719.9,8.22,0.09,0.95,-0.14,4.9,7.7,0.7,32.81,,,,,,,,,,
14.30.08.536,338.6,84.6,0,11.0,,122452.5,8.17,0.09,0.96,-0.15,7.2,5.8,1.0,32.81,,,,,,,,,,
14.30.08.544,331.0,82.8,0,11.0,,120561.7,8.29,0.09,0.97,-0.17,7.6,5.7,1.1,32.81,,,,,,,,,,
14.30.08.557,264.7,66.2,0,11.0,,117295.4,8.53,0.1,0.99,-0.17,7.0,7.7,2.5,32.81,,,,,,,,,,
14.30.08.565,225.5,56.4,0,11.0,,118978.9,8.4,0.1,0.99,-0.18,4.8,6.5,2.7,32.81,,,,,,,,,,
14.30.08.577,225.4,56.4,0,11.0,,119183.0,8.39,0.09,0.99,-0.19,3.0,5.7,3.0,32.81,,,,,,,,,,
14.30.08.585,214.0,53.5,0,11.0,,122294.8,8.18,0.1,0.98,-0.18,0.1,6.0,3.1,32.81,,,,,,,,,,
14.30.08.598,170.3,42.6,0,11.0,,119675.5,8.36,0.11,0.97,-0.18,-1.6,6.1,2.0,32.81,,,,,,,,,,
14.30.08.635,18.7,4.7,0,11.0,,120293.4,8.31,0.1,0.97,-0.15,-1.1,7.6,-0.1,32.81,,,,,,,,,,
14.30.08.643,0.6,0.2,0,11.0,,118324.3,8.45,0.09,0.96,-0.16,4.6,4.2,-2.3,32.81,,,,,,,,,,
14.30.08.655,12.2,3.0,0,11.0,,121444.4,8.23,0.08,0.96,-0.15,3.3,0.0,-3.0,32.81,,,,,,,,,,
14.30.08.667,35.3,8.8,0,11.0,,121931.8,8.2,0.09,0.96,-0.17,2.7,-4.7,-5.1,32.81,,,,,,,,,,
14.30.08.675,36.9,9.2,0,11.0,,120081.5,8.33,0.1,0.97,-0.16,3.1,-4.2,-6.0,32.81,,,,,,,,,,
14.30.08.688,64.4,16.1,0,11.0,,120063.6,8.33,0.09,0.97,-0.17,3.1,0.2,-5.4,32.81,,,,,,,,,,
14.30.08.696,59.7,14.9,0,11.0,,120621.4,8.29,0.1,0.98,-0.18,4.6,6.0,-4.2,32.81,,,,,,,,,,
14.30.08.708,50.2,12.6,0,11.0,,120112.4,8.33,0.08,0.98,-0.19,5.3,11.0,-3.0,32.81,,,,,,,,,,
14.30.08.716,66.5,16.6,0,11.0,,121324.1,8.24,0.09,0.97,-0.18,2.3,10.1,-3.2,32.81,,,,,,,,,,
14.30.08.729,34.4,8.6,0,11.0,,120535.8,8.3,0.09,0.98,-0.18,2.6,8.0,-4.0,32.81,,,,,,,,,,
14.30.08.737,44.6,11.2,0,11.0,,120350.6,8.31,0.09,0.99,-0.18,6.1,7.8,-5.5,32.81,,,,,,,,,,
14.30.08.749,28.4,7.1,0,11.0,,119705.2,8.35,0.09,0.97,-0.18,7.7,8.7,-6.9,32.81,,,,,,,,,,
14.30.08.761,11.9,3.0,0,11.0,,120297.9,8.31,0.09,0.98,-0.19,8.4,9.3,-7.4,32.81,,,,,,,,,,
14.30.08.770,8.5,2.1,0,11.0,,119584.2,8.36,0.08,0.98,-0.19,9.1,7.4,-7.5,32.81,,,,,,,,,,
14.30.08.782,-8.3,2.1,0,11.0,,120452.8,8.3,0.09,0.99,-0.2,8.2,5.7,-6.7,32.81,,,,,,,,,,
14.30.08.790,-9.9,2.5,0,11.0,,119285.3,8.38,0.08,0.99,-0.2,7.5,6.7,-5.1,32.81,,,,,,,,,,
14.30.08.802,-11.9,3.0,0,11.0,,119278.9,8.38,0.08,0.98,-0.19,4.5,7.4,-4.2,32.81,,,,,,,,,,
14.30.08.811,-17.7,4.4,0,11.0,,120415.0,8.3,0.08,0.97,-0.18,2.3,5.7,-4.1,32.81,,,,,,,,,,
14.30.08.823,-30.5,7.6,0,11.0,,121131.7,8.26,0.08,0.97,-0.18,2.2,3.9,-4.6,32.81,,,,,,,,,,
14.30.08.831,-24.9,6.2,0,11.0,,116459.7,8.59,0.09,0.96,-0.18,-0.1,4.5,-3.7,32.81,,,,,,,,,,
14.30.08.843,-29.7,7.4,0,11.0,,119325.0,8.38,0.08,0.97,-0.18,2.5,5.7,-4.0,32.81,,,,,,,,,,
14.30.08.852,-32.6,8.2,0,11.0,,119329.5,8.38,0.09,0.97,-0.18,4.2,6.3,-4.1,32.81,,,,,,,,,,
14.30.08.864,-33.7,8.4,0,11.0,,120408.0,8.31,0.07,0.97,-0.17,3.7,6.8,-2.9,32.81,,,,,,,,,,
14.30.08.872,-41.8,10.4,0,11.0,,120675.2,8.29,0.08,0.95,-0.17,4.3,4.1,-3.4,32.81,,,,,,,,,,
14.30.08.884,-56.9,14.2,0,11.0,,122929.5,8.13,0.08,0.97,-0.19,9.3,5.5,-3.5,32.81,,,,,,,,,,
14.30.08.897,-46.5,11.6,0,11.0,,118916.0,8.41,0.08,0.97,-0.17,12.8,7.7,-3.6,32.81,,,,,,,,,,
14.30.08.905,-72.7,18.2,0,11.0,,122617.3,8.16,0.08,0.97,-0.19,12.4,9.3,-3.2,32.81,,,,,,,,,,
14.30.08.917,-64.1,16.0,0,11.0,,116837.2,8.56,0.08,0.98,-0.21,11.6,9.3,-2.7,32.81,,,,,,,,,,
14.30.08.925,-69.1,17.3,0,11.0,,117561.2,8.51,0.08,0.98,-0.2,9.2,7.3,-2.3,32.81,,,,,,,,,,
14.30.08.938,-66.0,16.5,0,11.0,,118059.6,8.47,0.08,0.98,-0.22,5.7,8.2,-0.9,32.81,,,,,,,,,,
14.30.08.946,-84.7,21.2,0,11.0,,121931.2,8.2,0.09,0.98,-0.21,3.5,8.8,0.2,32.81,,,,,,,,,,
14.30.08.958,-90.2,22.6,0,11.0,,120593.5,8.29,0.09,0.97,-0.21,1.0,8.3,0.5,32.81,,,,,,,,,,
14.30.08.966,-88.3,22.1,0,11.0,,121830.9,8.21,0.08,0.97,-0.2,-0.6,6.6,0.0,32.81,,,,,,,,,,
14.30.08.979,-85.1,21.3,0,11.0,,122418.4,8.17,0.08,0.97,-0.2,-3.0,6.8,0.9,32.81,,,,,,,,,,
14.30.08.991,-106.4,26.6,0,11.0,,119767.5,8.35,0.08,0.98,-0.2,-4.7,6.3,1.3,32.81,,,,,,,,,,
14.30.09.003,-92.3,23.1,0,11.0,,120080.7,8.33,0.07,0.97,-0.2,-6.3,5.8,0.6,32.81,,,,,,,,,,
14.30.09.011,-111.1,27.8,0,11.0,,119926.5,8.34,0.08,0.97,-0.19,-6.5,5.6,1.2,32.81,,,,,,,,,,
14.30.09.024,-106.1,26.5,0,11.0,,120510.6,8.3,0.08,0.96,-0.18,-6.1,6.2,1.6,32.81,,,,,,,,,,
14.30.09.032,-104.7,26.2,0,11.0,,121593.3,8.22,0.08,0.97,-0.17,-2.8,6.4,1.3,32.81,,,,,,,,,,
14.30.09.044,-121.8,30.4,0,11.0,,119757.6,8.35,0.08,0.96,-0.17,-1.1,8.9,1.8,32.81,,,,,,,,,,
14.30.09.056,-123.8,31.0,0,11.0,,121288.6,8.24,0.08,0.98,-0.2,-1.5,10.2,2.7,32.81,,,,,,,,,,
14.30.09.065,-126.7,31.7,0,11.0,,120474.1,8.3,0.09,0.97,-0.18,-0.4,7.7,2.1,32.81,,,,,,,,,,
14.30.09.077,23.2,5.8,1,12.0,89.7,122169.0,8.19,0.09,0.97,-0.2,0.5,7.1,2.8,32.81,,,,,,,,,,
14.30.09.085,52.5,13.1,0,12.0,,118371.7,8.45,0.08,0.97,-0.21,-0.6,9.2,1.6,32.81,,,,,,,,,,
14.30.09.097,105.4,26.4,0,12.0,,120898.4,8.27,0.08,0.98,-0.19,-1.4,8.2,2.4,32.81,,,,,,,,,,
14.30.09.106,140.5,35.1,0,12.0,,117074.3,8.54,0.09,0.98,-0.19,-1.5,7.5,2.7,32.81,,,,,,,,,,
14.30.09.118,203.8,51.0,0,12.0,,118626.4,8.43,0.08,0.96,-0.19,-2.3,5.5,1.0,32.81,,,,,,,,,,
14.30.09.126,214.9,53.7,0,12.0,,119023.8,8.4,0.1,0.97,-0.18,-0.7,5.8,-0.2,32.81,,,,,,,,,,
14.30.09.139,261.1,65.3,0,12.0,,119878.7,8.34,0.1,0.97,-0.19,1.1,9.0,0.4,32.81,,,,,,,,,,
14.30.09.147,276.9,69.2,0,12.0,,122034.9,8.19,0.09,0.98,-0.19,2.2,11.3,1.7,32.81,,,,,,,,,,
14.30.09.159,312.0,78.0,0,12.0,,119598.2,8.36,0.09,0.98,-0.18,3.4,9.7,2.2,32.81,,,,,,,,,,
14.30.09.167,297.5,74.4,0,12.0,,118094.5,8.47,0.09,0.97,-0.19,3.6,10.1,3.0,32.81,,,,,,,,,,
14.30.09.179,316.6,79.2,0,12.0,,122173.7,8.19,0.09,0.97,-0.19,3.1,8.7,2.2,32.81,,,,,,,,,,
14.30.09.187,304.4,76.1,0,12.0,,118240.9,8.46,0.1,0.96,-0.19,2.0,6.0,1.7,32.81,,,,,,,,,,
14.30.09.200,306.4,76.6,0,12.0,,121423.9,8.24,0.09,0.97,-0.2,1.0,4.5,1.4,32.81,,,,,,,,,,
14.30.09.208,310.1,77.5,0,12.0,,117226.4,8.53,0.09,0.97,-0.19,-0.2,2.9,0.9,32.81,,,,,,,,,,
14.30.09.220,317.2,79.3,0,12.0,,118736.1,8.42,0.09,0.97,-0.19,0.0,1.6,0.9,32.81,,,,,,,,,,
14.30.09.233,255.6,63.9,0,12.0,,119318.5,8.38,0.1,0.97,-0.18,3.2,1.5,0.3,32.81,,,,,,,,,,
14.30.09.241,272.5,68.1,0,12.0,,118678.4,8.43,0.09,0.97,-0.18,6.3,2.5,-0.5,32.81,,,,,,,,,,
14.30.09.253,219.7,54.9,0,12.0,,121229.3,8.25,0.09,0.98,-0.17,7.5,0.7,0.8,32.81,,,,,,,,,,
14.30.09.261,180.0,45.0,0,12.0,,117196.2,8.53,0.08,0.94,-0.19,8.5,0.1,0.1,32.81,,,,,,,,,,
14.30.09.274,129.5,32.4,0,12.0,,119930.6,8.34,0.09,0.95,-0.18,8.2,-3.0,-0.9,32.81,,,,,,,,,,
14.30.09.282,87.1,21.8,0,12.0,,119549.5,8.36,0.09,0.96,-0.19,7.1,-5.6,-0.4,32.81,,,,,,,,,,
14.30.09.294,36.5,9.1,0,12.0,,120109.3,8.33,0.09,0.96,-0.18,3.9,-9.7,-0.9,32.81,,,,,,,,,,
14.30.09.302,22.9,5.7,0,12.0,,119514.7,8.37,0.09,1.0,-0.19,1.2,-10.5,-1.2,32.81,,,,,,,,,,
14.30.09.314,18.0,4.5,0,12.0,,120061.0,8.33,0.1,0.96,-0.21,-6.7,-12.0,0.9,32.81,,,,,,,,,,
14.30.09.327,28.7,7.2,0,12.0,,118598.8,8.43,0.08,1.01,-0.19,-12.4,-18.1,2.4,32.81,,,,,,,,,,
14.30.09.335,33.2,8.3,0,12.0,,119549.3,8.36,0.09,0.97,-0.22,-17.4,-20.3,2.1,32.81,,,,,,,,,,
14.30.09.347,46.2,11.6,0,12.0,,120051.0,8.33,0.1,1.01,-0.26,-6.0,-8.1,2.3,32.81,,,,,,,,,,
14.30.09.356,53.5,13.4,0,12.0,,120655.2,8.29,0.09,0.96,-0.22,-7.9,-5.5,1.7,32.81,,,,,,,,,,
14.30.09.368,64.2,16.0,0,12.0,,122764.9,8.15,0.09,0.94,-0.23,-7.6,-5.1,0.5,32.81,,,,,,,,,,
14.30.09.380,50.7,12.7,0,12.0,,120287.0,8.31,0.1,0.95,-0.2,-3.9,-4.5,-2.3,32.81,,,,,,,,,,
14.30.09.389,57.4,14.4,0,12.0,,122611.7,8.16,0.1,0.97,-0.19,-2.0,-1.2,-3.1,32.81,,,,,,,,,,
14.30.09.401,36.3,9.1,0,12.0,,119428.4,8.37,0.09,0.97,-0.19,-0.2,6.0,-3.5,32.81,,,,,,,,,,
14.30.09.437,-8.9,2.2,0,12.0,,119072.1,8.4,0.16,0.91,-0.19,6.0,12.4,-3.6,32.81,,,,,,,,,,
14.30.09.446,0.9,0.2,0,12.0,,118623.6,8.43,0.08,0.95,-0.14,3.5,17.2,1.4,32.81,,,,,,,,,,
14.30.09.458,-9.4,2.4,0,12.0,,119028.6,8.4,0.09,0.94,-0.17,0.2,13.3,-0.4,32.81,,,,,,,,,,
14.30.09.466,-10.2,2.6,0,12.0,,118181.8,8.46,0.09,0.96,-0.18,1.2,16.1,-1.6,32.81,,,,,,,,,,
14.30.09.478,-12.7,3.2,0,12.0,,116077.6,8.61,0.09,0.97,-0.2,0.5,12.2,-0.5,32.81,,,,,,,,,,
14.30.09.491,-14.6,3.6,0,12.0,,119313.0,8.38,0.09,0.95,-0.19,0.3,11.9,0.2,32.81,,,,,,,,,,
14.30.09.499,-20.6,5.2,0,12.0,,121497.9,8.23,0.1,0.96,-0.19,-0.8,14.9,0.2,32.81,,,,,,,,,,
14.30.09.511,-34.1,8.5,0,12.0,,122275.2,8.18,0.1,0.97,-0.19,-1.9,11.8,-0.3,32.81,,,,,,,,,,
14.30.09.519,-39.4,9.8,0,12.0,,120744.8,8.28,0.1,0.99,-0.19,-1.8,9.4,-0.8,32.81,,,,,,,,,,
14.30.09.532,-40.7,10.2,0,12.0,,118248.8,8.46,0.11,0.96,-0.19,-2.9,7.9,-1.2,32.81,,,,,,,,,,
14.30.09.540,-52.6,13.2,0,12.0,,118364.8,8.45,0.1,0.97,-0.2,-5.6,7.6,-1.3,32.81,,,,,,,,,,
14.30.09.552,-54.3,13.6,0,12.0,,119790.5,8.35,0.1,0.97,-0.19,-6.6,8.3,-1.1,32.81,,,,,,,,,,
14.30.09.560,-52.3,13.1,0,12.0,,120055.3,8.33,0.09,0.99,-0.2,-7.1,9.5,-0.7,32.81,,,,,,,,,,
14.30.09.573,-62.3,15.6,0,12.0,,120537.3,8.3,0.1,0.96,-0.18,-7.6,9.3,-0.2,32.81,,,,,,,,,,
14.30.09.585,-67.0,16.8,0,12.0,,117962.1,8.48,0.09,0.97,-0.19,-7.1,11.6,0.7,32.81,,,,,,,,,,
14.30.09.593,-66.4,16.6,0,12.0,,119117.6,8.4,0.09,0.97,-0.19,-6.8,10.3,1.0,32.81,,,,,,,,,,
14.30.09.605,-83.7,20.9,0,12.0,,119297.7,8.38,0.09,0.98,-0.18,-4.4,11.3,1.5,32.81,,,,,,,,,,
14.30.09.614,-68.1,17.0,0,12.0,,120293.0,8.31,0.1,0.96,-0.16,-2.1,10.0,0.6,32.81,,,,,,,,,,
14.30.09.626,-77.6,19.4,0,12.0,,120752.7,8.28,0.1,0.96,-0.15,-0.5,9.7,0.2,32.81,,,,,,,,,,
14.30.09.634,-75.4,18.8,0,12.0,,121131.0,8.26,0.1,0.97,-0.18,2.7,9.9,-0.2,32.81,,,,,,,,,,
14.30.09.647,-90.5,22.6,0,12.0,,121277.8,8.25,0.1,0.97,-0.18,3.7,10.0,-0.2,32.81,,,,,,,,,,
14.30.09.659,-108.3,27.1,0,12.0,,119858.2,8.34,0.1,0.97,-0.19,3.6,9.9,-0.4,32.81,,,,,,,,,,
14.30.09.667,-109.7,27.4,0,12.0,,119136.9,8.39,0.1,0.97,-0.19,2.5,10.6,0.2,32.81,,,,,,,,,,
14.30.09.679,-98.4,24.6,0,12.0,,121439.1,8.23,0.1,0.97,-0.2,0.6,9.8,0.1,32.81,,,,,,,,,,
14.30.09.687,-106.5,26.6,0,12.0,,120207.1,8.32,0.1,0.97,-0.19,-0.2,10.3,0.4,32.81,,,,,,,,,,
14.30.09.700,-123.7,30.9,0,12.0,,118801.0,8.42,0.1,0.97,-0.19,-1.6,9.5,-0.1,32.81,,,,,,,,,,
14.30.09.708,-108.6,27.2,0,12.0,,122414.5,8.17,0.1,0.97,-0.17,-3.6,8.8,-0.2,32.81,,,,,,,,,,
14.30.09.720,-123.7,30.9,0,12.0,,120643.0,8.29,0.1,0.98,-0.16,-2.1,8.9,0.1,32.81,,,,,,,,,,
14.30.09.732,-130.3,32.6,0,12.0,,118337.8,8.45,0.1,0.98,-0.19,-0.4,8.9,0.3,32.81,,,,,,,,,,
14.30.09.741,20.6,5.2,1,13.0,88.7,121570.3,8.23,0.11,0.94,-0.14,-1.1,4.5,-0.1,32.81,,,,,,,,,,
14.30.09.753,59.7,14.9,0,13.0,,119587.3,8.36,0.1,0.99,-0.19,2.0,3.1,-1.7,32.81,,,,,,,,,,
14.30.09.761,98.4,24.6,0,13.0,,119891.0,8.34,0.11,0.95,-0.17,-0.1,0.0,-3.4,32.81,,,,,,,,,,
14.30.09.773,145.3,36.3,0,13.0,,118957.2,8.41,0.1,1.01,-0.25,0.8,2.2,-3.4,32.81,,,,,,,,,,
14.30.09.782,180.0,45.0,0,13.0,,121833.6,8.21,0.11,0.97,-0.17,0.5,5.5,-2.1,32.81,,,,,,,,,,
14.30.09.794,200.4,50.1,0,13.0,,119694.3,8.35,0.11,0.96,-0.18,-1.3,7.3,-0.9,32.81,,,,,,,,,,
14.30.09.802,253.2,63.3,0,13.0,,120101.8,8.33,0.1,0.97,-0.18,-1.5,8.3,0.3,32.81,,,,,,,,,,
14.30.09.814,309.4,77.4,0,13.0,,121006.7,8.26,0.1,0.97,-0.18,-2.5,7.0,0.8,32.81,,,,,,,,,,
14.30.09.823,301.7,75.4,0,13.0,,118649.1,8.43,0.1,0.97,-0.17,-4.6,6.1,0.7,32.81,,,,,,,,,,
14.30.09.835,326.6,81.6,0,13.0,,119115.2,8.4,0.09,0.96,-0.16,-6.3,3.2,-0.1,32.81,,,,,,,,,,
14.30.09.843,320.0,80.0,0,13.0,,119699.5,8.35,0.1,0.97,-0.16,-5.5,2.6,-0.7,32.81,,,,,,,,,,
14.30.09.855,328.0,82.0,0,13.0,,117193.6,8.53,0.1,0.97,-0.15,-1.6,3.6,-1.3,32.81,,,,,,,,,,
14.30.09.868,310.6,77.6,0,13.0,,123792.4,8.08,0.1,0.97,-0.16,0.7,4.4,-1.1,32.81,,,,,,,,,,
14.30.09.876,307.5,76.9,0,13.0,,119212.7,8.39,0.1,0.97,-0.16,1.2,4.5,-1.0,32.81,,,,,,,,,,
14.30.09.888,299.9,75.0,0,13.0,,118966.7,8.41,0.1,0.96,-0.17,1.5,2.8,-1.2,32.81,,,,,,,,,,
14.30.09.896,275.0,68.8,0,13.0,,120110.8,8.33,0.1,0.98,-0.19,-0.5,2.8,-0.2,32.81,,,,,,,,,,
14.30.09.909,241.8,60.4,0,13.0,,120764.3,8.28,0.09,0.98,-0.2,-4.1,0.3,0.1,32.81,,,,,,,,,,
14.30.09.917,234.8,58.7,0,13.0,,119644.9,8.36,0.1,0.99,-0.17,-6.5,-0.4,0.9,32.81,,,,,,,,,,
14.30.09.929,181.1,45.3,0,13.0,,120203.6,8.32,0.1,0.98,-0.18,-6.2,0.9,1.0,32.81,,,,,,,,,,
14.30.09.941,134.6,33.6,0,13.0,,120087.1,8.33,0.11,0.95,-0.19,-6.1,2.8,0.5,32.81,,,,,,,,,,
14.30.09.949,98.9,24.7,0,13.0,,120194.5,8.32,0.1,0.97,-0.17,-6.6,0.4,1.2,32.81,,,,,,,,,,
14.30.09.962,37.1,9.3,0,13.0,,120666.1,8.29,0.1,0.98,-0.16,-7.5,0.9,1.7,32.81,,,,,,,,,,
14.30.09.970,8.5,2.1,0,13.0,,123731.7,8.08,0.11,0.96,-0.16,-5.5,2.8,0.4,32.81,,,,,,,,,,
14.30.09.982,9.4,2.4,0,13.0,,122579.3,8.16,0.1,0.98,-0.15,-3.9,2.5,1.1,32.81,,,,,,,,,,
14.30.09.991,29.3,7.3,0,13.0,,120836.0,8.28,0.1,0.95,-0.15,-5.4,0.3,2.2,32.81,,,,,,,,,,
14.30.10.003,42.1,10.5,0,13.0,,120541.7,8.3,0.09,0.95,-0.16,-4.2,-2.2,3.1,32.81,,,,,,,,,,
14.30.10.011,44.0,11.0,0,13.0,,118840.5,8.41,0.1,1.04,-0.14,-4.9,-6.4,5.6,32.81,,,,,,,,,,
14.30.10.023,49.9,12.5,0,13.0,,117441.4,8.51,0.11,0.95,-0.17,-6.5,-6.9,4.1,32.81,,,,,,,,,,
14.30.10.031,55.8,14.0,0,13.0,,120822.3,8.28,0.11,1.0,-0.16,-3.6,-7.2,4.6,32.81,,,,,,,,,,
14.30.10.044,62.0,15.5,0,13.0,,121033.8,8.26,0.12,0.94,-0.19,-1.2,-3.9,2.2,32.81,,,,,,,,,,
14.30.10.052,55.4,13.8,0,13.0,,120126.6,8.32,0.11,0.93,-0.16,-1.6,-4.2,2.7,32.81,,,,,,,,,,
14.30.10.064,47.0,11.8,0,13.0,,115771.2,8.64,0.11,0.96,-0.18,0.2,-1.2,1.2,32.81,,,,,,,,,,
14.30.10.076,42.4,10.6,0,13.0,,119032.9,8.4,0.11,0.99,-0.18,-0.9,-0.1,1.9,32.81,,,,,,,,,,
14.30.10.085,38.8,9.7,0,13.0,,120191.9,8.32,0.12,1.0,-0.19,-4.3,0.7,2.1,32.81,,,,,,,,,,
14.30.10.097,7.2,1.8,0,13.0,,117690.1,8.5,0.12,0.96,-0.18,-8.0,0.5,1.1,32.81,,,,,,,,,,
14.30.10.105,-0.6,0.2,0,13.0,,121345.4,8.24,0.12,0.98,-0.18,-9.2,3.7,1.1,32.81,,,,,,,,,,
14.30.10.117,-7.0,1.8,0,13.0,,119990.6,8.33,0.11,0.97,-0.17,-10.8,6.3,0.0,32.81,,,,,,,,,,
14.30.10.126,-22.6,5.6,0,13.0,,118312.9,8.45,0.11,0.99,-0.16,-13.0,6.5,0.9,32.81,,,,,,,,,,
14.30.10.138,-9.3,2.3,0,13.0,,117687.1,8.5,0.11,0.98,-0.15,-13.7,6.3,2.1,32.81,,,,,,,,,,
14.30.10.146,-13.6,3.4,0,13.0,,119951.8,8.34,0.11,0.98,-0.15,-13.9,5.6,3.7,32.81,,,,,,,,,,
14.30.10.159,-33.7,8.4,0,13.0,,120716.4,8.28,0.11,1.01,-0.14,-12.3,4.1,5.2,32.81,,,,,,,,,,
14.30.10.171,-20.9,5.2,0,13.0,,117718.1,8.49,0.11,0.95,-0.13,-10.8,5.1,1.6,32.81,,,,,,,,,,
14.30.10.179,-41.6,10.4,0,13.0,,119352.6,8.38,0.11,0.99,-0.13,-6.6,6.7,1.3,32.81,,,,,,,,,,
14.30.10.191,-45.1,11.3,0,13.0,,120604.2,8.29,0.11,0.97,-0.12,-6.6,4.4,1.0,32.81,,,,,,,,,,
14.30.10.199,-38.2,9.6,0,13.0,,118110.2,8.47,0.11,0.96,-0.12,-3.0,3.5,-0.5,32.81,,,,,,,,,,
14.30.10.236,-58.2,14.6,0,13.0,,121329.2,8.24,0.11,0.96,-0.13,-0.8,5.0,-1.3,32.88,,,,,,,,,,
14.30.10.249,-51.0,12.8,0,13.0,,119908.0,8.34,0.12,0.95,-0.16,-3.2,3.2,-1.1,32.88,,,,,,,,,,
14.30.10.257,-70.0,17.5,0,13.0,,119667.4,8.36,0.12,0.98,-0.15,-1.3,5.1,-1.0,32.88,,,,,,,,,,
14.30.10.269,-74.8,18.7,0,13.0,,121320.2,8.24,0.12,0.98,-0.14,-2.2,6.9,-1.7,32.88,,,,,,,,,,
14.30.10.281,-66.8,16.7,0,13.0,,121665.3,8.22,0.11,0.97,-0.15,-3.3,7.7,-1.5,32.88,,,,,,,,,,
14.30.10.290,-96.0,24.0,0,13.0,,118145.3,8.46,0.12,0.97,-0.14,-4.9,7.6,-2.0,32.88,,,,,,,,,,
14.30.10.302,-92.9,23.2,0,13.0,,121614.4,8.22,0.12,0.97,-0.14,-6.1,7.0,-1.9,32.88,,,,,,,,,,
14.30.10.314,-97.4,24.4,0,13.0,,122136.5,8.19,0.12,0.98,-0.13,-5.7,8.5,-1.7,32.88,,,,,,,,,,
14.30.10.322,-98.1,24.5,0,13.0,,118804.3,8.42,0.11,0.98,-0.13,-4.1,7.9,-1.1,32.88,,,,,,,,,,
14.30.10.335,-94.8,23.7,0,13.0,,120848.0,8.27,0.11,0.97,-0.13,-3.6,7.5,-0.8,32.88,,,,,,,,,,
14.30.10.343,-110.0,27.5,0,13.0,,119556.6,8.36,0.11,0.97,-0.13,-2.2,7.4,-0.9,32.88,,,,,,,,,,
14.30.10.355,-114.6,28.6,0,13.0,,119818.2,8.35,0.11,0.98,-0.12,-0.8,6.9,-1.4,32.88,,,,,,,,,,
14.30.10.363,-114.7,28.7,0,13.0,,120264.6,8.31,0.11,0.97,-0.12,-0.6,7.3,-1.5,32.88,,,,,,,,,,
14.30.10.376,-119.1,29.8,0,13.0,,117216.6,8.53,0.11,0.97,-0.13,0.2,7.5,-2.0,32.88,,,,,,,,,,
14.30.10.384,-115.7,28.9,0,13.0,,117100.8,8.54,0.12,0.97,-0.13,1.0,7.9,-2.4,32.88,,,,,,,,,,
14.30.10.396,-133.7,33.4,0,13.0,,117288.1,8.53,0.12,0.98,-0.13,0.4,7.2,-2.2,32.88,,,,,,,,,,
14.30.10.404,-121.8,30.4,0,13.0,,121787.9,8.21,0.11,0.98,-0.13,-0.5,7.0,-1.3,32.88,,,,,,,,,,
14.30.10.416,60.1,15.0,1,14.0,90.0,120425.5,8.3,0.11,0.98,-0.14,-1.1,6.9,-0.5,32.88,,,,,,,,,,
14.30.10.429,106.6,26.6,0,14.0,,119324.3,8.38,0.11,0.97,-0.13,-0.4,6.1,-1.0,32.88,,,,,,,,,,
14.30.10.437,141.7,35.4,0,14.0,,122047.3,8.19,0.12,0.97,-0.12,1.1,5.9,-1.7,32.88,,,,,,,,,,
14.30.10.449,169.8,42.4,0,14.0,,120778.8,8.28,0.12,0.97,-0.12,4.5,7.2,-2.0,32.88,,,,,,,,,,
14.30.10.457,214.9,53.7,0,14.0,,121241.3,8.25,0.11,0.97,-0.12,6.6,7.4,-1.2,32.88,,,,,,,,,,
14.30.10.470,273.7,68.4,0,14.0,,122194.9,8.18,0.11,0.97,-0.12,6.9,6.1,-0.7,32.88,,,,,,,,,,
14.30.10.478,271.0,67.8,0,14.0,,115709.6,8.64,0.1,1.01,-0.12,4.7,1.3,2.4,32.88,,,,,,,,,,
14.30.10.490,314.9,78.7,0,14.0,,119557.1,8.36,0.07,1.03,-0.09,-1.4,-11.7,7.8,32.88,,,,,,,,,,
14.30.10.499,317.0,79.2,0,14.0,,121542.1,8.23,0.09,0.98,-0.08,-6.1,-22.0,9.9,32.88,,,,,,,,,,
14.30.10.511,320.0,80.0,0,14.0,,121281.8,8.25,0.11,0.95,-0.1,-4.9,-25.8,8.5,32.88,,,,,,,,,,
14.30.10.523,309.5,77.4,0,14.0,,118482.9,8.44,0.12,0.93,-0.11,1.5,-23.9,5.3,32.88,,,,,,,,,,
14.30.10.531,332.3,83.1,0,14.0,,119238.2,8.39,0.12,0.97,-0.1,7.1,-24.7,2.8,32.88,,,,,,,,,,
14.30.10.544,317.2,79.3,0,14.0,,120126.5,8.32,0.12,0.96,-0.13,8.7,-24.0,0.2,32.88,,,,,,,,,,
14.30.10.552,290.5,72.6,0,14.0,,120487.3,8.3,-0.09,1.03,-0.1,20.9,16.0,4.4,32.88,,,,,,,,,,
14.30.10.564,280.3,70.1,0,14.0,,120587.4,8.29,0.15,0.97,-0.37,50.5,37.8,3.8,32.88,,,,,,,,,,
14.30.10.576,246.5,61.6,0,14.0,,119769.0,8.35,0.31,0.93,-0.13,12.6,-11.8,-5.9,32.88,,,,,,,,,,
14.30.10.584,212.7,53.2,0,14.0,,119205.3,8.39,0.14,0.92,-0.23,9.2,-5.6,-7.1,32.88,,,,,,,,,,
14.30.10.597,168.7,42.2,0,14.0,,119452.5,8.37,0.13,1.01,-0.22,8.5,4.0,-6.5,32.88,,,,,,,,,,
14.30.10.605,139.0,34.8,0,14.0,,123331.9,8.11,0.11,1.02,-0.21,-1.6,3.4,-3.8,32.88,,,,,,,,,,
14.30.10.617,83.8,21.0,0,14.0,,118534.5,8.44,0.12,1.0,-0.2,-11.3,3.3,-3.2,32.88,,,,,,,,,,
14.30.10.625,63.7,15.9,0,14.0,,119251.6,8.39,0.09,0.99,-0.13,-10.5,14.0,0.4,32.88,,,,,,,,,,
14.30.10.638,-1.1,0.3,0,14.0,,121473.8,8.23,0.12,0.98,-0.19,-17.2,4.0,2.8,32.88,,,,,,,,,,
14.30.10.650,8.9,2.2,0,14.0,,119695.1,8.35,0.12,0.98,-0.16,-15.6,9.2,1.6,32.88,,,,,,,,,,
14.30.10.658,24.8,6.2,0,14.0,,119359.0,8.38,0.12,0.98,-0.14,-16.3,5.1,2.6,32.88,,,,,,,,,,
14.30.10.670,38.8,9.7,0,14.0,,119021.2,8.4,0.12,0.96,-0.13,-11.8,7.3,1.2,32.88,,,,,,,,,,
14.30.10.679,50.6,12.6,0,14.0,,121381.9,8.24,0.13,0.96,-0.11,-9.7,7.5,1.0,32.88,,,,,,,,,,
14.30.10.691,52.4,13.1,0,14.0,,120602.6,8.29,0.12,0.95,-0.11,-6.5,7.3,-0.8,32.88,,,,,,,,,,
14.30.10.699,60.7,15.2,0,14.0,,121669.8,8.22,0.12,0.95,-0.12,-4.5,5.1,-0.8,32.88,,,,,,,,,,
14.30.10.712,60.5,15.1,0,14.0,,119402.3,8.38,0.11,0.96,-0.12,-1.6,3.9,-1.2,32.88,,,,,,,,,,
14.30.10.720,50.5,12.6,0,14.0,,122838.3,8.14,0.12,0.96,-0.11,0.1,3.8,-1.7,32.88,,,,,,,,,,
14.30.10.732,54.4,13.6,0,14.0,,119276.3,8.38,0.12,0.98,-0.13,1.6,3.3,-1.6,32.88,,,,,,,,,,
14.30.10.740,51.3,12.8,0,14.0,,119641.0,8.36,0.12,0.97,-0.13,3.3,3.6,-1.1,32.88,,,,,,,,,,
14.30.10.753,29.9,7.5,0,14.0,,122610.9,8.16,0.11,0.97,-0.13,4.6,2.7,-1.0,32.88,,,,,,,,,,
14.30.10.765,20.4,5.1,0,14.0,,120107.0,8.33,0.11,0.99,-0.14,4.5,3.5,-0.5,32.88,,,,,,,,,,
14.30.10.773,1.0,0.2,0,14.0,,119893.9,8.34,0.12,0.97,-0.14,3.3,2.7,0.0,32.88,,,,,,,,,,
14.30.10.785,-16.3,4.1,0,14.0,,117591.0,8.5,0.12,0.97,-0.13,3.0,-0.4,0.5,32.88,,,,,,,,,,
14.30.10.793,-11.7,2.9,0,14.0,,119735.7,8.35,0.12,1.0,-0.12,1.6,-2.0,2.3,32.88,,,,,,,,,,
14.30.10.806,-25.7,6.4,0,14.0,,121978.6,8.2,0.11,1.0,-0.12,1.3,-5.6,3.6,32.88,,,,,,,,,,
14.30.10.814,-7.7,1.9,0,14.0,,118571.2,8.43,0.11,0.97,-0.11,0.6,-9.3,3.8,32.88,,,,,,,,,,
14.30.10.826,-30.1,7.5,0,14.0,,116625.5,8.57,0.12,0.97,-0.13,2.2,-11.8,3.2,32.88,,,,,,,,,,
14.30.10.835,-38.1,9.5,0,14.0,,119983.2,8.33,0.13,0.97,-0.13,3.8,-10.0,2.1,32.88,,,,,,,,,,
14.30.10.847,-35.7,8.9,0,14.0,,117031.3,8.54,0.13,0.97,-0.13,6.3,-9.2,1.9,32.88,,,,,,,,,,
14.30.10.855,-24.1,6.0,0,14.0,,121034.5,8.26,0.1,0.95,-0.17,6.4,-2.9,1.9,32.88,,,,,,,,,,
14.30.10.867,-41.8,10.4,0,14.0,,121098.6,8.26,0.12,0.96,-0.14,4.7,-6.1,1.4,32.88,,,,,,,,,,
14.30.10.879,-43.6,10.9,0,14.0,,123163.1,8.12,0.12,0.99,-0.16,3.0,-8.7,2.0,32.88,,,,,,,,,,
14.30.10.888,-46.2,11.6,0,14.0,,121014.5,8.26,0.12,0.98,-0.16,2.7,-9.0,1.4,32.88,,,,,,,,,,
14.30.10.900,-53.7,13.4,0,14.0,,120857.7,8.27,0.13,0.97,-0.17,0.1,-7.8,-0.3,32.88,,,,,,,,,,
14.30.10.908,-61.6,15.4,0,14.0,,118828.8,8.42,0.18,0.96,-0.19,2.2,0.6,-2.5,32.88,,,,,,,,,,
14.30.10.920,-62.5,15.6,0,14.0,,117315.7,8.52,0.14,0.99,-0.17,-4.8,-1.6,-2.1,32.88,,,,,,,,,,
14.30.10.933,-68.1,17.0,0,14.0,,119203.9,8.39,0.13,0.98,-0.18,-3.5,0.1,-0.4,32.88,,,,,,,,,,
14.30.10.941,-65.5,16.4,0,14.0,,120756.3,8.28,0.12,1.0,-0.16,-4.6,1.7,1.1,32.88,,,,,,,,,,
14.30.10.953,-69.9,17.5,0,14.0,,121604.0,8.22,0.12,0.99,-0.14,-7.3,1.0,2.5,32.88,,,,,,,,,,
14.30.10.961,-77.6,19.4,0,14.0,,120733.3,8.28,0.12,0.97,-0.14,-8.3,-0.6,2.8,32.88,,,,,,,,,,
14.30.10.974,-83.7,20.9,0,14.0,,120336.7,8.31,0.13,0.96,-0.13,-7.4,-0.5,2.2,32.88,,,,,,,,,,
14.30.10.982,-86.4,21.6,0,14.0,,122061.9,8.19,0.12,0.96,-0.13,-5.1,-1.7,1.7,32.88,,,,,,,,,,
14.30.10.994,-95.8,24.0,0,14.0,,119750.5,8.35,0.13,0.96,-0.14,-2.4,-1.2,0.6,32.88,,,,,,,,,,
14.30.11.003,-118.7,29.7,0,14.0,,121466.4,8.23,0.13,0.96,-0.13,-2.8,-1.2,-0.4,32.88,,,,,,,,,,
14.30.11.039,-127.1,31.8,0,14.0,,118847.8,8.41,0.13,0.96,-0.14,-1.0,-1.7,-1.6,32.88,,,,,,,,,,
14.30.11.052,-122.5,30.6,0,14.0,,121327.2,8.24,0.13,0.97,-0.15,-2.5,-2.6,-2.8,32.88,,,,,,,,,,
14.30.11.064,-133.1,33.3,0,14.0,,119362.5,8.38,0.13,0.97,-0.16,-4.1,-0.7,-2.1,32.88,,,,,,,,,,
14.30.11.072,-3.4,0.8,1,15.0,90.4,119679.1,8.36,0.12,0.97,-0.15,-4.4,0.9,-2.6,32.88,,,,,,,,,,
14.30.11.084,59.1,14.8,0,15.0,,120667.0,8.29,0.13,0.99,-0.16,-4.0,3.1,-2.7,32.88,92.4,,,,,,,,,
14.30.11.092,76.7,19.2,0,15.0,,121582.3,8.22,0.12,0.98,-0.15,-4.3,5.5,-2.3,32.88,,,,,,,,,,
14.30.11.105,127.9,32.0,0,15.0,,120919.6,8.27,0.13,0.97,-0.14,-3.6,4.5,-2.7,32.88,,,,,,,,,,
14.30.11.113,169.6,42.4,0,15.0,,120827.1,8.28,0.13,0.97,-0.14,-3.4,5.3,-2.2,32.88,,,,,,,,,,
14.30.11.125,219.5,54.9,0,15.0,,119965.9,8.34,0.13,0.97,-0.14,-4.1,6.0,-1.5,32.88,,,,,,,,,,
14.30.11.138,259.9,65.0,0,15.0,,120547.7,8.3,0.12,0.98,-0.12,-4.2,4.7,-2.0,32.88,,,,,,,,,,
14.30.11.146,289.1,72.3,0,15.0,,118113.2,8.47,0.12,0.97,-0.13,-3.8,4.0,-2.6,32.88,,,,,,,,,,
14.30.11.158,297.5,74.4,0,15.0,,120902.0,8.27,0.12,0.96,-0.13,-3.0,3.5,-3.2,32.88,,,,,,,,,,
14.30.11.166,327.8,82.0,0,15.0,,120144.4,8.32,0.13,0.97,-0.13,-0.6,4.1,-3.9,32.88,,,,,,,,,,
14.30.11.178,314.8,78.7,0,15.0,,117930.8,8.48,0.12,0.98,-0.12,-1.4,4.7,-3.0,32.88,,,,,,,,,,
14.30.11.187,338.2,84.6,0,15.0,,118024.0,8.47,0.12,0.98,-0.13,-2.1,4.5,-2.8,32.88,,,,,,,,,,
14.30.11.199,319.8,80.0,0,15.0,,122907.6,8.14,0.12,0.97,-0.13,-2.2,5.0,-2.7,32.88,,,,,,,,,,
14.30.11.211,312.2,78.0,0,15.0,,121092.8,8.26,0.13,0.96,-0.13,-3.4,5.8,-3.3,32.88,,,,,,,,,,
14.30.11.220,296.2,74.0,0,15.0,,120699.8,8.29,0.12,0.98,-0.14,-2.8,8.0,-3.1,32.88,,,,,,,,,,
14.30.11.232,250.9,62.7,0,15.0,,118551.7,8.44,0.12,0.98,-0.14,-4.1,9.3,-2.5,32.88,,,,,,,,,,
14.30.11.240,247.0,61.8,0,15.0,,122494.5,8.16,0.11,0.98,-0.14,-6.6,9.3,-2.0,32.88,,,,,,,,,,
14.30.11.252,238.1,59.5,0,15.0,,118517.4,8.44,0.12,0.98,-0.13,-7.4,8.5,-2.2,32.88,,,,,,,,,,
14.30.11.260,196.4,49.1,0,15.0,,120045.2,8.33,0.12,0.97,-0.13,-6.9,8.4,-2.6,32.88,,,,,,,,,,
14.30.11.273,138.7,34.7,0,15.0,,120163.0,8.32,0.12,0.97,-0.12,-5.7,9.6,-2.3,32.88,,,,,,,,,,
14.30.11.281,105.4,26.4,0,15.0,,115833.0,8.63,0.11,0.98,-0.12,-5.0,10.5,-1.9,32.88,,,,,,,,,,
14.30.11.293,53.9,13.5,0,15.0,,119475.9,8.37,0.11,0.98,-0.12,-4.5,9.7,-1.5,32.88,,,,,,,,,,
14.30.11.306,4.5,1.1,0,15.0,,121120.3,8.26,0.12,0.99,-0.12,-3.1,8.6,-1.4,32.88,,,,,,,,,,
14.30.11.314,10.7,2.7,0,15.0,,120904.0,8.27,0.12,0.97,-0.11,-2.2,7.3,-1.8,32.88,,,,,,,,,,
14.30.11.326,17.7,4.4,0,15.0,,119386.9,8.38,0.12,0.98,-0.12,-1.4,7.4,-1.6,32.88,,,,,,,,,,
14.30.11.334,44.0,11.0,0,15.0,,119414.0,8.37,0.12,0.98,-0.11,-1.3,7.2,-2.0,32.88,,,,,,,,,,
14.30.11.347,49.5,12.4,0,15.0,,119665.0,8.36,0.12,0.97,-0.12,-1.2,6.8,-1.6,32.88,,,,,,,,,,
14.30.11.355,56.3,14.1,0,15.0,,120000.4,8.33,0.12,0.98,-0.12,-1.1,7.1,-1.8,32.88,,,,,,,,,,
14.30.11.367,62.8,15.7,0,15.0,,119250.7,8.39,0.12,0.98,-0.12,-0.9,8.3,-1.8,32.88,,,,,,,,,,
14.30.11.375,57.4,14.4,0,15.0,,120526.1,8.3,0.12,0.98,-0.12,-2.0,7.9,-1.8,32.88,,,,,,,,,,
14.30.11.387,45.6,11.4,0,15.0,,120759.4,8.28,0.12,0.98,-0.12,-2.9,7.1,-1.9,32.88,,,,,,,,,,
14.30.11.400,43.7,10.9,0,15.0,,121264.6,8.25,0.12,0.98,-0.12,-3.4,7.5,-1.3,32.88,,,,,,,,,,
14.30.11.408,46.2,11.6,0,15.0,,121066.2,8.26,0.12,0.98,-0.11,-3.3,8.1,-0.6,32.88,,,,,,,,,,
14.30.11.420,13.8,3.4,0,15.0,,122261.4,8.18,0.12,0.97,-0.11,-3.7,8.2,-0.3,32.88,,,,,,,,,,
14.30.11.428,19.9,5.0,0,15.0,,119112.7,8.4,0.12,0.98,-0.12,-4.1,9.0,1.0,32.88,,,,,,,,,,
14.30.11.441,4.2,1.0,0,15.0,,120277.8,8.31,0.12,0.97,-0.11,-4.3,8.9,1.2,32.88,,,,,,,,,,
14.30.11.449,1.7,0.4,0,15.0,,118866.1,8.41,0.12,0.97,-0.11,-2.8,8.0,0.7,32.88,,,,,,,,,,
14.30.11.461,1.8,0.4,0,15.0,,119435.4,8.37,0.12,0.97,-0.1,-2.0,7.7,0.3,32.88,,,,,,,,,,
14.30.11.469,-21.7,5.4,0,15.0,,119712.8,8.35,0.12,0.98,-0.1,-1.7,7.1,-0.3,32.88,,,,,,,,,,
14.30.11.482,-5.3,1.3,0,15.0,,119109.8,8.4,0.12,0.98,-0.1,-1.1,6.6,-0.9,32.88,,,,,,,,,,
14.30.11.490,-38.2,9.6,0,15.0,,121547.4,8.23,0.12,0.97,-0.1,-1.3,5.9,-1.1,32.88,,,,,,,,,,
14.30.11.506,-20.2,5.0,0,15.0,,120100.7,8.33,0.12,0.98,-0.11,-1.0,5.6,-1.1,32.88,,,,,,,,,,
14.30.11.515,-38.6,9.6,0,15.0,,119994.1,8.33,0.12,0.98,-0.11,-0.7,5.7,-1.4,32.88,,,,,,,,,,
14.30.11.527,-39.4,9.8,0,15.0,,120887.8,8.27,0.12,0.98,-0.11,-1.1,5.9,-1.1,32.88,,,,,,,,,,
14.30.11.535,-38.4,9.6,0,15.0,,120801.9,8.28,0.12,0.98,-0.11,-1.8,6.6,-0.9,32.88,,,,,,,,,,
14.30.11.547,-52.1,13.0,0,15.0,,119799.5,8.35,0.12,0.97,-0.11,-2.0,6.8,-0.6,32.88,,,,,,,,,,
14.30.11.555,-58.1,14.5,0,15.0,,119926.1,8.34,0.13,0.98,-0.11,-2.3,7.8,-0.2,32.88,,,,,,,,,,
14.30.11.568,-61.6,15.4,0,15.0,,123559.3,8.09,0.12,0.98,-0.11,-2.3,8.1,-0.3,32.88,,,,,,,,,,
14.30.11.576,-61.5,15.4,0,15.0,,119206.2,8.39,0.13,0.97,-0.1,-1.9,8.5,-0.2,32.88,,,,,,,,,,
14.30.11.588,-66.5,16.6,0,15.0,,119531.2,8.37,0.12,0.98,-0.1,-1.7,8.0,-0.5,32.88,,,,,,,,,,
14.30.11.596,-70.7,17.7,0,15.0,,118502.9,8.44,0.12,0.98,-0.11,-1.7,7.3,-0.9,32.88,,,,,,,,,,
14.30.11.609,-72.2,18.0,0,15.0,,121565.9,8.23,0.12,0.98,-0.1,-1.0,6.8,-0.9,32.88,,,,,,,,,,
14.30.11.621,-84.5,21.1,0,15.0,,117975.8,8.48,0.12,0.97,-0.1,-0.3,6.4,-1.2,32.88,,,,,,,,,,
14.30.11.629,-89.5,22.4,0,15.0,,120452.3,8.3,0.13,0.98,-0.11,0.5,6.7,-1.4,32.88,,,,,,,,,,
14.30.11.641,-90.2,22.6,0,15.0,,118182.9,8.46,0.12,0.98,-0.11,0.8,6.1,-1.5,32.88,,,,,,,,,,
14.30.11.650,-89.6,22.4,0,15.0,,122776.8,8.14,0.12,0.98,-0.11,0.4,6.4,-1.2,32.88,,,,,,,,,,
14.30.11.662,-97.6,24.4,0,15.0,,116998.7,8.55,0.13,0.98,-0.11,0.1,7.1,-0.6,32.88,,,,,,,,,,
14.30.11.670,-106.4,26.6,0,15.0,,118682.4,8.43,0.13,0.98,-0.11,-0.4,8.6,-0.1,32.88,,,,,,,,,,
14.30.11.683,-102.6,25.6,0,15.0,,119601.3,8.36,0.12,0.98,-0.11,-0.7,9.9,0.4,32.88,,,,,,,,,,
14.30.11.695,-111.1,27.8,0,15.0,,121860.0,8.21,0.12,0.98,-0.12,-0.6,10.5,1.3,32.88,,,,,,,,,,
14.30.11.703,-110.1,27.5,0,15.0,,117203.3,8.53,0.12,0.98,-0.1,-0.4,10.5,1.3,32.88,,,,,,,,,,
14.30.11.715,-116.1,29.0,0,15.0,,119828.1,8.35,0.13,0.97,-0.1,-0.5,10.4,0.9,32.88,,,,,,,,,,
14.30.11.723,-113.4,28.4,0,15.0,,118643.8,8.43,0.12,0.97,-0.1,-1.0,8.7,0.5,32.88,,,,,,,,,,
14.30.11.736,-119.3,29.8,0,15.0,,120463.0,8.3,0.13,0.97,-0.1,-1.3,7.6,-0.4,32.88,,,,,,,,,,
14.30.11.744,25.0,6.2,1,16.0,90.0,120003.6,8.33,0.12,0.98,-0.1,-0.8,6.5,-1.4,32.88,,,,,,,,,,
14.30.11.757,86.8,21.7,0,16.0,,119779.5,8.35,0.12,0.97,-0.1,-0.5,5.9,-1.9,32.88,,,,,,,,,,
14.30.11.768,117.5,29.4,0,16.0,,119619.5,8.36,0.12,0.98,-0.1,-0.3,5.4,-2.1,32.88,,,,,,,,,,
14.30.11.777,152.1,38.0,0,16.0,,119538.6,8.37,0.12,0.97,-0.1,-0.4,5.7,-2.0,32.88,,,,,,,,,,
14.30.11.789,204.3,51.1,0,16.0,,118181.2,8.46,0.13,0.98,-0.11,-0.6,6.0,-2.2,32.88,,,,,,,,,,
14.30.11.797,224.3,56.1,0,16.0,,116381.6,8.59,0.13,0.98,-0.11,-1.0,5.9,-1.9,32.88,,,,,,,,,,
14.30.11.809,299.1,74.8,0,16.0,,119299.6,8.38,0.13,0.98,-0.1,-1.4,6.5,-1.6,32.88,,,,,,,,,,
14.30.11.846,321.0,80.2,0,16.0,,120343.4,8.31,0.13,0.98,-0.11,-2.1,7.8,-1.4,32.81,,,,,,,,,,
14.30.11.854,336.3,84.1,0,16.0,,120894.5,8.27,0.13,0.98,-0.11,-8.0,9.6,-1.8,32.81,,,,,,,,,,
14.30.11.867,344.0,86.0,0,16.0,,118950.6,8.41,0.13,0.98,-0.12,-10.6,11.4,-1.5,32.81,,,,,,,,,,
14.30.11.879,328.8,82.2,0,16.0,,121364.6,8.24,0.13,1.0,-0.12,-8.9,14.2,-0.9,32.81,,,,,,,,,,
14.30.11.887,309.3,77.3,0,16.0,,117471.1,8.51,0.13,1.0,-0.12,-9.9,13.6,0.0,32.81,,,,,,,,,,
14.30.11.899,276.9,69.2,0,16.0,,120550.1,8.3,0.12,0.99,-0.1,-12.8,13.5,1.8,32.81,,,,,,,,,,
14.30.11.908,248.9,62.2,0,16.0,,121541.5,8.23,0.13,0.99,-0.09,-11.4,13.9,2.7,32.81,,,,,,,,,,
14.30.11.920,218.3,54.6,0,16.0,,119748.2,8.35,0.11,0.98,-0.08,-11.2,14.6,3.1,32.81,,,,,,,,,,
14.30.11.928,184.2,46.0,0,16.0,,119665.0,8.36,0.12,0.96,-0.06,-7.3,11.3,2.4,32.81,,,,,,,,,,
14.30.11.940,146.9,36.7,0,16.0,,120196.4,8.32,0.12,0.97,-0.05,-4.2,7.8,1.1,32.81,,,,,,,,,,
14.30.11.953,83.7,20.9,0,16.0,,118984.5,8.4,0.12,0.95,-0.05,0.3,4.9,-0.3,32.81,,,,,,,,,,
14.30.11.961,45.8,11.4,0,16.0,,122335.6,8.17,0.13,0.96,-0.06,4.8,4.7,-1.5,32.81,,,,,,,,,,
14.30.11.973,-0.4,0.1,0,16.0,,118986.3,8.4,0.13,0.98,-0.07,8.1,4.4,-2.3,32.81,,,,,,,,,,
14.30.11.981,15.9,4.0,0,16.0,,119081.1,8.4,0.13,0.98,-0.09,10.6,4.3,-2.1,32.81,,,,,,,,,,
14.30.11.994,21.4,5.4,0,16.0,,121308.7,8.24,0.12,0.98,-0.09,11.2,3.7,-1.5,32.81,,,,,,,,,,
14.30.12.002,33.7,8.4,0,16.0,,120177.2,8.32,0.12,0.99,-0.1,12.0,3.7,-0.6,32.81,,,,,,,,,,
14.30.12.014,55.1,13.8,0,16.0,,120190.7,8.32,0.13,0.99,-0.1,11.5,1.8,0.2,32.81,,,,,,,,,,
14.30.12.027,60.0,15.0,0,16.0,,118793.3,8.42,0.13,0.97,-0.1,8.7,-1.5,0.4,32.81,,,,,,,,,,
14.30.12.035,63.0,15.8,0,16.0,,118370.3,8.45,0.13,0.97,-0.08,10.4,-1.4,-0.8,32.81,,,,,,,,,,
14.30.12.047,65.8,16.4,0,16.0,,119830.9,8.35,0.14,0.97,-0.09,11.6,-0.6,-1.8,32.81,,,,,,,,,,
14.30.12.055,55.3,13.8,0,16.0,,118018.4,8.47,0.13,0.97,-0.1,11.3,-0.2,-2.5,32.81,,,,,,,,,,
14.30.12.068,48.5,12.1,0,16.0,,120891.6,8.27,0.14,0.97,-0.11,10.3,0.9,-2.9,32.81,,,,,,,,,,
14.30.12.076,37.2,9.3,0,16.0,,119164.6,8.39,0.14,0.97,-0.11,7.7,2.6,-3.4,32.81,,,,,,,,,,
14.30.12.088,20.5,5.1,0,16.0,,118747.5,8.42,0.14,0.98,-0.11,3.3,4.0,-3.1,32.81,,,,,,,,,,
14.30.12.096,11.6,2.9,0,16.0,,122108.8,8.19,0.14,0.99,-0.12,1.1,5.3,-3.7,32.81,,,,,,,,,,
14.30.12.108,2.6,0.6,0,16.0,,120993.6,8.26,0.14,0.98,-0.12,-2.2,5.7,-3.8,32.81,,,,,,,,,,
14.30.12.117,-3.9,1.0,0,16.0,,118336.0,8.45,0.13,0.98,-0.12,-5.2,7.0,-3.7,32.81,,,,,,,,,,
14.30.12.129,-2.1,0.5,0,16.0,,118236.8,8.46,0.13,0.99,-0.11,-7.2,8.1,-3.7,32.81,,,,,,,,,,
14.30.12.141,-17.8,4.4,0,16.0,,118268.7,8.46,0.12,0.99,-0.11,-9.4,8.9,-3.0,32.81,,,,,,,,,,
14.30.12.149,-20.8,5.2,0,16.0,,121167.3,8.25,0.12,0.98,-0.11,-11.0,10.3,-2.3,32.81,,,,,,,,,,
14.30.12.162,-24.9,6.2,0,16.0,,119018.7,8.4,0.12,0.98,-0.1,-10.0,10.4,-1.5,32.81,,,,,,,,,,
14.30.12.170,-24.8,6.2,0,16.0,,121139.1,8.25,0.12,0.98,-0.09,-8.9,9.4,-0.8,32.81,,,,,,,,,,
14.30.12.182,-26.0,6.5,0,16.0,,118536.1,8.44,0.12,0.98,-0.1,-8.9,8.5,-0.9,32.81,,,,,,,,,,
14.30.12.190,-44.9,11.2,0,16.0,,120752.0,8.28,0.13,0.97,-0.08,-7.0,8.3,-1.2,32.81,,,,,,,,,,
14.30.12.203,-39.0,9.8,0,16.0,,123145.7,8.12,0.13,0.98,-0.07,-5.4,7.9,-0.8,32.81,,,,,,,,,,
14.30.12.211,-41.9,10.5,0,16.0,,119798.2,8.35,0.13,0.97,-0.08,-3.9,7.7,-1.1,32.81,,,,,,,,,,
14.30.12.223,-51.4,12.8,0,16.0,,118869.4,8.41,0.12,0.98,-0.08,-2.9,7.6,-1.2,32.81,,,,,,,,,,
14.30.12.231,-58.2,14.6,0,16.0,,119024.7,8.4,0.13,0.97,-0.08,-1.9,8.3,-0.9,32.81,,,,,,,,,,
14.30.12.244,-59.1,14.8,0,16.0,,121084.5,8.26,0.12,0.98,-0.09,-0.8,7.7,-1.2,32.81,,,,,,,,,,
14.30.12.256,-65.5,16.4,0,16.0,,118477.5,8.44,0.12,0.99,-0.1,-1.5,6.9,-1.0,32.81,,,,,,,,,,
14.30.12.268,-74.5,18.6,0,16.0,,120338.2,8.31,0.12,0.98,-0.09,-2.1,7.2,-1.2,32.81,,,,,,,,,,
14.30.12.276,-70.9,17.7,0,16.0,,123186.7,8.12,0.13,0.98,-0.09,-1.9,7.0,-1.1,32.81,,,,,,,,,,
14.30.12.289,-97.5,24.4,0,16.0,,122435.8,8.17,0.13,0.98,-0.08,-1.6,7.8,-1.2,32.81,,,,,,,,,,
14.30.12.297,-79.4,19.8,0,16.0,,121498.3,8.23,0.13,0.98,-0.08,-1.4,7.9,-1.1,32.81,,,,,,,,,,
14.30.12.309,-96.6,24.2,0,16.0,,120352.2,8.31,0.13,0.98,-0.09,-1.8,7.9,-0.9,32.81,,,,,,,,,,
14.30.12.317,-77.6,19.4,0,16.0,,119070.7,8.4,0.13,0.98,-0.09,-2.4,8.2,-1.2,32.81,,,,,,,,,,
14.30.12.330,-101.5,25.4,0,16.0,,119850.6,8.34,0.13,0.99,-0.09,-2.7,8.8,-0.7,32.81,,,,,,,,,,
14.30.12.338,-101.7,25.4,0,16.0,,116649.2,8.57,0.12,0.98,-0.08,-3.0,8.4,-0.6,32.81,,,,,,,,,,
14.30.12.350,-102.1,25.5,0,16.0,,118763.1,8.42,0.13,0.98,-0.09,-2.5,7.6,-1.1,32.81,,,,,,,,,,
14.30.12.363,-132.3,33.1,0,16.0,,122453.6,8.17,0.13,0.98,-0.08,-1.7,7.8,-0.4,32.81,,,,,,,,,,
14.30.12.371,-118.8,29.7,0,16.0,,123906.5,8.07,0.12,0.98,-0.08,-0.1,7.3,0.2,32.81,,,,,,,,,,
14.30.12.383,-111.2,27.8,0,16.0,,119697.2,8.35,0.12,0.98,-0.08,0.8,6.3,0.6,32.81,,,,,,,,,,
14.30.12.391,-114.6,28.6,0,16.0,,115120.2,8.69,0.12,0.99,-0.08,3.0,5.7,2.2,32.81,,,,,,,,,,
14.30.12.403,-126.1,31.5,0,16.0,,119692.5,8.35,0.12,0.98,-0.07,5.4,4.8,2.8,32.81,,,,,,,,,,
14.30.12.412,23.2,5.8,1,17.0,89.2,122231.4,8.18,0.12,0.97,-0.07,7.4,2.0,2.5,32.81,,,,,,,,,,
14.30.12.424,68.3,17.1,0,17.0,,121391.0,8.24,0.12,0.97,-0.06,9.7,-0.5,1.0,32.81,,,,,,,,,,
14.30.12.432,118.8,29.7,0,17.0,,122200.2,8.18,0.13,0.95,-0.08,6.3,-3.0,1.3,32.81,,,,,,,,,,
14.30.12.444,173.0,43.2,0,17.0,,119861.2,8.34,0.13,0.95,-0.06,11.9,-2.9,-2.7,32.81,,,,,,,,,,
14.30.12.453,200.6,50.2,0,17.0,,120074.8,8.33,0.14,0.97,-0.09,15.4,-2.6,-4.2,32.81,,,,,,,,,,
14.30.12.465,222.1,55.5,0,17.0,,118721.0,8.42,0.14,0.97,-0.09,13.4,-2.1,-5.2,32.81,,,,,,,,,,
14.30.12.477,271.4,67.8,0,17.0,,120856.1,8.27,0.14,0.98,-0.12,11.6,0.1,-5.5,32.81,,,,,,,,,,
14.30.12.485,297.5,74.4,0,17.0,,119586.9,8.36,0.14,0.99,-0.12,7.2,2.9,-5.6,32.81,,,,,,,,,,
14.30.12.498,299.8,75.0,0,17.0,,120334.3,8.31,0.13,0.99,-0.13,2.4,4.9,-4.4,32.81,,,,,,,,,,
14.30.12.506,328.0,82.0,0,17.0,,120555.0,8.29,0.13,0.99,-0.12,-2.6,6.8,-4.3,32.81,,,,,,,,,,
14.30.12.518,301.6,75.4,0,17.0,,119505.1,8.37,0.13,0.99,-0.12,-5.2,9.3,-4.3,32.81,,,,,,,,,,
14.30.12.526,332.1,83.0,0,17.0,,122334.3,8.17,0.13,1.01,-0.12,-8.4,11.4,-2.2,32.81,,,,,,,,,,
14.30.12.539,309.8,77.4,0,17.0,,120970.2,8.27,0.12,1.0,-0.11,-9.2,12.0,-0.8,32.81,,,,,,,,,,
14.30.12.547,297.6,74.4,0,17.0,,119663.6,8.36,0.12,0.98,-0.09,-9.4,11.4,0.3,32.81,,,,,,,,,,
14.30.12.559,281.1,70.3,0,17.0,,118759.1,8.42,0.12,0.97,-0.08,-8.7,8.8,0.9,32.81,,,,,,,,,,
14.30.12.571,251.3,62.8,0,17.0,,118340.6,8.45,0.12,0.96,-0.06,-5.9,6.8,0.6,32.81,,,,,,,,,,
14.30.12.580,245.6,61.4,0,17.0,,118763.6,8.42,0.12,0.96,-0.06,-2.1,6.0,0.0,32.81,,,,,,,,,,
14.30.12.592,200.1,50.0,0,17.0,,119330.2,8.38,0.13,0.96,-0.07,1.9,5.5,-1.0,32.81,,,,,,,,,,
14.30.12.600,171.1,42.8,0,17.0,,118834.7,8.42,0.13,0.97,-0.08,5.4,5.4,-1.2,32.81,,,,,,,,,,
14.30.12.612,108.1,27.0,0,17.0,,117995.4,8.47,0.13,0.98,-0.09,6.9,5.8,-1.4,32.81,,,,,,,,,,
14.30.12.649,23.5,5.9,0,17.0,,121831.0,8.21,0.13,0.98,-0.09,7.1,6.1,-1.5,32.88,,,,,,,,,,
14.30.12.657,28.3,7.1,0,17.0,,119475.5,8.37,0.13,0.99,-0.11,-0.3,6.3,-1.3,32.88,,,,,,,,,,
14.30.12.670,37.4,9.4,0,17.0,,121136.9,8.26,0.13,0.98,-0.11,-2.6,5.3,-1.3,32.88,,,,,,,,,,
14.30.12.678,46.2,11.6,0,17.0,,119436.3,8.37,0.13,0.98,-0.09,-3.4,5.5,-1.2,32.88,,,,,,,,,,
14.30.12.690,60.8,15.2,0,17.0,,117571.3,8.51,0.13,0.98,-0.09,-3.3,6.2,-1.4,32.88,,,,,,,,,,
14.30.12.702,55.0,13.8,0,17.0,,117413.9,8.52,0.12,0.98,-0.08,-2.7,6.7,-0.7,32.88,,,,,,,,,,
14.30.12.711,72.6,18.2,0,17.0,,118363.6,8.45,0.12,0.97,-0.08,-0.7,6.2,-1.1,32.88,,,,,,,,,,
14.30.12.723,51.8,13.0,0,17.0,,120947.9,8.27,0.12,0.97,-0.09,0.2,6.0,-1.6,32.88,,,,,,,,,,
14.30.12.731,55.3,13.8,0,17.0,,120003.3,8.33,0.12,0.97,-0.08,1.4,5.9,-1.6,32.88,,,,,,,,,,
14.30.12.744,45.5,11.4,0,17.0,,121361.4,8.24,0.13,0.98,-0.09,2.3,6.0,-1.8,32.88,,,,,,,,,,
14.30.12.752,32.4,8.1,0,17.0,,119831.2,8.35,0.13,0.98,-0.1,1.8,5.8,-1.2,32.88,,,,,,,,,,
14.30.12.764,11.5,2.9,0,17.0,,119209.7,8.39,0.13,0.98,-0.1,1.6,6.1,-1.2,32.88,,,,,,,,,,
14.30.12.773,-1.6,0.4,0,17.0,,121209.0,8.25,0.13,0.99,-0.09,0.7,5.7,-1.1,32.88,,,,,,,,,,
14.30.12.784,-5.7,1.4,0,17.0,,120979.6,8.27,0.13,0.98,-0.09,-0.4,6.2,-0.9,32.88,,,,,,,,,,
14.30.12.793,-6.9,1.7,0,17.0,,120403.4,8.31,0.13,0.98,-0.1,-0.5,6.5,-1.0,32.88,,,,,,,,,,
14.30.12.805,-16.0,4.0,0,17.0,,121148.9,8.25,0.13,0.98,-0.09,-0.9,5.8,-1.0,32.88,,,,,,,,,,
14.30.12.813,-17.8,4.4,0,17.0,,118308.3,8.45,0.12,0.98,-0.1,-1.5,6.1,-1.3,32.88,,,,,,,,,,
14.30.12.825,-19.1,4.8,0,17.0,,119627.0,8.36,0.13,0.98,-0.09,-1.3,6.0,-0.6,32.88,,,,,,,,,,
14.30.12.838,-30.7,7.7,0,17.0,,121479.4,8.23,0.13,0.97,-0.08,-1.3,6.2,-1.0,32.88,,,,,,,,,,
14.30.12.846,-35.6,8.9,0,17.0,,119981.2,8.33,0.13,0.97,-0.08,-0.7,6.1,-0.9,32.88,,,,,,,,,,
14.30.12.858,-37.9,9.5,0,17.0,,121664.5,8.22,0.13,0.98,-0.09,0.5,6.3,-1.2,32.88,,,,,,,,,,
14.30.12.866,-54.1,13.5,0,17.0,,121234.3,8.25,0.13,0.98,-0.09,0.8,6.1,-1.2,32.88,,,,,,,,,,
14.30.12.879,-39.2,9.8,0,17.0,,121824.2,8.21,0.13,0.98,-0.09,0.5,5.3,-1.9,32.88,,,,,,,,,,
14.30.12.887,-60.7,15.2,0,17.0,,122461.9,8.17,0.13,0.97,-0.09,-0.4,5.6,-1.8,32.88,,,,,,,,,,
14.30.12.899,-51.0,12.8,0,17.0,,118931.7,8.41,0.13,0.98,-0.09,-1.0,5.3,-1.9,32.88,,,,,,,,,,
14.30.12.907,-44.3,11.1,0,17.0,,123965.9,8.07,0.13,0.98,-0.09,-1.4,6.1,-1.5,32.88,,,,,,,,,,
14.30.12.920,-76.4,19.1,0,17.0,,120111.5,8.33,0.13,0.98,-0.09,-1.6,6.4,-1.8,32.88,,,,,,,,,,
14.30.12.928,-64.1,16.0,0,17.0,,120507.5,8.3,0.13,0.98,-0.09,-1.3,6.7,-1.6,32.88,,,,,,,,,,
14.30.12.940,-63.1,15.8,0,17.0,,122000.9,8.2,0.13,0.97,-0.09,-1.1,7.4,-1.5,32.88,,,,,,,,,,
14.30.12.952,-76.8,19.2,0,17.0,,120398.0,8.31,0.12,0.98,-0.09,-0.9,8.2,-1.3,32.88,,,,,,,,,,
14.30.12.961,-95.0,23.8,0,17.0,,120712.2,8.28,0.13,0.98,-0.09,-0.8,7.9,-1.1,32.88,,,,,,,,,,
14.30.12.973,-90.1,22.5,0,17.0,,122003.7,8.2,0.12,0.98,-0.08,-1.5,7.7,-0.6,32.88,,,,,,,,,,
14.30.12.981,-96.3,24.1,0,17.0,,117415.6,8.52,0.13,0.98,-0.09,-1.5,6.6,-0.6,32.88,,,,,,,,,,
14.30.12.993,-95.9,24.0,0,17.0,,121474.9,8.23,0.13,0.98,-0.08,-0.9,6.5,-0.6,32.88,,,,,,,,,,
14.30.13.006,-92.7,23.2,0,17.0,,119863.4,8.34,0.13,0.98,-0.08,-0.7,5.8,-1.0,32.88,,,,,,,,,,
14.30.13.014,-103.3,25.8,0,17.0,,120550.5,8.3,0.12,0.98,-0.08,-0.4,6.0,-1.2,32.88,,,,,,,,,,
14.30.13.026,-98.1,24.5,0,17.0,,121489.5,8.23,0.13,0.98,-0.08,-0.2,5.8,-1.7,32.88,,,,,,,,,,
14.30.13.034,-127.1,31.8,0,17.0,,117811.9,8.49,0.13,0.98,-0.09,-0.5,5.7,-1.6,32.88,,,,,,,,,,
14.30.13.047,-142.0,35.5,0,17.0,,116914.0,8.55,0.12,0.98,-0.09,-1.1,6.0,-1.1,32.88,,,,,,,,,,
14.30.13.059,-115.1,28.8,0,17.0,,122877.5,8.14,0.13,0.98,-0.09,-1.1,6.7,-0.7,32.88,,,,,,,,,,
14.30.13.067,-127.7,31.9,0,17.0,,121056.0,8.26,0.13,0.98,-0.08,-1.9,6.8,-0.9,32.88,,,,,,,,,,
14.30.13.079,41.1,10.3,1,18.0,88.3,117380.0,8.52,0.13,0.98,-0.08,-2.3,7.3,-1.1,32.88,,,,,,,,,,
14.30.13.088,67.7,16.9,0,18.0,,123615.5,8.09,0.13,0.98,-0.09,-2.1,7.8,-0.6,32.88,,,,,,,,,,
14.30.13.100,130.7,32.7,0,18.0,,119946.1,8.34,0.13,0.98,-0.08,-2.0,7.8,-1.1,32.88,,,,,,,,,,
14.30.13.108,149.6,37.4,0,18.0,,120340.0,8.31,0.13,0.99,-0.09,-1.7,7.4,-1.2,32.88,,,,,,,,,,
14.30.13.120,206.5,51.6,0,18.0,,121421.8,8.24,0.13,0.98,-0.08,-2.8,6.9,-1.0,32.88,,,,,,,,,,
14.30.13.128,241.0,60.2,0,18.0,,120510.2,8.3,0.13,0.98,-0.09,-2.8,7.1,-0.6,32.88,,,,,,,,,,
14.30.13.141,281.2,70.3,0,18.0,,117011.9,8.55,0.13,0.98,-0.08,-2.3,8.1,0.0,32.88,,,,,,,,,,
14.30.13.153,309.7,77.4,0,18.0,,116569.1,8.58,0.13,0.98,-0.07,-1.3,7.9,0.2,32.88,,,,,,,,,,
14.30.13.161,305.0,76.2,0,18.0,,124334.4,8.04,0.13,0.97,-0.07,-0.5,7.1,0.0,32.88,,,,,,,,,,
14.30.13.174,318.0,79.5,0,18.0,,121635.3,8.22,0.13,0.97,-0.07,1.1,6.6,-0.4,32.88,,,,,,,,,,
14.30.13.182,325.0,81.2,0,18.0,,120565.0,8.29,0.13,0.97,-0.07,2.9,6.3,-0.8,32.88,,,,,,,,,,
14.30.13.194,314.9,78.7,0,18.0,,118750.0,8.42,0.12,0.99,-0.08,4.0,5.4,-0.5,32.88,,,,,,,,,,
14.30.13.202,327.1,81.8,0,18.0,,120145.5,8.32,0.12,0.98,-0.07,5.6,2.8,0.2,32.88,,,,,,,,,,
14.30.13.215,296.3,74.1,0,18.0,,118050.0,8.47,0.13,0.97,-0.07,6.3,0.0,0.6,32.88,,,,,,,,,,
14.30.13.223,277.8,69.4,0,18.0,,121289.2,8.24,0.14,0.96,-0.07,7.3,-2.9,1.1,32.88,,,,,,,,,,
14.30.13.235,271.8,68.0,0,18.0,,118534.5,8.44,0.13,0.97,-0.07,10.4,-3.4,-1.5,32.88,,,,,,,,,,
14.30.13.243,250.5,62.6,0,18.0,,119074.7,8.4,0.13,0.97,-0.08,12.0,-3.0,-3.3,32.88,,,,,,,,,,
14.30.13.256,223.5,55.9,0,18.0,,122524.9,8.16,0.14,0.97,-0.09,12.5,-1.8,-4.7,32.88,,,,,,,,,,
14.30.13.268,138.3,34.6,0,18.0,,119385.0,8.38,0.14,0.98,-0.1,13.2,1.4,-3.8,32.88,,,,,,,,,,
14.30.13.276,126.2,31.6,0,18.0,,120421.5,8.3,0.14,0.98,-0.12,9.2,3.4,-3.6,32.88,,,,,,,,,,
14.30.13.288,76.3,19.1,0,18.0,,118992.7,8.4,0.13,0.99,-0.12,4.4,5.7,-2.8,32.88,,,,,,,,,,
14.30.13.296,42.1,10.5,0,18.0,,119634.6,8.36,0.13,0.99,-0.12,-0.7,7.6,-2.5,32.88,,,,,,,,,,
14.30.13.309,15.0,3.8,0,18.0,,118563.4,8.43,0.14,1.0,-0.12,-4.5,8.7,-2.5,32.88,,,,,,,,,,
14.30.13.317,11.4,2.8,0,18.0,,123813.1,8.08,0.13,0.99,-0.11,-6.8,10.1,-2.2,32.88,,,,,,,,,,
14.30.13.329,33.3,8.3,0,18.0,,118386.4,8.45,0.13,0.98,-0.1,-7.9,11.4,-1.4,32.88,,,,,,,,,,
14.30.13.337,46.6,11.6,0,18.0,,120758.4,8.28,0.12,0.98,-0.09,-7.7,11.2,-0.6,32.88,,,,,,,,,,
14.30.13.350,31.0,7.8,0,18.0,,121093.1,8.26,0.11,0.98,-0.09,-7.0,8.4,-1.0,32.88,,,,,,,,,,
14.30.13.362,67.2,16.8,0,18.0,,120622.2,8.29,0.12,0.97,-0.08,-5.5,6.3,-1.1,32.88,,,,,,,,,,
14.30.13.370,71.9,18.0,0,18.0,,119839.8,8.34,0.12,0.97,-0.07,-1.9,6.1,-1.0,32.88,,,,,,,,,,
14.30.13.383,58.4,14.6,0,18.0,,120157.2,8.32,0.12,0.96,-0.07,1.8,5.4,-1.2,32.88,,,,,,,,,,
14.30.13.391,68.3,17.1,0,18.0,,121102.7,8.26,0.13,0.97,-0.07,4.0,5.4,-1.4,32.88,,,,,,,,,,
14.30.13.403,49.0,12.2,0,18.0,,117750.9,8.49,0.13,0.97,-0.08,6.1,6.0,-2.0,32.88,,,,,,,,,,
14.30.13.411,40.0,10.0,0,18.0,,117774.1,8.49,0.13,0.98,-0.09,6.2,6.2,-1.8,32.88,,,,,,,,,,
14.30.13.448,-7.0,1.8,0,18.0,,119084.3,8.4,0.13,0.98,-0.1,5.0,6.1,-1.9,32.88,,,,,,,,,,
14.30.13.460,-17.8,4.4,0,18.0,,119448.7,8.37,0.12,0.99,-0.1,-3.1,7.1,-1.4,32.88,,,,,,,,,,
14.30.13.469,-12.3,3.1,0,18.0,,119146.9,8.39,0.13,0.99,-0.1,-5.1,6.7,-0.6,32.88,,,,,,,,,,
14.30.13.481,-13.7,3.4,0,18.0,,119992.1,8.33,0.12,0.98,-0.09,-4.4,6.7,-0.4,32.88,,,,,,,,,,
14.30.13.493,-21.6,5.4,0,18.0,,119566.3,8.36,0.12,0.97,-0.08,-2.9,6.3,-1.0,32.88,,,,,,,,,,
14.30.13.501,-21.0,5.2,0,18.0,,119525.5,8.37,0.12,0.97,-0.07,-0.6,7.5,-0.9,32.88,,,,,,,,,,
14.30.13.514,-34.8,8.7,0,18.0,,118975.2,8.41,0.12,0.97,-0.08,1.6,7.1,-0.8,32.88,,,,,,,,,,
14.30.13.522,-30.2,7.6,0,18.0,,120306.2,8.31,0.13,0.97,-0.08,2.9,6.2,-0.9,32.88,,,,,,,,,,
14.30.13.534,-43.3,10.8,0,18.0,,120150.9,8.32,0.13,0.97,-0.09,3.6,6.5,-1.3,32.88,,,,,,,,,,
14.30.13.542,-34.4,8.6,0,18.0,,121364.1,8.24,0.13,0.97,-0.08,3.8,7.4,-1.0,32.88,,,,,,,,,,
14.30.13.555,-55.2,13.8,0,18.0,,118889.5,8.41,0.12,0.99,-0.09,3.4,7.9,-0.5,32.88,,,,,,,,,,
14.30.13.563,-62.5,15.6,0,18.0,,119707.3,8.35,0.13,0.98,-0.1,4.1,8.5,0.0,32.88,,,,,,,,,,
14.30.13.575,-54.0,13.5,0,18.0,,117413.2,8.52,0.13,0.98,-0.1,5.1,9.2,0.0,32.88,,,,,,,,,,
14.30.13.583,-55.2,13.8,0,18.0,,121924.7,8.2,0.13,0.97,-0.09,7.3,11.2,-0.2,32.88,,,,,,,,,,
14.30.13.596,-79.0,19.8,0,18.0,,121204.1,8.25,0.13,0.97,-0.09,6.9,10.8,-0.1,32.88,,,,,,,,,,
14.30.13.604,-70.1,17.5,0,18.0,,122479.1,8.16,0.13,0.98,-0.09,8.6,10.1,-0.8,32.88,,,,,,,,,,
14.30.13.616,-74.9,18.7,0,18.0,,121210.5,8.25,0.12,0.97,-0.09,7.5,8.8,-1.6,32.88,,,,,,,,,,
14.30.13.628,-78.9,19.7,0,18.0,,120517.4,8.3,0.13,0.97,-0.09,8.6,9.2,-2.3,32.88,,,,,,,,,,
14.30.13.636,-80.0,20.0,0,18.0,,120530.2,8.3,0.12,0.97,-0.1,9.7,11.6,-2.4,32.88,,,,,,,,,,
14.30.13.649,-81.9,20.5,0,18.0,,121421.1,8.24,0.14,0.97,-0.11,16.0,16.5,-4.2,32.88,,,,,,,,,,
14.30.13.657,-100.3,25.1,0,18.0,,119210.2,8.39,0.13,0.96,-0.11,18.5,17.5,-5.8,32.88,,,,,,,,,,
14.30.13.669,-108.6,27.2,0,18.0,,120837.1,8.28,0.13,0.96,-0.11,19.6,15.4,-7.7,32.88,,,,,,,,,,
14.30.13.677,-102.7,25.7,0,18.0,,121674.2,8.22,0.12,0.98,-0.12,18.9,14.0,-8.7,32.88,,,,,,,,,,
14.30.13.690,-116.1,29.0,0,18.0,,119494.0,8.37,0.12,0.98,-0.13,21.3,17.0,-9.7,32.88,,,,,,,,,,
14.30.13.698,-112.0,28.0,0,18.0,,119528.9,8.37,0.13,0.98,-0.11,18.3,16.2,-10.5,32.88,,,,,,,,,,
14.30.13.710,-120.1,30.0,0,18.0,,116577.3,8.58,0.11,0.98,-0.13,10.4,10.2,-9.1,32.88,,,,,,,,,,
14.30.13.719,-132.8,33.2,0,18.0,,120827.2,8.28,0.12,0.99,-0.11,3.7,6.9,-7.1,32.88,,,,,,,,,,
14.30.13.735,-129.2,32.3,0,18.0,,122511.8,8.16,0.13,0.96,-0.2,1.2,10.9,-6.6,32.88,,,,,,,,,,
14.30.13.743,19.1,4.8,1,19.0,89.4,120340.9,8.31,0.11,0.98,-0.1,4.4,1.5,-7.1,32.88,,,,,,,,,,
14.30.13.755,75.5,18.9,0,19.0,,119952.4,8.34,0.13,0.98,-0.12,7.7,6.9,-7.8,32.88,,,,,,,,,,
14.30.13.764,115.6,28.9,0,19.0,,118408.1,8.45,0.12,0.97,-0.12,10.8,13.6,-8.3,32.88,,,,,,,,,,
14.30.13.776,160.5,40.1,0,19.0,,121924.4,8.2,0.12,0.94,-0.11,11.8,14.2,-9.0,32.88,,,,,,,,,,
14.30.13.784,187.7,46.9,0,19.0,,121749.6,8.21,0.12,0.96,-0.13,13.1,14.1,-10.4,32.88,,,,,,,,,,
14.30.13.796,249.9,62.5,0,19.0,,122147.8,8.19,0.11,0.97,-0.13,15.9,16.3,-10.6,32.88,,,,,,,,,,
14.30.13.809,256.2,64.0,0,19.0,,121819.8,8.21,0.11,0.97,-0.14,14.5,15.3,-9.3,32.88,,,,,,,,,,
14.30.13.817,300.4,75.1,0,19.0,,121384.3,8.24,0.1,0.99,-0.13,10.8,7.9,-8.8,32.88,,,,,,,,,,
14.30.13.829,332.9,83.2,0,19.0,,118393.5,8.45,0.1,0.98,-0.15,7.4,3.9,-8.3,32.88,,,,,,,,,,
14.30.13.837,348.5,87.1,0,19.0,,117915.7,8.48,0.1,0.98,-0.16,6.9,5.1,-8.0,32.88,,,,,,,,,,
14.30.13.850,293.8,73.4,0,19.0,,120340.4,8.31,0.11,0.99,-0.17,6.9,11.8,-6.1,32.88,,,,,,,,,,
14.30.13.858,337.4,84.4,0,19.0,,120396.8,8.31,0.11,0.95,-0.21,13.2,22.4,-8.0,32.88,,,,,,,,,,
14.30.13.870,337.3,84.3,0,19.0,,116724.7,8.57,0.1,0.94,-0.19,12.6,24.9,-7.8,32.88,,,,,,,,,,
14.30.13.878,337.7,84.4,0,19.0,,121247.9,8.25,0.1,1.01,-0.15,13.5,24.9,-8.0,32.88,,,,,,,,,,
14.30.13.891,265.3,66.3,0,19.0,,122726.4,8.15,0.11,0.98,-0.14,13.3,26.1,-9.4,32.88,,,,,,,,,,
14.30.13.903,282.6,70.6,0,19.0,,121935.0,8.2,0.1,1.0,-0.13,7.7,23.6,-7.5,32.88,,,,,,,,,,
14.30.13.911,244.7,61.2,0,19.0,,121030.4,8.26,0.1,0.98,-0.14,-2.3,14.6,-4.2,32.88,,,,,,,,,,
14.30.13.923,225.2,56.3,0,19.0,,119019.9,8.4,0.11,0.96,-0.14,-2.7,8.7,-5.8,32.88,,,,,,,,,,
14.30.13.932,185.7,46.4,0,19.0,,118517.8,8.44,0.11,0.99,-0.17,-4.6,5.0,-4.7,32.88,,,,,,,,,,
14.30.13.944,131.7,32.9,0,19.0,,120012.2,8.33,0.11,0.95,-0.21,-3.5,5.4,-6.1,32.88,,,,,,,,,,
14.30.13.952,86.7,21.7,0,19.0,,122296.6,8.18,0.11,1.0,-0.2,-3.4,7.3,-5.3,32.88,,,,,,,,,,
14.30.13.964,38.0,9.5,0,19.0,,121767.3,8.21,0.11,0.98,-0.16,-9.5,11.0,-2.6,32.88,,,,,,,,,,
14.30.13.972,1.5,0.4,0,19.0,,117304.1,8.52,0.11,0.98,-0.19,-11.2,12.8,-2.0,32.88,,,,,,,,,,
14.30.13.985,27.0,6.8,0,19.0,,118906.6,8.41,0.1,0.93,-0.18,-16.8,11.1,-1.2,32.88,,,,,,,,,,
14.30.13.997,29.7,7.4,0,19.0,,116233.1,8.6,0.14,0.95,-0.16,-18.4,9.4,0.4,32.88,,,,,,,,,,
14.30.14.005,38.4,9.6,0,19.0,,118252.1,8.46,0.1,1.0,-0.14,-22.2,6.7,2.7,32.88,,,,,,,,,,
14.30.14.017,55.5,13.9,0,19.0,,119582.4,8.36,0.09,0.99,-0.14,-22.4,8.5,2.2,32.88,,,,,,,,,,
14.30.14.026,48.5,12.1,0,19.0,,118574.7,8.43,0.1,0.97,-0.12,-26.5,4.2,1.8,32.88,,,,,,,,,,
14.30.14.038,47.1,11.8,0,19.0,,120801.7,8.28,0.1,0.95,-0.11,-29.4,0.5,1.2,32.88,,,,,,,,,,
14.30.14.051,53.0,13.2,0,19.0,,120783.3,8.28,0.09,0.95,-0.1,-30.2,-1.0,1.6,32.88,,,,,,,,,,
14.30.14.059,47.2,11.8,0,19.0,,120635.5,8.29,0.11,0.96,-0.09,-25.9,2.8,2.3,32.88,,,,,,,,,,
14.30.14.071,41.2,10.3,0,19.0,,122510.9,8.16,0.1,1.0,-0.08,-25.0,2.6,3.5,32.88,,,,,,,,,,
14.30.14.079,36.8,9.2,0,19.0,,120751.6,8.28,0.11,0.99,-0.07,-24.3,1.7,3.4,32.88,,,,,,,,,,
14.30.14.091,23.4,5.8,0,19.0,,119965.0,8.34,0.11,0.95,-0.05,-25.0,2.0,2.7,32.88,,,,,,,,,,
14.30.14.099,9.9,2.5,0,19.0,,119920.8,8.34,0.11,0.94,-0.08,-23.6,2.9,1.8,32.88,,,,,,,,,,
14.30.14.112,-0.9,0.2,0,19.0,,121095.4,8.26,0.1,0.98,-0.08,-19.9,7.5,4.9,32.88,,,,,,,,,,
14.30.14.120,-4.2,1.0,0,19.0,,120820.5,8.28,0.11,0.98,-0.07,-15.8,9.1,5.1,32.88,,,,,,,,,,
14.30.14.132,-12.2,3.0,0,19.0,,121846.7,8.21,0.12,0.96,-0.08,-12.2,7.7,3.4,32.88,,,,,,,,,,
14.30.14.145,-6.3,1.6,0,19.0,,117110.4,8.54,0.12,0.97,-0.06,-10.0,4.4,0.6,32.88,,,,,,,,,,
14.30.14.153,-16.4,4.1,0,19.0,,122328.8,8.17,0.12,0.97,-0.06,-11.2,3.1,1.3,32.88,,,,,,,,,,
14.30.14.165,-20.4,5.1,0,19.0,,117990.1,8.48,0.12,0.97,-0.05,-10.1,3.2,2.2,32.88,,,,,,,,,,
14.30.14.173,-45.5,11.4,0,19.0,,120783.0,8.28,0.12,0.95,-0.06,-10.7,2.1,2.1,32.88,,,,,,,,,,
14.30.14.185,-29.4,7.4,0,19.0,,121360.0,8.24,0.12,0.95,-0.04,-10.5,0.6,3.4,32.88,,,,,,,,,,
14.30.14.194,-33.2,8.3,0,19.0,,120928.6,8.27,0.12,0.97,-0.05,-13.5,1.1,5.3,32.88,,,,,,,,,,
14.30.14.206,-37.7,9.4,0,19.0,,120455.0,8.3,0.12,0.99,-0.08,-16.1,2.8,6.8,32.88,,,,,,,,,,
14.30.14.214,-42.2,10.6,0,19.0,,120672.3,8.29,0.13,1.01,-0.1,-19.0,7.1,9.7,32.88,,,,,,,,,,
14.30.14.255,-67.2,16.8,0,19.0,,118916.7,8.41,0.12,0.99,-0.07,-16.1,12.7,8.4,32.88,,,,,,,,,,
14.30.14.263,-66.0,16.5,0,19.0,,120429.7,8.3,0.11,0.95,0.02,2.1,15.3,2.3,32.88,,,,,,,,,,
14.30.14.276,-76.8,19.2,0,19.0,,121026.0,8.26,0.11,0.94,0.02,10.3,14.7,-1.6,32.88,,,,,,,,,,
14.30.14.284,-82.1,20.5,0,19.0,,121238.9,8.25,0.11,0.93,0.0,20.3,12.8,-5.1,32.88,,,,,,,,,,
14.30.14.296,-77.7,19.4,0,19.0,,120488.6,8.3,0.11,0.96,-0.03,27.0,10.6,-5.8,32.88,,,,,,,,,,
14.30.14.304,-91.5,22.9,0,19.0,,121655.6,8.22,0.11,0.98,-0.06,29.9,9.8,-5.0,32.88,,,,,,,,,,
14.30.14.317,-100.0,25.0,0,19.0,,121815.4,8.21,0.1,1.0,-0.1,26.7,3.8,-3.1,32.88,,,,,,,,,,
14.30.14.325,-94.1,23.5,0,19.0,,121106.0,8.26,0.12,1.02,-0.09,26.1,13.7,-2.8,32.88,,,,,,,,,,
14.30.14.337,-107.3,26.8,0,19.0,,120767.4,8.28,0.13,1.0,-0.1,23.6,14.4,-0.4,32.88,,,,,,,,,,
14.30.14.349,-113.9,28.5,0,19.0,,118147.2,8.46,0.14,1.0,-0.09,18.0,17.0,0.5,32.88,,,,,,,,,,
14.30.14.358,-99.3,24.8,0,19.0,,118328.9,8.45,0.13,0.99,-0.12,16.3,19.2,1.3,32.88,,,,,,,,,,
14.30.14.370,-103.1,25.8,0,19.0,,122327.5,8.17,0.13,0.99,-0.1,11.9,19.0,1.2,32.88,,,,,,,,,,
14.30.14.378,-111.6,27.9,0,19.0,,120290.1,8.31,0.14,1.0,-0.13,7.8,17.5,2.6,32.88,,,,,,,,,,
14.30.14.390,-128.6,32.2,0,19.0,,121564.0,8.23,0.13,1.01,-0.1,10.6,20.5,1.9,32.88,,,,,,,,,,
14.30.14.399,-126.5,31.6,0,19.0,,122694.0,8.15,0.13,0.99,-0.1,11.4,19.0,1.7,32.88,,,,,,,,,,
14.30.14.411,24.3,6.1,1,20.0,88.0,119953.0,8.34,0.12,1.0,-0.09,19.8,19.7,-0.8,32.88,,,,,,,,,,
14.30.14.419,65.7,16.4,0,20.0,,122115.3,8.19,0.1,1.01,-0.11,20.1,13.4,-0.6,32.88,,,,,,,,,,
14.30.14.431,124.8,31.2,0,20.0,,119703.2,8.35,0.14,0.94,-0.11,26.2,23.0,-2.3,32.88,,,,,,,,,,
14.30.14.439,142.6,35.6,0,20.0,,118129.0,8.47,0.12,0.98,-0.07,29.5,22.4,-2.1,32.88,,,,,,,,,,
14.30.14.452,193.1,48.3,0,20.0,,121049.9,8.26,0.18,1.01,-0.04,23.6,21.1,-3.0,32.88,,,,,,,,,,
14.30.14.464,224.1,56.0,0,20.0,,122106.2,8.19,0.09,0.93,-0.09,31.3,17.5,-1.3,32.88,,,,,,,,,,
14.30.14.472,262.6,65.6,0,20.0,,122342.8,8.17,-0.19,1.23,-0.2,-68.7,-51.0,-27.5,32.88,,,,,,,,,,
14.30.14.484,283.3,70.8,0,20.0,,120412.1,8.3,0.33,0.9,-0.03,46.1,33.1,-3.4,32.88,,,,,,,,,,
14.30.14.493,329.8,82.4,0,20.0,,119517.1,8.37,0.1,0.95,-0.08,24.8,2.9,-1.2,32.88,,,,,,,,,,
14.30.14.505,326.4,81.6,0,20.0,,118704.7,8.42,0.1,0.98,-0.14,26.1,9.9,-5.2,32.88,,,,,,,,,,
14.30.14.517,339.7,84.9,0,20.0,,118763.8,8.42,0.12,0.98,-0.11,21.6,6.5,-6.9,32.88,,,,,,,,,,
14.30.14.525,345.6,86.4,0,20.0,,120632.0,8.29,0.12,0.99,-0.16,18.2,5.8,-5.9,32.88,,,,,,,,,,
14.30.14.538,360.0,90.0,0,20.0,,124675.1,8.02,0.13,0.99,-0.17,13.3,5.0,-5.2,32.88,,,,,,,,,,
14.30.14.550,304.1,76.0,0,20.0,,120938.3,8.27,0.13,1.0,-0.17,7.5,3.3,-4.5,32.88,,,,,,,,,,
14.30.14.558,274.2,68.6,0,20.0,,120707.2,8.28,0.13,1.01,-0.18,2.8,6.9,-2.9,32.88,,,,,,,,,,
14.30.14.571,253.1,63.3,0,20.0,,121034.1,8.26,0.12,1.02,-0.17,-0.3,11.7,-1.5,32.88,,,,,,,,,,
14.30.14.579,239.2,59.8,0,20.0,,119859.4,8.34,0.12,1.03,-0.14,-2.9,16.0,0.6,32.88,,,,,,,,,,
14.30.14.591,191.4,47.8,0,20.0,,121411.8,8.24,0.12,0.98,-0.15,-5.8,13.7,1.3,32.88,,,,,,,,,,
14.30.14.599,162.8,40.7,0,20.0,,119738.5,8.35,0.11,1.0,-0.12,-6.0,14.8,1.1,32.88,,,,,,,,,,
14.30.14.612,113.8,28.4,0,20.0,,122508.2,8.16,0.11,0.98,-0.11,-2.8,17.0,0.5,32.88,,,,,,,,,,
14.30.14.620,85.0,21.2,0,20.0,,119293.7,8.38,0.02,1.03,-0.15,-7.4,5.1,3.9,32.88,,,,,,,,,,
14.30.14.632,16.6,4.2,0,20.0,,119467.4,8.37,0.1,0.97,-0.14,0.0,18.1,-1.1,32.88,,,,,,,,,,
14.30.14.640,6.6,1.6,0,20.0,,120601.6,8.29,0.13,1.03,-0.05,1.6,10.7,-1.3,32.88,,,,,,,,,,
14.30.14.652,23.1,5.8,0,20.0,,119962.2,8.34,0.11,0.98,-0.1,4.2,17.8,0.9,32.88,,,,,,,,,,
14.30.14.665,25.3,6.3,0,20.0,,121539.5,8.23,0.12,0.99,-0.11,0.6,14.2,-0.2,32.88,,,,,,,,,,
14.30.14.673,43.2,10.8,0,20.0,,121246.9,8.25,0.13,0.95,-0.14,4.2,14.8,-0.5,32.88,,,,,,,,,,
14.30.14.685,63.2,15.8,0,20.0,,120338.1,8.31,0.13,0.95,-0.14,2.1,13.2,-0.5,32.88,,,,,,,,,,
14.30.14.693,59.3,14.8,0,20.0,,120381.3,8.31,0.23,0.93,-0.18,-10.3,-9.8,-4.2,32.88,,,,,,,,,,
14.30.14.706,65.6,16.4,0,20.0,,120014.6,8.33,0.14,0.96,0.01,-9.3,-4.5,-2.4,32.88,,,,,,,,,,
14.30.14.714,57.5,14.4,0,20.0,,120278.3,8.31,0.05,0.97,-0.14,-4.3,1.3,-0.5,32.88,,,,,,,,,,
14.30.14.726,56.8,14.2,0,20.0,,117323.6,8.52,0.13,0.96,-0.11,-1.3,5.2,-3.2,32.88,,,,,,,,,,
14.30.14.734,43.0,10.8,0,20.0,,117424.7,8.52,0.13,0.98,-0.13,-1.5,4.3,-3.0,32.88,,,,,,,,,,
14.30.14.747,32.9,8.2,0,20.0,,117040.7,8.54,0.12,0.99,-0.12,-0.4,6.5,-3.1,32.88,,,,,,,,,,
14.30.14.759,17.3,4.3,0,20.0,,120729.4,8.28,0.12,0.98,-0.14,0.4,10.3,-0.8,32.88,,,,,,,,,,
14.30.14.767,5.3,1.3,0,20.0,,121444.1,8.23,0.11,0.98,-0.13,-0.6,8.3,0.7,32.88,,,,,,,,,,
14.30.14.779,1.1,0.3,0,20.0,,118771.8,8.42,0.12,0.97,-0.12,0.4,7.4,-0.3,32.88,,,,,,,,,,
14.30.14.788,-9.6,2.4,0,20.0,,120679.2,8.29,0.12,0.97,-0.11,-0.6,5.6,-1.2,32.88,,,,,,,,,,
14.30.14.800,-19.0,4.8,0,20.0,,122482.7,8.16,0.12,0.97,-0.11,0.2,6.3,-1.0,32.88,,,,,,,,,,
14.30.14.808,-20.6,5.2,0,20.0,,121205.0,8.25,0.12,0.97,-0.13,1.2,7.8,-1.7,32.88,,,,,,,,,,
14.30.14.821,-25.4,6.4,0,20.0,,119166.3,8.39,0.13,0.97,-0.13,0.3,7.1,-1.3,32.88,,,,,,,,,,
14.30.14.829,-16.6,4.2,0,20.0,,117599.2,8.5,0.12,0.98,-0.13,-0.2,6.0,-1.3,32.88,,,,,,,,,,
14.30.14.841,-44.9,11.2,0,20.0,,120323.9,8.31,0.12,0.98,-0.12,-2.1,4.4,-1.0,32.88,,,,,,,,,,
14.30.14.853,-43.0,10.8,0,20.0,,120687.2,8.29,0.12,0.98,-0.13,-2.0,3.4,-1.4,32.88,,,,,,,,,,
14.30.14.861,-43.7,10.9,0,20.0,,119942.5,8.34,0.12,0.97,-0.12,-3.5,3.5,-1.7,32.88,,,,,,,,,,
14.30.14.874,-55.2,13.8,0,20.0,,118687.7,8.43,0.12,0.98,-0.14,-4.0,4.3,-1.5,32.88,,,,,,,,,,
14.30.14.882,-53.3,13.3,0,20.0,,121866.4,8.21,0.12,0.98,-0.12,-5.1,3.4,-1.3,32.88,,,,,,,,,,
14.30.14.894,-54.3,13.6,0,20.0,,121960.2,8.2,0.12,0.97,-0.12,-6.5,3.9,-1.1,32.88,,,,,,,,,,
14.30.14.902,-55.1,13.8,0,20.0,,120992.3,8.26,0.13,0.98,-0.11,-6.4,3.7,-1.5,32.88,,,,,,,,,,
14.30.14.915,-72.1,18.0,0,20.0,,117678.6,8.5,0.13,0.97,-0.11,-6.0,2.9,-2.4,32.88,,,,,,,,,,
14.30.14.923,-54.0,13.5,0,20.0,,118983.9,8.4,0.12,0.98,-0.12,-3.9,3.3,-3.1,32.88,,,,,,,,,,
14.30.14.935,-79.3,19.8,0,20.0,,121469.9,8.23,0.12,0.97,-0.1,-2.7,4.2,-2.9,32.88,,,,,,,,,,
14.30.14.948,-76.3,19.1,0,20.0,,120225.4,8.32,0.11,0.98,-0.12,-0.5,5.3,-1.8,32.88,,,,,,,,,,
14.30.14.956,-72.5,18.1,0,20.0,,118422.8,8.44,0.11,0.97,-0.11,0.5,4.9,-1.8,32.88,,,,,,,,,,
14.30.14.968,-85.9,21.5,0,20.0,,119957.8,8.34,0.12,0.98,-0.12,0.6,4.8,-1.7,32.88,,,,,,,,,,
14.30.14.976,-98.3,24.6,0,20.0,,121503.4,8.23,0.12,0.98,-0.12,1.3,5.2,-1.5,32.88,,,,,,,,,,
14.30.14.988,-87.2,21.8,0,20.0,,118992.9,8.4,0.12,0.98,-0.12,1.5,4.7,-1.5,32.88,,,,,,,,,,
14.30.14.997,-114.0,28.5,0,20.0,,122872.7,8.14,0.13,0.97,-0.12,1.2,4.9,-1.6,32.88,,,,,,,,,,
14.30.15.009,-103.9,26.0,0,20.0,,119771.5,8.35,0.12,0.98,-0.13,-0.1,5.6,-1.6,32.88,,,,,,,,,,
14.30.15.017,-105.9,26.5,0,20.0,,119770.2,8.35,0.12,0.99,-0.13,-1.1,5.9,-1.6,32.88,,,,,,,,,,
14.30.15.054,-129.0,32.2,0,20.0,,120715.7,8.28,0.12,0.99,-0.12,-1.2,5.9,-1.1,32.88,,,,,,,,,,
14.30.15.066,-130.1,32.5,0,20.0,,120745.9,8.28,0.12,0.98,-0.12,-4.8,5.6,-0.7,32.88,,,,,,,,,,
14.30.15.079,32.8,8.2,1,21.0,91.8,119417.6,8.37,0.11,0.98,-0.12,-4.1,6.1,-0.7,32.88,,,,,,,,,,
14.30.15.087,76.4,19.1,0,21.0,,118001.6,8.47,0.12,0.97,-0.11,-3.6,5.4,-1.0,32.88,,,,,,,,,,
14.30.15.099,115.4,28.8,0,21.0,,120221.7,8.32,0.12,0.97,-0.11,-2.8,5.1,-1.1,32.88,,,,,,,,,,
14.30.15.107,160.6,40.2,0,21.0,,121091.8,8.26,0.12,0.98,-0.11,-2.3,4.6,-1.1,32.88,,,,,,,,,,
14.30.15.120,207.9,52.0,0,21.0,,120192.7,8.32,0.12,0.98,-0.12,-2.3,4.8,-1.2,32.88,,,,,,,,,,
14.30.15.128,221.3,55.3,0,21.0,,118098.5,8.47,0.12,0.99,-0.12,-2.0,5.3,-0.7,32.88,,,,,,,,,,
14.30.15.140,270.9,67.7,0,21.0,,119066.9,8.4,0.12,0.97,-0.1,-1.6,5.4,-0.8,32.88,,,,,,,,,,
14.30.15.148,250.1,62.5,0,21.0,,121930.0,8.2,0.12,0.98,-0.11,-1.6,5.7,-0.8,32.88,,,,,,,,,,
14.30.15.160,337.5,84.4,0,21.0,,119664.0,8.36,0.12,0.97,-0.12,-1.9,5.4,-1.1,32.88,,,,,,,,,,
14.30.15.169,314.0,78.5,0,21.0,,118715.0,8.42,0.12,0.98,-0.11,-2.6,4.9,-0.9,32.88,,,,,,,,,,
14.30.15.181,326.4,81.6,0,21.0,,119767.1,8.35,0.12,0.98,-0.1,-3.2,5.2,-0.8,32.88,,,,,,,,,,
14.30.15.193,323.6,80.9,0,21.0,,118543.8,8.44,0.12,0.99,-0.11,-3.1,6.0,-0.8,32.88,,,,,,,,,,
14.30.15.201,319.0,79.8,0,21.0,,120025.7,8.33,0.12,0.97,-0.1,-2.8,6.7,-0.6,32.88,,,,,,,,,,
14.30.15.214,302.9,75.7,0,21.0,,120144.0,8.32,0.12,0.98,-0.1,-1.6,7.6,-0.8,32.88,,,,,,,,,,
14.30.15.222,297.5,74.4,0,21.0,,121655.9,8.22,0.12,0.97,-0.1,0.4,7.5,-1.1,32.88,,,,,,,,,,
14.30.15.234,293.3,73.3,0,21.0,,119758.4,8.35,0.12,0.97,-0.1,0.6,5.6,-1.2,32.88,,,,,,,,,,
14.30.15.242,255.6,63.9,0,21.0,,119381.0,8.38,0.12,0.98,-0.11,1.5,5.2,-1.7,32.88,,,,,,,,,,
14.30.15.255,189.1,47.3,0,21.0,,116792.6,8.56,0.12,0.97,-0.09,1.9,5.4,-2.0,32.88,,,,,,,,,,
14.30.15.267,162.4,40.6,0,21.0,,123040.6,8.13,0.12,0.98,-0.11,1.9,5.8,-2.2,32.88,,,,,,,,,,
14.30.15.275,124.7,31.2,0,21.0,,121325.2,8.24,0.12,0.98,-0.11,1.4,6.3,-1.6,32.88,,,,,,,,,,
14.30.15.287,80.4,20.1,0,21.0,,121698.7,8.22,0.12,0.98,-0.11,1.0,6.9,-1.9,32.88,,,,,,,,,,
14.30.15.296,41.1,10.3,0,21.0,,120615.4,8.29,0.12,0.97,-0.11,0.5,8.0,-2.0,32.88,,,,,,,,,,
14.30.15.308,0.7,0.2,0,21.0,,119948.6,8.34,0.12,0.98,-0.11,0.9,8.0,-1.6,32.88,,,,,,,,,,
14.30.15.316,12.5,3.1,0,21.0,,119657.0,8.36,0.12,0.98,-0.11,0.3,7.1,-1.9,32.88,,,,,,,,,,
14.30.15.329,33.9,8.5,0,21.0,,117874.3,8.48,0.12,0.98,-0.11,-0.3,6.9,-0.6,32.88,,,,,,,,,,
14.30.15.337,53.5,13.4,0,21.0,,115963.6,8.62,0.12,0.98,-0.11,-0.9,7.0,-1.4,32.88,,,,,,,,,,
14.30.15.349,56.7,14.2,0,21.0,,120112.4,8.33,0.12,0.98,-0.11,-0.6,7.0,-1.4,32.88,,,,,,,,,,
14.30.15.361,57.4,14.4,0,21.0,,120762.0,8.28,0.12,0.98,-0.11,-0.5,6.7,-0.7,32.88,,,,,,,,,,
14.30.15.369,55.6,13.9,0,21.0,,119438.2,8.37,0.12,0.98,-0.1,-1.0,6.1,-1.2,32.88,,,,,,,,,,
14.30.15.382,58.1,14.5,0,21.0,,120768.1,8.28,0.12,0.98,-0.11,-1.0,6.2,-1.0,32.88,,,,,,,,,,
14.30.15.390,55.4,13.8,0,21.0,,119126.2,8.39,0.12,0.97,-0.1,-0.4,7.1,-1.0,32.88,,,,,,,,,,
14.30.15.402,42.6,10.6,0,21.0,,121274.9,8.25,0.12,0.98,-0.11,-0.7,6.5,-1.0,32.88,,,,,,,,,,
14.30.15.410,30.5,7.6,0,21.0,,119981.0,8.33,0.12,0.98,-0.1,0.2,7.0,-1.1,32.88,,,,,,,,,,
14.30.15.423,22.5,5.6,0,21.0,,121233.7,8.25,0.12,0.98,-0.11,0.4,7.1,-0.5,32.88,,,,,,,,,,
14.30.15.431,17.4,4.4,0,21.0,,120597.9,8.29,0.12,0.98,-0.1,0.2,6.2,-0.5,32.88,,,,,,,,,,
14.30.15.443,6.2,1.6,0,21.0,,116869.7,8.56,0.12,0.98,-0.11,0.0,6.3,-0.6,32.88,,,,,,,,,,
14.30.15.451,-0.6,0.2,0,21.0,,119013.9,8.4,0.12,0.98,-0.11,0.3,6.6,-0.9,32.88,,,,,,,,,,
14.30.15.464,-4.9,1.2,0,21.0,,120222.3,8.32,0.12,0.98,-0.1,-0.1,6.0,-1.4,32.88,,,,,,,,,,
14.30.15.476,-13.6,3.4,0,21.0,,119056.1,8.4,0.12,0.98,-0.11,-0.7,6.0,-1.4,32.88,,,,,,,,,,
14.30.15.484,,,0,21.0,,120649.8,8.29,,,,,,,32.88,,,,,,,,,,
14.30.15.500,,,0,21.0,,119468.3,8.37,,,,,,,32.88,,32.85,,,,,,,,
14.30.15.513,-17.9,4.5,0,21.0,,120807.9,8.28,0.12,0.98,-0.1,-1.2,6.5,-1.0,32.88,,,,,,,,,,
14.30.15.521,-32.2,8.0,0,21.0,,119043.9,8.4,0.12,0.98,-0.1,-0.6,6.3,-1.2,32.88,,,,,,,,,,
14.30.15.533,-31.2,7.8,0,21.0,,117112.7,8.54,0.12,0.98,-0.1,-0.9,7.0,-0.9,32.88,,,,,,,,,,
14.30.15.541,-44.0,11.0,0,21.0,,119539.6,8.37,0.12,0.98,-0.1,-0.7,6.9,-1.0,32.88,,,,,,,,,,
14.30.15.554,-40.9,10.2,0,21.0,,119322.4,8.38,0.12,0.98,-0.1,0.0,6.9,-1.2,32.88,,,,,,,,,,
