timestamp,ppg,threshold,beat,beat_count,inst_bpm,gsr_resistance_ohm,gsr_conductance_us,accel_x,accel_y,accel_z,gyro_x,gyro_y,gyro_z,temp_c,window_bpm,window_temp_c,status_message,SpO2,bmi,age,height,weight,env_temp_c,env_humidity_pct
16.28.59.898,0.0,0.0,0,,,52885.6,18.91,0.52,0.83,-0.18,-0.7,9.0,-2.3,35.38,113.9,,,,22.0,22.0,152.4,51.0,31.44,45.0
16.28.59.910,67.1,16.8,0,,,52466.1,19.06,0.52,0.83,-0.14,-1.1,7.4,-2.9,35.38,,,,,,,,,,
16.28.59.918,196.2,49.0,0,,,46342.5,21.58,0.53,0.83,-0.15,-0.8,6.2,-2.4,35.38,,,,,,,,,,
16.28.59.931,251.8,63.0,0,,,52958.2,18.88,0.52,0.85,-0.16,-0.2,5.2,-2.1,35.38,,,,,,,,,,
16.28.59.939,357.3,89.3,0,,,47743.8,20.95,0.52,0.85,-0.15,0.1,4.0,-1.3,35.38,,,,,,,,,,
16.28.59.951,394.6,98.6,0,,,48915.3,20.44,0.52,0.84,-0.16,0.9,4.0,-0.5,35.38,,,,,,,,,,
16.28.59.959,445.4,111.4,0,,,46656.0,21.43,0.51,0.83,-0.17,1.6,4.1,-0.3,35.38,,,,,,,,,,
16.28.59.972,474.2,118.6,0,,,52662.5,18.99,0.51,0.82,-0.17,2.9,4.2,-0.8,35.38,,,,,,,,,,
16.28.59.980,430.1,107.5,0,,,47864.3,20.89,0.51,0.83,-0.17,3.0,4.2,-1.3,35.38,,,,,,,,,,
16.28.59.992,508.9,127.2,0,,,47593.6,21.01,0.52,0.85,-0.17,1.7,4.7,-0.5,35.38,,,,,,,,,,
16.29.00.000,438.0,109.5,0,,,51584.8,19.39,0.52,0.84,-0.17,1.2,5.3,-0.1,35.38,,,,,,,,,,
16.29.00.013,416.3,104.1,0,,,52837.9,18.93,0.52,0.84,-0.17,1.3,5.4,-0.4,35.38,,,,,,,,,,
16.29.00.025,439.9,110.0,0,,,49008.1,20.4,0.52,0.83,-0.17,1.4,5.8,-0.9,35.38,,,,,,,,,,
16.29.00.033,456.7,114.2,0,,,45451.7,22.0,0.52,0.84,-0.16,1.0,5.5,-0.6,35.38,,,,,,,,,,
16.29.00.045,257.1,64.3,0,,,52242.5,19.14,0.52,0.83,-0.17,-0.6,5.2,-0.6,35.38,,,,,,,,,,
16.29.00.058,167.6,41.9,0,,,46651.0,21.44,0.52,0.83,-0.16,-1.7,5.2,-0.6,35.38,,,,,,,,,,
16.29.00.066,70.5,17.6,0,,,47971.6,20.85,0.52,0.83,-0.18,-1.3,6.0,-1.3,35.38,,,,,,,,,,
16.29.00.078,-10.8,2.7,0,,,48416.1,20.65,0.52,0.83,-0.17,-1.3,7.2,-2.2,35.38,,,,,,,,,,
16.29.00.091,81.2,20.3,0,,,47825.2,20.91,0.52,0.83,-0.16,-1.6,7.7,-2.5,35.38,,,,,,,,,,
16.29.00.099,12.8,3.2,0,,,48249.6,20.73,0.52,0.83,-0.16,-0.9,8.5,-3.0,35.38,,,,,,,,,,
16.29.00.111,117.7,29.4,0,,,50237.9,19.91,0.52,0.84,-0.16,-0.3,9.0,-3.2,35.38,,,,,,,,,,
16.29.00.123,129.4,32.4,0,,,47429.9,21.08,0.51,0.84,-0.16,0.7,8.6,-2.7,35.38,,,,,,,,,,
16.29.00.132,95.5,23.9,0,,,47309.7,21.14,0.51,0.84,-0.15,0.8,6.2,-1.8,35.38,,,,,,,,,,
16.29.00.144,116.3,29.1,0,,,49586.1,20.17,0.51,0.84,-0.15,0.4,4.3,-1.5,35.38,,,,,,,,,,
16.29.00.152,64.6,16.2,0,,,51572.5,19.39,0.51,0.84,-0.17,-0.1,3.7,-1.0,35.38,,,,,,,,,,
16.29.00.164,23.5,5.9,0,,,48269.2,20.72,0.52,0.84,-0.17,0.1,3.9,-0.6,35.38,,,,,,,,,,
16.29.00.177,26.0,6.5,0,,,48172.0,20.76,0.52,0.84,-0.16,-0.5,4.0,-0.3,35.38,,,,,,,,,,
16.29.00.189,-2.5,0.6,0,,,51440.4,19.44,0.51,0.84,-0.17,-0.5,4.1,-0.1,35.38,,,,,,,,,,
16.29.00.197,33.2,8.3,0,,,48922.3,20.44,0.52,0.83,-0.17,0.5,5.0,-1.0,35.38,,,,,,,,,,
16.29.00.209,-39.9,10.0,0,,,46330.4,21.58,0.52,0.82,-0.17,1.7,5.3,-1.5,35.38,,,,,,,,,,
16.29.00.218,-43.0,10.8,0,,,43790.4,22.84,0.52,0.84,-0.16,2.0,5.9,-1.6,35.38,,,,,,,,,,
16.29.00.230,-19.6,4.9,0,,,46337.9,21.58,0.53,0.84,-0.17,1.9,6.3,-1.4,35.38,,,,,,,,,,
16.29.00.238,5.5,1.4,0,,,46535.2,21.49,0.53,0.84,-0.16,1.4,6.3,-0.7,35.38,,,,,,,,,,
16.29.00.250,0.7,0.2,0,,,46624.9,21.45,0.52,0.84,-0.16,0.7,6.1,-0.2,35.38,,,,,,,,,,
16.29.00.259,-54.5,13.6,0,,,48312.7,20.7,0.52,0.83,-0.16,0.6,5.6,-0.5,35.38,,,,,,,,,,
16.29.00.271,-136.9,34.2,0,,,41911.6,23.86,0.51,0.83,-0.17,-0.2,5.3,-1.2,35.38,,,,,,,,,,
16.29.00.279,-26.5,6.6,0,,,49609.8,20.16,0.51,0.83,-0.16,-1.1,5.0,-1.3,35.38,,,,,,,,,,
16.29.00.291,-97.6,24.4,0,,,47416.7,21.09,0.51,0.83,-0.18,-2.0,5.7,-1.9,35.38,,,,,,,,,,
16.29.00.304,-132.2,33.0,0,,,50605.8,19.76,0.52,0.84,-0.18,-2.2,5.9,-2.1,35.38,,,,,,,,,,
16.29.00.316,-118.1,29.5,0,,,51793.8,19.31,0.52,0.83,-0.17,-1.2,6.6,-2.5,35.38,,,,,,,,,,
16.29.00.324,-133.2,33.3,0,,,45756.3,21.85,0.52,0.84,-0.18,0.2,8.1,-2.2,35.38,,,,,,,,,,
16.29.00.336,-163.7,40.9,0,,,46766.4,21.38,0.52,0.84,-0.17,1.8,8.4,-2.1,35.38,,,,,,,,,,
16.29.00.349,-115.1,28.8,0,,,49068.3,20.38,0.52,0.85,-0.16,2.1,8.2,-1.2,35.38,,,,,,,,,,
16.29.00.357,-179.5,44.9,0,,,48350.1,20.68,0.52,0.83,-0.15,1.3,6.9,-0.4,35.38,,,,,,,,,,
16.29.00.369,-90.8,22.7,0,,,45325.6,22.06,0.52,0.83,-0.15,1.2,6.4,-0.5,35.38,,,,,,,,,,
16.29.00.381,-184.6,46.2,0,,,47656.2,20.98,0.52,0.83,-0.15,0.9,5.6,-0.6,35.38,,,,,,,,,,
16.29.00.390,-192.3,48.1,0,,,49331.4,20.27,0.52,0.84,-0.16,0.5,5.2,-0.5,35.38,,,,,,,,,,
16.29.00.402,-204.5,51.1,0,,,45032.3,22.21,0.52,0.83,-0.15,-0.1,4.9,-0.6,35.38,,,,,,,,,,
16.29.00.414,-244.5,61.1,0,,,44595.0,22.42,0.52,0.83,-0.16,-0.2,4.9,-0.6,35.38,,,,,,,,,,
16.29.00.422,-40.1,10.0,1,1.0,112.8,44446.2,22.5,0.52,0.83,-0.17,0.0,4.4,-0.9,35.38,,,,,,,,,,
16.29.00.435,141.4,35.4,0,1.0,,42894.2,23.31,0.52,0.84,-0.18,1.2,5.3,-0.9,35.38,,,,,,,,,,
16.29.00.447,205.0,51.2,0,1.0,,46703.3,21.41,0.52,0.85,-0.18,1.1,5.8,-0.2,35.38,,,,,,,,,,
16.29.00.455,314.5,78.6,0,1.0,,49133.0,20.35,0.51,0.83,-0.17,2.2,6.8,0.1,35.38,,,,,,,,,,
16.29.00.467,327.5,81.9,0,1.0,,48191.7,20.75,0.51,0.83,-0.16,2.8,6.7,-0.2,35.38,,,,,,,,,,
16.29.00.480,376.4,94.1,0,1.0,,42017.0,23.8,0.51,0.83,-0.16,3.1,6.1,-0.6,35.38,,,,,,,,,,
16.29.00.488,471.8,118.0,0,1.0,,42702.2,23.42,0.52,0.83,-0.15,1.5,4.8,-0.7,35.38,,,,,,,,,,
16.29.00.500,489.9,122.5,0,1.0,,44460.1,22.49,0.52,0.84,-0.16,0.5,4.8,-0.6,35.38,,,,,,,,,,
16.29.00.512,563.4,140.8,0,1.0,,47179.4,21.2,0.53,0.83,-0.17,0.5,5.7,-1.0,35.38,,,,,,,,,,
16.29.00.521,553.0,138.2,0,1.0,,45291.7,22.08,0.53,0.84,-0.18,1.1,7.0,-1.1,35.38,,,,,,,,,,
16.29.00.533,360.8,90.2,0,1.0,,42564.0,23.49,0.53,0.84,-0.17,0.3,7.9,-0.7,35.38,,,,,,,,,,
16.29.00.545,322.3,80.6,0,1.0,,44806.2,22.32,0.52,0.83,-0.16,0.6,8.4,-0.6,35.38,,,,,,,,,,
16.29.00.553,369.5,92.4,0,1.0,,46276.7,21.61,0.52,0.83,-0.16,0.4,7.5,-0.4,35.38,,,,,,,,,,
16.29.00.566,294.1,73.5,0,1.0,,47533.8,21.04,0.52,0.83,-0.15,0.1,6.0,-0.4,35.38,,,,,,,,,,
16.29.00.578,218.8,54.7,0,1.0,,41153.4,24.3,0.52,0.83,-0.16,0.2,5.2,-0.5,35.38,,,,,,,,,,
16.29.00.586,128.5,32.1,0,1.0,,50871.0,19.66,0.52,0.83,-0.16,0.0,5.0,-0.7,35.38,,,,,,,,,,
16.29.00.598,107.0,26.8,0,1.0,,45068.7,22.19,0.52,0.83,-0.17,0.8,5.2,-0.9,35.38,,,,,,,,,,
16.29.00.611,34.9,8.7,0,1.0,,51816.1,19.3,0.52,0.84,-0.17,1.6,5.9,-1.2,35.38,,,,,,,,,,
16.29.00.619,61.8,15.4,0,1.0,,50954.5,19.63,0.51,0.84,-0.17,1.7,6.1,-1.4,35.38,,,,,,,,,,
16.29.00.631,22.4,5.6,0,1.0,,44735.1,22.35,0.51,0.84,-0.17,1.8,6.7,-0.9,35.38,,,,,,,,,,
16.29.00.644,103.0,25.8,0,1.0,,50314.6,19.87,0.52,0.84,-0.17,1.2,6.8,-0.5,35.38,,,,,,,,,,
16.29.00.652,59.3,14.8,0,1.0,,50120.8,19.95,0.52,0.84,-0.17,1.1,6.8,-0.4,35.38,,,,,,,,,,
16.29.00.664,41.8,10.4,0,1.0,,46275.6,21.61,0.52,0.84,-0.17,0.2,7.3,0.0,35.38,,,,,,,,,,
16.29.00.705,11.6,2.9,0,1.0,,48521.7,20.61,0.52,0.82,-0.16,0.6,3.2,1.0,35.38,,,,,,,,,,
16.29.00.713,10.8,2.7,0,1.0,,49296.2,20.29,0.52,0.83,-0.17,2.0,2.9,0.2,35.38,,,,,,,,,,
16.29.00.726,-54.9,13.7,0,1.0,,49390.4,20.25,0.52,0.83,-0.17,2.6,3.2,0.3,35.38,,,,,,,,,,
16.29.00.738,-27.4,6.8,0,1.0,,45436.4,22.01,0.52,0.83,-0.18,3.9,4.8,-0.2,35.38,,,,,,,,,,
16.29.00.746,20.9,5.2,0,1.0,,50385.5,19.85,0.52,0.83,-0.18,3.6,6.1,-0.7,35.38,,,,,,,,,,
16.29.00.758,-20.5,5.1,0,1.0,,48237.6,20.73,0.52,0.82,-0.18,2.4,6.3,-0.8,35.38,,,,,,,,,,
16.29.00.771,-36.2,9.0,0,1.0,,47929.9,20.86,0.52,0.83,-0.17,1.0,6.0,-1.0,35.38,,,,,,,,,,
16.29.00.779,-27.6,6.9,0,1.0,,37614.4,26.59,0.52,0.83,-0.17,0.0,6.6,-0.9,35.38,,,,,,,,,,
16.29.00.791,-67.7,16.9,0,1.0,,53262.7,18.77,0.53,0.83,-0.16,-0.9,6.4,-1.1,35.38,,,,,,,,,,
16.29.00.803,-87.9,22.0,0,1.0,,43483.0,23.0,0.53,0.84,-0.16,-1.3,6.0,-0.7,35.38,,,,,,,,,,
16.29.00.812,-62.9,15.7,0,1.0,,50084.3,19.97,0.52,0.83,-0.16,-1.4,5.8,-1.1,35.38,,,,,,,,,,
16.29.00.824,-111.2,27.8,0,1.0,,50109.9,19.96,0.52,0.82,-0.17,-0.3,5.5,-1.5,35.38,,,,,,,,,,
16.29.00.836,-78.0,19.5,0,1.0,,47166.7,21.2,0.51,0.82,-0.17,0.6,5.6,-1.5,35.38,,,,,,,,,,
16.29.00.844,-117.0,29.2,0,1.0,,48091.9,20.79,0.52,0.82,-0.18,1.8,6.2,-1.7,35.38,,,,,,,,,,
16.29.00.857,-183.8,46.0,0,1.0,,45772.0,21.85,0.52,0.83,-0.18,3.2,7.5,-2.4,35.38,,,,,,,,,,
16.29.00.869,-130.4,32.6,0,1.0,,48677.6,20.54,0.51,0.82,-0.17,4.1,7.9,-3.1,35.38,,,,,,,,,,
16.29.00.877,-86.3,21.6,0,1.0,,47880.8,20.89,0.52,0.83,-0.16,3.5,7.4,-3.6,35.38,,,,,,,,,,
16.29.00.889,-83.3,20.8,0,1.0,,42478.6,23.54,0.52,0.83,-0.16,2.5,6.3,-3.1,35.38,,,,,,,,,,
16.29.00.902,-110.2,27.6,0,1.0,,46885.9,21.33,0.52,0.83,-0.16,1.8,6.3,-3.1,35.38,,,,,,,,,,
16.29.00.910,-144.6,36.2,0,1.0,,45740.7,21.86,0.53,0.83,-0.16,0.6,5.9,-3.1,35.38,,,,,,,,,,
16.29.00.922,-174.9,43.7,0,1.0,,48249.5,20.73,0.52,0.83,-0.17,-0.3,6.2,-2.9,35.38,,,,,,,,,,
16.29.00.934,-232.8,58.2,0,1.0,,52448.8,19.07,0.53,0.83,-0.17,-1.0,6.1,-3.3,35.38,,,,,,,,,,
16.29.00.943,-270.2,67.6,0,1.0,,49788.3,20.09,0.53,0.82,-0.17,-0.6,5.7,-3.4,35.38,,,,,,,,,,
16.29.00.955,67.5,16.9,1,2.0,117.3,45564.7,21.95,0.53,0.85,-0.17,-0.2,5.9,-3.0,35.38,,,,,,,,,,
16.29.00.967,196.7,49.2,0,2.0,,47766.7,20.94,0.52,0.85,-0.17,-1.6,6.5,-1.9,35.38,,,,,,,,,,
16.29.00.975,241.2,60.3,0,2.0,,42303.3,23.64,0.52,0.84,-0.17,0.2,7.4,-1.9,35.38,,,,,,,,,,
16.29.00.988,361.5,90.4,0,2.0,,48977.6,20.42,0.52,0.84,-0.16,0.3,7.8,-1.4,35.38,,,,,,,,,,
16.29.01.000,324.1,81.0,0,2.0,,47128.9,21.22,0.51,0.83,-0.15,0.8,7.2,-1.0,35.38,,,,,,,,,,
16.29.01.008,407.8,102.0,0,2.0,,42306.4,23.64,0.52,0.84,-0.15,0.4,6.0,-0.6,35.38,,,,,,,,,,
16.29.01.021,443.6,110.9,0,2.0,,55675.8,17.96,0.52,0.82,-0.16,0.5,4.9,0.0,35.38,,,,,,,,,,
16.29.01.033,497.3,124.3,0,2.0,,52559.1,19.03,0.52,0.83,-0.16,1.4,4.6,-0.4,35.38,,,,,,,,,,
16.29.01.041,446.8,111.7,0,2.0,,43806.8,22.83,0.52,0.83,-0.17,0.8,3.8,-0.5,35.38,,,,,,,,,,
16.29.01.053,455.1,113.8,0,2.0,,46299.6,21.6,0.52,0.82,-0.16,1.3,3.5,-1.2,35.38,,,,,,,,,,
16.29.01.066,403.8,101.0,0,2.0,,46817.8,21.36,0.51,0.82,-0.17,0.8,3.6,-1.1,35.38,,,,,,,,,,
16.29.01.074,414.4,103.6,0,2.0,,54048.3,18.5,0.52,0.83,-0.17,-0.1,4.2,-1.6,35.38,,,,,,,,,,
16.29.01.086,274.6,68.6,0,2.0,,49035.1,20.39,0.52,0.84,-0.17,-0.8,4.9,-2.0,35.38,,,,,,,,,,
16.29.01.098,276.2,69.0,0,2.0,,44472.0,22.49,0.52,0.84,-0.18,-0.4,6.2,-1.9,35.38,,,,,,,,,,
16.29.01.107,185.1,46.3,0,2.0,,46989.2,21.28,0.51,0.82,-0.17,0.7,6.5,-2.5,35.38,,,,,,,,,,
16.29.01.119,57.5,14.4,0,2.0,,48537.7,20.6,0.52,0.82,-0.18,3.0,5.3,-3.3,35.38,,,,,,,,,,
16.29.01.131,46.0,11.5,0,2.0,,44150.0,22.65,0.53,0.85,-0.14,3.4,5.4,-2.9,35.38,,,,,,,,,,
16.29.01.139,43.2,10.8,0,2.0,,51984.5,19.24,0.52,0.85,-0.16,0.9,3.8,-1.4,35.38,,,,,,,,,,
16.29.01.152,40.5,10.1,0,2.0,,47100.9,21.23,0.52,0.83,-0.18,0.5,3.6,-0.7,35.38,,,,,,,,,,
16.29.01.164,108.5,27.1,0,2.0,,47485.1,21.06,0.52,0.82,-0.18,1.4,4.5,-1.7,35.38,,,,,,,,,,
16.29.01.172,95.4,23.8,0,2.0,,49415.5,20.24,0.53,0.83,-0.16,1.9,5.9,-2.0,35.38,,,,,,,,,,
16.29.01.184,74.3,18.6,0,2.0,,43072.8,23.22,0.53,0.85,-0.16,-0.6,5.4,-1.3,35.38,,,,,,,,,,
16.29.01.197,96.0,24.0,0,2.0,,42065.0,23.77,0.52,0.83,-0.17,-2.5,5.2,-0.8,35.38,,,,,,,,,,
16.29.01.205,14.4,3.6,0,2.0,,47893.0,20.88,0.52,0.83,-0.17,-1.6,5.6,-1.3,35.38,,,,,,,,,,
16.29.01.217,82.4,20.6,0,2.0,,47526.1,21.04,0.52,0.84,-0.18,-0.3,6.7,-1.5,35.38,,,,,,,,,,
16.29.01.229,-51.5,12.9,0,2.0,,47990.6,20.84,0.52,0.84,-0.17,1.1,7.0,-0.9,35.38,,,,,,,,,,
16.29.01.238,21.4,5.4,0,2.0,,46911.8,21.32,0.51,0.84,-0.17,1.3,5.8,-0.6,35.38,,,,,,,,,,
16.29.01.250,30.1,7.5,0,2.0,,49001.5,20.41,0.5,0.82,-0.17,2.6,4.7,-0.5,35.38,,,,,,,,,,
16.29.01.262,-30.1,7.5,0,2.0,,44290.2,22.58,0.51,0.83,-0.16,2.5,3.8,-0.6,35.38,,,,,,,,,,
16.29.01.270,-23.2,5.8,0,2.0,,48412.3,20.66,0.52,0.83,-0.16,1.2,3.1,-0.5,35.38,,,,,,,,,,
16.29.01.283,-8.6,2.2,0,2.0,,45449.9,22.0,0.52,0.84,-0.17,-0.3,3.7,-0.5,35.38,,,,,,,,,,
16.29.01.295,-48.8,12.2,0,2.0,,45559.1,21.95,0.52,0.83,-0.17,-1.5,5.4,-0.9,35.38,,,,,,,,,,
16.29.01.303,-7.7,1.9,0,2.0,,45830.3,21.82,0.52,0.83,-0.17,-1.1,6.7,-1.9,35.38,,,,,,,,,,
16.29.01.315,-72.6,18.2,0,2.0,,46345.3,21.58,0.52,0.82,-0.17,-1.1,7.0,-2.2,35.38,,,,,,,,,,
16.29.01.328,-52.2,13.0,0,2.0,,42658.4,23.44,0.52,0.83,-0.17,0.1,6.9,-2.5,35.38,,,,,,,,,,
16.29.01.336,-76.0,19.0,0,2.0,,46261.9,21.62,0.53,0.84,-0.18,0.8,7.2,-2.8,35.38,,,,,,,,,,
16.29.01.348,-196.5,49.1,0,2.0,,48894.8,20.45,0.53,0.84,-0.18,1.4,7.6,-2.0,35.38,,,,,,,,,,
16.29.01.360,-99.3,24.8,0,2.0,,45900.1,21.79,0.52,0.84,-0.17,1.7,7.7,-1.7,35.38,,,,,,,,,,
16.29.01.369,-74.8,18.7,0,2.0,,44457.0,22.49,0.52,0.84,-0.16,1.2,7.7,-1.7,35.38,,,,,,,,,,
16.29.01.381,-63.9,16.0,0,2.0,,46870.1,21.34,0.52,0.83,-0.16,0.2,6.4,-1.0,35.38,,,,,,,,,,
16.29.01.393,-82.6,20.6,0,2.0,,43748.1,22.86,0.52,0.84,-0.16,-0.7,5.2,-0.5,35.38,,,,,,,,,,
16.29.01.406,-77.9,19.5,0,2.0,,47073.0,21.24,0.52,0.83,-0.17,-1.2,4.9,-0.8,35.38,,,,,,,,,,
16.29.01.414,-126.6,31.6,0,2.0,,50814.3,19.68,0.52,0.84,-0.17,-0.7,5.6,-0.6,35.38,,,,,,,,,,
16.29.01.426,-164.2,41.0,0,2.0,,50062.5,19.98,0.52,0.84,-0.17,-0.7,5.9,-0.2,35.38,,,,,,,,,,
16.29.01.438,-174.1,43.5,0,2.0,,52484.3,19.05,0.52,0.83,-0.17,-0.8,6.0,0.1,35.38,,,,,,,,,,
16.29.01.447,-194.2,48.6,0,2.0,,46139.3,21.67,0.51,0.83,-0.17,-0.8,6.4,-0.4,35.38,,,,,,,,,,
16.29.01.459,-203.5,50.9,0,2.0,,47676.5,20.97,0.52,0.82,-0.18,-0.4,7.0,-1.4,35.38,,,,,,,,,,
16.29.01.471,14.6,3.6,1,3.0,114.3,47929.2,20.86,0.51,0.83,-0.17,0.0,7.4,-2.1,35.38,,,,,,,,,,
16.29.01.512,312.7,78.2,0,3.0,,45039.1,22.2,0.51,0.83,-0.16,1.5,6.1,0.4,35.38,,,,,,,,,,
16.29.01.520,394.3,98.6,0,3.0,,43642.6,22.91,0.51,0.81,-0.15,1.2,4.7,-0.4,35.38,,,,,,,,,,
16.29.01.533,428.0,107.0,0,3.0,,45052.0,22.2,0.52,0.82,-0.16,0.7,4.2,-1.2,35.38,,,,,,,,,,
16.29.01.541,465.8,116.4,0,3.0,,54727.0,18.27,0.52,0.82,-0.17,-1.1,4.4,-1.8,35.38,,,,,,,,,,
16.29.01.553,499.6,124.9,0,3.0,,51724.8,19.33,0.52,0.83,-0.18,-2.6,5.4,-2.0,35.38,,,,,,,,,,
16.29.01.565,524.5,131.1,0,3.0,,44278.5,22.58,0.52,0.84,-0.18,-2.2,7.6,-2.3,35.38,,,,,,,,,,
16.29.01.578,468.8,117.2,0,3.0,,47841.8,20.9,0.53,0.85,-0.17,-1.7,8.3,-1.8,35.38,,,,,,,,,,
16.29.01.586,456.4,114.1,0,3.0,,46841.9,21.35,0.52,0.84,-0.16,-0.5,8.7,-1.0,35.38,,,,,,,,,,
16.29.01.598,366.1,91.5,0,3.0,,45625.5,21.92,0.52,0.84,-0.16,2.0,7.3,-0.6,35.38,,,,,,,,,,
16.29.01.610,251.4,62.8,0,3.0,,47294.2,21.14,0.52,0.83,-0.15,3.4,5.5,-0.1,35.38,,,,,,,,,,
16.29.01.619,281.7,70.4,0,3.0,,47826.6,20.91,0.52,0.84,-0.15,3.6,4.7,0.2,35.38,,,,,,,,,,
16.29.01.631,182.6,45.6,0,3.0,,54470.8,18.36,0.52,0.83,-0.15,2.7,3.6,0.4,35.38,,,,,,,,,,
16.29.01.643,88.2,22.0,0,3.0,,49407.2,20.24,0.52,0.83,-0.17,1.5,3.2,0.2,35.38,,,,,,,,,,
16.29.01.651,11.9,3.0,0,3.0,,49288.6,20.29,0.52,0.83,-0.17,0.3,3.2,0.0,35.38,,,,,,,,,,
16.29.01.664,-49.1,12.3,0,3.0,,48678.6,20.54,0.52,0.83,-0.17,-0.4,3.8,-0.3,35.38,,,,,,,,,,
16.29.01.676,22.1,5.5,0,3.0,,51718.1,19.34,0.52,0.84,-0.17,-1.0,4.5,-0.3,35.38,,,,,,,,,,
16.29.01.688,123.1,30.8,0,3.0,,45705.8,21.88,0.52,0.83,-0.18,-0.6,5.5,-0.7,35.38,,,,,,,,,,
16.29.01.696,61.6,15.4,0,3.0,,46042.0,21.72,0.51,0.84,-0.18,0.9,6.1,-0.2,35.38,,,,,,,,,,
16.29.01.709,56.2,14.0,0,3.0,,47015.7,21.27,0.52,0.84,-0.17,0.8,6.7,0.4,35.38,,,,,,,,,,
16.29.01.721,72.3,18.1,0,3.0,,50905.3,19.64,0.52,0.83,-0.18,2.2,7.1,0.1,35.38,,,,,,,,,,
16.29.01.729,5.1,1.3,0,3.0,,46731.0,21.4,0.53,0.83,-0.16,2.8,8.4,-0.4,35.38,,,,,,,,,,
16.29.01.741,63.6,15.9,0,3.0,,43403.9,23.04,0.52,0.83,-0.16,2.6,7.1,-0.4,35.38,,,,,,,,,,
16.29.01.754,37.5,9.4,0,3.0,,48748.2,20.51,0.53,0.82,-0.16,0.8,6.4,0.1,35.38,,,,,,,,,,
16.29.01.762,32.1,8.0,0,3.0,,50142.9,19.94,0.52,0.83,-0.16,0.5,5.1,-0.8,35.38,,,,,,,,,,
16.29.01.774,12.7,3.2,0,3.0,,43653.3,22.91,0.52,0.83,-0.16,-2.0,5.4,-0.8,35.38,,,,,,,,,,
16.29.01.787,-62.1,15.5,0,3.0,,49116.1,20.36,0.52,0.84,-0.17,0.6,6.1,-1.3,35.38,,,,,,,,,,
16.29.01.795,7.5,1.9,0,3.0,,49483.9,20.21,0.51,0.81,-0.19,-0.2,6.9,-0.5,35.38,,,,,,,,,,
16.29.01.807,-85.2,21.3,0,3.0,,47630.9,20.99,0.52,0.87,-0.18,1.7,6.1,-2.1,35.38,,,,,,,,,,
16.29.01.819,-73.4,18.4,0,3.0,,49915.3,20.03,0.52,0.82,-0.18,-0.2,8.0,-0.7,35.38,,,,,,,,,,
16.29.01.832,-41.3,10.3,0,3.0,,50996.0,19.61,0.51,0.84,-0.16,0.1,9.0,-0.8,35.38,,,,,,,,,,
16.29.01.840,-89.3,22.3,0,3.0,,48346.5,20.68,0.52,0.83,-0.17,-0.4,8.7,-1.0,35.38,,,,,,,,,,
16.29.01.852,-102.2,25.6,0,3.0,,50373.4,19.85,0.52,0.82,-0.16,0.0,7.3,-1.9,35.38,,,,,,,,,,
16.29.01.864,-107.6,26.9,0,3.0,,45621.4,21.92,0.52,0.84,-0.17,-0.5,6.6,-1.2,35.38,,,,,,,,,,
16.29.01.873,-92.1,23.0,0,3.0,,43945.7,22.76,0.53,0.83,-0.17,1.0,6.8,-1.0,35.38,,,,,,,,,,
16.29.01.885,-131.9,33.0,0,3.0,,52012.7,19.23,0.52,0.82,-0.18,1.5,6.6,-1.5,35.38,,,,,,,,,,
16.29.01.897,-92.4,23.1,0,3.0,,45847.8,21.81,0.53,0.82,-0.17,1.9,6.9,-1.3,35.38,,,,,,,,,,
16.29.01.906,-93.8,23.4,0,3.0,,47321.8,21.13,0.51,0.83,-0.16,1.7,6.8,-1.7,35.38,,,,,,,,,,
16.29.01.918,-153.0,38.2,0,3.0,,44876.5,22.28,0.52,0.84,-0.16,-0.9,7.6,-2.1,35.38,,,,,,,,,,
16.29.01.930,-145.3,36.3,0,3.0,,44488.1,22.48,0.52,0.83,-0.16,-1.8,8.1,-2.2,35.38,,,,,,,,,,
16.29.01.942,-67.8,17.0,0,3.0,,48316.5,20.7,0.52,0.83,-0.15,-2.0,7.7,-2.5,35.38,,,,,,,,,,
16.29.01.950,-187.2,46.8,0,3.0,,47206.0,21.18,0.52,0.84,-0.16,-1.3,7.0,-2.5,35.38,,,,,,,,,,
16.29.01.963,-137.9,34.5,0,3.0,,47551.4,21.03,0.52,0.84,-0.16,0.6,5.8,-0.9,35.38,,,,,,,,,,
16.29.01.975,-148.9,37.2,0,3.0,,47657.0,20.98,0.52,0.85,-0.17,2.4,5.2,0.3,35.38,,,,,,,,,,
16.29.01.983,-166.2,41.6,0,3.0,,53405.6,18.72,0.51,0.84,-0.17,3.4,4.7,1.0,35.38,,,,,,,,,,
16.29.01.995,21.5,5.4,1,4.0,115.4,51625.7,19.37,0.52,0.83,-0.15,5.4,3.7,0.9,35.38,,,,,,,,,,
16.29.02.008,128.2,32.0,0,4.0,,51947.2,19.25,0.53,0.83,-0.19,1.1,5.1,1.6,35.38,,,,,,,,,,
16.29.02.016,208.8,52.2,0,4.0,,41873.2,23.88,0.51,0.81,-0.17,0.3,5.3,0.5,35.38,,,,,,,,,,
16.29.02.028,302.5,75.6,0,4.0,,49650.1,20.14,0.53,0.83,-0.16,-0.8,5.3,-1.2,35.38,,,,,,,,,,
16.29.02.036,330.4,82.6,0,4.0,,42567.9,23.49,0.53,0.83,-0.17,-2.6,5.8,-1.0,35.38,,,,,,,,,,
16.29.02.049,395.4,98.8,0,4.0,,45475.0,21.99,0.53,0.83,-0.16,-2.1,6.4,-1.4,35.38,,,,,,,,,,
16.29.02.061,434.1,108.5,0,4.0,,52574.7,19.02,0.53,0.84,-0.16,-0.9,4.4,-0.7,35.38,,,,,,,,,,
16.29.02.070,405.6,101.4,0,4.0,,51919.5,19.26,0.53,0.84,-0.15,1.6,4.4,0.2,35.38,,,,,,,,,,
16.29.02.082,454.9,113.7,0,4.0,,50428.3,19.83,0.52,0.84,-0.17,2.7,3.3,1.0,35.38,,,,,,,,,,
16.29.02.094,489.8,122.4,0,4.0,,49675.0,20.13,0.52,0.83,-0.17,3.7,3.0,0.6,35.38,,,,,,,,,,
16.29.02.102,477.2,119.3,0,4.0,,48504.8,20.62,0.52,0.83,-0.16,3.0,4.0,0.3,35.38,,,,,,,,,,
16.29.02.114,443.9,111.0,0,4.0,,48922.5,20.44,0.52,0.82,-0.17,1.6,6.0,-0.5,35.38,,,,,,,,,,
16.29.02.127,418.5,104.6,0,4.0,,50841.9,19.67,0.52,0.82,-0.17,0.2,4.9,-1.1,35.38,,,,,,,,,,
16.29.02.135,346.9,86.7,0,4.0,,43164.6,23.17,0.52,0.83,-0.17,-2.2,5.7,-1.2,35.38,,,,,,,,,,
16.29.02.147,173.7,43.4,0,4.0,,48467.4,20.63,0.52,0.82,-0.17,-3.5,6.3,-1.1,35.38,,,,,,,,,,
16.29.02.159,99.6,24.9,0,4.0,,45309.0,22.07,0.53,0.83,-0.17,-3.6,6.1,-1.5,35.38,,,,,,,,,,
16.29.02.168,59.7,14.9,0,4.0,,46466.1,21.52,0.52,0.83,-0.16,-3.0,5.9,-1.5,35.38,,,,,,,,,,
16.29.02.180,21.7,5.4,0,4.0,,46979.8,21.29,0.53,0.84,-0.18,-1.0,5.9,-1.3,35.38,,,,,,,,,,
16.29.02.192,50.6,12.6,0,4.0,,47729.9,20.95,0.53,0.84,-0.17,0.3,5.8,-0.9,35.38,,,,,,,,,,
16.29.02.200,120.8,30.2,0,4.0,,45828.5,21.82,0.53,0.83,-0.17,0.7,5.6,-0.8,35.38,,,,,,,,,,
16.29.02.213,61.6,15.4,0,4.0,,40631.6,24.61,0.53,0.83,-0.17,1.2,6.1,-1.1,35.38,,,,,,,,,,
16.29.02.221,140.2,35.0,0,4.0,,47838.6,20.9,0.52,0.83,-0.17,1.0,6.3,-1.4,35.38,,,,,,,,,,
16.29.02.233,19.5,4.9,0,4.0,,46170.5,21.66,0.52,0.82,-0.16,-0.5,6.5,-1.5,35.38,,,,,,,,,,
16.29.02.245,81.5,20.4,0,4.0,,46617.2,21.45,0.52,0.82,-0.16,-0.7,6.3,-1.9,35.38,,,,,,,,,,
16.29.02.254,88.3,22.1,0,4.0,,49610.9,20.16,0.53,0.83,-0.17,-1.5,5.7,-2.4,35.38,,,,,,,,,,
16.29.02.266,24.6,6.2,0,4.0,,48201.0,20.75,0.52,0.83,-0.17,-1.3,6.6,-2.3,35.38,,,,,,,,,,
16.29.02.278,13.3,3.3,0,4.0,,47917.1,20.87,0.53,0.84,-0.17,-1.3,6.2,-2.1,35.38,,,,,,,,,,
16.29.02.320,-30.8,7.7,0,4.0,,47091.3,21.24,0.53,0.83,-0.17,1.9,8.0,-1.2,35.38,,,,,,,,,,
16.29.02.327,-77.4,19.4,0,4.0,,47401.3,21.1,0.53,0.83,-0.16,1.0,9.3,-0.8,35.38,,,,,,,,,,
16.29.02.340,-2.9,0.7,0,4.0,,44415.9,22.51,0.5,0.83,-0.15,0.6,3.5,1.0,35.38,,,,,,,,,,
16.29.02.348,-114.4,28.6,0,4.0,,47930.1,20.86,0.52,0.81,-0.16,0.2,6.8,0.0,35.38,,,,,,,,,,
16.29.02.360,-86.5,21.6,0,4.0,,44781.1,22.33,0.52,0.83,-0.14,-2.9,6.1,-0.2,35.38,,,,,,,,,,
16.29.02.372,-111.3,27.8,0,4.0,,45795.2,21.84,0.51,0.82,-0.15,-3.0,5.6,-1.0,35.38,,,,,,,,,,
16.29.02.385,-92.0,23.0,0,4.0,,43535.9,22.97,0.51,0.83,-0.15,-3.0,4.4,-1.2,35.38,,,,,,,,,,
16.29.02.393,-143.2,35.8,0,4.0,,49077.5,20.38,0.52,0.83,-0.16,-1.8,3.3,-0.9,35.38,,,,,,,,,,
16.29.02.406,-147.7,36.9,0,4.0,,53398.5,18.73,0.52,0.84,-0.18,1.1,3.1,-0.9,35.38,,,,,,,,,,
16.29.02.417,-128.8,32.2,0,4.0,,49112.1,20.36,0.52,0.83,-0.18,3.1,4.3,-0.6,35.38,,,,,,,,,,
16.29.02.426,-56.6,14.2,0,4.0,,39306.9,25.44,0.52,0.83,-0.17,4.2,5.6,-1.5,35.38,,,,,,,,,,
16.29.02.438,-142.7,35.7,0,4.0,,48437.1,20.65,0.52,0.82,-0.17,3.8,6.4,-1.7,35.38,,,,,,,,,,
16.29.02.450,-97.6,24.4,0,4.0,,46618.0,21.45,0.52,0.82,-0.15,1.8,6.0,-2.0,35.38,,,,,,,,,,
16.29.02.458,-130.8,32.7,0,4.0,,48167.2,20.76,0.52,0.82,-0.15,0.0,5.0,-2.5,35.38,,,,,,,,,,
16.29.02.471,-146.6,36.6,0,4.0,,51319.9,19.49,0.52,0.82,-0.15,-1.0,4.4,-3.3,35.38,,,,,,,,,,
16.29.02.483,-166.1,41.5,0,4.0,,48287.9,20.71,0.53,0.82,-0.16,-2.5,5.2,-3.5,35.38,,,,,,,,,,
16.29.02.491,-200.6,50.2,0,4.0,,50124.2,19.95,0.53,0.83,-0.17,-2.3,5.4,-3.8,35.38,,,,,,,,,,
16.29.02.503,-144.6,36.2,0,4.0,,48758.7,20.51,0.53,0.84,-0.17,-2.5,6.4,-3.2,35.38,,,,,,,,,,
16.29.02.516,31.5,7.9,1,5.0,116.8,44003.9,22.73,0.53,0.83,-0.18,-2.4,6.7,-2.4,35.38,,,,,,,,,,
16.29.02.524,25.1,6.3,0,5.0,,50148.3,19.94,0.53,0.83,-0.18,0.6,7.2,-2.8,35.38,,,,,,,,,,
16.29.02.536,156.6,39.2,0,5.0,,49960.2,20.02,0.53,0.83,-0.16,2.6,6.8,-3.0,35.38,,,,,,,,,,
16.29.02.549,212.9,53.2,0,5.0,,47624.9,21.0,0.53,0.83,-0.14,2.8,6.2,-3.0,35.38,,,,,,,,,,
16.29.02.557,322.9,80.7,0,5.0,,50354.7,19.86,0.52,0.83,-0.15,1.8,5.0,-3.0,35.38,,,,,,,,,,
16.29.02.569,337.4,84.4,0,5.0,,49991.9,20.0,0.52,0.83,-0.16,1.0,4.6,-3.2,35.38,,,,,,,,,,
16.29.02.581,471.7,117.9,0,5.0,,47188.8,21.19,0.52,0.84,-0.16,-0.1,4.1,-2.9,35.38,,,,,,,,,,
16.29.02.589,494.7,123.7,0,5.0,,45215.9,22.12,0.51,0.85,-0.17,-1.5,4.1,-2.3,35.38,,,,,,,,,,
16.29.02.602,570.1,142.5,0,5.0,,45754.5,21.86,0.51,0.84,-0.18,-1.4,5.2,-1.7,35.38,,,,,,,,,,
16.29.02.614,451.0,112.8,0,5.0,,51322.2,19.48,0.51,0.83,-0.19,-0.4,5.3,-1.6,35.38,,,,,,,,,,
16.29.02.622,,,0,5.0,,,,,,,,,,35.38,,,,,,,,,,
16.29.02.639,,,0,5.0,,,,,,,,,,35.38,,35.38,,,,,,,,
16.29.02.651,369.5,92.4,0,5.0,,45812.2,21.83,0.52,0.82,-0.16,0.6,5.9,-1.3,35.38,,,,,,,,,,
16.29.02.659,361.9,90.5,0,5.0,,46801.3,21.37,0.52,0.83,-0.15,1.0,6.0,-2.0,35.38,,,,,,,,,,
16.29.02.671,237.8,59.4,0,5.0,,50119.8,19.95,0.52,0.83,-0.13,-0.1,5.5,-1.6,35.38,,,,,,,,,,
16.29.02.684,159.4,39.8,0,5.0,,49730.5,20.11,0.52,0.83,-0.14,-0.2,5.0,-1.6,35.38,,,,,,,,,,
16.29.02.692,78.2,19.6,0,5.0,,47043.0,21.26,0.52,0.84,-0.14,0.5,5.6,-2.4,35.38,,,,,,,,,,
16.29.02.704,105.2,26.3,0,5.0,,51780.9,19.31,0.52,0.84,-0.16,1.1,4.1,-2.0,35.38,,,,,,,,,,
16.29.02.712,32.4,8.1,0,5.0,,45397.4,22.03,0.53,0.84,-0.16,1.7,4.3,-1.4,35.38,,,,,,,,,,
16.29.02.725,117.3,29.3,0,5.0,,45132.8,22.16,0.52,0.84,-0.17,2.0,3.4,-0.4,35.38,,,,,,,,,,
16.29.02.733,77.7,19.4,0,5.0,,47462.6,21.07,0.52,0.84,-0.18,2.9,4.1,-0.6,35.38,,,,,,,,,,
16.29.02.745,110.2,27.6,0,5.0,,50111.4,19.96,0.53,0.83,-0.18,3.3,5.3,-1.0,35.38,,,,,,,,,,
16.29.02.753,79.3,19.8,0,5.0,,54229.0,18.44,0.53,0.83,-0.18,3.3,5.9,-0.6,35.38,,,,,,,,,,
16.29.02.766,78.5,19.6,0,5.0,,42955.7,23.28,0.52,0.83,-0.17,2.1,6.2,-0.4,35.38,,,,,,,,,,
16.29.02.774,86.1,21.5,0,5.0,,47808.6,20.92,0.52,0.84,-0.16,0.6,6.5,-0.4,35.38,,,,,,,,,,
16.29.02.786,42.7,10.7,0,5.0,,51565.1,19.39,0.52,0.83,-0.16,-0.6,7.0,-0.8,35.38,,,,,,,,,,
16.29.02.794,-16.2,4.0,0,5.0,,48227.3,20.74,0.51,0.83,-0.16,-0.5,6.3,-1.2,35.38,,,,,,,,,,
16.29.02.807,34.4,8.6,0,5.0,,45595.5,21.93,0.52,0.83,-0.17,0.7,6.2,-1.5,35.38,,,,,,,,,,
16.29.02.815,-34.7,8.7,0,5.0,,47069.1,21.25,0.53,0.84,-0.16,0.4,5.8,-0.9,35.38,,,,,,,,,,
16.29.02.827,-42.6,10.6,0,5.0,,47292.7,21.14,0.52,0.83,-0.17,0.1,5.5,-0.6,35.38,,,,,,,,,,
16.29.02.835,45.7,11.4,0,5.0,,52039.0,19.22,0.52,0.82,-0.18,-0.1,6.0,-1.1,35.38,,,,,,,,,,
16.29.02.848,-27.9,7.0,0,5.0,,52049.8,19.21,0.52,0.81,-0.18,1.0,8.0,-2.3,35.38,,,,,,,,,,
16.29.02.856,-38.2,9.6,0,5.0,,45329.4,22.06,0.53,0.82,-0.16,0.3,8.9,-3.4,35.38,,,,,,,,,,
16.29.02.868,-28.5,7.1,0,5.0,,53281.4,18.77,0.53,0.83,-0.15,-1.9,9.3,-3.4,35.38,,,,,,,,,,
16.29.02.880,-30.0,7.5,0,5.0,,46181.7,21.65,0.53,0.83,-0.15,-2.9,8.7,-3.4,35.38,,,,,,,,,,
16.29.02.889,-68.4,17.1,0,5.0,,48714.8,20.53,0.53,0.85,-0.15,-3.6,7.5,-3.2,35.38,,,,,,,,,,
16.29.02.901,-67.6,16.9,0,5.0,,48856.1,20.47,0.52,0.84,-0.15,-1.8,6.4,-2.6,35.38,,,,,,,,,,
16.29.02.909,-109.2,27.3,0,5.0,,45696.9,21.88,0.52,0.85,-0.15,-0.1,5.1,-1.5,35.38,,,,,,,,,,
16.29.02.921,-57.8,14.4,0,5.0,,50346.4,19.86,0.51,0.85,-0.16,1.1,4.4,-0.5,35.38,,,,,,,,,,
16.29.02.930,-95.8,24.0,0,5.0,,43286.2,23.1,0.51,0.84,-0.17,2.3,4.3,-0.2,35.38,,,,,,,,,,
16.29.02.942,-79.5,19.9,0,5.0,,49024.6,20.4,0.51,0.83,-0.17,2.8,4.5,-0.1,35.38,,,,,,,,,,
16.29.02.950,-169.8,42.4,0,5.0,,50038.9,19.98,0.51,0.83,-0.17,1.2,5.1,-0.4,35.38,,,,,,,,,,
16.29.02.962,-92.8,23.2,0,5.0,,49651.6,20.14,0.51,0.83,-0.17,0.1,5.4,-1.1,35.38,,,,,,,,,,
16.29.02.971,-127.7,31.9,0,5.0,,52152.8,19.17,0.52,0.83,-0.16,-1.3,6.2,-1.5,35.38,,,,,,,,,,
16.29.02.983,-113.3,28.3,0,5.0,,47511.9,21.05,0.52,0.83,-0.16,-2.0,7.0,-1.7,35.38,,,,,,,,,,
16.29.02.991,-216.5,54.1,0,5.0,,41343.5,24.19,0.51,0.83,-0.16,-2.0,6.5,-1.7,35.38,,,,,,,,,,
16.29.03.003,-157.3,39.3,0,5.0,,52627.1,19.0,0.52,0.83,-0.16,-0.1,5.8,-1.7,35.38,,,,,,,,,,
16.29.03.011,-172.3,43.1,0,5.0,,46853.7,21.34,0.52,0.84,-0.16,0.9,5.9,-1.4,35.38,,,,,,,,,,
16.29.03.024,-229.9,57.5,0,5.0,,46339.6,21.58,0.53,0.85,-0.16,2.6,5.4,-0.3,35.38,,,,,,,,,,
16.29.03.032,-194.4,48.6,0,5.0,,44906.2,22.27,0.53,0.84,-0.16,3.2,4.6,0.6,35.38,,,,,,,,,,
16.29.03.044,-0.6,0.2,1,6.0,114.9,43530.8,22.97,0.52,0.83,-0.16,3.3,4.5,1.3,35.38,,,,,,,,,,
16.29.03.052,172.7,43.2,0,6.0,,42463.6,23.55,0.53,0.82,-0.16,3.1,4.3,0.4,35.38,,,,,,,,,,
16.29.03.065,178.8,44.7,0,6.0,,48202.6,20.75,0.52,0.82,-0.16,2.3,4.3,-0.6,35.38,,,,,,,,,,
16.29.03.073,326.6,81.6,0,6.0,,50980.9,19.62,0.52,0.82,-0.17,0.1,4.5,-1.1,35.38,,,,,,,,,,
16.29.03.085,389.7,97.4,0,6.0,,46242.0,21.63,0.52,0.83,-0.18,-0.8,5.5,-1.7,35.38,,,,,,,,,,
16.29.03.122,469.1,117.3,0,6.0,,48819.1,20.48,0.51,0.83,-0.19,-0.9,7.0,-2.3,35.38,,,,,,,,,,
16.29.03.130,547.5,136.9,0,6.0,,52738.2,18.96,0.51,0.83,-0.16,0.8,8.6,-2.2,35.38,,,,,,,,,,
16.29.03.143,429.6,107.4,0,6.0,,48031.8,20.82,0.52,0.83,-0.15,1.3,8.5,-2.5,35.38,,,,,,,,,,
16.29.03.151,513.8,128.4,0,6.0,,44666.7,22.39,0.52,0.83,-0.15,0.5,7.9,-2.5,35.38,,,,,,,,,,
16.29.03.163,399.6,99.9,0,6.0,,48352.6,20.68,0.53,0.83,-0.15,0.1,7.7,-2.6,35.38,,,,,,,,,,
16.29.03.175,348.5,87.1,0,6.0,,45418.1,22.02,0.53,0.83,-0.15,-0.5,7.4,-2.4,35.38,,,,,,,,,,
16.29.03.184,367.9,92.0,0,6.0,,49189.9,20.33,0.52,0.82,-0.15,0.3,7.0,-2.7,35.38,,,,,,,,,,
16.29.03.196,211.5,52.9,0,6.0,,44917.3,22.26,0.52,0.83,-0.15,0.7,6.6,-2.8,35.38,,,,,,,,,,
16.29.03.204,148.5,37.1,0,6.0,,42933.1,23.29,0.53,0.83,-0.16,0.9,5.6,-2.7,35.38,,,,,,,,,,
16.29.03.216,-6.9,1.7,0,6.0,,50742.9,19.71,0.52,0.84,-0.18,0.4,5.5,-2.6,35.38,,,,,,,,,,
16.29.03.225,-29.6,7.4,0,6.0,,48264.2,20.72,0.52,0.84,-0.17,0.2,6.1,-2.1,35.38,,,,,,,,,,
16.29.03.237,48.1,12.0,0,6.0,,49515.6,20.2,0.52,0.84,-0.17,-0.8,7.0,-1.5,35.38,,,,,,,,,,
16.29.03.245,48.8,12.2,0,6.0,,45470.8,21.99,0.51,0.83,-0.17,-1.3,7.2,-1.6,35.38,,,,,,,,,,
16.29.03.257,92.4,23.1,0,6.0,,43023.8,23.24,0.51,0.83,-0.16,-1.0,6.5,-2.3,35.38,,,,,,,,,,
16.29.03.266,94.6,23.6,0,6.0,,50439.6,19.83,0.51,0.84,-0.15,-1.5,6.9,-2.6,35.38,,,,,,,,,,
16.29.03.278,95.9,24.0,0,6.0,,50750.6,19.7,0.52,0.85,-0.14,-3.1,6.5,-2.6,35.38,,,,,,,,,,
16.29.03.286,130.4,32.6,0,6.0,,44953.6,22.25,0.51,0.84,-0.16,-3.5,6.6,-2.4,35.38,,,,,,,,,,
16.29.03.298,83.5,20.9,0,6.0,,51090.7,19.57,0.52,0.85,-0.16,-2.5,7.0,-2.5,35.38,,,,,,,,,,
16.29.03.307,36.1,9.0,0,6.0,,48058.3,20.81,0.52,0.84,-0.17,-0.9,6.9,-1.7,35.38,,,,,,,,,,
16.29.03.319,-8.8,2.2,0,6.0,,47119.1,21.22,0.52,0.85,-0.16,1.5,6.4,-0.4,35.38,,,,,,,,,,
16.29.03.327,-38.5,9.6,0,6.0,,45084.2,22.18,0.52,0.84,-0.16,2.9,6.0,-0.3,35.38,,,,,,,,,,
16.29.03.339,-17.2,4.3,0,6.0,,49526.0,20.19,0.53,0.83,-0.16,4.4,5.4,-0.4,35.38,,,,,,,,,,
16.29.03.347,-4.5,1.1,0,6.0,,49262.6,20.3,0.51,0.82,-0.15,5.5,4.6,-1.2,35.38,,,,,,,,,,
16.29.03.360,-36.1,9.0,0,6.0,,49081.8,20.37,0.51,0.83,-0.16,4.1,4.8,-1.5,35.38,,,,,,,,,,
16.29.03.368,-59.9,15.0,0,6.0,,40884.4,24.46,0.52,0.84,-0.15,2.6,5.4,-1.7,35.38,,,,,,,,,,
16.29.03.380,-18.0,4.5,0,6.0,,46271.9,21.61,0.52,0.83,-0.16,0.0,5.5,-1.8,35.38,,,,,,,,,,
16.29.03.388,-62.2,15.6,0,6.0,,48030.6,20.82,0.51,0.84,-0.16,-2.9,5.8,-1.8,35.38,,,,,,,,,,
16.29.03.401,-75.9,19.0,0,6.0,,47972.6,20.85,0.52,0.83,-0.16,-3.8,6.4,-1.6,35.38,,,,,,,,,,
16.29.03.409,-4.7,1.2,0,6.0,,43054.3,23.23,0.52,0.83,-0.17,-2.3,6.6,-1.6,35.38,,,,,,,,,,
16.29.03.421,-139.3,34.8,0,6.0,,49050.1,20.39,0.53,0.85,-0.16,-1.5,5.5,-1.1,35.38,,,,,,,,,,
16.29.03.429,-60.4,15.1,0,6.0,,50726.4,19.71,0.52,0.85,-0.16,-2.0,4.6,-0.9,35.38,,,,,,,,,,
16.29.03.442,-72.3,18.1,0,6.0,,42169.2,23.71,0.52,0.84,-0.17,-0.2,4.8,-0.9,35.38,,,,,,,,,,
16.29.03.450,-78.2,19.6,0,6.0,,48007.3,20.83,0.52,0.83,-0.17,2.1,6.0,-1.2,35.38,,,,,,,,,,
16.29.03.462,-121.3,30.3,0,6.0,,44511.5,22.47,0.52,0.83,-0.15,3.0,6.6,-1.3,35.38,,,,,,,,,,
16.29.03.470,-162.1,40.5,0,6.0,,47989.6,20.84,0.52,0.85,-0.15,2.2,5.7,-0.5,35.38,,,,,,,,,,
16.29.03.483,-128.1,32.0,0,6.0,,44256.1,22.6,0.51,0.82,-0.15,0.7,5.2,-0.4,35.38,,,,,,,,,,
16.29.03.495,-120.8,30.2,0,6.0,,47656.5,20.98,0.52,0.82,-0.15,-0.1,4.6,-1.0,35.38,,,,,,,,,,
16.29.03.503,-121.7,30.4,0,6.0,,47539.1,21.04,0.51,0.82,-0.15,-0.8,4.9,-1.7,35.38,,,,,,,,,,
16.29.03.515,-71.0,17.8,0,6.0,,52962.7,18.88,0.52,0.84,-0.15,-2.4,4.9,-1.7,35.38,,,,,,,,,,
16.29.03.524,-136.8,34.2,0,6.0,,50994.4,19.61,0.52,0.83,-0.17,-3.2,5.5,-1.7,35.38,,,,,,,,,,
16.29.03.536,-204.5,51.1,0,6.0,,52616.6,19.01,0.51,0.84,-0.17,-2.5,6.0,-1.6,35.38,,,,,,,,,,
16.29.03.544,-132.8,33.2,0,6.0,,45051.5,22.2,0.52,0.84,-0.17,-1.6,6.7,-1.9,35.38,,,,,,,,,,
16.29.03.556,-182.9,45.7,0,6.0,,41730.2,23.96,0.52,0.83,-0.17,0.4,6.9,-2.0,35.38,,,,,,,,,,
16.29.03.569,11.3,2.8,1,7.0,117.1,43408.0,23.04,0.52,0.84,-0.15,2.0,6.5,-2.1,35.38,,,,,,,,,,
16.29.03.578,97.7,24.4,0,7.0,,44712.4,22.37,0.52,0.84,-0.15,1.8,5.4,-1.5,35.38,,,,,,,,,,
16.29.03.591,293.7,73.4,0,7.0,,47812.8,20.91,0.52,0.84,-0.15,0.7,4.2,-1.2,35.38,,,,,,,,,,
16.29.03.597,261.4,65.4,0,7.0,,52619.3,19.0,0.51,0.83,-0.15,-0.4,3.8,-1.0,35.38,,,,,,,,,,
16.29.03.610,371.5,92.9,0,7.0,,47372.5,21.11,0.51,0.82,-0.15,-0.5,3.4,-1.8,35.38,,,,,,,,,,
16.29.03.618,421.9,105.5,0,7.0,,48865.1,20.46,0.52,0.84,-0.15,-1.8,3.1,-2.5,35.38,,,,,,,,,,
16.29.03.630,450.8,112.7,0,7.0,,50253.3,19.9,0.52,0.84,-0.16,-2.9,4.0,-2.2,35.38,,,,,,,,,,
16.29.03.638,571.5,142.9,0,7.0,,46126.2,21.68,0.51,0.84,-0.17,-2.6,4.4,-1.3,35.38,,,,,,,,,,
16.29.03.651,446.7,111.7,0,7.0,,47953.8,20.85,0.52,0.85,-0.17,-0.3,6.6,-1.9,35.38,,,,,,,,,,
16.29.03.663,521.8,130.4,0,7.0,,44242.2,22.6,0.52,0.85,-0.17,-0.1,6.0,-1.6,35.38,,,,,,,,,,
16.29.03.671,487.7,121.9,0,7.0,,41337.9,24.19,0.52,0.84,-0.17,1.2,6.5,-1.0,35.38,,,,,,,,,,
16.29.03.683,410.3,102.6,0,7.0,,48322.6,20.69,0.52,0.83,-0.16,2.7,6.7,-0.8,35.38,,,,,,,,,,
16.29.03.692,416.9,104.2,0,7.0,,47728.9,20.95,0.52,0.84,-0.15,1.5,6.0,-1.3,35.38,,,,,,,,,,
16.29.03.704,299.6,74.9,0,7.0,,48101.4,20.79,0.52,0.83,-0.15,0.9,5.5,-1.8,35.38,,,,,,,,,,
16.29.03.712,245.5,61.4,0,7.0,,50675.8,19.73,0.51,0.83,-0.15,0.7,5.3,-1.7,35.38,,,,,,,,,,
16.29.03.724,135.7,33.9,0,7.0,,51871.1,19.28,0.52,0.84,-0.15,1.0,5.2,-2.1,35.38,,,,,,,,,,
16.29.03.737,87.6,21.9,0,7.0,,47329.9,21.13,0.52,0.85,-0.16,-0.3,5.1,-1.2,35.38,,,,,,,,,,
16.29.03.745,-65.4,16.4,0,7.0,,44725.1,22.36,0.52,0.84,-0.16,-0.5,5.5,-1.2,35.38,,,,,,,,,,
16.29.03.757,44.3,11.1,0,7.0,,45226.8,22.11,0.51,0.83,-0.17,1.0,5.1,-0.9,35.38,,,,,,,,,,
16.29.03.765,38.0,9.5,0,7.0,,42696.8,23.42,0.51,0.82,-0.17,1.6,5.0,-0.8,35.38,,,,,,,,,,
16.29.03.778,27.7,6.9,0,7.0,,52553.6,19.03,0.52,0.84,-0.17,1.9,5.0,-1.2,35.38,,,,,,,,,,
16.29.03.786,85.4,21.4,0,7.0,,44225.3,22.61,0.51,0.83,-0.17,1.0,5.3,-1.2,35.38,,,,,,,,,,
16.29.03.798,25.5,6.4,0,7.0,,47978.7,20.84,0.51,0.83,-0.17,0.7,6.1,-1.4,35.38,,,,,,,,,,
16.29.03.806,115.5,28.9,0,7.0,,42573.4,23.49,0.52,0.83,-0.16,0.4,6.9,-1.9,35.38,,,,,,,,,,
16.29.03.819,56.8,14.2,0,7.0,,48175.4,20.76,0.52,0.84,-0.15,0.0,7.2,-2.3,35.38,,,,,,,,,,
16.29.03.831,44.8,11.2,0,7.0,,46640.6,21.44,0.52,0.84,-0.14,-0.5,6.4,-1.9,35.38,,,,,,,,,,
16.29.03.843,-27.3,6.8,0,7.0,,42711.4,23.41,0.52,0.84,-0.16,-0.2,6.1,-1.4,35.38,,,,,,,,,,
16.29.03.851,-3.0,0.8,0,7.0,,44590.1,22.43,0.52,0.83,-0.15,1.3,5.4,-1.0,35.38,,,,,,,,,,
16.29.03.864,2.8,0.7,0,7.0,,44830.4,22.31,0.52,0.84,-0.16,1.9,5.1,-1.3,35.38,,,,,,,,,,
16.29.03.872,-12.9,3.2,0,7.0,,48558.6,20.59,0.52,0.84,-0.16,0.8,5.0,-0.6,35.38,,,,,,,,,,
16.29.03.884,31.9,8.0,0,7.0,,49573.8,20.17,0.51,0.84,-0.16,0.4,5.5,-0.6,35.38,,,,,,,,,,
16.29.03.921,-111.7,27.9,0,7.0,,48451.0,20.64,0.52,0.83,-0.17,0.1,5.3,-0.9,35.38,,,,,,,,,,
16.29.03.933,-89.7,22.4,0,7.0,,47421.3,21.09,0.51,0.83,-0.16,-0.2,8.5,-1.6,35.38,,,,,,,,,,
16.29.03.941,-31.4,7.8,0,7.0,,48399.5,20.66,0.51,0.84,-0.15,0.1,7.9,-1.7,35.38,,,,,,,,,,
16.29.03.954,-15.4,3.8,0,7.0,,44793.8,22.32,0.51,0.84,-0.15,-0.7,7.2,-1.5,35.38,,,,,,,,,,
16.29.03.962,-107.3,26.8,0,7.0,,47959.1,20.85,0.51,0.83,-0.16,-0.3,6.2,-1.2,35.38,,,,,,,,,,
16.29.03.974,-57.0,14.2,0,7.0,,46973.6,21.29,0.52,0.84,-0.16,0.2,6.3,-0.9,35.38,,,,,,,,,,
16.29.03.982,-51.9,13.0,0,7.0,,46863.8,21.34,0.52,0.84,-0.16,0.4,6.0,-0.4,35.38,,,,,,,,,,
16.29.03.995,-94.6,23.6,0,7.0,,48036.4,20.82,0.52,0.84,-0.16,0.6,5.8,0.0,35.38,,,,,,,,,,
16.29.04.003,-129.7,32.4,0,7.0,,43493.7,22.99,0.52,0.83,-0.16,1.2,5.9,-0.1,35.38,,,,,,,,,,
16.29.04.015,-136.9,34.2,0,7.0,,43191.8,23.15,0.51,0.83,-0.15,1.9,5.9,-0.6,35.38,,,,,,,,,,
16.29.04.027,-228.7,57.2,0,7.0,,49792.8,20.08,0.51,0.83,-0.15,1.1,4.7,-0.4,35.38,,,,,,,,,,
16.29.04.036,-105.9,26.5,0,7.0,,45806.8,21.83,0.53,0.84,-0.16,0.6,5.9,-1.4,35.38,,,,,,,,,,
16.29.04.048,-192.0,48.0,0,7.0,,49644.5,20.14,0.52,0.83,-0.17,0.5,6.1,-1.7,35.38,,,,,,,,,,
16.29.04.056,-192.9,48.2,0,7.0,,47087.0,21.24,0.52,0.84,-0.17,0.3,5.8,-1.6,35.38,,,,,,,,,,
16.29.04.069,-138.2,34.6,0,7.0,,47298.5,21.14,0.51,0.84,-0.17,-0.5,7.4,-1.9,35.38,,,,,,,,,,
16.29.04.077,-155.5,38.9,0,7.0,,51374.0,19.47,0.51,0.84,-0.16,-0.7,7.0,-0.8,35.38,,,,,,,,,,
16.29.04.089,24.9,6.2,1,8.0,109.1,47621.6,21.0,0.5,0.83,-0.17,-1.5,6.3,-0.3,35.38,,,,,,,,,,
16.29.04.097,77.7,19.4,0,8.0,,45727.6,21.87,0.51,0.83,-0.16,1.8,8.7,-1.7,35.38,,,,,,,,,,
16.29.04.109,224.8,56.2,0,8.0,,46072.7,21.7,0.52,0.84,-0.16,1.3,9.0,-1.3,35.38,,,,,,,,,,
16.29.04.118,278.2,69.6,0,8.0,,49255.5,20.3,0.52,0.83,-0.15,0.4,8.8,-1.6,35.38,,,,,,,,,,
16.29.04.130,348.4,87.1,0,8.0,,43185.4,23.16,0.52,0.83,-0.15,0.0,8.5,-1.6,35.38,,,,,,,,,,
16.29.04.138,366.2,91.6,0,8.0,,45101.4,22.17,0.52,0.83,-0.15,-0.4,8.5,-1.9,35.38,,,,,,,,,,
16.29.04.150,381.8,95.4,0,8.0,,43267.1,23.11,0.52,0.84,-0.15,-0.7,7.1,-1.8,35.38,,,,,,,,,,
16.29.04.163,457.2,114.3,0,8.0,,45357.9,22.05,0.52,0.85,-0.15,0.3,6.0,-0.7,35.38,,,,,,,,,,
16.29.04.171,484.5,121.1,0,8.0,,46822.2,21.36,0.53,0.85,-0.14,1.4,6.4,0.4,35.38,,,,,,,,,,
16.29.04.183,437.5,109.4,0,8.0,,46227.6,21.63,0.52,0.83,-0.14,2.7,4.4,0.3,35.38,,,,,,,,,,
16.29.04.191,431.3,107.8,0,8.0,,43440.0,23.02,0.51,0.83,-0.15,2.5,4.9,-0.1,35.38,,,,,,,,,,
16.29.04.204,444.9,111.2,0,8.0,,47605.1,21.01,0.51,0.83,-0.15,1.5,2.6,-0.8,35.38,,,,,,,,,,
16.29.04.216,377.8,94.4,0,8.0,,48413.9,20.66,0.52,0.84,-0.16,1.1,3.3,-1.0,35.38,,,,,,,,,,
16.29.04.224,319.8,80.0,0,8.0,,47887.9,20.88,0.52,0.84,-0.17,0.6,4.1,-0.2,35.38,,,,,,,,,,
16.29.04.236,233.0,58.2,0,8.0,,51544.3,19.4,0.52,0.85,-0.16,0.3,4.2,-0.1,35.38,,,,,,,,,,
16.29.04.245,195.1,48.8,0,8.0,,49387.1,20.25,0.52,0.84,-0.16,1.3,4.7,0.5,35.38,,,,,,,,,,
16.29.04.257,99.3,24.8,0,8.0,,46343.2,21.58,0.52,0.84,-0.15,1.8,4.6,0.4,35.38,,,,,,,,,,
16.29.04.265,-1.1,0.3,0,8.0,,56944.5,17.56,0.51,0.83,-0.15,1.8,3.5,0.8,35.38,,,,,,,,,,
16.29.04.278,89.8,22.4,0,8.0,,43350.7,23.07,0.52,0.82,-0.14,2.3,3.1,-0.3,35.38,,,,,,,,,,
16.29.04.286,25.0,6.2,0,8.0,,44665.3,22.39,0.52,0.84,-0.17,1.7,3.7,0.4,35.38,,,,,,,,,,
16.29.04.298,51.3,12.8,0,8.0,,46305.4,21.6,0.52,0.83,-0.17,2.9,3.0,-0.6,35.38,,,,,,,,,,
16.29.04.306,88.7,22.2,0,8.0,,42011.2,23.8,0.53,0.84,-0.16,1.3,3.0,-0.3,35.38,,,,,,,,,,
16.29.04.319,106.0,26.5,0,8.0,,51930.5,19.26,0.52,0.83,-0.15,0.2,4.9,-0.2,35.38,,,,,,,,,,
16.29.04.327,41.5,10.4,0,8.0,,44051.2,22.7,0.53,0.84,-0.14,1.9,3.2,-0.7,35.38,,,,,,,,,,
16.29.04.339,115.2,28.8,0,8.0,,44813.3,22.31,0.51,0.81,-0.2,1.1,5.4,-2.5,35.38,,,,,,,,,,
16.29.04.347,64.4,16.1,0,8.0,,47341.0,21.12,0.52,0.85,-0.17,5.6,4.5,-1.5,35.38,,,,,,,,,,
16.29.04.359,44.6,11.2,0,8.0,,48410.3,20.66,0.52,0.85,-0.15,1.7,2.8,-0.7,35.38,,,,,,,,,,
16.29.04.367,-12.5,3.1,0,8.0,,43893.4,22.78,0.5,0.82,-0.16,-1.2,2.3,0.0,35.38,,,,,,,,,,
16.29.04.380,-24.3,6.1,0,8.0,,44264.6,22.59,0.51,0.82,-0.17,-2.1,4.3,-0.5,35.38,,,,,,,,,,
16.29.04.388,-18.2,4.6,0,8.0,,47695.2,20.97,0.51,0.81,-0.18,-1.6,4.0,-2.5,35.38,,,,,,,,,,
16.29.04.400,-35.0,8.8,0,8.0,,47478.6,21.06,0.51,0.83,-0.16,0.0,5.3,-3.5,35.38,,,,,,,,,,
16.29.04.409,-48.6,12.2,0,8.0,,51276.6,19.5,0.52,0.85,-0.16,0.5,5.8,-3.3,35.38,,,,,,,,,,
16.29.04.421,-8.0,2.0,0,8.0,,48280.8,20.71,0.52,0.84,-0.15,-0.1,5.1,-2.2,35.38,,,,,,,,,,
16.29.04.429,-69.0,17.2,0,8.0,,48351.1,20.68,0.52,0.83,-0.15,1.0,3.4,-2.2,35.38,,,,,,,,,,
16.29.04.442,-65.4,16.4,0,8.0,,48533.2,20.6,0.51,0.83,-0.15,1.4,1.7,-2.4,35.38,,,,,,,,,,
16.29.04.450,-67.0,16.8,0,8.0,,47681.5,20.97,0.51,0.83,-0.16,1.5,2.2,-3.0,35.38,,,,,,,,,,
16.29.04.462,-33.5,8.4,0,8.0,,43990.1,22.73,0.51,0.83,-0.15,0.5,1.1,-3.1,35.38,,,,,,,,,,
16.29.04.470,18.6,4.6,0,8.0,,47666.2,20.98,0.51,0.83,-0.16,-2.3,0.4,-3.0,35.38,,,,,,,,,,
16.29.04.482,-103.8,26.0,0,8.0,,46262.7,21.62,0.51,0.82,-0.16,-3.9,1.8,-3.5,35.38,,,,,,,,,,
16.29.04.490,-100.4,25.1,0,8.0,,43329.2,23.08,0.47,0.77,0.04,-4.7,-6.8,-10.0,35.38,,,,,,,,,,
16.29.04.503,-179.6,44.9,0,8.0,,47666.7,20.98,0.57,1.03,-0.02,6.9,-27.9,1.6,35.38,,,,,,,,,,
16.29.04.511,-136.9,34.2,0,8.0,,44267.1,22.59,0.54,0.83,-0.28,-8.7,-5.3,3.2,35.38,,,,,,,,,,
16.29.04.523,-127.7,31.9,0,8.0,,50015.9,19.99,0.49,0.72,-0.25,23.3,-4.7,-6.9,35.38,,,,,,,,,,
16.29.04.531,-152.8,38.2,0,8.0,,45979.8,21.75,0.53,0.92,-0.19,10.8,-4.1,-2.3,35.38,,,,,,,,,,
16.29.04.544,-158.0,39.5,0,8.0,,50453.8,19.82,0.42,0.72,-0.17,-17.2,-2.6,-2.1,35.38,,,,,,,,,,
16.29.04.556,-207.8,52.0,0,8.0,,45366.2,22.04,0.49,0.78,-0.29,-10.1,7.6,-8.3,35.38,,,,,,,,,,
16.29.04.564,-175.4,43.8,0,8.0,,48275.1,20.71,0.49,0.8,-0.23,-9.5,7.0,-10.6,35.38,,,,,,,,,,
16.29.04.576,-238.0,59.5,0,8.0,,46992.9,21.28,0.52,0.87,-0.16,-9.9,4.5,-9.8,35.38,,,,,,,,,,
16.29.04.585,-148.8,37.2,0,8.0,,45009.0,22.22,0.52,0.89,-0.15,-16.8,4.6,-6.0,35.38,,,,,,,,,,
16.29.04.597,-142.0,35.5,0,8.0,,46727.0,21.4,0.49,0.86,-0.14,-18.7,4.6,-4.4,35.38,,,,,,,,,,
16.29.04.605,-257.7,64.4,0,8.0,,47491.4,21.06,0.49,0.84,-0.14,-20.8,2.6,-4.4,35.38,,,,,,,,,,
16.29.04.617,77.5,19.4,1,9.0,114.0,48031.2,20.82,0.5,0.81,-0.15,-18.6,0.2,-6.8,35.38,,,,,,,,,,
16.29.04.626,210.7,52.7,0,9.0,,43182.6,23.16,0.47,0.82,-0.12,-13.5,-1.5,-10.4,35.38,,,,,,,,,,
16.29.04.638,245.7,61.4,0,9.0,,48855.0,20.47,0.5,0.81,-0.13,-10.4,-5.2,-12.6,35.38,,,,,,,,,,
16.29.04.650,297.3,74.3,0,9.0,,47316.4,21.13,0.5,0.84,-0.13,-4.0,-3.5,-14.7,35.38,,,,,,,,,,
16.29.04.658,365.9,91.5,0,9.0,,47992.3,20.84,0.5,0.84,-0.15,0.1,-7.7,-14.8,35.38,,,,,,,,,,
16.29.04.671,468.2,117.0,0,9.0,,44967.5,22.24,0.53,0.85,-0.16,1.3,-4.5,-16.7,35.38,,,,,,,,,,
16.29.04.679,500.8,125.2,0,9.0,,43356.1,23.06,0.48,0.84,-0.15,-0.2,-4.6,-18.1,35.38,,,,,,,,,,
16.29.04.691,521.1,130.3,0,9.0,,44775.1,22.33,0.45,0.79,-0.17,-5.8,-5.0,-22.3,35.38,,,,,,,,,,
16.29.04.728,400.4,100.1,0,9.0,,49775.4,20.09,0.44,0.76,-0.18,-7.1,-3.6,-29.5,35.38,,,,,,,,,,
16.29.04.740,403.5,100.9,0,9.0,,40447.9,24.72,0.47,0.84,-0.13,-17.8,2.3,-53.7,35.38,,,,,,,,,,
16.29.04.748,316.6,79.2,0,9.0,,46250.1,21.62,0.49,0.87,-0.16,-18.3,-2.0,-53.5,35.38,,,,,,,,,,
16.29.04.761,209.2,52.3,0,9.0,,50846.4,19.67,0.46,0.95,-0.19,-19.8,2.3,-50.0,35.38,,,,,,,,,,
16.29.04.769,142.7,35.7,0,9.0,,46467.1,21.52,0.47,0.95,-0.18,-19.7,5.6,-46.9,35.38,,,,,,,,,,
16.29.04.782,45.9,11.5,0,9.0,,47183.4,21.19,0.44,0.91,-0.22,-12.6,5.1,-43.0,35.38,,,,,,,,,,
16.29.04.790,29.5,7.4,0,9.0,,43638.0,22.92,0.42,0.94,-0.22,0.6,10.6,-40.6,35.38,,,,,,,,,,
16.29.04.802,-5.1,1.3,0,9.0,,48736.9,20.52,0.36,0.97,-0.19,15.0,22.8,-41.2,35.38,,,,,,,,,,
16.29.04.814,28.1,7.0,0,9.0,,48498.6,20.62,0.35,0.88,-0.19,15.9,17.0,-40.9,35.38,,,,,,,,,,
16.29.04.823,86.6,21.6,0,9.0,,45725.0,21.87,0.39,0.87,-0.17,31.1,26.6,-46.1,35.38,,,,,,,,,,
16.29.04.835,123.8,31.0,0,9.0,,46022.8,21.73,0.38,0.85,-0.12,37.0,21.1,-52.8,35.38,,,,,,,,,,
16.29.04.843,44.9,11.2,0,9.0,,45154.3,22.15,0.39,0.87,-0.07,33.3,21.6,-51.3,35.38,,,,,,,,,,
16.29.04.855,94.2,23.6,0,9.0,,51282.4,19.5,0.32,0.87,-0.07,37.1,26.5,-55.6,35.38,,,,,,,,,,
16.29.04.863,74.5,18.6,0,9.0,,51896.5,19.27,0.35,0.88,-0.09,31.9,18.7,-58.3,35.38,,,,,,,,,,
16.29.04.876,53.1,13.3,0,9.0,,49193.5,20.33,0.37,0.87,-0.16,33.2,22.5,-62.7,35.38,,,,,,,,,,
16.29.04.888,45.3,11.3,0,9.0,,49494.2,20.2,0.34,0.93,-0.18,29.4,24.7,-63.2,35.38,,,,,,,,,,
16.29.04.896,10.6,2.6,0,9.0,,46876.3,21.33,0.34,0.97,-0.26,24.5,22.9,-57.2,35.38,,,,,,,,,,
16.29.04.908,-2.2,0.6,0,9.0,,47592.2,21.01,0.33,1.06,-0.22,23.4,31.8,-48.4,35.38,115.1,,,,,,,,,
16.29.04.916,-12.7,3.2,0,9.0,,51037.7,19.59,0.29,1.03,-0.18,16.8,29.9,-43.3,35.38,,,,,,,,,,
16.29.04.929,-68.6,17.2,0,9.0,,42078.6,23.77,0.29,0.96,-0.18,19.7,25.3,-38.0,35.38,,,,,,,,,,
16.29.04.937,-36.9,9.2,0,9.0,,45417.8,22.02,0.28,0.94,-0.15,31.1,32.0,-40.1,35.38,,,,,,,,,,
16.29.04.950,-103.5,25.9,0,9.0,,45778.3,21.84,0.38,0.78,-0.16,61.1,29.7,-34.1,35.38,,,,,,,,,,
16.29.04.958,-63.3,15.8,0,9.0,,46269.2,21.61,0.41,0.78,-0.2,52.3,35.6,-45.6,35.38,,,,,,,,,,
16.29.04.970,-79.7,19.9,0,9.0,,49705.2,20.12,0.2,0.89,-0.2,55.8,27.7,-52.9,35.38,,,,,,,,,,
16.29.04.982,-87.1,21.8,0,9.0,,48474.9,20.63,0.3,0.93,-0.2,70.1,40.5,-54.0,35.38,,,,,,,,,,
16.29.04.990,-51.9,13.0,0,9.0,,48576.0,20.59,0.23,1.01,-0.16,47.3,44.1,-51.3,35.38,,,,,,,,,,
16.29.05.003,-61.9,15.5,0,9.0,,49468.9,20.21,0.24,0.91,-0.21,44.1,39.6,-52.9,35.38,,,,,,,,,,
16.29.05.011,-40.8,10.2,0,9.0,,48725.3,20.52,0.21,0.98,-0.24,37.6,42.4,-55.5,35.38,,,,,,,,,,
16.29.05.023,-109.0,27.2,0,9.0,,44537.7,22.45,0.41,0.79,-0.27,67.1,42.0,-58.5,35.38,,,,,,,,,,
16.29.05.031,-126.4,31.6,0,9.0,,48636.9,20.56,0.28,0.82,-0.25,66.4,39.8,-58.7,35.38,,,,,,,,,,
16.29.05.043,-111.5,27.9,0,9.0,,42643.5,23.45,0.25,0.85,-0.18,60.9,33.3,-64.1,35.38,,,,,,,,,,
16.29.05.052,-74.3,18.6,0,9.0,,48197.7,20.75,0.36,0.9,-0.18,51.3,19.5,-70.1,35.38,,,,,,,,,,
16.29.05.064,-137.7,34.4,0,9.0,,47735.6,20.95,0.27,0.69,-0.22,59.8,12.0,-60.6,35.38,,,,,,,,,,
16.29.05.076,-195.5,48.9,0,9.0,,45775.6,21.85,0.28,1.01,-0.3,49.2,16.0,-60.1,35.38,,,,,,,,,,
16.29.05.085,-173.0,43.2,0,9.0,,47569.1,21.02,0.33,0.98,-0.32,35.6,14.0,-47.9,35.38,,,,,,,,,,
16.29.05.097,-143.0,35.8,0,9.0,,42173.7,23.71,0.22,0.97,-0.31,35.2,27.7,-43.2,35.38,,,,,,,,,,
16.29.05.105,-213.8,53.4,0,9.0,,50749.6,19.7,0.19,0.92,-0.38,42.8,30.2,-47.2,35.38,,,,,,,,,,
16.29.05.118,-193.9,48.5,0,9.0,,47650.0,20.99,0.17,0.94,-0.37,38.9,22.9,-45.6,35.38,,,,,,,,,,
16.29.05.126,-139.2,34.8,0,9.0,,50544.7,19.78,0.25,0.86,-0.28,52.3,34.1,-58.4,35.38,,,,,,,,,,
16.29.05.138,56.0,14.0,1,10.0,112.7,40961.0,24.41,0.2,0.46,-0.46,76.7,-6.4,-82.5,35.38,,,,,,,,,,
16.29.05.146,178.2,44.6,0,10.0,,44161.0,22.64,0.13,0.86,-0.26,35.8,5.5,-55.7,35.38,,,,,,,,,,
16.29.05.158,295.2,73.8,0,10.0,,47876.0,20.89,0.22,1.04,-0.22,32.6,8.6,-50.1,35.38,,,,,,,,,,
16.29.05.166,215.0,53.8,0,10.0,,47640.6,20.99,0.29,0.96,-0.29,26.8,4.2,-38.2,35.38,,,,,,,,,,
16.29.05.179,381.8,95.4,0,10.0,,41439.9,24.13,0.25,1.04,-0.38,23.8,6.6,-21.3,35.38,,,,,,,,,,
16.29.05.191,341.5,85.4,0,10.0,,46289.3,21.6,0.2,0.88,-0.4,42.8,12.5,-3.9,35.38,,,,,,,,,,
16.29.05.199,488.6,122.2,0,10.0,,44908.8,22.27,0.05,0.99,-0.44,-0.2,7.8,3.3,35.38,,,,,,,,,,
16.29.05.212,406.1,101.5,0,10.0,,50045.1,19.98,0.11,0.9,-0.4,18.0,10.8,-7.1,35.38,,,,,,,,,,
16.29.05.220,475.0,118.8,0,10.0,,50900.2,19.65,0.07,0.91,-0.43,37.0,5.4,-12.0,35.38,,,,,,,,,,
16.29.05.232,481.8,120.4,0,10.0,,52494.9,19.05,0.12,0.94,-0.35,31.4,0.4,-13.7,35.38,,,,,,,,,,
16.29.05.240,426.3,106.6,0,10.0,,46612.3,21.45,0.17,0.88,-0.35,45.1,6.7,-17.3,35.38,,,,,,,,,,
16.29.05.253,414.5,103.6,0,10.0,,46926.9,21.31,0.11,0.88,-0.36,43.6,4.1,-18.0,35.38,,,,,,,,,,
16.29.05.261,399.4,99.8,0,10.0,,43596.7,22.94,0.16,0.87,-0.41,39.5,5.2,-22.1,35.38,,,,,,,,,,
16.29.05.273,314.2,78.6,0,10.0,,53960.3,18.53,0.13,0.83,-0.41,48.0,10.6,-31.7,35.38,,,,,,,,,,
16.29.05.281,283.0,70.8,0,10.0,,51779.3,19.31,0.13,0.88,-0.41,53.4,10.5,-33.3,35.38,,,,,,,,,,
16.29.05.293,155.9,39.0,0,10.0,,44224.2,22.61,0.11,0.91,-0.41,59.9,7.6,-29.5,35.38,,,,,,,,,,
16.29.05.302,46.8,11.7,0,10.0,,49592.2,20.16,0.09,0.93,-0.37,52.9,3.6,-31.2,35.38,,,,,,,,,,
16.29.05.314,46.2,11.6,0,10.0,,53593.0,18.66,0.1,0.96,-0.36,57.4,-1.0,-23.3,35.38,,,,,,,,,,
16.29.05.322,53.2,13.3,0,10.0,,43878.1,22.79,0.04,0.94,-0.38,59.0,-2.8,-15.5,35.38,,,,,,,,,,
16.29.05.335,38.2,9.6,0,10.0,,44221.8,22.61,0.02,1.04,-0.37,47.6,8.4,-19.5,35.38,,,,,,,,,,
16.29.05.347,118.3,29.6,0,10.0,,47782.6,20.93,0.02,0.96,-0.4,34.7,5.9,-14.3,35.38,,,,,,,,,,
16.29.05.355,52.8,13.2,0,10.0,,47090.3,21.24,0.04,0.92,-0.46,33.0,8.8,-11.7,35.38,,,,,,,,,,
16.29.05.367,72.4,18.1,0,10.0,,47961.6,20.85,-0.04,0.93,-0.46,35.0,13.3,-20.9,35.38,,,,,,,,,,
16.29.05.375,105.5,26.4,0,10.0,,52640.7,19.0,0.01,0.87,-0.4,41.7,12.0,-22.0,35.38,,,,,,,,,,
16.29.05.388,90.5,22.6,0,10.0,,47808.2,20.92,0.03,0.85,-0.38,41.3,18.2,-29.9,35.38,,,,,,,,,,
16.29.05.396,19.9,5.0,0,10.0,,46274.4,21.61,0.13,0.9,-0.37,35.1,-15.0,-29.5,35.38,,,,,,,,,,
16.29.05.408,-3.6,0.9,0,10.0,,47599.4,21.01,0.11,0.76,-0.44,33.2,-18.3,-18.2,35.38,,,,,,,,,,
16.29.05.421,6.7,1.7,0,10.0,,47434.0,21.08,-0.02,0.86,-0.35,38.7,-10.6,-24.1,35.38,,,,,,,,,,
16.29.05.429,-15.4,3.8,0,10.0,,47315.1,21.13,0.16,0.87,-0.45,37.9,-29.2,-20.9,35.38,,,,,,,,,,
16.29.05.441,-14.8,3.7,0,10.0,,45750.9,21.86,0.12,0.8,-0.46,39.1,-32.5,-16.5,35.38,,,,,,,,,,
16.29.05.454,-11.0,2.8,0,10.0,,46021.8,21.73,0.06,0.94,-0.47,29.0,-20.4,-10.8,35.38,,,,,,,,,,
16.29.05.462,-20.6,5.2,0,10.0,,46110.4,21.69,0.0,0.85,-0.48,22.1,-35.1,-7.4,35.38,,,,,,,,,,
16.29.05.474,-86.9,21.7,0,10.0,,46034.3,21.72,0.01,0.89,-0.44,21.5,-42.8,-11.9,35.38,,,,,,,,,,
16.29.05.482,-63.1,15.8,0,10.0,,49586.4,20.17,0.01,0.83,-0.56,32.2,-42.0,-17.2,35.38,,,,,,,,,,
16.29.05.494,-55.9,14.0,0,10.0,,44975.1,22.23,0.08,0.79,-0.52,28.4,-41.6,-18.0,35.38,,,,,,,,,,
16.29.05.531,-122.4,30.6,0,10.0,,45274.6,22.09,0.12,0.81,-0.54,26.3,-49.4,-15.5,35.38,,,,,,,,,,
16.29.05.543,-70.0,17.5,0,10.0,,49847.8,20.06,-0.01,0.83,-0.7,14.1,-24.3,-20.6,35.38,,,,,,,,,,
16.29.05.551,-83.2,20.8,0,10.0,,46825.9,21.36,-0.08,0.92,-0.62,25.3,-22.5,-13.0,35.38,,,,,,,,,,
16.29.05.564,-166.2,41.6,0,10.0,,45241.9,22.1,-0.06,0.87,-0.61,21.2,-17.7,-10.9,35.38,,,,,,,,,,
16.29.05.576,-222.8,55.7,0,10.0,,49102.9,20.37,-0.08,0.9,-0.54,21.9,-11.3,-17.0,35.38,,,,,,,,,,
16.29.05.584,-147.6,36.9,0,10.0,,56870.7,17.58,-0.33,0.92,-0.56,21.2,-9.0,-12.5,35.38,,,,,,,,,,
16.29.05.596,-128.6,32.2,0,10.0,,49190.3,20.33,0.0,0.75,-0.62,18.3,-16.1,-16.8,35.38,,,,,,,,,,
16.29.05.609,-170.8,42.7,0,10.0,,46630.9,21.45,-0.02,0.85,-0.61,25.7,-19.1,-6.5,35.38,,,,,,,,,,
16.29.05.617,-182.3,45.6,0,10.0,,49883.5,20.05,0.03,0.87,-0.61,12.7,-8.0,-2.4,35.38,,,,,,,,,,
16.29.05.629,-132.8,33.2,0,10.0,,52023.3,19.22,0.03,0.82,-0.59,21.0,-4.5,4.4,35.38,,,,,,,,,,
16.29.05.642,-194.5,48.6,0,10.0,,43165.3,23.17,0.02,0.78,-0.6,16.3,-5.7,4.4,35.38,,,,,,,,,,
16.29.05.650,-217.2,54.3,0,10.0,,49158.2,20.34,0.0,0.88,-0.57,16.1,-5.2,4.8,35.38,,,,,,,,,,
16.29.05.662,58.6,14.6,1,11.0,118.4,48560.8,20.59,-0.03,0.88,-0.55,10.7,-1.8,4.1,35.38,,,,,,,,,,
16.29.05.671,172.1,43.0,0,11.0,,50112.0,19.96,-0.07,0.83,-0.55,15.6,-15.4,9.4,35.38,,,,,,,,,,
16.29.05.683,270.6,67.6,0,11.0,,43100.0,23.2,0.01,0.79,-0.53,5.0,-11.5,6.8,35.38,,,,,,,,,,
16.29.05.691,297.9,74.5,0,11.0,,45400.6,22.03,0.03,0.76,-0.53,7.6,-15.8,4.5,35.38,,,,,,,,,,
16.29.05.703,351.3,87.8,0,11.0,,47339.5,21.12,-0.01,0.82,-0.55,11.8,-19.1,3.2,35.38,,,,,,,,,,
16.29.05.715,367.2,91.8,0,11.0,,48998.9,20.41,-0.05,0.84,-0.62,1.0,-28.2,1.8,35.38,,,,,,,,,,
16.29.05.724,473.1,118.3,0,11.0,,44546.3,22.45,0.03,0.85,-0.68,-2.1,-19.7,11.8,35.38,,,,,,,,,,
16.29.05.736,537.9,134.5,0,11.0,,49271.4,20.3,-0.02,0.78,-0.64,2.6,-7.4,8.3,35.38,,,,,,,,,,
16.29.05.744,543.8,136.0,0,11.0,,46632.6,21.44,-0.01,0.84,-0.67,4.8,-3.8,8.1,35.38,,,,,,,,,,
16.29.05.756,412.9,103.2,0,11.0,,44263.2,22.59,-0.19,0.83,-0.67,1.5,8.6,7.6,35.38,,,,,,,,,,
16.29.05.769,453.9,113.5,0,11.0,,52079.0,19.2,0.01,0.81,-0.67,1.8,-6.5,5.4,35.38,,,,,,,,,,
16.29.05.777,382.4,95.6,0,11.0,,48161.2,20.76,-0.04,0.9,-0.65,2.1,6.5,8.9,35.38,,,,,,,,,,
16.29.05.789,374.9,93.7,0,11.0,,49121.8,20.36,-0.07,0.84,-0.63,4.5,7.9,8.7,35.38,,,,,,,,,,
16.29.05.798,260.0,65.0,0,11.0,,51347.4,19.48,-0.04,0.86,-0.65,3.1,13.6,9.7,35.38,,,,,,,,,,
16.29.05.810,190.0,47.5,0,11.0,,47441.9,21.08,-0.08,0.8,-0.65,2.8,19.2,14.0,35.38,,,,,,,,,,
16.29.05.818,130.7,32.7,0,11.0,,47226.7,21.17,-0.03,0.85,-0.58,7.5,10.8,8.8,35.38,,,,,,,,,,
16.29.05.830,12.2,3.0,0,11.0,,49108.7,20.36,-0.04,0.8,-0.6,8.5,7.2,15.4,35.38,,,,,,,,,,
16.29.05.843,-4.0,1.0,0,11.0,,47327.3,21.13,0.04,0.78,-0.61,5.3,7.4,4.6,35.38,,,,,,,,,,
16.29.05.851,8.0,2.0,0,11.0,,47531.0,21.04,-0.01,0.77,-0.61,4.5,7.0,7.2,35.38,,,,,,,,,,
16.29.05.863,79.9,20.0,0,11.0,,49800.7,20.08,0.03,0.83,-0.59,9.2,4.2,10.8,35.38,,,,,,,,,,
16.29.05.875,133.0,33.2,0,11.0,,48039.2,20.82,-0.07,0.83,-0.56,12.4,-1.5,14.9,35.38,,,,,,,,,,
16.29.05.883,104.8,26.2,0,11.0,,45842.2,21.81,0.01,0.88,-0.56,7.6,-5.5,9.0,35.38,,,,,,,,,,
16.29.05.896,77.8,19.4,0,11.0,,43984.4,22.74,0.0,0.84,-0.57,6.3,-7.1,8.1,35.38,,,,,,,,,,
16.29.05.904,49.6,12.4,0,11.0,,43476.6,23.0,0.0,0.84,-0.58,3.8,-6.1,9.5,35.38,,,,,,,,,,
16.29.05.916,28.1,7.0,0,11.0,,47192.2,21.19,-0.07,0.86,-0.6,3.0,-11.4,6.6,35.38,,,,,,,,,,
16.29.05.924,-2.0,0.5,0,11.0,,46169.9,21.66,-0.06,0.79,-0.6,9.1,-4.2,10.3,35.38,,,,,,,,,,
16.29.05.937,5.2,1.3,0,11.0,,42133.8,23.73,0.0,0.76,-0.62,10.0,-5.3,11.2,35.38,,,,,,,,,,
16.29.05.949,33.5,8.4,0,11.0,,46983.1,21.28,-0.04,0.73,-0.61,12.6,-2.0,11.7,35.38,,,,,,,,,,
16.29.05.958,67.5,16.9,0,11.0,,51291.7,19.5,-0.1,0.77,-0.63,11.0,-3.9,6.9,35.38,,,,,,,,,,
16.29.05.970,24.0,6.0,0,11.0,,46210.2,21.64,-0.06,0.74,-0.61,13.4,3.2,6.1,35.38,,,,,,,,,,
16.29.05.978,-27.4,6.8,0,11.0,,46923.6,21.31,-0.04,0.8,-0.62,9.1,-1.3,4.1,35.38,,,,,,,,,,
16.29.05.991,-64.2,16.0,0,11.0,,46513.0,21.5,-0.06,0.8,-0.63,14.1,2.2,5.3,35.38,,,,,,,,,,
16.29.05.998,-40.7,10.2,0,11.0,,52838.5,18.93,0.01,0.74,-0.62,6.9,-13.5,0.8,35.38,,,,,,,,,,
16.29.06.011,-42.7,10.7,0,11.0,,47830.3,20.91,-0.05,0.78,-0.63,11.7,3.1,2.6,35.38,,,,,,,,,,
16.29.06.023,-40.4,10.1,0,11.0,,45785.7,21.84,-0.01,0.8,-0.62,9.6,1.0,3.3,35.38,,,,,,,,,,
16.29.06.031,-52.0,13.0,0,11.0,,48190.1,20.75,-0.03,0.81,-0.62,9.2,1.6,5.7,35.38,,,,,,,,,,
16.29.06.043,-124.9,31.2,0,11.0,,46631.8,21.44,0.15,0.79,-0.64,12.3,-6.8,-7.0,35.38,,,,,,,,,,
16.29.06.051,-57.9,14.5,0,11.0,,41097.1,24.33,0.0,0.79,-0.63,8.5,3.4,5.3,35.38,,,,,,,,,,
16.29.06.064,-117.7,29.4,0,11.0,,45966.4,21.76,-0.02,0.84,-0.63,4.2,2.6,3.5,35.38,,,,,,,,,,
16.29.06.072,-159.2,39.8,0,11.0,,46552.3,21.48,-0.04,0.78,-0.64,5.1,-1.3,6.3,35.38,,,,,,,,,,
16.29.06.084,-127.8,32.0,0,11.0,,43662.3,22.9,-0.02,0.85,-0.65,2.6,-0.5,1.6,35.38,,,,,,,,,,
16.29.06.092,-151.8,38.0,0,11.0,,46360.4,21.57,-0.13,0.81,-0.61,2.0,11.7,6.5,35.38,,,,,,,,,,
16.29.06.105,-89.3,22.3,0,11.0,,45055.3,22.19,-0.04,0.77,-0.66,6.5,8.3,4.8,35.38,,,,,,,,,,
16.29.06.113,-127.9,32.0,0,11.0,,44241.6,22.6,-0.05,0.79,-0.65,5.4,6.9,2.1,35.38,,,,,,,,,,
16.29.06.126,-132.2,33.0,0,11.0,,46673.3,21.43,0.01,0.67,-0.7,10.8,2.0,3.4,35.38,,,,,,,,,,
16.29.06.138,-173.4,43.4,0,11.0,,48021.1,20.82,0.03,0.76,-0.65,12.2,9.4,-1.9,35.38,,,,,,,,,,
16.29.06.150,-235.2,58.8,0,11.0,,50294.0,19.88,0.01,0.73,-0.7,7.9,2.1,-2.8,35.38,,,,,,,,,,
16.29.06.158,-190.9,47.7,0,11.0,,46259.3,21.62,0.01,0.77,-0.62,13.0,7.9,2.8,35.38,,,,,,,,,,
16.29.06.170,-232.2,58.0,0,11.0,,50337.2,19.87,-0.05,1.0,-0.51,13.1,39.0,8.7,35.38,,,,,,,,,,
16.29.06.178,23.3,5.8,1,12.0,112.0,45789.8,21.84,0.04,0.89,-0.56,0.3,18.3,1.7,35.38,,,,,,,,,,
16.29.06.191,156.7,39.2,0,12.0,,38396.9,26.04,-0.03,0.71,-0.65,-2.8,-4.8,1.5,35.38,,,,,,,,,,
16.29.06.199,214.1,53.5,0,12.0,,51241.1,19.52,0.08,0.65,-0.62,22.7,-12.3,5.2,35.38,,,,,,,,,,
16.29.06.211,329.9,82.5,0,12.0,,50786.5,19.69,-0.02,0.87,-0.59,-0.1,1.8,3.9,35.38,,,,,,,,,,
16.29.06.223,416.3,104.1,0,12.0,,43379.2,23.05,0.02,0.81,-0.6,10.2,0.7,12.0,35.38,,,,,,,,,,
16.29.06.232,433.4,108.4,0,12.0,,49506.9,20.2,0.0,0.74,-0.6,8.3,-6.3,16.4,35.38,,,,,,,,,,
16.29.06.244,495.9,124.0,0,12.0,,48633.5,20.56,-0.02,0.81,-0.62,10.1,4.0,10.5,35.38,,,,,,,,,,
16.29.06.252,406.9,101.7,0,12.0,,46292.0,21.6,-0.04,0.78,-0.62,12.1,5.1,8.8,35.38,,,,,,,,,,
16.29.06.264,440.0,110.0,0,12.0,,49816.8,20.07,0.0,0.75,-0.65,18.8,-7.4,10.1,35.38,,,,,,,,,,
16.29.06.272,495.3,123.8,0,12.0,,46499.0,21.51,-0.08,0.85,-0.63,20.0,8.9,5.1,35.38,,,,,,,,,,
16.29.06.285,463.5,115.9,0,12.0,,48806.1,20.49,0.03,0.75,-0.68,26.9,-0.2,2.7,35.38,,,,,,,,,,
16.29.06.298,422.2,105.6,0,12.0,,47552.6,21.03,0.03,0.81,-0.72,18.0,1.2,4.4,35.38,,,,,,,,,,
16.29.06.305,373.7,93.4,0,12.0,,49424.2,20.23,0.05,0.93,-0.7,22.4,-3.7,-6.1,35.38,,,,,,,,,,
16.29.06.342,133.1,33.3,0,12.0,,44864.4,22.29,0.03,0.75,-0.7,30.9,-0.2,0.3,35.38,,,,,,,,,,
16.29.06.355,50.1,12.5,0,12.0,,50214.3,19.91,-0.02,0.75,-0.61,20.2,0.1,-3.7,35.38,,,,,,,,,,
16.29.06.363,-4.3,1.1,0,12.0,,49099.4,20.37,0.0,0.81,-0.59,11.1,-7.0,-2.4,35.38,,,,,,,,,,
16.29.06.375,69.2,17.3,0,12.0,,50921.1,19.64,0.02,0.85,-0.61,-0.9,-10.0,4.2,35.38,,,,,,,,,,
16.29.06.383,73.5,18.4,0,12.0,,46716.9,21.41,0.01,0.86,-0.62,-11.4,-15.0,13.7,35.38,,,,,,,,,,
16.29.06.396,97.7,24.4,0,12.0,,50700.8,19.72,0.01,0.86,-0.63,-23.3,-13.8,21.1,35.38,,,,,,,,,,
16.29.06.408,71.4,17.8,0,12.0,,46548.3,21.48,-0.01,0.77,-0.65,-26.6,-16.4,23.8,35.38,,,,,,,,,,
16.29.06.416,16.7,4.2,0,12.0,,45614.1,21.92,-0.01,0.77,-0.66,-27.4,-15.9,24.3,35.38,,,,,,,,,,
16.29.06.428,48.6,12.2,0,12.0,,44550.7,22.45,-0.03,0.7,-0.68,-21.9,-13.3,22.9,35.38,,,,,,,,,,
16.29.06.441,38.4,9.6,0,12.0,,48317.4,20.7,-0.03,0.65,-0.7,-10.3,-14.6,18.3,35.38,,,,,,,,,,
16.29.06.449,47.2,11.8,0,12.0,,49111.2,20.36,-0.03,0.64,-0.7,0.1,-13.0,10.8,35.38,,,,,,,,,,
16.29.06.461,-4.9,1.2,0,12.0,,39063.9,25.6,-0.04,0.65,-0.69,7.1,-12.4,5.2,35.38,,,,,,,,,,
16.29.06.469,-15.1,3.8,0,12.0,,52253.0,19.14,-0.03,0.66,-0.69,11.0,-10.9,2.8,35.38,,,,,,,,,,
16.29.06.482,-42.8,10.7,0,12.0,,48119.8,20.78,-0.05,0.68,-0.69,15.4,-10.6,3.0,35.38,,,,,,,,,,
16.29.06.490,26.0,6.5,0,12.0,,49264.8,20.3,-0.05,0.71,-0.68,17.7,-10.2,5.2,35.38,,,,,,,,,,
16.29.06.502,-4.3,1.1,0,12.0,,44441.3,22.5,-0.05,0.72,-0.69,18.3,-9.0,9.3,35.38,,,,,,,,,,
16.29.06.514,-51.4,12.8,0,12.0,,47504.4,21.05,-0.03,0.72,-0.68,18.1,-9.4,10.1,35.38,,,,,,,,,,
16.29.06.523,-66.2,16.6,0,12.0,,48364.1,20.68,-0.01,0.71,-0.68,18.2,-6.3,10.5,35.38,,,,,,,,,,
16.29.06.535,-95.0,23.8,0,12.0,,44337.6,22.55,-0.02,0.69,-0.7,19.6,-4.7,10.2,35.38,,,,,,,,,,
16.29.06.543,-108.2,27.0,0,12.0,,54191.1,18.45,-0.03,0.68,-0.69,21.0,-3.9,6.5,35.38,,,,,,,,,,
16.29.06.555,-93.3,23.3,0,12.0,,44917.7,22.26,-0.04,0.69,-0.66,21.9,-4.8,3.1,35.38,,,,,,,,,,
16.29.06.563,-104.2,26.0,0,12.0,,47385.4,21.1,-0.06,0.7,-0.66,22.4,-8.6,0.2,35.38,,,,,,,,,,
16.29.06.576,-118.4,29.6,0,12.0,,49672.7,20.13,-0.04,0.7,-0.65,20.7,-13.9,-2.1,35.38,,,,,,,,,,
16.29.06.588,-41.1,10.3,0,12.0,,46553.5,21.48,-0.01,0.71,-0.66,19.4,-16.0,-1.5,35.38,,,,,,,,,,
16.29.06.596,-77.3,19.3,0,12.0,,44307.0,22.57,0.01,0.71,-0.67,17.5,-18.4,0.5,35.38,,,,,,,,,,
16.29.06.609,-182.5,45.6,0,12.0,,45996.6,21.74,0.02,0.72,-0.69,15.6,-17.2,3.2,35.38,,,,,,,,,,
16.29.06.617,-90.7,22.7,0,12.0,,45519.7,21.97,-0.01,0.72,-0.7,17.1,-16.5,2.1,35.38,,,,,,,,,,
16.29.06.629,-152.9,38.2,0,12.0,,45552.7,21.95,-0.02,0.72,-0.7,15.8,-16.1,1.8,35.38,,,,,,,,,,
16.29.06.638,-167.5,41.9,0,12.0,,47324.2,21.13,0.0,0.74,-0.72,14.7,-15.4,6.5,35.38,,,,,,,,,,
16.29.06.650,-153.2,38.3,0,12.0,,48938.0,20.43,-0.02,0.7,-0.74,15.0,-15.1,11.3,35.38,,,,,,,,,,
16.29.06.662,-155.7,38.9,0,12.0,,48461.8,20.63,0.02,0.81,-0.7,67.5,42.1,36.0,35.38,,,,,,,,,,
16.29.06.670,-182.3,45.6,0,12.0,,44864.0,22.29,-0.01,0.65,-0.66,23.0,5.2,17.5,35.38,,,,,,,,,,
16.29.06.682,-151.9,38.0,0,12.0,,48111.2,20.79,-0.02,0.8,-0.75,10.9,-15.2,1.9,35.38,,,,,,,,,,
16.29.06.691,-192.9,48.2,0,12.0,,44844.7,22.3,0.04,0.74,-0.73,20.4,-0.4,6.4,35.38,,,,,,,,,,
16.29.06.703,57.8,14.4,1,13.0,109.4,50706.5,19.72,0.0,0.73,-0.71,16.3,-7.3,5.7,35.38,,,,,,,,,,
16.29.06.711,193.1,48.3,0,13.0,,49022.3,20.4,-0.02,0.74,-0.7,15.9,-4.3,2.4,35.38,,,,,,,,,,
16.29.06.723,227.1,56.8,0,13.0,,48792.1,20.5,-0.01,0.75,-0.7,14.2,-5.1,0.7,35.38,,,,,,,,,,
16.29.06.731,267.4,66.8,0,13.0,,44346.4,22.55,-0.03,0.74,-0.72,10.5,-5.9,1.6,35.38,,,,,,,,,,
16.29.06.744,333.0,83.2,0,13.0,,49893.2,20.04,-0.04,0.7,-0.73,10.6,-6.6,2.0,35.38,,,,,,,,,,
16.29.06.752,418.9,104.7,0,13.0,,50167.1,19.93,-0.02,0.7,-0.74,14.6,-5.9,1.1,35.38,,,,,,,,,,
16.29.06.764,477.8,119.4,0,13.0,,45623.6,21.92,-0.03,0.69,-0.74,18.9,-4.6,-1.5,35.38,,,,,,,,,,
16.29.06.776,495.9,124.0,0,13.0,,45132.6,22.16,0.0,0.74,-0.71,19.7,-5.3,0.7,35.38,,,,,,,,,,
16.29.06.785,467.7,116.9,0,13.0,,47453.1,21.07,0.0,0.72,-0.72,18.9,-4.4,2.2,35.38,,,,,,,,,,
16.29.06.797,452.8,113.2,0,13.0,,45913.4,21.78,-0.01,0.73,-0.71,15.9,-3.0,0.2,35.38,,,,,,,,,,
16.29.06.805,465.5,116.4,0,13.0,,47773.5,20.93,0.0,0.72,-0.75,15.2,-2.5,-2.0,35.38,,,,,,,,,,
16.29.06.818,445.5,111.4,0,13.0,,45943.3,21.77,0.0,0.71,-0.74,15.1,-1.0,-1.9,35.38,,,,,,,,,,
16.29.06.826,356.2,89.0,0,13.0,,47317.6,21.13,0.0,0.72,-0.73,15.5,-3.7,-1.5,35.38,,,,,,,,,,
16.29.06.838,292.6,73.2,0,13.0,,43185.1,23.16,0.0,0.73,-0.74,12.2,-3.2,1.2,35.38,,,,,,,,,,
16.29.06.850,229.2,57.3,0,13.0,,46749.6,21.39,-0.01,0.69,-0.74,12.9,-4.1,1.9,35.38,,,,,,,,,,
16.29.06.859,159.5,39.9,0,13.0,,45634.5,21.91,-0.02,0.63,-0.75,19.8,-1.8,2.4,35.38,,,,,,,,,,
16.29.06.871,124.4,31.1,0,13.0,,46351.3,21.57,-0.08,0.41,-0.69,32.9,-9.4,-19.3,35.38,,,,,,,,,,
16.29.06.879,29.4,7.4,0,13.0,,48532.7,20.6,-0.03,0.67,-0.78,26.6,-0.3,-4.5,35.38,,,,,,,,,,
16.29.06.891,74.7,18.7,0,13.0,,45141.3,22.15,-0.02,0.68,-0.75,22.4,-0.1,-3.9,35.38,,,,,,,,,,
16.29.06.899,54.1,13.5,0,13.0,,53956.8,18.53,-0.03,0.7,-0.73,17.2,0.9,-2.5,35.38,,,,,,,,,,
16.29.06.912,30.5,7.6,0,13.0,,52336.5,19.11,-0.04,0.68,-0.75,12.0,2.0,-0.4,35.38,,,,,,,,,,
16.29.06.924,79.8,20.0,0,13.0,,51955.1,19.25,-0.04,0.65,-0.79,11.7,6.8,-3.1,35.38,,,,,,,,,,
16.29.06.932,146.8,36.7,0,13.0,,42896.9,23.31,-0.04,0.63,-0.78,13.0,6.0,-3.3,35.38,,,,,,,,,,
16.29.06.944,73.0,18.2,0,13.0,,47986.5,20.84,-0.03,0.62,-0.78,13.8,6.1,-5.3,35.38,,,,,,,,,,
16.29.06.952,81.6,20.4,0,13.0,,42114.5,23.74,-0.02,0.62,-0.77,14.0,7.8,-6.4,35.38,,,,,,,,,,
16.29.06.965,60.0,15.0,0,13.0,,43060.8,23.22,-0.01,0.63,-0.76,14.8,6.0,-6.0,35.38,,,,,,,,,,
16.29.06.973,71.9,18.0,0,13.0,,42734.8,23.4,-0.03,0.63,-0.77,12.9,7.1,-5.2,35.38,,,,,,,,,,
16.29.06.986,-39.0,9.8,0,13.0,,49043.7,20.39,-0.04,0.64,-0.79,14.0,6.5,-5.0,35.38,,,,,,,,,,
16.29.06.994,2.7,0.7,0,13.0,,44584.5,22.43,-0.03,0.68,-0.79,11.9,5.7,-2.9,35.38,,,,,,,,,,
16.29.07.006,-61.7,15.4,0,13.0,,43697.0,22.88,-0.06,0.67,-0.77,9.7,5.6,-0.8,35.38,,,,,,,,,,
16.29.07.018,-43.5,10.9,0,13.0,,45257.2,22.1,-0.08,0.68,-0.75,4.5,3.9,-0.8,35.38,,,,,,,,,,
16.29.07.027,-77.6,19.4,0,13.0,,48655.8,20.55,-0.07,0.67,-0.74,0.4,2.4,-0.5,35.38,,,,,,,,,,
16.29.07.039,-59.3,14.8,0,13.0,,46260.7,21.62,-0.05,0.65,-0.77,4.7,2.4,-0.9,35.38,,,,,,,,,,
16.29.07.047,-49.4,12.4,0,13.0,,50793.0,19.69,-0.04,0.66,-0.74,5.5,3.0,0.4,35.38,,,,,,,,,,
16.29.07.059,-45.6,11.4,0,13.0,,49276.6,20.29,-0.05,0.69,-0.74,4.5,6.6,1.7,35.38,,,,,,,,,,
16.29.07.067,-105.1,26.3,0,13.0,,48536.3,20.6,-0.05,0.73,-0.7,-2.5,5.5,4.7,35.38,,,,,,,,,,
16.29.07.080,-83.8,21.0,0,13.0,,52335.3,19.11,0.0,0.76,-0.73,-1.7,16.4,17.3,35.38,,,,,,,,,,
16.29.07.092,-100.4,25.1,0,13.0,,49221.0,20.32,-0.05,0.72,-0.76,-13.0,5.6,16.2,35.38,,,,,,,,,,
16.29.07.100,-102.9,25.7,0,13.0,,43741.6,22.86,-0.06,0.74,-0.76,-13.3,1.7,18.6,35.38,,,,,,,,,,
16.29.07.112,-117.0,29.2,0,13.0,,46644.7,21.44,-0.09,0.74,-0.73,-12.2,1.7,19.4,35.38,,,,,,,,,,
16.29.07.149,-130.4,32.6,0,13.0,,50798.7,19.69,-0.1,0.72,-0.74,-14.0,1.6,19.0,35.38,,,,,,,,,,
16.29.07.162,-145.6,36.4,0,13.0,,52205.4,19.16,-0.05,0.76,-0.72,-20.7,7.9,19.1,35.38,,,,,,,,,,
16.29.07.170,-148.6,37.2,0,13.0,,44287.2,22.58,-0.06,0.75,-0.7,-11.0,4.7,13.7,35.38,,,,,,,,,,
16.29.07.182,-144.3,36.1,0,13.0,,47462.8,21.07,-0.06,0.71,-0.73,-5.5,6.0,14.0,35.38,,,,,,,,,,
16.29.07.190,-112.3,28.1,0,13.0,,54441.0,18.37,-0.06,0.71,-0.72,-1.3,7.6,12.5,35.38,,,,,,,,,,
16.29.07.202,-189.4,47.4,0,13.0,,40734.8,24.55,-0.08,0.72,-0.7,2.2,3.5,10.5,35.38,,,,,,,,,,
16.29.07.211,-181.9,45.5,0,13.0,,43868.5,22.8,-0.06,0.76,-0.69,2.0,-0.7,10.2,35.38,,,,,,,,,,
16.29.07.223,32.9,8.2,1,14.0,115.2,41307.7,24.21,-0.07,0.73,-0.7,0.2,-5.4,11.1,35.38,,,,,,,,,,
16.29.07.231,116.4,29.1,0,14.0,,49816.7,20.07,-0.05,0.76,-0.69,-0.2,-10.2,13.1,35.38,,,,,,,,,,
16.29.07.244,194.8,48.7,0,14.0,,43092.0,23.21,-0.04,0.74,-0.69,-2.3,-12.2,14.4,35.38,,,,,,,,,,
16.29.07.252,267.0,66.8,0,14.0,,46767.2,21.38,-0.02,0.73,-0.7,-3.9,-11.6,14.9,35.38,,,,,,,,,,
16.29.07.264,352.2,88.0,0,14.0,,52402.6,19.08,-0.01,0.72,-0.71,-4.0,-7.8,13.6,35.38,,,,,,,,,,
16.29.07.276,424.2,106.0,0,14.0,,46150.6,21.67,-0.01,0.69,-0.68,-2.7,-7.8,11.5,35.38,,,,,,,,,,
16.29.07.285,466.5,116.6,0,14.0,,45333.1,22.06,0.0,0.67,-0.69,0.3,-3.3,9.0,35.38,,,,,,,,,,
16.29.07.297,495.2,123.8,0,14.0,,48944.3,20.43,0.0,0.68,-0.68,0.0,-0.5,8.7,35.38,,,,,,,,,,
16.29.07.305,505.4,126.4,0,14.0,,47451.3,21.07,0.0,0.7,-0.66,-2.5,-1.4,7.2,35.38,,,,,,,,,,
16.29.07.317,527.5,131.9,0,14.0,,50320.0,19.87,0.0,0.72,-0.65,-5.9,-6.7,7.1,35.38,,,,,,,,,,
16.29.07.326,490.0,122.5,0,14.0,,54715.7,18.28,0.02,0.72,-0.65,-9.6,-12.6,5.8,35.38,,,,,,,,,,
16.29.07.338,508.3,127.1,0,14.0,,46797.0,21.37,0.01,0.7,-0.65,-16.3,-16.2,2.3,35.38,,,,,,,,,,
16.29.07.346,424.7,106.2,0,14.0,,45055.9,22.19,0.01,0.71,-0.64,-21.1,-22.5,0.1,35.38,,,,,,,,,,
16.29.07.358,327.9,82.0,0,14.0,,55519.2,18.01,0.06,0.72,-0.66,-25.0,-28.1,0.8,35.38,,,,,,,,,,
16.29.07.366,282.8,70.7,0,14.0,,50779.3,19.69,0.06,0.7,-0.69,-29.2,-27.4,1.4,35.38,,,,,,,,,,
16.29.07.379,193.9,48.5,0,14.0,,52244.2,19.14,0.07,0.72,-0.69,-29.4,-24.1,2.1,35.38,,,,,,,,,,
16.29.07.387,92.5,23.1,0,14.0,,48462.2,20.63,0.06,0.73,-0.71,-27.8,-21.7,4.1,35.38,,,,,,,,,,
16.29.07.399,4.7,1.2,0,14.0,,41929.2,23.85,0.05,0.73,-0.71,-27.2,-17.9,3.8,35.38,,,,,,,,,,
16.29.07.412,-3.8,1.0,0,14.0,,45295.7,22.08,0.04,0.74,-0.7,-26.7,-13.7,2.5,35.38,,,,,,,,,,
16.29.07.420,42.3,10.6,0,14.0,,45703.7,21.88,0.05,0.73,-0.72,-25.0,-12.0,2.2,35.38,,,,,,,,,,
16.29.07.432,70.2,17.6,0,14.0,,51926.9,19.26,0.03,0.75,-0.71,-20.4,-10.1,-2.3,35.38,,,,,,,,,,
16.29.07.440,64.3,16.1,0,14.0,,46688.1,21.42,0.03,0.74,-0.68,-17.1,-12.7,-3.3,35.38,,,,,,,,,,
16.29.07.452,56.8,14.2,0,14.0,,47923.4,20.87,0.04,0.74,-0.65,-14.6,-12.7,-7.2,35.38,,,,,,,,,,
16.29.07.461,100.1,25.0,0,14.0,,43984.9,22.74,0.0,0.72,-0.64,-11.0,-17.6,-7.6,35.38,,,,,,,,,,
16.29.07.473,39.1,9.8,0,14.0,,50224.6,19.91,0.04,0.75,-0.62,-12.4,-23.6,-10.7,35.38,,,,,,,,,,
16.29.07.486,18.4,4.6,0,14.0,,51199.1,19.53,0.04,0.76,-0.64,-9.9,-25.0,-5.8,35.38,,,,,,,,,,
16.29.07.494,35.1,8.8,0,14.0,,47498.2,21.05,0.02,0.79,-0.68,-4.5,-18.1,-4.8,35.38,,,,,,,,,,
16.29.07.506,-20.8,5.2,0,14.0,,47462.1,21.07,-0.03,0.79,-0.68,-7.9,-17.6,-3.1,35.38,,,,,,,,,,
16.29.07.514,23.5,5.9,0,14.0,,48577.2,20.59,-0.03,0.79,-0.69,-6.7,-16.3,-1.4,35.38,,,,,,,,,,
16.29.07.526,26.9,6.7,0,14.0,,47558.8,21.03,-0.02,0.82,-0.7,-6.7,-11.7,-1.9,35.38,,,,,,,,,,
16.29.07.538,55.9,14.0,0,14.0,,49981.9,20.01,-0.01,0.81,-0.68,-9.1,-13.5,-1.9,35.38,,,,,,,,,,
16.29.07.547,-73.7,18.4,0,14.0,,48404.9,20.66,-0.01,0.8,-0.71,-8.1,-9.4,-6.3,35.38,,,,,,,,,,
16.29.07.559,-30.3,7.6,0,14.0,,48034.3,20.82,-0.04,0.81,-0.72,-8.5,-9.0,-8.5,35.38,,,,,,,,,,
16.29.07.567,-72.4,18.1,0,14.0,,46743.1,21.39,-0.07,0.79,-0.71,-8.9,-6.2,-11.0,35.38,,,,,,,,,,
16.29.07.579,-81.6,20.4,0,14.0,,47928.1,20.86,-0.1,0.77,-0.71,-3.2,-11.8,-10.3,35.38,,,,,,,,,,
16.29.07.592,-124.5,31.1,0,14.0,,46500.3,21.51,-0.07,0.84,-0.73,-5.0,-2.5,-14.5,35.38,,,,,,,,,,
16.29.07.600,-75.5,18.9,0,14.0,,48237.3,20.73,-0.1,0.74,-0.71,-1.6,-10.6,-10.5,35.38,,,,,,,,,,
16.29.07.612,-114.5,28.6,0,14.0,,45901.7,21.79,-0.12,0.76,-0.69,-0.5,-7.5,-19.3,35.38,,,,,,,,,,
16.29.07.625,-125.9,31.5,0,14.0,,45888.6,21.79,-0.13,0.82,-0.68,5.6,-16.9,-12.8,35.38,,,,,,,,,,
16.29.07.633,-115.3,28.8,0,14.0,,48160.5,20.76,-0.11,0.86,-0.69,5.3,-6.3,-22.3,35.38,,,,,,,,,,
16.29.07.645,-112.2,28.0,0,14.0,,49593.5,20.16,-0.12,0.73,-0.67,2.0,-29.7,-15.7,35.38,,,,,,,,,,
16.29.07.654,-147.2,36.8,0,14.0,,40249.1,24.85,-0.19,0.68,-0.69,-0.4,-20.0,-18.1,35.38,,,,,,,,,,
16.29.07.666,-107.5,26.9,0,14.0,,45979.4,21.75,-0.14,0.76,-0.69,1.2,-20.6,-9.1,35.38,,,,,,,,,,
16.29.07.678,-130.2,32.6,0,14.0,,45987.9,21.74,-0.19,0.73,-0.71,-2.4,-19.7,-6.9,35.38,,,,,,,,,,
16.29.07.690,-178.3,44.6,0,14.0,,48144.5,20.77,-0.16,0.6,-0.72,17.6,-8.7,2.6,35.38,,,,,,,,,,
16.29.07.699,-218.8,54.7,0,14.0,,48678.7,20.54,-0.25,0.62,-0.74,11.2,-19.1,-2.6,35.38,,,,,,,,,,
16.29.07.711,-201.2,50.3,0,14.0,,53186.8,18.8,-0.23,0.57,-0.76,14.0,-20.6,-9.5,35.38,,,,,,,,,,
16.29.07.723,-252.6,63.2,0,14.0,,45159.4,22.14,-0.26,0.56,-0.76,18.4,-15.7,-17.1,35.38,,,,,,,,,,
16.29.07.731,-185.0,46.2,0,14.0,,52561.8,19.03,-0.3,0.57,-0.74,21.8,-17.6,-23.9,35.38,,,,,,,,,,
16.29.07.743,12.6,3.2,1,15.0,117.4,41001.1,24.39,-0.29,0.58,-0.72,21.4,-24.3,-27.9,35.38,,,,,,,,,,
16.29.07.752,91.7,22.9,0,15.0,,42448.8,23.56,-0.25,0.55,-0.76,21.8,-23.8,-30.3,35.38,,,,,,,,,,
16.29.07.764,198.2,49.6,0,15.0,,43445.3,23.02,-0.24,0.6,-0.73,18.2,-15.6,-25.1,35.38,,,,,,,,,,
16.29.07.776,291.9,73.0,0,15.0,,51187.9,19.54,-0.29,0.58,-0.7,16.7,-20.0,-24.9,35.38,,,,,,,,,,
16.29.07.784,352.7,88.2,0,15.0,,48512.4,20.61,-0.26,0.6,-0.68,15.0,-16.3,-24.9,35.38,,,,,,,,,,
16.29.07.797,445.5,111.4,0,15.0,,50986.7,19.61,-0.27,0.63,-0.64,11.4,-18.2,-24.8,35.38,,,,,,,,,,
16.29.07.809,498.9,124.7,0,15.0,,52161.2,19.17,-0.29,0.65,-0.63,6.0,-21.2,-24.7,35.38,,,,,,,,,,
16.29.07.817,504.6,126.2,0,15.0,,46859.3,21.34,-0.31,0.66,-0.64,2.2,-30.7,-23.5,35.38,,,,,,,,,,
16.29.07.830,485.7,121.4,0,15.0,,47485.2,21.06,-0.32,0.66,-0.68,1.2,-38.3,-18.2,35.38,,,,,,,,,,
16.29.07.838,518.3,129.6,0,15.0,,47176.6,21.2,-0.35,0.61,-0.75,5.9,-42.6,-14.8,35.38,,,,,,,,,,
16.29.07.850,546.7,136.7,0,15.0,,48344.3,20.68,-0.34,0.62,-0.81,13.2,-45.5,-10.3,35.38,,,,,,,,,,
16.29.07.862,482.6,120.6,0,15.0,,50509.4,19.8,-0.38,0.6,-0.81,21.9,-46.1,-8.6,35.38,,,,,,,,,,
16.29.07.870,413.5,103.4,0,15.0,,46837.7,21.35,-0.38,0.6,-0.82,29.3,-47.3,-9.2,35.38,,,,,,,,,,
16.29.07.883,303.2,75.8,0,15.0,,49899.3,20.04,-0.41,0.59,-0.81,40.2,-40.8,-14.4,35.38,,,,,,,,,,
16.29.07.891,270.8,67.7,0,15.0,,48269.9,20.72,-0.41,0.64,-0.77,45.9,-42.6,-16.8,35.38,,,,,,,,,,
16.29.07.903,149.6,37.4,0,15.0,,51659.3,19.36,-0.39,0.66,-0.78,49.5,-37.6,-22.7,35.38,,,,,,,,,,
16.29.07.915,78.4,19.6,0,15.0,,44064.2,22.69,-0.37,0.69,-0.79,47.7,-36.3,-22.8,35.38,,,,,,,,,,
16.29.07.952,69.9,17.5,0,15.0,,49116.4,20.36,-0.39,0.7,-0.8,47.5,-32.7,-20.3,35.38,,,,,,,,,,
16.29.07.960,76.3,19.1,0,15.0,,41467.9,24.12,-0.41,0.63,-0.87,47.6,-43.6,-13.5,35.38,,,,,,,,,,
16.29.07.973,102.3,25.6,0,15.0,,44571.8,22.44,-0.4,0.62,-0.9,47.6,-42.6,-12.3,35.38,,,,,,,,,,
16.29.07.985,70.3,17.6,0,15.0,,45366.1,22.04,-0.43,0.65,-0.86,44.1,-44.3,-11.0,35.38,,,,,,,,,,
16.29.07.993,96.0,24.0,0,15.0,,47075.7,21.24,-0.43,0.65,-0.86,41.1,-39.6,-12.0,35.38,,,,,,,,,,
16.29.08.006,76.3,19.1,0,15.0,,51387.6,19.46,-0.47,0.63,-0.84,38.0,-36.5,-14.5,35.38,,,,,,,,,,
16.29.08.014,36.8,9.2,0,15.0,,46514.0,21.5,-0.48,0.63,-0.84,31.5,-37.7,-17.1,35.38,,,,,,,,,,
16.29.08.026,-12.0,3.0,0,15.0,,43506.2,22.99,-0.47,0.62,-0.87,28.9,-36.6,-19.6,35.38,,,,,,,,,,
16.29.08.038,32.1,8.0,0,15.0,,51664.1,19.36,-0.45,0.62,-0.86,27.5,-35.9,-21.8,35.38,,,,,,,,,,
16.29.08.047,-28.4,7.1,0,15.0,,43798.2,22.83,-0.43,0.64,-0.85,24.8,-31.2,-22.1,35.38,,,,,,,,,,
16.29.08.059,-25.9,6.5,0,15.0,,50163.7,19.93,-0.43,0.64,-0.8,21.6,-27.1,-22.4,35.38,,,,,,,,,,
16.29.08.067,-37.1,9.3,0,15.0,,41768.4,23.94,-0.42,0.64,-0.78,20.0,-27.0,-23.0,35.38,,,,,,,,,,
16.29.08.079,25.1,6.3,0,15.0,,44787.6,22.33,-0.44,0.64,-0.76,19.9,-24.9,-22.5,35.38,,,,,,,,,,
16.29.08.092,-14.4,3.6,0,15.0,,45951.9,21.76,-0.48,0.66,-0.76,19.0,-30.5,-20.4,35.38,,,,,,,,,,
16.29.08.100,-65.8,16.4,0,15.0,,44671.4,22.39,-0.48,0.67,-0.76,15.3,-35.7,-16.0,35.38,,,,,,,,,,
16.29.08.112,-70.6,17.6,0,15.0,,49772.8,20.09,-0.48,0.7,-0.78,12.8,-40.8,-11.3,35.38,,,,,,,,,,
16.29.08.124,-68.7,17.2,0,15.0,,41706.2,23.98,-0.46,0.74,-0.84,7.5,-41.4,-4.4,35.38,,,,,,,,,,
16.29.08.133,-31.7,7.9,0,15.0,,47174.7,21.2,-0.47,0.72,-0.84,2.6,-37.6,0.4,35.38,,,,,,,,,,
16.29.08.145,-98.2,24.6,0,15.0,,46412.2,21.55,-0.44,0.69,-0.85,0.6,-31.2,4.9,35.38,,,,,,,,,,
16.29.08.153,-147.2,36.8,0,15.0,,47531.4,21.04,-0.42,0.65,-0.84,2.3,-21.8,8.3,35.38,,,,,,,,,,
16.29.08.165,-111.4,27.8,0,15.0,,46341.9,21.58,-0.43,0.59,-0.82,8.4,-11.8,10.4,35.38,,,,,,,,,,
16.29.08.174,-141.7,35.4,0,15.0,,47434.0,21.08,-0.43,0.56,-0.79,18.3,-1.7,11.8,35.38,,,,,,,,,,
16.29.08.186,-164.6,41.2,0,15.0,,44509.2,22.47,-0.43,0.56,-0.76,28.7,7.2,12.2,35.38,,,,,,,,,,
16.29.08.194,-190.6,47.6,0,15.0,,46409.9,21.55,-0.48,0.58,-0.75,34.7,11.2,9.6,35.38,,,,,,,,,,
16.29.08.206,-126.8,31.7,0,15.0,,47413.0,21.09,-0.46,0.58,-0.7,29.6,1.0,5.7,35.38,,,,,,,,,,
16.29.08.214,-170.0,42.5,0,15.0,,48621.1,20.57,-0.44,0.61,-0.71,26.6,-8.0,3.7,35.38,,,,,,,,,,
16.29.08.227,-192.8,48.2,0,15.0,,52840.1,18.93,-0.41,0.61,-0.73,19.2,-17.1,1.7,35.38,,,,,,,,,,
16.29.08.239,-204.6,51.2,0,15.0,,47884.0,20.88,-0.38,0.6,-0.73,14.2,-17.1,1.3,35.38,,,,,,,,,,
16.29.08.251,-206.8,51.7,0,15.0,,52532.9,19.04,-0.35,0.58,-0.73,12.2,-12.7,2.0,35.38,,,,,,,,,,
16.29.08.259,-224.6,56.2,0,15.0,,46166.0,21.66,-0.31,0.57,-0.72,10.5,-6.6,3.3,35.38,,,,,,,,,,
16.29.08.272,76.7,19.2,1,16.0,112.7,45452.9,22.0,-0.33,0.55,-0.71,10.7,1.9,3.9,35.38,,,,,,,,,,
16.29.08.284,168.2,42.0,0,16.0,,44555.5,22.44,-0.33,0.51,-0.74,13.8,9.5,4.3,35.38,,,,,,,,,,
16.29.08.296,287.2,71.8,0,16.0,,45365.1,22.04,-0.33,0.47,-0.77,17.1,13.0,3.6,35.38,,,,,,,,,,
16.29.08.305,337.4,84.4,0,16.0,,43671.2,22.9,-0.36,0.43,-0.77,22.5,15.3,1.9,35.38,,,,,,,,,,
16.29.08.317,409.5,102.4,0,16.0,,39462.5,25.34,-0.36,0.49,-0.74,22.9,16.0,-1.9,35.38,,,,,,,,,,
16.29.08.330,487.0,121.8,0,16.0,,45932.7,21.77,-0.33,0.56,-0.69,15.0,19.5,-6.9,35.38,,,,,,,,,,
16.29.08.337,484.7,121.2,0,16.0,,50302.3,19.88,-0.32,0.59,-0.67,5.7,22.5,-10.0,35.38,,,,,,,,,,
16.29.08.350,493.7,123.4,0,16.0,,51856.4,19.28,-0.29,0.62,-0.65,-2.6,23.8,-7.9,35.38,,,,,,,,,,
16.29.08.362,507.3,126.8,0,16.0,,48795.4,20.49,-0.3,0.57,-0.69,-9.4,18.7,-2.6,35.38,,,,,,,,,,
16.29.08.374,494.1,123.5,0,16.0,,43803.0,22.83,-0.29,0.53,-0.7,-8.0,15.9,4.6,35.38,,,,,,,,,,
16.29.08.382,462.8,115.7,0,16.0,,44034.6,22.71,-0.3,0.49,-0.71,-4.1,12.7,9.9,35.38,,,,,,,,,,
16.29.08.395,415.7,103.9,0,16.0,,46885.6,21.33,-0.29,0.43,-0.7,-0.9,9.0,12.5,35.38,,,,,,,,,,
16.29.08.407,297.6,74.4,0,16.0,,47414.9,21.09,-0.33,0.32,-0.71,4.4,6.2,8.4,35.38,,,,,,,,,,
16.29.08.415,290.2,72.6,0,16.0,,48378.5,20.67,-0.35,0.32,-0.74,11.6,9.5,0.6,35.38,,,,,,,,,,
16.29.08.427,127.8,32.0,0,16.0,,43227.7,23.13,-0.34,0.4,-0.71,13.9,10.1,-9.0,35.38,,,,,,,,,,
16.29.08.440,44.8,11.2,0,16.0,,45538.2,21.96,-0.33,0.46,-0.7,8.1,12.3,-16.0,35.38,,,,,,,,,,
16.29.08.452,15.0,3.8,0,16.0,,45898.0,21.79,-0.33,0.49,-0.71,1.6,15.5,-17.8,35.38,,,,,,,,,,
16.29.08.460,45.3,11.3,0,16.0,,47888.4,20.88,-0.35,0.52,-0.73,-4.7,15.5,-15.3,35.38,,,,,,,,,,
16.29.08.473,103.1,25.8,0,16.0,,48807.4,20.49,-0.36,0.48,-0.79,-10.6,11.7,-10.4,35.38,,,,,,,,,,
16.29.08.485,116.6,29.2,0,16.0,,49563.5,20.18,-0.39,0.44,-0.82,-14.0,7.0,-3.3,35.38,,,,,,,,,,
16.29.08.497,78.3,19.6,0,16.0,,49856.7,20.06,-0.44,0.4,-0.83,-13.1,-1.6,0.6,35.38,,,,,,,,,,
16.29.08.509,115.1,28.8,0,16.0,,47017.0,21.27,-0.45,0.44,-0.83,-14.3,-7.3,2.4,35.38,,,,,,,,,,
16.29.08.518,33.7,8.4,0,16.0,,45574.2,21.94,-0.47,0.53,-0.79,-18.5,-4.7,2.1,35.38,,,,,,,,,,
16.29.08.530,82.1,20.5,0,16.0,,50178.3,19.93,-0.45,0.6,-0.78,-28.3,1.5,-2.6,35.38,,,,,,,,,,
16.29.08.542,39.7,9.9,0,16.0,,47713.8,20.96,-0.42,0.55,-0.79,-31.2,10.2,-8.8,35.38,,,,,,,,,,
16.29.08.554,-2.9,0.7,0,16.0,,44901.2,22.27,-0.41,0.5,-0.81,-22.1,18.2,-13.5,35.38,,,,,,,,,,
16.29.08.567,12.8,3.2,0,16.0,,52127.7,19.18,-0.38,0.51,-0.79,-11.5,19.2,-14.3,35.38,,,,,,,,,,
16.29.08.575,22.7,5.7,0,16.0,,48584.4,20.58,-0.39,0.49,-0.77,-0.7,18.6,-14.4,35.38,,,,,,,,,,
16.29.08.587,-69.6,17.4,0,16.0,,43973.7,22.74,-0.37,0.51,-0.73,5.7,17.0,-14.3,35.38,,,,,,,,,,
16.29.08.599,-99.0,24.8,0,16.0,,50438.2,19.83,-0.42,0.45,-0.71,8.0,8.3,-15.2,35.38,,,,,,,,,,
16.29.08.612,-50.6,12.6,0,16.0,,46471.8,21.52,-0.45,0.42,-0.74,13.6,2.2,-15.6,35.38,,,,,,,,,,
16.29.08.624,-69.1,17.3,0,16.0,,47078.7,21.24,-0.47,0.51,-0.71,14.6,-6.7,-15.2,35.38,,,,,,,,,,
16.29.08.636,-95.0,23.8,0,16.0,,45210.8,22.12,-0.41,0.7,-0.67,1.9,-11.2,-10.4,35.38,,,,,,,,,,
16.29.08.644,-97.0,24.2,0,16.0,,50963.2,19.62,-0.38,0.75,-0.68,-19.6,-5.2,-4.8,35.38,,,,,,,,,,
16.29.08.661,-111.5,27.9,0,16.0,,46684.0,21.42,-0.38,0.67,-0.72,-34.7,3.3,-1.8,35.38,,,,,,,,,,
16.29.08.670,-187.9,47.0,0,16.0,,47498.8,21.05,-0.4,0.59,-0.75,-37.0,14.6,-0.2,35.38,,,,,,,,,,
16.29.08.682,-68.7,17.2,0,16.0,,49308.2,20.28,-0.4,0.58,-0.72,8.1,11.6,-11.1,35.38,,,,,,,,,,
16.29.09.096,-7.2,1.8,1,17.0,113.4,44578.9,22.43,-0.33,0.54,-0.66,11.0,9.5,-13.7,35.38,,,,,,,,,,
16.29.09.103,-20.8,5.2,0,17.0,,45510.9,21.97,-0.37,0.56,-0.64,9.5,3.0,-13.3,35.38,,,,,,,,,,
16.29.09.111,14.4,3.6,0,17.0,,46679.2,21.42,-0.35,0.63,-0.64,5.9,-4.8,-12.5,35.38,,,,,,,,,,
16.29.09.124,-107.1,26.8,0,17.0,,41666.9,24.0,-0.34,0.66,-0.63,-2.5,-15.2,-8.4,35.38,,,,,,,,,,
16.29.09.132,-90.4,22.6,0,17.0,,54864.3,18.23,-0.32,0.65,-0.65,-11.5,-20.3,-5.0,35.38,,,,,,,,,,
16.29.09.144,-8.2,2.0,0,17.0,,45704.4,21.88,-0.33,0.67,-0.66,-20.1,-20.0,-0.8,35.38,,,,,,,,,,
16.29.09.157,-43.5,10.9,0,17.0,,45212.1,22.12,-0.32,0.64,-0.68,-28.6,-19.4,-0.8,35.38,,,,,,,,,,
16.29.09.165,-88.4,22.1,0,17.0,,47500.1,21.05,-0.33,0.61,-0.7,-33.9,-14.3,-3.9,35.38,,,,,,,,,,
16.29.09.177,-115.8,29.0,0,17.0,,48806.6,20.49,-0.35,0.6,-0.72,-37.0,-7.0,-8.1,35.38,,,,,,,,,,
16.29.09.185,-147.8,37.0,0,17.0,,46567.6,21.47,-0.37,0.59,-0.75,-38.4,-0.2,-13.1,35.38,,,,,,,,,,
16.29.09.198,-106.7,26.7,0,17.0,,47684.4,20.97,-0.38,0.6,-0.74,-37.2,4.7,-17.1,35.38,,,,,,,,,,
16.29.09.210,-112.5,28.1,0,17.0,,47451.1,21.07,-0.39,0.67,-0.71,-35.6,5.4,-18.6,35.38,,,,,,,,,,
16.29.09.218,-128.7,32.2,0,17.0,,47665.7,20.98,-0.39,0.67,-0.72,-36.3,4.1,-18.5,35.38,,,,,,,,,,
16.29.09.231,-192.2,48.0,0,17.0,,48608.4,20.57,-0.39,0.68,-0.73,-34.3,8.9,-16.4,35.38,,,,,,,,,,
16.29.09.243,-120.4,30.1,0,17.0,,54739.2,18.27,-0.4,0.68,-0.74,-31.2,9.8,-14.9,35.38,,,,,,,,,,
16.29.09.251,-143.8,36.0,0,17.0,,52434.1,19.07,-0.38,0.7,-0.69,-28.0,6.9,-15.1,35.38,,,,,,,,,,
16.29.09.263,-169.6,42.4,0,17.0,,48947.0,20.43,-0.37,0.68,-0.71,-23.7,11.8,-14.9,35.38,,,,,,,,,,
16.29.09.271,-181.1,45.3,0,17.0,,48358.1,20.68,-0.36,0.7,-0.67,-20.8,11.6,-15.6,35.38,,,,,,,,,,
16.29.09.284,-168.9,42.2,0,17.0,,44955.3,22.24,-0.35,0.72,-0.64,-20.7,12.2,-14.4,35.38,,,,,,,,,,
16.29.09.296,-200.9,50.2,0,17.0,,42156.8,23.72,-0.36,0.74,-0.61,-24.8,10.5,-11.8,35.38,,,,,,,,,,
16.29.09.308,29.3,7.3,1,18.0,114.3,48918.1,20.44,-0.36,0.74,-0.58,-28.5,10.6,-9.3,35.38,,,,,,,,,,
16.29.09.316,45.6,11.4,0,18.0,,49340.8,20.27,-0.37,0.73,-0.57,-31.8,13.4,-7.7,35.38,,,,,,,,,,
16.29.09.728,-76.1,19.0,0,18.0,,47512.4,21.05,-0.46,0.69,-0.45,-14.0,3.9,-7.7,35.38,,,,,,,,,,
16.29.09.729,-153.5,38.4,0,18.0,,38801.5,25.77,-0.46,0.69,-0.45,-14.0,3.9,-7.7,35.38,,,,,,,,,,
16.29.09.729,-85.9,21.5,0,18.0,,45325.0,22.06,-0.47,0.68,-0.46,-16.6,5.0,-6.2,35.38,,,,,,,,,,
16.29.09.738,-96.4,24.1,0,18.0,,47642.7,20.99,-0.46,0.67,-0.49,-17.2,8.0,-6.5,35.38,,,,,,,,,,
16.29.09.747,-113.2,28.3,0,18.0,,42638.8,23.45,-0.48,0.66,-0.54,-15.4,13.3,-6.6,35.38,,,,,,,,,,
16.29.09.759,-225.9,56.5,0,18.0,,49949.0,20.02,-0.5,0.62,-0.57,-8.7,17.4,-10.1,35.38,,,,,,,,,,
16.29.09.771,-189.4,47.4,0,18.0,,47239.0,21.17,-0.5,0.63,-0.59,0.0,18.7,-13.8,35.38,,,,,,,,,,
16.29.09.779,-165.3,41.3,0,18.0,,43883.3,22.79,-0.51,0.65,-0.58,7.2,18.4,-18.0,35.38,,,,,,,,,,
16.29.09.792,-174.0,43.5,0,18.0,,42631.4,23.46,-0.53,0.68,-0.54,9.4,15.8,-20.8,35.38,,,,,,,,,,
16.29.09.800,-176.7,44.2,0,18.0,,47160.3,21.2,-0.51,0.71,-0.54,8.9,15.6,-21.3,35.38,,,,,,,,,,
16.29.09.812,-189.5,47.4,0,18.0,,48689.3,20.54,-0.51,0.72,-0.58,5.1,18.7,-18.1,35.38,,,,,,,,,,
16.29.09.820,-189.5,47.4,0,18.0,,42692.3,23.42,-0.51,0.72,-0.56,4.2,17.2,-16.0,35.38,,,,,,,,,,
16.29.09.832,-6.8,1.7,1,19.0,117.2,45961.0,21.76,-0.51,0.67,-0.58,2.3,17.0,-15.5,35.38,,,,,,,,,,
16.29.09.845,209.8,52.4,0,19.0,,48463.6,20.63,-0.51,0.69,-0.59,2.4,20.1,-14.1,35.38,,,,,,,,,,
16.29.09.854,204.5,51.1,0,19.0,,43475.3,23.0,-0.52,0.68,-0.59,4.5,25.5,-14.0,35.38,,,,,,,,,,
16.29.09.866,271.2,67.8,0,19.0,,49912.9,20.03,-0.53,0.71,-0.57,5.4,26.5,-13.4,35.38,,,,,,,,,,
16.29.09.873,457.7,114.4,0,19.0,,47070.2,21.24,-0.56,0.7,-0.6,6.5,23.1,-16.5,35.38,,,,,,,,,,
16.29.09.886,397.9,99.5,0,19.0,,46588.6,21.46,-0.53,0.76,-0.54,0.1,24.6,-15.7,35.38,,,,,,,,,,
16.29.09.894,434.3,108.6,0,19.0,,49893.9,20.04,-0.52,0.7,-0.53,1.4,18.0,-18.5,35.38,,,,,,,,,,
16.29.09.910,530.4,132.6,0,19.0,,50583.7,19.77,-0.49,0.73,-0.54,-4.2,18.0,-18.3,35.38,115.6,,,,,,,,,
16.29.09.919,425.1,106.3,0,19.0,,43543.4,22.97,-0.51,0.56,-0.62,-0.1,32.7,-27.0,35.38,,,,,,,,,,
16.29.09.931,456.3,114.1,0,19.0,,50481.1,19.81,-0.45,0.56,-0.6,9.1,34.5,-32.0,35.38,,,,,,,,,,
16.29.09.939,527.6,131.9,0,19.0,,51525.1,19.41,-0.58,0.71,-0.48,25.4,23.1,-35.0,35.38,,,,,,,,,,
16.29.09.951,401.3,100.3,0,19.0,,44860.2,22.29,-0.52,0.68,-0.39,7.2,30.4,-32.0,35.38,,,,,,,,,,
16.29.09.964,320.3,80.1,0,19.0,,48947.2,20.43,-0.41,0.74,-0.59,-7.9,33.8,-22.3,35.38,,,,,,,,,,
16.29.09.972,316.7,79.2,0,19.0,,46364.3,21.57,-0.49,0.69,-0.57,-22.5,34.0,-18.5,35.38,,,,,,,,,,
16.29.09.984,253.2,63.3,0,19.0,,46886.9,21.33,-0.47,0.71,-0.61,-30.3,36.7,-9.5,35.38,,,,,,,,,,
16.29.09.992,129.1,32.3,0,19.0,,47779.5,20.93,-0.5,0.61,-0.64,-25.7,26.6,-6.5,35.38,,,,,,,,,,
16.29.10.005,28.9,7.2,0,19.0,,41683.1,23.99,-0.47,0.54,-0.7,-8.4,20.3,-11.3,35.38,,,,,,,,,,
16.29.10.013,25.5,6.4,0,19.0,,41451.1,24.12,-0.41,0.62,-0.67,6.1,22.9,-12.6,35.38,,,,,,,,,,
16.29.10.025,45.4,11.4,0,19.0,,41825.4,23.91,-0.37,0.7,-0.58,19.7,27.4,-10.2,35.38,,,,,,,,,,
16.29.10.038,51.8,13.0,0,19.0,,50824.5,19.68,-0.44,0.71,-0.53,20.7,21.5,-3.7,35.38,,,,,,,,,,
16.29.10.046,125.2,31.3,0,19.0,,48099.4,20.79,-0.39,0.8,-0.51,23.2,23.6,-7.5,35.38,,,,,,,,,,
16.29.10.058,44.3,11.1,0,19.0,,45896.6,21.79,-0.37,0.81,-0.5,20.9,20.1,-9.9,35.38,,,,,,,,,,
16.29.10.066,76.1,19.0,0,19.0,,51342.4,19.48,-0.39,0.78,-0.52,20.4,19.3,-10.4,35.38,,,,,,,,,,
16.29.10.078,33.2,8.3,0,19.0,,48805.0,20.49,-0.36,0.8,-0.55,19.4,21.3,-7.7,35.38,,,,,,,,,,
16.29.10.087,49.6,12.4,0,19.0,,49729.6,20.11,-0.39,0.77,-0.6,21.9,17.9,-6.4,35.38,,,,,,,,,,
16.29.10.099,29.3,7.3,0,19.0,,51636.4,19.37,-0.35,0.78,-0.6,18.5,20.0,-2.7,35.38,,,,,,,,,,
16.29.10.111,-13.5,3.4,0,19.0,,38665.4,25.86,-0.39,0.69,-0.75,12.5,40.7,1.8,35.38,,,,,,,,,,
16.29.10.120,-52.0,13.0,0,19.0,,46360.0,21.57,-0.33,0.77,-0.59,13.5,37.8,-2.1,35.38,,,,,,,,,,
16.29.10.132,0.2,0.0,0,19.0,,50329.8,19.87,-0.41,0.7,-0.74,2.4,37.5,6.1,35.38,,,,,,,,,,
16.29.10.140,-23.9,6.0,0,19.0,,49808.9,20.08,-0.48,0.69,-0.67,11.9,46.8,-0.2,35.38,,,,,,,,,,
16.29.10.152,8.8,2.2,0,19.0,,44210.7,22.62,-0.52,0.62,-0.6,14.8,36.3,-7.7,35.38,,,,,,,,,,
16.29.10.160,-41.8,10.4,0,19.0,,45721.0,21.87,-0.5,0.69,-0.64,10.9,34.1,-15.7,35.38,,,,,,,,,,
16.29.10.173,-54.9,13.7,0,19.0,,47497.0,21.05,-0.46,0.69,-0.61,7.8,32.3,-21.2,35.38,,,,,,,,,,
16.29.10.185,-84.4,21.1,0,19.0,,48218.2,20.74,-0.43,0.68,-0.61,-1.9,25.4,-14.4,35.38,,,,,,,,,,
16.29.10.193,-76.1,19.0,0,19.0,,48418.2,20.65,-0.39,0.64,-0.64,-11.5,26.2,-9.5,35.38,,,,,,,,,,
16.29.10.206,-120.1,30.0,0,19.0,,46781.0,21.38,-0.33,0.67,-0.58,-15.0,34.6,-3.3,35.38,,,,,,,,,,
16.29.10.214,-73.9,18.5,0,19.0,,45653.4,21.9,-0.38,0.57,-0.61,-18.9,33.2,-7.7,35.38,,,,,,,,,,
16.29.10.226,-115.3,28.8,0,19.0,,46147.3,21.67,-0.34,0.6,-0.6,-20.2,40.7,-5.5,35.38,,,,,,,,,,
16.29.10.238,-158.3,39.6,0,19.0,,53905.7,18.55,-0.35,0.59,-0.58,-20.0,47.4,-4.6,35.38,,,,,,,,,,
16.29.10.247,-117.8,29.4,0,19.0,,44310.6,22.57,-0.37,0.61,-0.61,-21.0,53.1,-3.5,35.38,,,,,,,,,,
16.29.10.259,-130.2,32.6,0,19.0,,45744.5,21.86,-0.37,0.63,-0.62,-23.4,54.8,-3.6,35.38,,,,,,,,,,
16.29.10.267,-118.2,29.6,0,19.0,,50188.5,19.92,-0.39,0.6,-0.61,-23.3,52.8,-3.1,35.38,,,,,,,,,,
16.29.10.279,-142.9,35.7,0,19.0,,46630.7,21.45,-0.42,0.55,-0.62,-18.6,41.0,-2.5,35.38,,,,,,,,,,
16.29.10.287,-122.8,30.7,0,19.0,,45958.3,21.76,-0.41,0.55,-0.69,-14.5,31.2,-4.7,35.38,,,,,,,,,,
16.29.10.299,-162.5,40.6,0,19.0,,45282.3,22.08,-0.43,0.52,-0.74,-8.0,19.7,-5.9,35.38,,,,,,,,,,
16.29.10.312,-118.4,29.6,0,19.0,,50003.1,20.0,-0.41,0.54,-0.77,0.9,15.1,-5.7,35.38,,,,,,,,,,
16.29.10.320,-193.0,48.2,0,19.0,,48444.3,20.64,-0.4,0.56,-0.74,1.6,17.8,-3.6,35.38,,,,,,,,,,
16.29.10.357,0.3,0.1,1,20.0,112.0,50577.5,19.77,-0.4,0.57,-0.73,2.9,25.3,-6.7,35.38,,,,,,,,,,
16.29.10.370,142.0,35.5,0,20.0,,46042.0,21.72,-0.35,0.63,-0.71,-3.1,20.2,-14.6,35.38,,,,,,,,,,
16.29.10.378,239.8,60.0,0,20.0,,52913.8,18.9,-0.33,0.6,-0.74,-13.6,20.9,-16.9,35.38,,,,,,,,,,
16.29.10.390,326.3,81.6,0,20.0,,45789.4,21.84,-0.31,0.57,-0.74,-23.4,20.5,-15.9,35.38,,,,,,,,,,
16.29.10.402,427.1,106.8,0,20.0,,46518.4,21.5,-0.33,0.51,-0.74,-24.3,24.5,-17.4,35.38,,,,,,,,,,
16.29.10.410,353.1,88.3,0,20.0,,52457.9,19.06,-0.28,0.52,-0.74,-22.0,26.5,-15.9,35.38,,,,,,,,,,
16.29.10.423,476.4,119.1,0,20.0,,47449.7,21.07,-0.3,0.56,-0.71,-25.4,26.8,-13.4,35.38,,,,,,,,,,
16.29.10.435,470.7,117.7,0,20.0,,47023.1,21.27,-0.34,0.55,-0.68,-29.1,23.4,-16.5,35.38,,,,,,,,,,
16.29.10.443,434.3,108.6,0,20.0,,42416.9,23.58,-0.31,0.64,-0.72,-29.9,22.4,-16.0,35.38,,,,,,,,,,
16.29.10.455,464.5,116.1,0,20.0,,46705.9,21.41,-0.37,0.6,-0.72,-28.1,22.1,-23.0,35.38,,,,,,,,,,
16.29.10.464,460.4,115.1,0,20.0,,51191.4,19.53,-0.39,0.61,-0.75,-28.5,25.0,-30.4,35.38,,,,,,,,,,
16.29.10.476,336.2,84.0,0,20.0,,44376.2,22.53,-0.34,0.64,-0.7,-23.9,24.1,-27.5,35.38,,,,,,,,,,
16.29.10.488,357.5,89.4,0,20.0,,40484.3,24.7,-0.3,0.68,-0.71,-22.1,27.6,-27.1,35.38,,,,,,,,,,
16.29.10.496,334.4,83.6,0,20.0,,47199.6,21.19,-0.3,0.65,-0.72,-24.6,24.2,-22.3,35.38,,,,,,,,,,
16.29.10.508,214.8,53.7,0,20.0,,41295.4,24.22,-0.29,0.59,-0.72,-6.0,20.2,-24.1,35.38,,,,,,,,,,
16.29.10.517,157.9,39.5,0,20.0,,49301.5,20.28,-0.26,0.63,-0.64,0.7,17.4,-22.5,35.38,,,,,,,,,,
16.29.10.529,23.0,5.8,0,20.0,,49429.3,20.23,-0.31,0.69,-0.6,9.5,7.9,-26.8,35.38,,,,,,,,,,
16.29.10.537,-8.9,2.2,0,20.0,,53557.9,18.67,-0.41,0.36,-0.91,22.2,9.0,-56.4,35.38,,,,,,,,,,
16.29.10.549,23.9,6.0,0,20.0,,49260.4,20.3,-0.08,0.78,-0.29,17.1,-42.9,-26.5,35.38,,,,,,,,,,
16.29.10.562,84.1,21.0,0,20.0,,48946.3,20.43,-0.38,0.69,-0.57,23.1,-3.1,-32.8,35.38,,,,,,,,,,
16.29.10.570,133.0,33.2,0,20.0,,44888.2,22.28,-0.21,0.85,-0.71,12.3,-5.5,-29.7,35.38,,,,,,,,,,
16.29.10.582,114.7,28.7,0,20.0,,41861.5,23.89,-0.3,0.72,-0.7,5.3,-5.3,-30.9,35.38,,,,,,,,,,
16.29.10.590,71.9,18.0,0,20.0,,45637.7,21.91,-0.28,0.72,-0.66,12.2,4.0,-30.3,35.38,,,,,,,,,,
16.29.10.603,40.7,10.2,0,20.0,,48742.0,20.52,-0.25,0.77,-0.62,17.0,-0.4,-29.2,35.38,,,,,,,,,,
16.29.10.611,81.3,20.3,0,20.0,,50437.2,19.83,-0.29,0.77,-0.6,17.7,-9.5,-24.6,35.38,,,,,,,,,,
16.29.10.623,67.7,16.9,0,20.0,,48695.5,20.54,-0.26,0.76,-0.68,15.6,-21.5,-18.4,35.38,,,,,,,,,,
16.29.10.636,1.7,0.4,0,20.0,,47901.9,20.88,-0.19,0.79,-0.7,9.8,-35.8,-5.8,35.38,,,,,,,,,,
16.29.10.644,24.6,6.2,0,20.0,,51352.0,19.47,-0.39,0.67,-0.7,9.9,-34.1,-14.8,35.38,,,,,,,,,,
16.29.10.656,-43.3,10.8,0,20.0,,46728.6,21.4,-0.47,0.45,-0.9,31.2,-16.3,-34.9,35.38,,,,,,,,,,
16.29.10.664,-74.4,18.6,0,20.0,,50160.3,19.94,-0.33,0.59,-0.64,4.8,-16.7,-6.9,35.38,,,,,,,,,,
16.29.10.677,-32.6,8.2,0,20.0,,44922.6,22.26,-0.36,0.66,-0.76,14.3,-2.8,-7.9,35.38,,,,,,,,,,
16.29.10.685,-123.6,30.9,0,20.0,,49881.1,20.05,-0.37,0.74,-0.7,1.9,-0.8,-1.2,35.38,,,,,,,,,,
16.29.10.697,-72.1,18.0,0,20.0,,45951.2,21.76,-0.36,0.7,-0.76,-8.5,7.5,-2.5,35.38,,,,,,,,,,
16.29.10.706,-48.2,12.0,0,20.0,,46584.1,21.47,-0.38,0.64,-0.79,-13.0,12.3,2.4,35.38,,,,,,,,,,
16.29.10.718,-14.6,3.6,0,20.0,,48559.6,20.59,-0.4,0.61,-0.79,-7.7,11.5,2.9,35.38,,,,,,,,,,
16.29.10.726,-18.7,4.7,0,20.0,,50389.9,19.85,-0.39,0.64,-0.73,-1.5,12.3,2.1,35.38,,,,,,,,,,
16.29.10.738,-111.5,27.9,0,20.0,,49064.1,20.38,-0.4,0.67,-0.72,-9.6,19.0,3.8,35.38,,,,,,,,,,
16.29.10.746,-88.6,22.2,0,20.0,,48878.8,20.46,-0.41,0.64,-0.73,-12.3,25.4,1.2,35.38,,,,,,,,,,
16.29.10.758,-124.2,31.0,0,20.0,,47155.9,21.21,-0.38,0.63,-0.77,-8.1,35.1,-4.5,35.38,,,,,,,,,,
16.29.10.767,-95.3,23.8,0,20.0,,48319.4,20.7,-0.41,0.62,-0.75,1.8,27.0,-8.6,35.38,,,,,,,,,,
16.29.10.779,-131.2,32.8,0,20.0,,43450.0,23.01,-0.42,0.68,-0.7,1.2,14.7,-6.5,35.38,,,,,,,,,,
16.29.10.787,-173.5,43.4,0,20.0,,49027.2,20.4,-0.46,0.7,-0.75,-5.7,7.8,-0.7,35.38,,,,,,,,,,
16.29.10.799,-134.2,33.6,0,20.0,,47511.7,21.05,-0.47,0.68,-0.8,-5.0,13.9,3.9,35.38,,,,,,,,,,
16.29.10.808,-174.3,43.6,0,20.0,,43084.1,23.21,-0.49,0.68,-0.77,-7.1,16.3,5.6,35.38,,,,,,,,,,
16.29.10.820,-95.3,23.8,0,20.0,,43270.0,23.11,-0.55,0.71,-0.77,-8.4,24.9,8.4,35.38,,,,,,,,,,
16.29.10.832,-220.6,55.2,0,20.0,,53036.8,18.85,-0.57,0.71,-0.73,-15.2,29.3,13.3,35.38,,,,,,,,,,
16.29.10.840,-93.1,23.3,0,20.0,,49407.0,20.24,-0.56,0.72,-0.76,-28.1,26.6,11.9,35.38,,,,,,,,,,
16.29.10.853,-129.0,32.2,0,20.0,,48620.6,20.57,-0.64,0.61,-0.78,-14.1,24.8,13.1,35.38,,,,,,,,,,
16.29.10.861,-179.5,44.9,0,20.0,,44324.1,22.56,-0.63,0.62,-0.78,-6.1,15.4,13.8,35.38,,,,,,,,,,
16.29.10.874,-5.1,1.3,1,21.0,113.7,52209.3,19.15,-0.57,0.64,-0.8,-0.6,7.3,19.6,35.38,,,,,,,,,,
16.29.10.881,73.6,18.4,0,21.0,,44254.9,22.6,-0.57,0.53,-0.87,-0.1,0.8,19.7,35.38,,,,,,,,,,
16.29.10.894,161.9,40.5,0,21.0,,47310.0,21.14,-0.5,0.56,-0.87,14.1,-0.5,15.1,35.38,,,,,,,,,,
16.29.10.902,279.7,69.9,0,21.0,,47545.3,21.03,-0.8,0.77,-0.74,6.1,-18.0,16.5,35.38,,,,,,,,,,
16.29.10.914,332.0,83.0,0,21.0,,38884.9,25.72,-0.46,0.62,-0.9,28.0,-1.1,-2.3,35.38,,,,,,,,,,
16.29.10.923,417.2,104.3,0,21.0,,46170.4,21.66,-0.6,0.73,-0.76,25.2,4.6,-8.8,35.38,,,,,,,,,,
16.29.10.935,432.9,108.2,0,21.0,,49458.8,20.22,-0.49,0.75,-0.72,14.5,-7.1,-11.7,35.38,,,,,,,,,,
16.29.10.943,446.5,111.6,0,21.0,,49026.0,20.4,-0.5,0.71,-0.65,4.1,-7.4,-3.9,35.38,,,,,,,,,,
16.29.10.955,552.2,138.0,0,21.0,,45991.4,21.74,-0.47,0.73,-0.63,-8.0,-1.0,-0.9,35.38,,,,,,,,,,
16.29.10.963,489.6,122.4,0,21.0,,46045.3,21.72,-0.47,0.76,-0.66,-16.2,5.0,3.6,35.38,,,,,,,,,,
16.29.10.976,433.2,108.3,0,21.0,,46546.8,21.48,-0.5,0.72,-0.67,-22.6,9.4,12.9,35.38,,,,,,,,,,
16.29.10.984,497.3,124.3,0,21.0,,47217.4,21.18,-0.52,0.69,-0.69,-29.4,3.5,19.8,35.38,,,,,,,,,,
16.29.10.996,452.9,113.2,0,21.0,,45717.4,21.87,-0.46,0.64,-0.65,-33.2,-0.9,19.9,35.38,,,,,,,,,,
16.29.11.004,373.3,93.3,0,21.0,,48268.1,20.72,-0.46,0.62,-0.68,-24.6,6.6,25.5,35.38,,,,,,,,,,
16.29.11.016,277.5,69.4,0,21.0,,48734.2,20.52,-0.55,0.59,-0.66,-20.2,-1.9,25.6,35.38,,,,,,,,,,
16.29.11.025,185.9,46.5,0,21.0,,49744.4,20.1,-0.54,0.57,-0.65,-17.3,4.7,15.2,35.38,,,,,,,,,,
16.29.11.037,92.1,23.0,0,21.0,,49347.1,20.26,-0.48,0.58,-0.61,-13.1,12.5,5.3,35.38,,,,,,,,,,
16.29.11.045,83.0,20.8,0,21.0,,51737.2,19.33,-0.44,0.58,-0.57,-7.3,12.1,4.7,35.38,,,,,,,,,,
16.29.11.058,-31.4,7.8,0,21.0,,45439.3,22.01,-0.44,0.59,-0.59,3.0,18.3,3.2,35.38,,,,,,,,,,
16.29.11.066,47.6,11.9,0,21.0,,47769.4,20.93,-0.42,0.61,-0.59,11.1,18.8,3.0,35.38,,,,,,,,,,
16.29.11.078,84.9,21.2,0,21.0,,44945.6,22.25,-0.42,0.59,-0.63,11.8,23.9,2.1,35.38,,,,,,,,,,
16.29.11.086,92.4,23.1,0,21.0,,46083.9,21.7,-0.35,0.56,-0.7,12.0,7.8,-2.6,35.38,,,,,,,,,,
16.29.11.098,123.7,30.9,0,21.0,,46638.4,21.44,-0.37,0.57,-0.59,15.7,27.0,-0.8,35.38,,,,,,,,,,
16.29.11.107,77.6,19.4,0,21.0,,45432.0,22.01,-0.41,0.61,-0.67,15.2,33.3,2.5,35.38,,,,,,,,,,
16.29.25.629,147.8,37.0,0,21.0,,,,,,,,,,35.38,114.5,,,,,,,,,
16.29.25.635,,,0,21.0,,,,,,,,,,35.38,,,,,,,,,,
16.29.25.635,99.2,24.8,0,21.0,,46706.5,21.41,-0.37,0.23,-0.94,-16.2,4.5,-5.3,35.38,,,,,,,,,,
16.29.25.654,45.0,11.2,0,21.0,,48493.5,20.62,-0.38,0.23,-0.95,-17.3,2.6,-2.0,35.38,,,,,,,,,,
16.29.25.662,23.7,5.9,0,21.0,,48321.3,20.69,-0.41,0.22,-0.91,-18.1,5.7,0.4,35.38,,,,,,,,,,
16.29.25.674,21.2,5.3,0,21.0,,46316.1,21.59,-0.4,0.23,-0.9,-14.9,3.8,-2.8,35.38,,,,,,,,,,
16.29.25.682,-26.2,6.6,0,21.0,,46569.1,21.47,-0.42,0.2,-0.9,-10.7,2.8,-4.4,35.38,,,,,,,,,,
16.29.25.695,-16.4,4.1,0,21.0,,53834.9,18.58,-0.4,0.21,-0.89,-8.8,3.0,-6.1,35.38,,,,,,,,,,
16.29.25.703,-48.7,12.2,0,21.0,,45128.4,22.16,-0.41,0.24,-0.93,-4.7,1.5,-8.4,35.38,,,,,,,,,,
16.29.25.715,-15.8,4.0,0,21.0,,45778.0,21.84,-0.41,0.24,-0.91,-3.4,1.3,-9.7,35.38,,,,,,,,,,
16.29.25.727,-46.2,11.6,0,21.0,,43721.0,22.87,-0.37,0.25,-0.91,-8.6,4.0,-8.9,35.38,,,,,,,,,,
16.29.25.737,-61.0,15.2,0,21.0,,49846.7,20.06,-0.39,0.24,-0.93,-12.8,3.4,-6.6,35.38,,,,,,,,,,
16.29.25.748,5.4,1.4,0,21.0,,42666.1,23.44,-0.38,0.22,-0.92,-14.2,5.0,-3.5,35.38,,,,,,,,,,
16.29.25.756,-51.5,12.9,0,21.0,,47618.8,21.0,-0.38,0.22,-0.95,-13.6,5.5,-0.5,35.38,,,,,,,,,,
16.29.25.768,-116.5,29.1,0,21.0,,43079.7,23.21,-0.38,0.2,-0.93,-8.8,3.7,1.2,35.38,,,,,,,,,,
16.29.25.781,-67.2,16.8,0,21.0,,52267.0,19.13,-0.4,0.2,-0.93,-3.6,2.4,0.8,35.38,,,,,,,,,,
16.29.25.789,-63.8,16.0,0,21.0,,40710.6,24.56,-0.41,0.21,-0.92,-1.8,3.1,-1.7,35.38,,,,,,,,,,
16.29.25.801,-112.2,28.0,0,21.0,,44077.5,22.69,-0.4,0.23,-0.92,-1.8,4.4,-3.7,35.38,,,,,,,,,,
16.29.25.809,-115.8,29.0,0,21.0,,45915.2,21.78,-0.42,0.23,-0.92,-0.6,4.3,-6.4,35.38,,,,,,,,,,
16.29.25.822,-135.5,33.9,0,21.0,,50432.0,19.83,-0.41,0.25,-0.92,1.6,3.3,-8.7,35.38,,,,,,,,,,
16.29.25.830,-93.5,23.4,0,21.0,,41118.5,24.32,-0.39,0.26,-0.9,-0.1,3.5,-8.9,35.38,,,,,,,,,,
16.29.25.842,-188.1,47.0,0,21.0,,46367.5,21.57,-0.4,0.26,-0.9,-4.8,4.1,-8.2,35.38,,,,,,,,,,
16.29.25.850,-164.2,41.0,0,21.0,,43998.7,22.73,-0.39,0.26,-0.91,-8.6,6.0,-6.8,35.38,,,,,,,,,,
16.29.25.863,-206.5,51.6,0,21.0,,47636.6,20.99,-0.39,0.23,-0.92,-12.2,8.2,-5.1,35.38,,,,,,,,,,
16.29.25.875,-173.0,43.2,0,21.0,,46717.4,21.41,-0.38,0.23,-0.92,-12.9,8.1,-2.3,35.38,,,,,,,,,,
16.29.25.883,-221.8,55.4,0,21.0,,46269.1,21.61,-0.39,0.22,-0.93,-10.1,9.5,-0.7,35.38,,,,,,,,,,
16.29.25.896,-230.7,57.7,0,21.0,,45948.6,21.76,-0.39,0.22,-0.93,-7.1,9.5,0.2,35.38,,,,,,,,,,
16.29.25.904,-174.5,43.6,0,21.0,,45786.5,21.84,-0.4,0.24,-0.93,-5.4,9.6,0.4,35.38,,,,,,,,,,
16.29.25.916,49.9,12.5,1,22.0,114.5,43071.3,23.22,-0.41,0.25,-0.92,-5.5,10.0,0.6,35.38,,,,,,,,,,
16.29.25.928,109.9,27.5,0,22.0,,39471.7,25.33,-0.41,0.24,-0.92,-3.7,10.7,-0.6,35.38,,,,,,,,,,
16.29.25.936,170.6,42.6,0,22.0,,45307.3,22.07,-0.41,0.24,-0.92,0.1,10.0,-3.1,35.38,,,,,,,,,,
16.29.25.949,300.7,75.2,0,22.0,,47394.5,21.1,-0.4,0.24,-0.92,1.4,9.6,-4.2,35.38,,,,,,,,,,
16.29.25.957,332.5,83.1,0,22.0,,48496.5,20.62,-0.39,0.23,-0.92,2.3,10.3,-4.6,35.38,,,,,,,,,,
16.29.25.969,468.3,117.1,0,22.0,,44608.2,22.42,-0.39,0.24,-0.91,3.2,10.1,-4.3,35.38,,,,,,,,,,
16.29.25.977,404.0,101.0,0,22.0,,49435.9,20.23,-0.38,0.25,-0.91,3.4,9.1,-3.2,35.38,,,,,,,,,,
16.29.25.990,537.8,134.4,0,22.0,,41648.6,24.01,-0.39,0.25,-0.9,2.4,9.7,-2.3,35.38,,,,,,,,,,
16.29.25.998,475.5,118.9,0,22.0,,47806.3,20.92,-0.38,0.26,-0.92,2.2,9.1,-0.9,35.38,,,,,,,,,,
16.29.26.014,491.8,123.0,0,22.0,,49788.6,20.08,-0.39,0.25,-0.9,-1.0,9.4,1.7,35.38,,,,,,,,,,
16.29.26.022,482.8,120.7,0,22.0,,46201.7,21.64,-0.39,0.25,-0.91,-3.3,9.6,1.9,35.38,,,,,,,,,,
16.29.26.035,402.1,100.5,0,22.0,,46034.9,21.72,-0.4,0.26,-0.91,-6.5,9.5,2.7,35.38,,,,,,,,,,
16.29.26.043,289.7,72.4,0,22.0,,47097.3,21.23,-0.4,0.25,-0.91,-8.1,8.9,2.3,35.38,,,,,,,,,,
16.29.26.055,298.7,74.7,0,22.0,,44673.1,22.38,-0.4,0.24,-0.9,-6.2,7.2,1.4,35.38,,,,,,,,,,
16.29.26.063,220.8,55.2,0,22.0,,51375.1,19.46,-0.4,0.24,-0.9,-2.3,6.3,-0.4,35.38,,,,,,,,,,
16.29.26.076,135.5,33.9,0,22.0,,44676.0,22.38,-0.4,0.23,-0.9,0.6,5.2,-1.8,35.38,,,,,,,,,,
16.29.26.084,86.7,21.7,0,22.0,,44865.3,22.29,-0.4,0.23,-0.91,4.2,4.8,-3.5,35.38,,,,,,,,,,
16.29.26.096,29.9,7.5,0,22.0,,49320.1,20.28,-0.39,0.24,-0.9,6.5,5.4,-4.7,35.38,,,,,,,,,,
16.29.26.104,41.4,10.4,0,22.0,,47056.9,21.25,-0.39,0.24,-0.9,6.0,5.5,-4.3,35.38,,,,,,,,,,
16.29.26.117,99.8,25.0,0,22.0,,47083.5,21.24,-0.38,0.24,-0.91,4.7,6.8,-3.5,35.38,,,,,,,,,,
16.29.26.125,116.5,29.1,0,22.0,,44288.4,22.58,-0.38,0.24,-0.9,2.9,7.7,-2.1,35.38,,,,,,,,,,
16.29.26.137,117.4,29.4,0,22.0,,43442.0,23.02,-0.39,0.24,-0.9,2.3,8.0,-0.9,35.38,,,,,,,,,,
16.29.26.149,63.1,15.8,0,22.0,,46362.8,21.57,-0.39,0.25,-0.91,0.4,7.3,0.2,35.38,,,,,,,,,,
16.29.26.158,27.4,6.8,0,22.0,,42737.5,23.4,-0.4,0.26,-0.91,-3.1,6.2,1.0,35.38,,,,,,,,,,
16.29.26.170,48.5,12.1,0,22.0,,48483.4,20.63,-0.4,0.26,-0.91,-6.7,4.7,1.0,35.38,,,,,,,,,,
16.29.26.178,77.5,19.4,0,22.0,,45029.1,22.21,-0.4,0.25,-0.91,-8.7,4.2,0.2,35.38,,,,,,,,,,
16.29.26.190,10.1,2.5,0,22.0,,44194.5,22.63,-0.39,0.25,-0.91,-10.1,4.0,0.1,35.38,,,,,,,,,,
16.29.26.199,-79.6,19.9,0,22.0,,50916.8,19.64,-0.39,0.23,-0.93,-8.0,4.4,0.8,35.38,,,,,,,,,,
16.29.26.211,-68.3,17.1,0,22.0,,48686.1,20.54,-0.39,0.23,-0.92,-5.2,5.4,0.6,35.38,,,,,,,,,,
16.29.26.219,31.9,8.0,0,22.0,,43370.5,23.06,-0.4,0.22,-0.92,-2.9,7.5,-0.5,35.38,,,,,,,,,,
16.29.26.232,-41.1,10.3,0,22.0,,43171.8,23.16,-0.41,0.23,-0.94,1.3,9.5,-2.8,35.38,,,,,,,,,,
16.29.26.240,-42.2,10.6,0,22.0,,43235.2,23.13,-0.4,0.23,-0.93,3.0,9.8,-4.9,35.38,,,,,,,,,,
16.29.26.252,1.3,0.3,0,22.0,,49032.0,20.39,-0.4,0.23,-0.91,3.2,9.8,-5.8,35.38,,,,,,,,,,
16.29.26.260,-9.0,2.2,0,22.0,,44734.5,22.35,-0.38,0.25,-0.91,1.7,9.1,-5.2,35.38,,,,,,,,,,
16.29.26.272,-59.3,14.8,0,22.0,,48975.1,20.42,-0.4,0.25,-0.93,0.9,5.9,-2.9,35.38,,,,,,,,,,
16.29.26.281,-57.5,14.4,0,22.0,,43768.7,22.85,-0.38,0.25,-0.89,-0.7,5.5,-2.7,35.38,,,,,,,,,,
16.29.26.293,-104.7,26.2,0,22.0,,48200.1,20.75,-0.39,0.25,-0.9,-3.4,2.9,-2.0,35.38,,,,,,,,,,
16.29.26.301,-117.5,29.4,0,22.0,,52987.2,18.87,-0.39,0.25,-0.89,-5.1,2.8,-2.3,35.38,,,,,,,,,,
16.29.26.317,-99.7,24.9,0,22.0,,46291.6,21.6,-0.4,0.24,-0.89,-6.4,2.4,-2.5,35.38,,,,,,,,,,
16.29.26.326,-139.3,34.8,0,22.0,,44433.7,22.51,-0.4,0.24,-0.91,-6.3,3.2,-3.5,35.38,,,,,,,,,,
16.29.26.338,-100.6,25.2,0,22.0,,44744.0,22.35,-0.39,0.25,-0.9,-5.4,5.2,-5.1,35.38,,,,,,,,,,
16.29.26.346,-100.5,25.1,0,22.0,,48863.3,20.47,-0.4,0.24,-0.92,-4.9,6.1,-6.2,35.38,,,,,,,,,,
16.29.26.358,-149.3,37.3,0,22.0,,43648.8,22.91,-0.38,0.25,-0.93,-4.3,7.7,-5.4,35.38,,,,,,,,,,
16.29.26.367,-110.8,27.7,0,22.0,,47370.0,21.11,-0.38,0.25,-0.92,-4.6,7.4,-3.9,35.38,,,,,,,,,,
16.29.26.379,-151.2,37.8,0,22.0,,53066.5,18.84,-0.39,0.26,-0.92,-3.6,6.5,-2.2,35.38,,,,,,,,,,
16.29.26.387,-133.0,33.2,0,22.0,,51564.4,19.39,-0.39,0.26,-0.92,-2.7,4.7,-0.8,35.38,,,,,,,,,,
16.29.26.399,-94.1,23.5,0,22.0,,49689.0,20.13,-0.4,0.27,-0.92,-2.2,2.9,-0.5,35.38,,,,,,,,,,
16.29.26.412,-156.1,39.0,0,22.0,,47396.4,21.1,-0.4,0.26,-0.91,-1.9,2.3,-1.1,35.38,,,,,,,,,,
16.29.26.420,-97.6,24.4,0,22.0,,44833.2,22.3,-0.4,0.25,-0.9,-0.2,1.9,-2.9,35.38,,,,,,,,,,
16.29.26.456,239.9,60.0,1,23.0,118.1,46391.6,21.56,-0.39,0.24,-0.91,2.2,1.4,-4.4,35.38,,,,,,,,,,
16.29.26.469,294.9,73.7,0,23.0,,39988.5,25.01,-0.39,0.26,-0.91,2.0,6.6,0.0,35.38,,,,,,,,,,
16.29.26.477,363.2,90.8,0,23.0,,44215.9,22.62,-0.39,0.26,-0.91,1.3,7.8,0.6,35.38,,,,,,,,,,
16.29.26.490,410.8,102.7,0,23.0,,51596.5,19.38,-0.39,0.26,-0.91,-0.1,6.2,1.1,35.38,,,,,,,,,,
16.29.26.498,425.1,106.3,0,23.0,,54502.0,18.35,-0.4,0.26,-0.9,-3.1,4.9,1.3,35.38,,,,,,,,,,
16.29.26.510,495.9,124.0,0,23.0,,46083.0,21.7,-0.39,0.26,-0.9,-6.1,3.9,1.5,35.38,,,,,,,,,,
16.29.26.518,472.7,118.2,0,23.0,,36928.8,27.08,-0.4,0.26,-0.91,-7.9,4.0,1.8,35.38,,,,,,,,,,
16.29.26.530,516.6,129.2,0,23.0,,46072.9,21.7,-0.4,0.27,-0.9,-9.7,1.8,1.9,35.38,,,,,,,,,,
16.29.26.539,435.0,108.8,0,23.0,,51150.4,19.55,-0.4,0.26,-0.88,-10.6,1.6,1.8,35.38,,,,,,,,,,
16.29.26.551,409.7,102.4,0,23.0,,49469.3,20.21,-0.4,0.26,-0.9,-12.2,1.8,2.3,35.38,,,,,,,,,,
16.29.26.563,386.3,96.6,0,23.0,,51087.2,19.57,-0.4,0.24,-0.91,-8.9,5.2,-0.1,35.38,,,,,,,,,,
16.29.26.571,324.2,81.0,0,23.0,,46409.1,21.55,-0.4,0.24,-0.89,-4.8,6.1,-2.3,35.38,,,,,,,,,,
16.29.26.584,204.2,51.0,0,23.0,,46835.8,21.35,-0.4,0.24,-0.91,-2.5,6.3,-4.5,35.38,,,,,,,,,,
16.29.26.592,147.9,37.0,0,23.0,,44127.9,22.66,-0.4,0.25,-0.91,-1.2,8.5,-6.3,35.38,,,,,,,,,,
16.29.26.604,72.8,18.2,0,23.0,,48397.7,20.66,-0.39,0.27,-0.9,0.2,9.0,-6.9,35.38,,,,,,,,,,
16.29.26.612,47.0,11.8,0,23.0,,45858.9,21.81,-0.39,0.27,-0.91,-0.3,8.1,-5.6,35.38,,,,,,,,,,
16.29.26.625,38.3,9.6,0,23.0,,47353.3,21.12,-0.42,0.33,-0.91,0.5,3.2,-7.2,35.38,,,,,,,,,,
16.29.26.633,31.9,8.0,0,23.0,,47794.6,20.92,-0.4,0.28,-0.89,-3.3,4.9,-1.9,35.38,,,,,,,,,,
16.29.26.645,79.9,20.0,0,23.0,,45694.2,21.88,-0.39,0.28,-0.9,-3.7,3.0,-0.8,35.38,,,,,,,,,,
16.29.26.653,65.9,16.5,0,23.0,,51352.5,19.47,-0.4,0.28,-0.9,-4.4,2.1,0.5,35.38,,,,,,,,,,
16.29.26.666,86.3,21.6,0,23.0,,48623.7,20.57,-0.4,0.27,-0.91,-4.0,2.7,0.7,35.38,,,,,,,,,,
16.29.26.678,84.6,21.2,0,23.0,,46010.1,21.73,-0.4,0.26,-0.91,-2.4,4.1,1.0,35.38,,,,,,,,,,
16.29.26.686,117.2,29.3,0,23.0,,44200.9,22.62,-0.39,0.27,-0.92,0.0,5.8,2.0,35.38,,,,,,,,,,
16.29.26.698,37.5,9.4,0,23.0,,43363.6,23.06,-0.39,0.27,-0.91,1.2,6.8,2.5,35.38,,,,,,,,,,
16.29.26.707,-13.9,3.5,0,23.0,,44209.2,22.62,-0.4,0.28,-0.91,1.9,8.1,2.3,35.38,,,,,,,,,,
16.29.26.715,17.1,4.3,0,23.0,,45342.0,22.05,-0.4,0.28,-0.9,1.7,8.9,2.3,35.38,,,,,,,,,,
16.29.26.727,-10.8,2.7,0,23.0,,44350.7,22.55,-0.4,0.27,-0.9,1.0,9.8,1.6,35.38,,,,,,,,,,
16.29.26.739,-37.8,9.4,0,23.0,,42671.7,23.43,-0.4,0.28,-0.9,0.1,9.2,0.7,35.38,,,,,,,,,,
16.29.26.748,1.1,0.3,0,23.0,,50342.6,19.86,-0.41,0.28,-0.9,0.1,8.8,-0.5,35.38,,,,,,,,,,
16.29.26.760,-49.4,12.4,0,23.0,,45631.1,21.91,-0.39,0.28,-0.91,-1.3,9.1,1.5,35.38,,,,,,,,,,
16.29.26.768,-18.8,4.7,0,23.0,,48953.6,20.43,-0.39,0.28,-0.91,-2.0,8.0,3.0,35.38,,,,,,,,,,
16.29.26.780,-31.0,7.8,0,23.0,,45552.1,21.95,-0.39,0.28,-0.9,-2.3,5.3,5.0,35.38,,,,,,,,,,
16.29.26.789,-17.6,4.4,0,23.0,,41821.8,23.91,-0.4,0.26,-0.9,-2.4,5.7,5.5,35.38,,,,,,,,,,
16.29.26.801,-104.0,26.0,0,23.0,,41506.6,24.09,-0.4,0.27,-0.9,-1.0,5.2,5.5,35.38,,,,,,,,,,
16.29.26.809,13.6,3.4,0,23.0,,43405.7,23.04,-0.41,0.27,-0.89,-0.7,4.7,4.6,35.38,,,,,,,,,,
16.29.26.821,-124.2,31.0,0,23.0,,48573.9,20.59,-0.41,0.27,-0.89,0.4,4.2,2.7,35.38,,,,,,,,,,
16.29.26.829,-83.0,20.8,0,23.0,,46684.3,21.42,-0.4,0.27,-0.89,-0.2,5.2,1.3,35.38,,,,,,,,,,
16.29.26.842,-110.5,27.6,0,23.0,,49400.2,20.24,-0.41,0.27,-0.89,-0.4,5.1,0.2,35.38,,,,,,,,,,
16.29.26.850,-138.8,34.7,0,23.0,,46339.5,21.58,-0.4,0.28,-0.9,-1.5,4.8,-0.2,35.38,,,,,,,,,,
16.29.26.862,-148.5,37.1,0,23.0,,45096.1,22.17,-0.4,0.28,-0.91,-1.0,6.1,-0.1,35.38,,,,,,,,,,
16.29.26.870,-151.8,38.0,0,23.0,,49094.4,20.37,-0.39,0.27,-0.89,-1.7,6.3,0.7,35.38,,,,,,,,,,
16.29.26.883,-162.4,40.6,0,23.0,,48635.2,20.56,-0.4,0.27,-0.9,-1.9,7.2,0.9,35.38,,,,,,,,,,
16.29.26.891,-148.9,37.2,0,23.0,,47482.4,21.06,-0.39,0.27,-0.9,-2.8,6.3,1.0,35.38,,,,,,,,,,
16.29.26.903,-165.4,41.4,0,23.0,,48973.1,20.42,-0.4,0.28,-0.89,-3.0,5.5,1.4,35.38,,,,,,,,,,
16.29.26.911,-240.4,60.1,0,23.0,,43291.5,23.1,-0.39,0.28,-0.89,-3.8,5.1,2.2,35.38,,,,,,,,,,
16.29.26.924,-179.1,44.8,0,23.0,,45928.5,21.77,-0.4,0.29,-0.88,-5.2,3.2,3.0,35.38,,,,,,,,,,
16.29.26.936,-171.0,42.8,0,23.0,,49632.9,20.15,-0.39,0.29,-0.88,-6.5,1.5,4.7,35.38,,,,,,,,,,
16.29.26.944,-199.4,49.8,0,23.0,,46636.3,21.44,-0.39,0.28,-0.88,-7.7,0.2,5.6,35.38,,,,,,,,,,
16.29.26.957,117.5,29.4,1,24.0,117.6,50002.5,20.0,-0.4,0.27,-0.89,-8.0,-0.3,5.5,35.38,,,,,,,,,,
16.29.26.965,164.7,41.2,0,24.0,,49141.7,20.35,-0.4,0.27,-0.9,-5.7,-0.1,4.8,35.38,,,,,,,,,,
16.29.26.977,299.5,74.9,0,24.0,,50321.2,19.87,-0.41,0.27,-0.91,-1.6,1.5,3.9,35.38,,,,,,,,,,
16.29.26.985,292.1,73.0,0,24.0,,51596.3,19.38,-0.41,0.27,-0.91,1.3,4.3,2.4,35.38,,,,,,,,,,
16.29.26.997,368.9,92.2,0,24.0,,44535.5,22.45,-0.41,0.27,-0.92,3.9,6.8,0.2,35.38,,,,,,,,,,
16.29.27.006,485.2,121.3,0,24.0,,54603.6,18.31,-0.4,0.27,-0.91,5.8,9.6,-1.6,35.38,,,,,,,,,,
16.29.27.018,397.9,99.5,0,24.0,,46894.5,21.32,-0.39,0.28,-0.9,5.8,9.6,-1.3,35.38,,,,,,,,,,
16.29.27.026,553.4,138.4,0,24.0,,47686.2,20.97,-0.39,0.29,-0.91,3.6,8.4,0.4,35.38,,,,,,,,,,
16.29.27.038,530.2,132.6,0,24.0,,50672.6,19.73,-0.39,0.29,-0.9,2.4,8.1,2.7,35.38,,,,,,,,,,
16.29.27.047,393.8,98.4,0,24.0,,47466.4,21.07,-0.31,0.26,-0.94,5.0,9.5,5.5,35.38,,,,,,,,,,
16.29.27.059,464.8,116.2,0,24.0,,48094.4,20.79,-0.37,0.23,-0.92,2.6,6.4,6.0,35.38,,,,,,,,,,
16.29.27.067,424.4,106.1,0,24.0,,50677.1,19.73,-0.41,0.27,-0.9,2.4,4.9,4.6,35.38,,,,,,,,,,
16.29.27.079,384.6,96.2,0,24.0,,41500.6,24.1,-0.41,0.27,-0.88,2.7,5.2,3.7,35.38,,,,,,,,,,
16.29.27.088,327.0,81.8,0,24.0,,49618.9,20.15,-0.4,0.27,-0.9,3.3,5.2,1.9,35.38,,,,,,,,,,
16.29.27.100,256.4,64.1,0,24.0,,46395.4,21.55,-0.39,0.26,-0.9,5.8,7.3,-0.3,35.38,,,,,,,,,,
16.29.27.108,132.3,33.1,0,24.0,,47769.2,20.93,-0.39,0.27,-0.9,7.3,8.4,-1.4,35.38,,,,,,,,,,
16.29.27.120,69.9,17.5,0,24.0,,49646.9,20.14,-0.39,0.27,-0.9,7.2,9.9,-2.9,35.38,,,,,,,,,,
16.29.27.129,65.8,16.4,0,24.0,,42291.5,23.65,-0.38,0.29,-0.91,6.1,9.1,-3.3,35.38,,,,,,,,,,
16.29.27.141,-4.8,1.2,0,24.0,,40495.2,24.69,-0.39,0.3,-0.9,3.2,9.1,-2.7,35.38,,,,,,,,,,
16.29.27.153,59.0,14.8,0,24.0,,52421.8,19.08,-0.38,0.3,-0.91,1.1,7.7,-1.5,35.38,,,,,,,,,,
16.29.27.161,38.9,9.7,0,24.0,,48778.6,20.5,-0.39,0.3,-0.9,-1.6,5.2,-0.1,35.38,,,,,,,,,,
16.29.27.174,116.3,29.1,0,24.0,,41426.1,24.14,-0.39,0.3,-0.9,-4.3,3.8,1.1,35.38,,,,,,,,,,
16.29.27.182,100.3,25.1,0,24.0,,53896.7,18.55,-0.39,0.27,-0.9,-6.0,3.8,1.4,35.38,,,,,,,,,,
16.29.27.194,65.1,16.3,0,24.0,,46557.6,21.48,-0.39,0.26,-0.91,-4.3,5.6,0.8,35.38,,,,,,,,,,
16.29.27.202,72.9,18.2,0,24.0,,47345.2,21.12,-0.39,0.26,-0.91,-1.8,6.7,0.5,35.38,,,,,,,,,,
16.29.27.215,77.6,19.4,0,24.0,,49508.3,20.2,-0.39,0.27,-0.9,1.0,7.7,-1.0,35.38,,,,,,,,,,
16.29.27.223,42.0,10.5,0,24.0,,47684.9,20.97,-0.39,0.28,-0.9,1.4,9.9,-1.8,35.38,,,,,,,,,,
16.29.27.260,-1.2,0.3,0,24.0,,40687.0,24.58,-0.38,0.29,-0.89,1.1,11.0,-2.0,35.38,,,,,,,,,,
16.29.27.272,-17.9,4.5,0,24.0,,39801.0,25.12,-0.39,0.3,-0.89,-4.7,3.7,2.1,35.38,,,,,,,,,,
16.29.27.280,-70.3,17.6,0,24.0,,55331.3,18.07,-0.39,0.29,-0.9,-5.3,3.2,2.3,35.38,,,,,,,,,,
16.29.27.292,-4.5,1.1,0,24.0,,49932.6,20.03,-0.39,0.28,-0.9,-4.6,3.3,1.7,35.38,,,,,,,,,,
16.29.27.301,-71.1,17.8,0,24.0,,47791.8,20.92,-0.39,0.27,-0.9,-3.3,4.0,1.0,35.38,,,,,,,,,,
16.29.27.313,-35.9,9.0,0,24.0,,44161.5,22.64,-0.4,0.3,-0.9,-2.3,6.6,-0.9,35.38,,,,,,,,,,
16.29.27.321,-25.9,6.5,0,24.0,,46952.1,21.3,-0.39,0.29,-0.9,0.1,6.3,-0.1,35.38,,,,,,,,,,
16.29.27.333,-15.7,3.9,0,24.0,,42760.6,23.39,-0.39,0.28,-0.9,0.4,6.4,-0.3,35.38,,,,,,,,,,
16.29.27.346,-42.2,10.6,0,24.0,,49238.6,20.31,-0.39,0.28,-0.9,0.8,8.0,-0.9,35.38,,,,,,,,,,
16.29.27.354,-145.1,36.3,0,24.0,,43729.0,22.87,-0.39,0.28,-0.9,1.5,7.6,-1.1,35.38,,,,,,,,,,
16.29.27.366,-84.5,21.1,0,24.0,,44809.0,22.32,-0.39,0.28,-0.9,0.8,6.4,-0.7,35.38,,,,,,,,,,
16.29.27.374,-110.3,27.6,0,24.0,,51709.0,19.34,-0.39,0.29,-0.91,-0.2,5.7,-0.4,35.38,,,,,,,,,,
16.29.27.387,-154.1,38.5,0,24.0,,45428.8,22.01,-0.39,0.29,-0.9,-1.6,5.2,-0.3,35.38,,,,,,,,,,
16.29.27.395,-146.1,36.5,0,24.0,,47501.6,21.05,-0.38,0.29,-0.89,-2.4,5.3,0.2,35.38,,,,,,,,,,
16.29.27.407,-113.3,28.3,0,24.0,,44643.6,22.4,-0.39,0.28,-0.89,-2.4,4.8,-0.2,35.38,,,,,,,,,,
16.29.27.415,-185.5,46.4,0,24.0,,45927.1,21.77,-0.39,0.28,-0.89,-1.9,4.5,-0.1,35.38,,,,,,,,,,
16.29.27.428,-61.2,15.3,0,24.0,,43784.2,22.84,-0.38,0.3,-0.89,-2.5,3.2,0.2,35.38,,,,,,,,,,
16.29.27.436,-149.3,37.3,0,24.0,,54283.4,18.42,-0.39,0.29,-0.89,-3.2,3.2,-0.5,35.38,,,,,,,,,,
16.29.27.449,-217.1,54.3,0,24.0,,43429.5,23.03,-0.39,0.29,-0.89,-4.3,3.1,-1.0,35.38,,,,,,,,,,
16.29.27.460,-161.3,40.3,0,24.0,,48173.1,20.76,-0.39,0.29,-0.89,-5.3,3.4,-1.0,35.38,,,,,,,,,,
16.29.27.469,52.4,13.1,1,25.0,114.7,48842.3,20.47,-0.39,0.28,-0.89,-5.5,3.5,-1.2,35.38,,,,,,,,,,
16.29.27.481,123.4,30.8,0,25.0,,47900.1,20.88,-0.39,0.29,-0.9,-5.8,3.7,-1.3,35.38,,,,,,,,,,
16.29.27.489,229.8,57.4,0,25.0,,46335.0,21.58,-0.4,0.29,-0.9,-5.4,3.7,-1.9,35.38,,,,,,,,,,
16.29.27.501,347.7,86.9,0,25.0,,46969.3,21.29,-0.4,0.3,-0.91,-5.8,3.8,-2.1,35.38,,,,,,,,,,
16.29.27.514,388.5,97.1,0,25.0,,48859.9,20.47,-0.39,0.3,-0.91,-5.1,3.8,-2.8,35.38,,,,,,,,,,
16.29.27.522,365.7,91.4,0,25.0,,42156.0,23.72,-0.39,0.3,-0.9,-5.0,3.5,-2.6,35.38,,,,,,,,,,
16.29.27.534,488.7,122.2,0,25.0,,42202.0,23.7,-0.39,0.28,-0.9,-3.9,4.2,-2.6,35.38,,,,,,,,,,
16.29.27.542,428.1,107.0,0,25.0,,44822.2,22.31,-0.4,0.29,-0.88,-3.2,4.5,-2.8,35.38,,,,,,,,,,
16.29.27.555,523.0,130.8,0,25.0,,45550.5,21.95,-0.4,0.29,-0.88,-2.3,4.4,-2.9,35.38,,,,,,,,,,
16.29.27.563,491.3,122.8,0,25.0,,44946.6,22.25,-0.4,0.29,-0.89,-0.9,4.9,-3.3,35.38,,,,,,,,,,
16.29.27.575,459.4,114.8,0,25.0,,46636.7,21.44,-0.39,0.29,-0.89,0.2,5.0,-3.3,35.38,,,,,,,,,,
16.29.27.587,433.7,108.4,0,25.0,,45784.7,21.84,-0.39,0.3,-0.88,-0.6,4.9,-3.6,35.38,,,,,,,,,,
16.29.27.596,376.6,94.2,0,25.0,,45702.6,21.88,-0.39,0.31,-0.88,-2.4,4.5,-3.9,35.38,,,,,,,,,,
16.29.27.608,283.7,70.9,0,25.0,,44601.7,22.42,-0.4,0.32,-0.88,-4.7,4.2,-3.7,35.38,,,,,,,,,,
16.29.27.616,205.6,51.4,0,25.0,,47263.4,21.16,-0.39,0.31,-0.9,-7.7,4.6,-2.7,35.38,,,,,,,,,,
16.29.27.628,145.4,36.4,0,25.0,,46952.4,21.3,-0.39,0.3,-0.89,-7.1,4.4,-1.1,35.38,,,,,,,,,,
16.29.27.637,119.3,29.8,0,25.0,,49378.5,20.25,-0.39,0.3,-0.89,-6.1,3.3,-0.2,35.38,,,,,,,,,,
16.29.27.649,34.7,8.7,0,25.0,,44428.8,22.51,-0.39,0.3,-0.89,-4.9,2.4,0.9,35.38,,,,,,,,,,
16.29.27.657,21.4,5.4,0,25.0,,46064.2,21.71,-0.4,0.3,-0.89,-4.8,2.4,0.9,35.38,,,,,,,,,,
16.29.27.669,92.9,23.2,0,25.0,,41475.7,24.11,-0.4,0.29,-0.89,-3.2,3.3,0.0,35.38,,,,,,,,,,
16.29.27.678,104.9,26.2,0,25.0,,50498.4,19.8,-0.4,0.29,-0.9,-0.2,4.8,-1.6,35.38,,,,,,,,,,
16.29.27.690,76.5,19.1,0,25.0,,49056.7,20.38,-0.4,0.29,-0.9,2.8,5.3,-3.4,35.38,,,,,,,,,,
16.29.27.702,111.0,27.8,0,25.0,,51606.4,19.38,-0.39,0.3,-0.9,4.9,6.6,-4.6,35.38,,,,,,,,,,
16.29.27.714,49.2,12.3,0,25.0,,49068.7,20.38,-0.38,0.32,-0.9,4.1,6.6,-3.6,35.38,,,,,,,,,,
16.29.27.723,82.3,20.6,0,25.0,,47682.3,20.97,-0.39,0.32,-0.89,2.9,6.1,-2.7,35.38,,,,,,,,,,
16.29.27.735,43.0,10.8,0,25.0,,47707.5,20.96,-0.39,0.32,-0.89,0.7,5.3,-1.9,35.38,,,,,,,,,,
16.29.27.743,54.6,13.6,0,25.0,,49488.9,20.21,-0.39,0.31,-0.89,-0.8,4.9,-1.9,35.38,,,,,,,,,,
16.29.27.755,-16.1,4.0,0,25.0,,45066.7,22.19,-0.4,0.31,-0.89,-1.8,4.7,-2.5,35.38,,,,,,,,,,
16.29.27.764,-18.4,4.6,0,25.0,,48320.2,20.7,-0.39,0.31,-0.89,-2.1,4.6,-4.0,35.38,,,,,,,,,,
16.29.27.776,-6.5,1.6,0,25.0,,49994.1,20.0,-0.39,0.31,-0.89,-2.2,5.2,-5.0,35.38,,,,,,,,,,
16.29.27.788,-52.2,13.0,0,25.0,,45633.2,21.91,-0.39,0.31,-0.89,-3.5,4.3,-5.2,35.38,,,,,,,,,,
16.29.27.796,-26.3,6.6,0,25.0,,45702.8,21.88,-0.39,0.32,-0.89,-3.9,4.1,-5.0,35.38,,,,,,,,,,
16.29.27.809,-48.3,12.1,0,25.0,,39799.2,25.13,-0.38,0.33,-0.9,-6.3,3.1,-3.6,35.38,,,,,,,,,,
16.29.27.817,-59.2,14.8,0,25.0,,48298.6,20.7,-0.38,0.33,-0.89,-8.3,2.3,-1.7,35.38,,,,,,,,,,
16.29.27.829,-77.5,19.4,0,25.0,,51667.4,19.35,-0.39,0.32,-0.89,-8.5,2.7,-1.0,35.38,,,,,,,,,,
16.29.27.837,-18.7,4.7,0,25.0,,47325.3,21.13,-0.39,0.31,-0.9,-8.1,4.3,-1.2,35.38,,,,,,,,,,
16.29.27.850,-96.9,24.2,0,25.0,,46548.0,21.48,-0.39,0.3,-0.9,-6.4,6.3,-2.1,35.38,,,,,,,,,,
16.29.27.858,-101.0,25.2,0,25.0,,43459.1,23.01,-0.39,0.3,-0.91,-4.2,7.7,-3.0,35.38,,,,,,,,,,
16.29.27.870,-68.9,17.2,0,25.0,,50491.2,19.81,-0.4,0.3,-0.91,-2.1,9.5,-3.8,35.38,,,,,,,,,,
16.29.27.882,-88.0,22.0,0,25.0,,50141.2,19.94,-0.39,0.31,-0.9,-0.6,10.1,-4.3,35.38,,,,,,,,,,
16.29.27.891,-127.4,31.8,0,25.0,,50937.3,19.63,-0.4,0.32,-0.9,-0.8,9.9,-3.7,35.38,,,,,,,,,,
16.29.27.903,-97.8,24.4,0,25.0,,50281.0,19.89,-0.39,0.33,-0.89,-1.6,8.9,-3.1,35.38,,,,,,,,,,
16.29.27.911,-155.4,38.8,0,25.0,,49409.6,20.24,-0.39,0.33,-0.89,-1.8,7.3,-1.9,35.38,,,,,,,,,,
16.29.27.923,-166.4,41.6,0,25.0,,43427.6,23.03,-0.39,0.32,-0.88,-2.7,6.5,-0.8,35.38,,,,,,,,,,
16.29.27.932,-171.9,43.0,0,25.0,,42471.7,23.55,-0.4,0.32,-0.88,-2.7,5.8,-0.4,35.38,,,,,,,,,,
16.29.27.944,-143.4,35.8,0,25.0,,47320.7,21.13,-0.4,0.32,-0.87,-2.8,6.6,-0.8,35.38,,,,,,,,,,
16.29.27.956,-151.4,37.8,0,25.0,,47433.0,21.08,-0.4,0.3,-0.88,-1.6,7.7,-1.6,35.38,,,,,,,,,,
16.29.27.964,-161.7,40.4,0,25.0,,40088.6,24.94,-0.4,0.31,-0.88,-0.1,8.3,-2.0,35.38,,,,,,,,,,
16.29.27.977,-166.3,41.6,0,25.0,,49134.5,20.35,-0.4,0.32,-0.89,-0.7,8.4,-2.4,35.38,,,,,,,,,,
16.29.27.985,-38.1,9.5,1,26.0,117.8,52091.3,19.2,-0.4,0.32,-0.88,-1.6,8.6,-3.1,35.38,,,,,,,,,,
16.29.27.997,64.5,16.1,0,26.0,,50508.1,19.8,-0.4,0.32,-0.89,-3.5,8.8,-2.4,35.38,,,,,,,,,,
16.29.28.005,229.5,57.4,0,26.0,,48698.7,20.53,-0.4,0.32,-0.88,-4.3,6.9,-1.8,35.38,,,,,,,,,,
16.29.28.018,221.1,55.3,0,26.0,,44677.1,22.38,-0.39,0.32,-0.88,-3.7,6.4,-1.2,35.38,,,,,,,,,,
16.29.28.030,303.5,75.9,0,26.0,,43672.6,22.9,-0.39,0.31,-0.87,-3.3,5.8,-0.4,35.38,,,,,,,,,,
16.29.28.067,502.0,125.5,0,26.0,,46660.1,21.43,-0.4,0.31,-0.88,-1.7,6.1,-0.6,35.38,,,,,,,,,,
16.29.28.075,476.5,119.1,0,26.0,,51228.7,19.52,-0.41,0.32,-0.86,-0.8,4.4,-2.9,35.38,,,,,,,,,,
16.29.28.087,438.0,109.5,0,26.0,,50169.7,19.93,-0.4,0.33,-0.87,-1.5,5.0,-3.0,35.38,,,,,,,,,,
16.29.28.095,434.7,108.7,0,26.0,,41242.9,24.25,-0.4,0.32,-0.87,-2.6,4.9,-2.8,35.38,,,,,,,,,,
16.29.28.108,475.4,118.8,0,26.0,,44447.6,22.5,-0.41,0.32,-0.89,-2.9,5.3,-2.8,35.38,,,,,,,,,,
16.29.28.120,352.0,88.0,0,26.0,,39100.0,25.58,-0.4,0.32,-0.88,-2.9,5.2,-2.7,35.38,,,,,,,,,,
16.29.28.128,276.6,69.2,0,26.0,,43137.8,23.18,-0.41,0.32,-0.88,-2.3,5.0,-2.7,35.38,,,,,,,,,,
16.29.28.140,195.5,48.9,0,26.0,,45798.1,21.83,-0.41,0.32,-0.89,-2.4,4.7,-3.3,35.38,,,,,,,,,,
16.29.28.149,106.7,26.7,0,26.0,,43782.3,22.84,-0.4,0.32,-0.88,-2.6,4.8,-2.8,35.38,,,,,,,,,,
16.29.28.161,29.4,7.4,0,26.0,,48235.8,20.73,-0.4,0.33,-0.89,-2.5,5.4,-2.2,35.38,,,,,,,,,,
16.29.28.169,22.5,5.6,0,26.0,,48198.8,20.75,-0.4,0.33,-0.89,-2.0,5.5,-1.9,35.38,,,,,,,,,,
16.29.28.181,89.7,22.4,0,26.0,,47902.8,20.88,-0.4,0.32,-0.89,-2.0,6.8,-1.9,35.38,,,,,,,,,,
16.29.28.194,30.4,7.6,0,26.0,,51653.2,19.36,-0.4,0.32,-0.88,-0.5,7.3,-1.7,35.38,,,,,,,,,,
16.29.28.202,128.7,32.2,0,26.0,,48134.3,20.78,-0.4,0.32,-0.88,0.3,7.7,-1.8,35.38,,,,,,,,,,
16.29.28.214,123.4,30.8,0,26.0,,46560.8,21.48,-0.4,0.33,-0.88,0.5,7.6,-1.4,35.38,,,,,,,,,,
16.29.28.222,85.4,21.4,0,26.0,,46472.0,21.52,-0.4,0.32,-0.88,0.8,7.9,-1.7,35.38,,,,,,,,,,
16.29.28.235,72.9,18.2,0,26.0,,48820.9,20.48,-0.4,0.32,-0.87,1.7,7.7,-2.2,35.38,,,,,,,,,,
16.29.28.243,93.4,23.4,0,26.0,,48270.6,20.72,-0.39,0.33,-0.88,1.3,7.0,-1.7,35.38,,,,,,,,,,
16.29.28.255,31.6,7.9,0,26.0,,50322.8,19.87,-0.39,0.33,-0.87,0.2,5.8,-1.3,35.38,,,,,,,,,,
16.29.28.263,55.8,14.0,0,26.0,,40849.8,24.48,-0.4,0.34,-0.87,-0.8,5.2,-1.5,35.38,,,,,,,,,,
16.29.28.276,-20.3,5.1,0,26.0,,51286.1,19.5,-0.4,0.33,-0.87,-1.3,4.0,-1.6,35.38,,,,,,,,,,
16.29.28.284,22.0,5.5,0,26.0,,42608.5,23.47,-0.4,0.33,-0.87,-1.5,3.5,-2.1,35.38,,,,,,,,,,
16.29.28.296,-50.4,12.6,0,26.0,,48194.0,20.75,-0.39,0.33,-0.88,-1.2,2.8,-2.0,35.38,,,,,,,,,,
16.29.28.304,-34.4,8.6,0,26.0,,49347.7,20.26,-0.39,0.33,-0.89,-0.6,3.6,-1.7,35.38,,,,,,,,,,
16.29.28.317,-76.7,19.2,0,26.0,,48484.4,20.63,-0.4,0.32,-0.89,-0.2,5.2,-1.0,35.38,,,,,,,,,,
16.29.28.329,-100.4,25.1,0,26.0,,47536.7,21.04,-0.39,0.32,-0.89,0.8,6.7,-1.3,35.38,,,,,,,,,,
16.29.28.337,-37.0,9.2,0,26.0,,47971.1,20.85,-0.4,0.32,-0.89,0.5,7.5,-1.5,35.38,,,,,,,,,,
16.29.28.349,-130.1,32.5,0,26.0,,44459.5,22.49,-0.4,0.33,-0.89,0.0,7.9,-2.0,35.38,,,,,,,,,,
16.29.28.358,-45.3,11.3,0,26.0,,47485.2,21.06,-0.39,0.32,-0.88,-1.0,7.5,-1.9,35.38,,,,,,,,,,
16.29.28.370,-133.8,33.4,0,26.0,,48677.4,20.54,-0.39,0.33,-0.88,-1.0,6.4,-1.8,35.38,,,,,,,,,,
16.29.28.378,-132.3,33.1,0,26.0,,49103.0,20.37,-0.39,0.33,-0.88,-1.7,4.7,-1.0,35.38,,,,,,,,,,
16.29.28.390,-110.8,27.7,0,26.0,,47601.9,21.01,-0.39,0.33,-0.87,-2.2,4.3,-0.6,35.38,,,,,,,,,,
16.29.28.399,-82.0,20.5,0,26.0,,49935.6,20.03,-0.39,0.32,-0.87,-1.4,5.3,-0.1,35.38,,,,,,,,,,
16.29.28.411,-113.2,28.3,0,26.0,,50254.9,19.9,-0.4,0.32,-0.87,-0.3,5.8,0.2,35.38,,,,,,,,,,
16.29.28.419,-163.9,41.0,0,26.0,,48835.8,20.48,-0.4,0.32,-0.87,0.5,6.2,0.3,35.38,,,,,,,,,,
16.29.28.431,-133.7,33.4,0,26.0,,48158.2,20.76,-0.4,0.33,-0.88,1.0,6.3,-0.5,35.38,,,,,,,,,,
16.29.28.439,-92.6,23.2,0,26.0,,42917.5,23.3,-0.4,0.33,-0.88,0.9,6.3,-0.9,35.38,,,,,,,,,,
16.29.28.452,-151.2,37.8,0,26.0,,43280.4,23.11,-0.4,0.33,-0.89,0.1,5.4,-1.1,35.38,,,,,,,,,,
16.29.28.464,-197.7,49.4,0,26.0,,51277.3,19.5,-0.39,0.33,-0.87,-1.1,3.9,-0.5,35.38,,,,,,,,,,
16.29.28.472,-191.8,48.0,0,26.0,,47202.1,21.19,-0.4,0.33,-0.88,-2.2,2.7,-0.5,35.38,,,,,,,,,,
16.29.28.485,-218.2,54.6,0,26.0,,49749.5,20.1,-0.39,0.33,-0.88,-3.1,1.9,0.1,35.38,,,,,,,,,,
16.29.28.493,-170.9,42.7,0,26.0,,52009.2,19.23,-0.39,0.32,-0.87,-3.3,0.8,-0.1,35.38,,,,,,,,,,
16.29.28.505,11.7,2.9,1,27.0,116.7,46526.8,21.49,-0.4,0.32,-0.87,-2.8,1.0,-0.9,35.38,,,,,,,,,,
16.29.28.513,66.3,16.6,0,27.0,,50851.1,19.67,-0.39,0.32,-0.87,-2.1,1.2,-0.7,35.38,,,,,,,,,,
16.29.28.526,167.7,41.9,0,27.0,,46026.5,21.73,-0.39,0.33,-0.88,-1.1,2.1,-1.0,35.38,,,,,,,,,,
16.29.28.534,282.0,70.5,0,27.0,,42877.8,23.32,-0.4,0.32,-0.87,-0.6,4.7,-1.6,35.38,,,,,,,,,,
16.29.28.546,330.9,82.7,0,27.0,,48719.3,20.53,-0.4,0.32,-0.87,0.2,5.8,-1.7,35.38,,,,,,,,,,
16.29.28.554,387.3,96.8,0,27.0,,50831.5,19.67,-0.4,0.32,-0.87,0.8,5.9,-2.4,35.38,,,,,,,,,,
16.29.28.566,461.8,115.4,0,27.0,,51304.3,19.49,-0.41,0.33,-0.88,0.4,6.2,-3.5,35.38,,,,,,,,,,
16.29.28.575,442.1,110.5,0,27.0,,47442.7,21.08,-0.41,0.34,-0.87,0.0,4.7,-4.5,35.38,,,,,,,,,,
16.29.28.587,481.4,120.4,0,27.0,,45652.2,21.9,-0.4,0.34,-0.87,-1.7,4.3,-5.0,35.38,,,,,,,,,,
16.29.28.595,435.3,108.8,0,27.0,,44027.2,22.71,-0.39,0.34,-0.88,-2.9,4.5,-4.3,35.38,,,,,,,,,,
16.29.28.607,493.2,123.3,0,27.0,,44144.9,22.65,-0.39,0.34,-0.88,-3.3,4.4,-2.8,35.38,,,,,,,,,,
16.29.28.616,475.4,118.8,0,27.0,,47881.1,20.89,-0.39,0.34,-0.89,-2.7,4.2,-1.3,35.38,,,,,,,,,,
16.29.28.628,376.1,94.0,0,27.0,,55966.9,17.87,-0.4,0.34,-0.88,-2.7,4.1,-0.6,35.38,,,,,,,,,,
16.29.28.636,361.8,90.4,0,27.0,,48492.9,20.62,-0.41,0.34,-0.89,-2.9,4.5,-0.9,35.38,,,,,,,,,,
16.29.28.648,302.8,75.7,0,27.0,,48030.3,20.82,-0.41,0.34,-0.89,-2.0,5.4,-1.9,35.38,,,,,,,,,,
16.29.28.661,209.2,52.3,0,27.0,,48683.7,20.54,-0.41,0.33,-0.89,0.0,5.9,-2.8,35.38,,,,,,,,,,
16.29.28.669,69.4,17.4,0,27.0,,46334.0,21.58,-0.4,0.33,-0.9,2.0,6.6,-2.8,35.38,,,,,,,,,,
16.29.28.681,88.1,22.0,0,27.0,,49438.4,20.23,-0.41,0.35,-0.9,2.7,7.0,-2.7,35.38,,,,,,,,,,
16.29.28.693,64.1,16.0,0,27.0,,46091.4,21.7,-0.41,0.36,-0.9,2.2,8.4,-2.9,35.38,,,,,,,,,,
16.29.28.702,53.4,13.4,0,27.0,,51630.5,19.37,-0.4,0.36,-0.89,0.6,8.9,-3.1,35.38,,,,,,,,,,
16.29.28.714,107.5,26.9,0,27.0,,45201.2,22.12,-0.4,0.36,-0.89,-0.8,8.0,-2.9,35.38,,,,,,,,,,
16.29.28.722,88.9,22.2,0,27.0,,45548.2,21.95,-0.4,0.35,-0.88,-1.6,7.4,-2.2,35.38,,,,,,,,,,
16.29.28.734,179.4,44.8,0,27.0,,47816.3,20.91,-0.39,0.34,-0.88,-1.5,6.7,-1.8,35.38,,,,,,,,,,
16.29.28.743,86.0,21.5,0,27.0,,46537.2,21.49,-0.39,0.35,-0.87,-1.6,5.6,-1.3,35.38,,,,,,,,,,
16.29.28.755,126.3,31.6,0,27.0,,49691.2,20.12,-0.4,0.35,-0.87,-2.8,5.1,-1.1,35.38,,,,,,,,,,
16.29.28.767,73.1,18.3,0,27.0,,49105.8,20.36,-0.4,0.35,-0.86,-2.8,4.9,-1.3,35.38,,,,,,,,,,
16.29.28.775,12.4,3.1,0,27.0,,47287.9,21.15,-0.4,0.34,-0.86,-3.3,4.5,-2.8,35.38,,,,,,,,,,
16.29.28.788,-8.6,2.2,0,27.0,,47373.7,21.11,-0.39,0.35,-0.86,-3.9,4.1,-4.0,35.38,,,,,,,,,,
16.29.28.796,7.1,1.8,0,27.0,,46640.1,21.44,-0.4,0.36,-0.86,-5.9,3.3,-4.4,35.38,,,,,,,,,,
16.29.28.808,-45.9,11.5,0,27.0,,47167.1,21.2,-0.4,0.36,-0.87,-7.0,3.1,-4.9,35.38,,,,,,,,,,
16.29.28.816,-42.6,10.6,0,27.0,,41257.4,24.24,-0.39,0.36,-0.87,-8.1,2.5,-4.5,35.38,,,,,,,,,,
16.29.28.829,-42.1,10.5,0,27.0,,41459.3,24.12,-0.39,0.35,-0.87,-8.6,2.0,-3.7,35.38,,,,,,,,,,
16.29.28.866,-93.9,23.5,0,27.0,,40689.9,24.58,-0.39,0.34,-0.88,-8.5,2.3,-2.5,35.38,,,,,,,,,,
16.29.28.874,-68.2,17.0,0,27.0,,48067.2,20.8,-0.41,0.35,-0.88,-3.5,2.3,0.5,35.38,,,,,,,,,,
16.29.28.886,-78.3,19.6,0,27.0,,49496.0,20.2,-0.41,0.35,-0.9,-2.4,3.7,0.0,35.38,,,,,,,,,,
16.29.28.898,-90.4,22.6,0,27.0,,44151.2,22.65,-0.41,0.34,-0.88,-1.7,4.7,-0.5,35.38,,,,,,,,,,
16.29.28.907,-97.4,24.4,0,27.0,,47965.6,20.85,-0.41,0.35,-0.89,-1.5,6.1,-0.5,35.38,,,,,,,,,,
16.29.28.919,-117.4,29.4,0,27.0,,51572.2,19.39,-0.41,0.35,-0.88,-1.9,7.3,-1.2,35.38,,,,,,,,,,
16.29.28.927,-140.5,35.1,0,27.0,,49016.6,20.4,-0.41,0.35,-0.88,-3.2,8.0,-1.1,35.38,,,,,,,,,,
16.29.28.939,-114.1,28.5,0,27.0,,44938.6,22.25,-0.4,0.35,-0.87,-4.9,8.9,-1.3,35.38,,,,,,,,,,
16.29.28.948,-205.4,51.4,0,27.0,,41804.2,23.92,-0.41,0.34,-0.87,-5.2,8.0,-1.2,35.38,,,,,,,,,,
16.29.28.960,-115.0,28.8,0,27.0,,47253.2,21.16,-0.4,0.35,-0.87,-6.3,8.6,-1.5,35.38,,,,,,,,,,
16.29.28.972,-176.7,44.2,0,27.0,,47979.3,20.84,-0.41,0.35,-0.87,-7.6,7.0,-0.8,35.38,,,,,,,,,,
16.29.28.980,-209.6,52.4,0,27.0,,46489.7,21.51,-0.41,0.35,-0.87,-8.7,5.7,-1.0,35.38,,,,,,,,,,
16.29.28.993,-154.4,38.6,0,27.0,,43979.7,22.74,-0.41,0.35,-0.85,-9.7,4.4,-1.7,35.38,,,,,,,,,,
16.29.29.001,-148.0,37.0,0,27.0,,50336.8,19.87,-0.4,0.31,-0.86,-7.3,6.2,-2.6,35.38,,,,,,,,,,
16.29.29.013,-255.4,63.8,0,27.0,,50524.1,19.79,-0.4,0.32,-0.86,-4.1,7.0,-2.3,35.38,,,,,,,,,,
16.29.29.021,-153.9,38.5,0,27.0,,48587.9,20.58,-0.4,0.34,-0.85,-1.8,7.2,-2.1,35.38,,,,,,,,,,
16.29.29.033,90.1,22.5,1,28.0,116.4,41960.1,23.83,-0.4,0.35,-0.85,-2.6,7.9,-1.7,35.38,,,,,,,,,,
16.29.29.046,175.5,43.9,0,28.0,,44570.1,22.44,-0.41,0.36,-0.84,-4.5,7.3,-1.4,35.38,,,,,,,,,,
16.29.29.054,233.6,58.4,0,28.0,,49542.1,20.18,-0.41,0.36,-0.84,-6.6,5.6,-0.3,35.38,,,,,,,,,,
16.29.29.066,354.8,88.7,0,28.0,,47052.5,21.25,-0.41,0.34,-0.85,-5.2,5.3,-0.5,35.38,,,,,,,,,,
16.29.29.074,352.0,88.0,0,28.0,,43447.1,23.02,-0.4,0.33,-0.86,-3.7,5.6,-1.6,35.38,,,,,,,,,,
16.29.29.087,444.9,111.2,0,28.0,,46516.6,21.5,-0.4,0.34,-0.87,-1.9,7.5,-1.8,35.38,,,,,,,,,,
16.29.29.095,490.3,122.6,0,28.0,,49607.5,20.16,-0.41,0.35,-0.87,-0.6,8.3,-1.9,35.38,,,,,,,,,,
16.29.29.107,530.8,132.7,0,28.0,,44586.1,22.43,-0.42,0.36,-0.87,-1.3,9.1,-2.1,35.38,,,,,,,,,,
16.29.29.120,494.3,123.6,0,28.0,,52345.4,19.1,-0.41,0.36,-0.86,-2.8,7.1,-2.5,35.38,,,,,,,,,,
16.29.29.132,472.3,118.1,0,28.0,,46142.6,21.67,-0.41,0.37,-0.85,-5.0,4.8,-2.1,35.38,,,,,,,,,,
16.29.29.140,427.7,106.9,0,28.0,,46139.6,21.67,-0.41,0.36,-0.86,-6.2,4.1,-1.8,35.38,,,,,,,,,,
16.29.29.152,346.5,86.6,0,28.0,,48030.3,20.82,-0.4,0.34,-0.86,-6.0,4.3,-1.5,35.38,,,,,,,,,,
16.29.29.160,372.5,93.1,0,28.0,,48090.4,20.79,-0.4,0.34,-0.87,-4.8,6.8,-1.9,35.38,,,,,,,,,,
16.29.29.173,271.9,68.0,0,28.0,,45433.3,22.01,-0.4,0.34,-0.87,-2.8,9.1,-2.4,35.38,,,,,,,,,,
16.29.29.181,175.3,43.8,0,28.0,,42601.0,23.47,-0.4,0.35,-0.88,-0.7,10.1,-2.7,35.38,,,,,,,,,,
16.29.29.193,54.4,13.6,0,28.0,,47040.9,21.26,-0.4,0.37,-0.86,-2.3,9.0,-1.5,35.38,,,,,,,,,,
16.29.29.206,-8.1,2.0,0,28.0,,48780.6,20.5,-0.41,0.38,-0.88,-4.5,7.4,-1.0,35.38,,,,,,,,,,
16.29.29.214,17.0,4.2,0,28.0,,46982.2,21.28,-0.42,0.36,-0.86,-5.0,5.8,-1.7,35.38,,,,,,,,,,
16.29.29.226,32.4,8.1,0,28.0,,42793.2,23.37,-0.41,0.35,-0.87,-5.4,5.5,-1.2,35.38,,,,,,,,,,
16.29.29.234,77.8,19.4,0,28.0,,44729.8,22.36,-0.41,0.35,-0.86,-3.4,6.5,-2.2,35.38,,,,,,,,,,
16.29.29.247,115.8,29.0,0,28.0,,50455.6,19.82,-0.42,0.33,-0.86,-1.5,9.5,-3.7,35.38,,,,,,,,,,
16.29.29.255,68.0,17.0,0,28.0,,45923.3,21.78,-0.4,0.35,-0.85,-0.6,10.6,-4.3,35.38,,,,,,,,,,
16.29.29.267,76.3,19.1,0,28.0,,44025.0,22.71,-0.4,0.36,-0.84,-0.8,10.0,-4.2,35.38,,,,,,,,,,
16.29.29.279,58.1,14.5,0,28.0,,46128.7,21.68,-0.4,0.38,-0.84,-3.0,8.4,-2.7,35.38,,,,,,,,,,
16.29.29.288,70.0,17.5,0,28.0,,43681.8,22.89,-0.4,0.37,-0.85,-5.7,6.7,-1.7,35.38,,,,,,,,,,
16.29.29.300,76.9,19.2,0,28.0,,46645.2,21.44,-0.4,0.36,-0.86,-6.8,5.7,-0.5,35.38,,,,,,,,,,
16.29.29.308,34.9,8.7,0,28.0,,46881.6,21.33,-0.4,0.34,-0.85,-5.1,5.2,-0.9,35.38,,,,,,,,,,
16.29.29.320,-43.7,10.9,0,28.0,,49904.9,20.04,-0.41,0.34,-0.86,-3.1,6.4,-2.0,35.38,,,,,,,,,,
16.29.29.329,-70.6,17.6,0,28.0,,46109.6,21.69,-0.41,0.36,-0.86,-1.8,7.0,-3.3,35.38,,,,,,,,,,
16.29.29.341,-21.1,5.3,0,28.0,,45354.3,22.05,-0.41,0.36,-0.84,-1.8,7.6,-4.0,35.38,,,,,,,,,,
16.29.29.349,-87.4,21.8,0,28.0,,40177.3,24.89,-0.4,0.38,-0.85,-2.4,6.7,-3.4,35.38,,,,,,,,,,
16.29.29.361,-45.9,11.5,0,28.0,,52672.9,18.99,-0.4,0.37,-0.85,-3.8,5.1,-2.1,35.38,,,,,,,,,,
16.29.29.370,-49.3,12.3,0,28.0,,49241.9,20.31,-0.4,0.37,-0.86,-3.8,5.3,-1.2,35.38,,,,,,,,,,
16.29.29.382,-76.9,19.2,0,28.0,,49988.5,20.0,-0.41,0.36,-0.86,-3.3,6.5,-1.1,35.38,,,,,,,,,,
16.29.29.394,-112.4,28.1,0,28.0,,47821.5,20.91,-0.4,0.36,-0.87,-1.2,7.1,-1.6,35.38,,,,,,,,,,
16.29.29.402,-99.1,24.8,0,28.0,,46487.6,21.51,-0.4,0.36,-0.87,0.5,8.5,-2.1,35.38,,,,,,,,,,
16.29.29.414,-84.9,21.2,0,28.0,,45904.0,21.78,-0.41,0.37,-0.86,1.4,8.6,-2.0,35.38,,,,,,,,,,
