timestamp,ppg,threshold,beat,beat_count,inst_bpm,gsr_resistance_ohm,gsr_conductance_us,accel_x,accel_y,accel_z,gyro_x,gyro_y,gyro_z,temp_c,window_bpm,window_temp_c,status_message,SpO2,bmi,age,height,weight,env_temp_c,env_humidity_pct
16.20.02.089,,,0,,,,,,,,,,,33.44,106.9,,,,22.0,22.0,152.4,51.0,31.44,45.0
16.20.02.118,208.3,52.1,0,,,74754.1,13.38,0.56,0.41,0.72,7.3,3.3,-5.0,33.5,,,,,,,,,,
16.20.02.131,222.7,55.7,0,,,70263.6,14.23,0.57,0.41,0.73,-1.6,9.2,0.4,33.5,,,,,,,,,,
16.20.02.139,273.3,68.3,0,,,75115.4,13.31,0.56,0.4,0.74,-3.2,10.3,1.1,33.5,,,,,,,,,,
16.20.02.151,350.6,87.6,0,,,71291.5,14.03,0.54,0.37,0.74,-3.2,10.9,1.4,33.5,,,,,,,,,,
16.20.02.159,325.1,81.3,0,,,72150.9,13.86,0.52,0.36,0.74,-2.9,10.5,0.9,33.5,,,,,,,,,,
16.20.02.172,411.3,102.8,0,,,70494.2,14.19,0.52,0.35,0.75,-1.0,8.8,-1.2,33.5,,,,,,,,,,
16.20.02.180,,,0,,,,,,,,,,,,,,,,,,,,,
16.20.02.196,,,0,,,,,,,,,,,,,33.49,,,,,,,,
16.20.02.208,414.5,103.6,0,,,71182.2,14.05,0.52,0.34,0.73,5.1,5.3,-3.7,33.5,,,,,,,,,,
16.20.02.217,390.6,97.6,0,,,74109.2,13.49,0.53,0.36,0.73,8.7,4.2,-6.7,33.5,,,,,,,,,,
16.20.02.229,333.6,83.4,0,,,75028.4,13.33,0.55,0.39,0.73,8.7,1.6,-7.2,33.5,,,,,,,,,,
16.20.02.237,296.8,74.2,0,,,72220.1,13.85,0.57,0.42,0.73,7.1,1.8,-5.8,33.5,,,,,,,,,,
16.20.02.249,241.4,60.4,0,,,69612.1,14.37,0.57,0.43,0.72,4.5,3.8,-4.0,33.5,,,,,,,,,,
16.20.02.258,170.1,42.5,0,,,74592.2,13.41,0.57,0.44,0.71,0.7,5.4,-1.4,33.5,,,,,,,,,,
16.20.02.270,73.1,18.3,0,,,70492.1,14.19,0.56,0.41,0.71,-2.0,5.8,-0.2,33.5,,,,,,,,,,
16.20.02.278,70.7,17.7,0,,,71460.6,13.99,0.56,0.39,0.73,-4.2,5.2,1.1,33.5,,,,,,,,,,
16.20.02.290,23.4,5.8,0,,,71786.8,13.93,0.54,0.37,0.73,-3.3,6.6,0.7,33.5,,,,,,,,,,
16.20.02.299,2.8,0.7,0,,,71353.7,14.01,0.53,0.34,0.75,-1.4,6.7,-1.1,33.5,,,,,,,,,,
16.20.02.311,48.6,12.2,0,,,71665.0,13.95,0.52,0.34,0.75,1.8,5.8,-3.5,33.5,,,,,,,,,,
16.20.02.319,61.6,15.4,0,,,73123.3,13.68,0.51,0.34,0.74,4.8,3.7,-5.4,33.5,,,,,,,,,,
16.20.02.331,78.2,19.6,0,,,71064.3,14.07,0.53,0.38,0.75,6.0,3.0,-5.9,33.5,,,,,,,,,,
16.20.02.340,125.1,31.3,0,,,70976.3,14.09,0.54,0.4,0.74,5.9,3.8,-5.1,33.5,,,,,,,,,,
16.20.02.352,71.6,17.9,0,,,72645.8,13.77,0.55,0.41,0.73,4.2,4.1,-4.4,33.5,,,,,,,,,,
16.20.02.360,79.7,19.9,0,,,74102.6,13.49,0.56,0.42,0.72,2.3,4.4,-2.8,33.5,,,,,,,,,,
16.20.02.372,29.2,7.3,0,,,71680.5,13.95,0.56,0.4,0.73,0.9,4.8,-1.0,33.5,,,,,,,,,,
16.20.02.380,62.9,15.7,0,,,71609.4,13.96,0.56,0.37,0.73,0.9,6.7,-1.0,33.5,,,,,,,,,,
16.20.02.393,41.4,10.4,0,,,74006.4,13.51,0.55,0.36,0.73,2.0,6.3,-2.2,33.5,,,,,,,,,,
16.20.02.406,33.2,8.3,0,,,72159.9,13.86,0.55,0.38,0.74,2.9,5.7,-2.8,33.5,,,,,,,,,,
16.20.02.413,-10.5,2.6,0,,,70259.4,14.23,0.55,0.39,0.73,3.3,5.7,-2.7,33.5,,,,,,,,,,
16.20.02.426,-0.3,0.1,0,,,68396.8,14.62,0.55,0.4,0.72,2.8,6.0,-2.5,33.5,,,,,,,,,,
16.20.02.438,-4.7,1.2,0,,,70265.2,14.23,0.55,0.4,0.73,2.1,5.3,-2.1,33.5,,,,,,,,,,
16.20.02.450,-33.9,8.5,0,,,70410.0,14.2,0.53,0.4,0.73,1.9,5.5,-1.6,33.5,,,,,,,,,,
16.20.02.458,6.2,1.6,0,,,70476.0,14.19,0.53,0.39,0.74,1.7,4.5,-1.9,33.5,,,,,,,,,,
16.20.02.471,-42.5,10.6,0,,,71713.8,13.94,0.53,0.39,0.74,1.0,4.8,-3.1,33.5,,,,,,,,,,
16.20.02.483,-68.6,17.2,0,,,67019.8,14.92,0.54,0.41,0.74,0.9,4.4,-3.2,33.5,,,,,,,,,,
16.20.02.491,-66.9,16.7,0,,,72665.3,13.76,0.55,0.41,0.73,1.3,5.1,-3.4,33.5,,,,,,,,,,
16.20.02.503,-75.6,18.9,0,,,71057.2,14.07,0.55,0.4,0.73,0.7,5.0,-2.7,33.5,,,,,,,,,,
16.20.02.516,-66.2,16.6,0,,,73396.1,13.62,0.55,0.4,0.72,0.8,6.0,-2.4,33.5,,,,,,,,,,
16.20.02.524,-72.4,18.1,0,,,74267.5,13.46,0.55,0.39,0.73,0.8,6.0,-2.3,33.5,,,,,,,,,,
16.20.02.536,-97.9,24.5,0,,,69840.1,14.32,0.55,0.39,0.73,1.6,5.7,-2.9,33.5,,,,,,,,,,
16.20.02.548,-81.2,20.3,0,,,70581.1,14.17,0.54,0.4,0.73,1.7,4.8,-3.2,33.5,,,,,,,,,,
16.20.02.557,-93.3,23.3,0,,,72269.3,13.84,0.55,0.4,0.73,0.1,4.9,-2.3,33.5,,,,,,,,,,
16.20.02.569,-119.1,29.8,0,,,71742.7,13.94,0.55,0.4,0.73,-1.0,5.1,-0.9,33.5,,,,,,,,,,
16.20.02.581,-103.7,25.9,0,,,69525.0,14.38,0.55,0.41,0.73,-1.4,5.3,-0.4,33.5,,,,,,,,,,
16.20.02.589,-126.2,31.6,0,,,71234.3,14.04,0.55,0.41,0.73,-2.0,3.8,-0.6,33.5,,,,,,,,,,
16.20.02.602,-154.4,38.6,0,,,72462.9,13.8,0.55,0.4,0.74,-3.0,4.1,-0.2,33.5,,,,,,,,,,
16.20.02.614,-137.2,34.3,0,,,69310.4,14.43,0.53,0.39,0.73,-3.6,4.5,-0.4,33.5,,,,,,,,,,
16.20.02.626,-132.5,33.1,0,,,68989.9,14.49,0.52,0.39,0.74,-1.7,6.3,-1.3,33.5,,,,,,,,,,
16.20.02.634,-156.8,39.2,0,,,68880.9,14.52,0.53,0.39,0.73,-1.7,3.9,-1.1,33.5,,,,,,,,,,
16.20.02.647,-141.0,35.2,0,,,67743.0,14.76,0.55,0.39,0.74,-0.6,4.3,-0.8,33.5,,,,,,,,,,
16.20.02.659,20.4,5.1,1,1.0,110.7,70536.5,14.18,0.55,0.39,0.73,-0.5,5.8,-0.9,33.5,,,,,,,,,,
16.20.02.667,71.6,17.9,0,1.0,,72318.4,13.83,0.55,0.38,0.72,0.3,6.8,-1.3,33.5,,,,,,,,,,
16.20.02.679,150.7,37.7,0,1.0,,71628.3,13.96,0.56,0.38,0.73,0.5,6.2,-1.0,33.5,,,,,,,,,,
16.20.02.692,232.7,58.2,0,1.0,,67100.5,14.9,0.55,0.37,0.73,0.7,6.4,-0.3,33.5,,,,,,,,,,
16.20.02.704,286.3,71.6,0,1.0,,67603.0,14.79,0.56,0.36,0.72,1.5,6.4,-1.2,33.5,,,,,,,,,,
16.20.02.712,321.6,80.4,0,1.0,,68892.3,14.52,0.55,0.37,0.73,3.0,5.3,-2.4,33.5,,,,,,,,,,
16.20.02.725,358.4,89.6,0,1.0,,70886.7,14.11,0.55,0.38,0.73,3.5,3.5,-3.1,33.5,,,,,,,,,,
16.20.02.737,445.5,111.4,0,1.0,,69502.5,14.39,0.55,0.39,0.73,4.2,3.4,-3.2,33.5,,,,,,,,,,
16.20.02.745,385.3,96.3,0,1.0,,67502.4,14.81,0.56,0.41,0.72,3.9,4.0,-3.7,33.5,,,,,,,,,,
16.20.02.757,427.6,106.9,0,1.0,,69146.8,14.46,0.55,0.41,0.72,3.5,4.3,-3.4,33.5,,,,,,,,,,
16.20.02.770,426.0,106.5,0,1.0,,70225.3,14.24,0.55,0.41,0.73,2.5,4.1,-2.2,33.5,,,,,,,,,,
16.20.02.778,379.1,94.8,0,1.0,,71147.4,14.06,0.55,0.4,0.72,2.1,5.9,-2.9,33.5,,,,,,,,,,
16.20.02.790,335.2,83.8,0,1.0,,66468.7,15.04,0.54,0.4,0.74,2.3,4.6,-3.2,33.5,,,,,,,,,,
16.20.02.802,327.6,81.9,0,1.0,,73595.0,13.59,0.54,0.39,0.72,3.0,4.8,-4.3,33.5,,,,,,,,,,
16.20.02.811,259.4,64.8,0,1.0,,69340.2,14.42,0.53,0.38,0.72,2.8,4.7,-4.1,33.5,,,,,,,,,,
16.20.02.823,136.2,34.0,0,1.0,,74288.5,13.46,0.54,0.39,0.73,3.7,3.6,-4.0,33.5,,,,,,,,,,
16.20.02.835,131.0,32.8,0,1.0,,73656.8,13.58,0.55,0.4,0.74,4.1,3.2,-3.9,33.5,,,,,,,,,,
16.20.02.847,71.0,17.8,0,1.0,,69096.1,14.47,0.55,0.41,0.74,3.3,3.4,-3.5,33.5,,,,,,,,,,
16.20.02.856,21.1,5.3,0,1.0,,73187.9,13.66,0.55,0.42,0.72,2.4,4.9,-3.0,33.5,,,,,,,,,,
16.20.02.868,14.3,3.6,0,1.0,,73045.9,13.69,0.56,0.42,0.71,1.2,5.4,-2.2,33.5,,,,,,,,,,
16.20.02.880,104.5,26.1,0,1.0,,70226.3,14.24,0.56,0.42,0.72,0.2,5.4,-1.1,33.5,,,,,,,,,,
16.20.02.917,100.9,25.2,0,1.0,,71874.1,13.91,0.56,0.42,0.72,-1.5,5.7,-0.1,33.5,,,,,,,,,,
16.20.02.929,84.1,21.0,0,1.0,,72442.1,13.8,0.55,0.37,0.72,-1.5,6.0,-0.7,33.5,,,,,,,,,,
16.20.02.938,50.1,12.5,0,1.0,,72511.4,13.79,0.55,0.38,0.74,-1.0,5.6,-1.5,33.5,,,,,,,,,,
16.20.02.950,15.6,3.9,0,1.0,,69612.1,14.37,0.54,0.38,0.73,1.0,6.1,-2.5,33.5,,,,,,,,,,
16.20.02.958,10.5,2.6,0,1.0,,73241.5,13.65,0.54,0.39,0.72,1.6,5.6,-3.0,33.5,,,,,,,,,,
16.20.02.970,-35.9,9.0,0,1.0,,71666.6,13.95,0.55,0.4,0.72,2.1,5.9,-2.4,33.5,,,,,,,,,,
16.20.02.979,-9.6,2.4,0,1.0,,71441.2,14.0,0.54,0.41,0.72,2.0,5.7,-2.1,33.5,,,,,,,,,,
16.20.02.991,-29.3,7.3,0,1.0,,63876.6,15.66,0.55,0.43,0.72,0.2,5.9,-1.3,33.5,,,,,,,,,,
16.20.02.999,-1.2,0.3,0,1.0,,75352.2,13.27,0.55,0.43,0.73,-1.7,7.2,0.2,33.5,,,,,,,,,,
16.20.03.011,-34.5,8.6,0,1.0,,68180.6,14.67,0.55,0.4,0.73,-3.0,8.1,1.5,33.5,,,,,,,,,,
16.20.03.020,-11.3,2.8,0,1.0,,73021.7,13.69,0.54,0.38,0.73,-2.8,7.5,1.4,33.5,,,,,,,,,,
16.20.03.032,-39.2,9.8,0,1.0,,73040.7,13.69,0.53,0.36,0.73,-1.2,7.1,0.6,33.5,,,,,,,,,,
16.20.03.040,-33.7,8.4,0,1.0,,70882.6,14.11,0.54,0.36,0.73,1.0,6.0,-1.3,33.5,,,,,,,,,,
16.20.03.052,-58.9,14.7,0,1.0,,71561.1,13.97,0.55,0.38,0.73,2.8,5.3,-3.2,33.5,,,,,,,,,,
16.20.03.061,-100.2,25.0,0,1.0,,69860.1,14.31,0.55,0.39,0.73,3.3,4.9,-3.4,33.5,,,,,,,,,,
16.20.03.073,-54.8,13.7,0,1.0,,71991.1,13.89,0.56,0.41,0.72,3.1,4.8,-2.7,33.5,,,,,,,,,,
16.20.03.081,-66.3,16.6,0,1.0,,71406.9,14.0,0.56,0.43,0.72,1.5,5.9,-1.3,33.5,,,,,,,,,,
16.20.03.093,-99.9,25.0,0,1.0,,67445.4,14.83,0.56,0.42,0.72,-0.3,6.8,0.2,33.5,,,,,,,,,,
16.20.03.102,-92.9,23.2,0,1.0,,70677.7,14.15,0.55,0.42,0.73,-1.9,7.1,0.8,33.5,,,,,,,,,,
16.20.03.114,-90.8,22.7,0,1.0,,69838.0,14.32,0.55,0.39,0.73,-2.3,7.9,0.7,33.5,,,,,,,,,,
16.20.03.126,-87.4,21.8,0,1.0,,71678.0,13.95,0.54,0.37,0.74,-2.1,7.7,0.0,33.5,,,,,,,,,,
16.20.03.134,-108.6,27.2,0,1.0,,74757.7,13.38,0.54,0.35,0.73,0.1,7.3,-1.2,33.5,,,,,,,,,,
16.20.03.147,-113.9,28.5,0,1.0,,72806.7,13.73,0.54,0.36,0.73,2.1,6.5,-2.7,33.5,,,,,,,,,,
16.20.03.155,-101.2,25.3,0,1.0,,69709.6,14.35,0.54,0.38,0.73,3.3,5.3,-3.8,33.5,,,,,,,,,,
16.20.03.167,-127.5,31.9,0,1.0,,71324.6,14.02,0.55,0.41,0.73,3.5,4.8,-3.2,33.5,,,,,,,,,,
16.20.03.175,-140.1,35.0,0,1.0,,67318.3,14.85,0.55,0.42,0.73,2.7,5.6,-1.9,33.5,,,,,,,,,,
16.20.03.187,-145.0,36.2,0,1.0,,72213.0,13.85,0.56,0.42,0.72,1.0,6.6,-0.6,33.5,,,,,,,,,,
16.20.03.200,-147.6,36.9,0,1.0,,70857.5,14.11,0.55,0.4,0.72,-0.1,6.9,-0.2,33.5,,,,,,,,,,
16.20.03.208,-140.3,35.1,0,1.0,,67321.1,14.85,0.54,0.39,0.73,0.6,6.5,-0.9,33.5,,,,,,,,,,
16.20.03.220,-135.1,33.8,0,1.0,,77125.6,12.97,0.55,0.39,0.73,1.1,6.6,-1.4,33.5,,,,,,,,,,
16.20.03.233,104.5,26.1,1,2.0,105.1,74840.1,13.36,0.55,0.39,0.73,2.1,6.7,-2.5,33.5,,,,,,,,,,
16.20.03.241,139.9,35.0,0,2.0,,68421.9,14.62,0.55,0.39,0.73,2.0,6.2,-2.6,33.5,,,,,,,,,,
16.20.03.253,170.2,42.6,0,2.0,,70250.1,14.23,0.55,0.38,0.72,2.6,6.0,-2.5,33.5,,,,,,,,,,
16.20.03.265,288.4,72.1,0,2.0,,70630.4,14.16,0.55,0.38,0.73,2.8,6.0,-2.4,33.5,,,,,,,,,,
16.20.03.273,352.7,88.2,0,2.0,,75932.9,13.17,0.55,0.38,0.72,3.8,5.7,-3.2,33.5,,,,,,,,,,
16.20.03.286,319.5,79.9,0,2.0,,72256.7,13.84,0.55,0.39,0.73,5.0,4.6,-4.1,33.5,,,,,,,,,,
16.20.03.298,342.7,85.7,0,2.0,,68910.6,14.51,0.55,0.4,0.73,5.2,4.1,-4.2,33.5,,,,,,,,,,
16.20.03.306,447.8,112.0,0,2.0,,70756.7,14.13,0.55,0.42,0.73,4.4,4.6,-4.1,33.5,,,,,,,,,,
16.20.03.319,392.9,98.2,0,2.0,,71892.5,13.91,0.55,0.43,0.72,3.4,5.0,-3.3,33.5,,,,,,,,,,
16.20.03.331,401.4,100.4,0,2.0,,68675.0,14.56,0.55,0.44,0.72,1.3,4.9,-2.2,33.5,,,,,,,,,,
16.20.03.339,404.0,101.0,0,2.0,,74420.4,13.44,0.54,0.44,0.73,-1.2,6.7,-1.1,33.5,,,,,,,,,,
16.20.03.351,295.2,73.8,0,2.0,,70839.3,14.12,0.54,0.43,0.73,-3.8,7.2,0.3,33.5,,,,,,,,,,
16.20.03.364,323.1,80.8,0,2.0,,71121.3,14.06,0.53,0.41,0.73,-3.8,7.4,0.6,33.5,,,,,,,,,,
16.20.03.372,256.1,64.0,0,2.0,,72537.0,13.79,0.53,0.39,0.74,-3.4,6.3,0.7,33.5,,,,,,,,,,
16.20.03.384,194.3,48.6,0,2.0,,67885.9,14.73,0.53,0.37,0.74,-1.4,6.0,-0.3,33.5,,,,,,,,,,
16.20.03.396,132.3,33.1,0,2.0,,67147.0,14.89,0.53,0.36,0.73,1.3,5.1,-1.9,33.5,,,,,,,,,,
16.20.03.405,102.4,25.6,0,2.0,,71421.0,14.0,0.54,0.38,0.72,2.9,4.3,-3.1,33.5,,,,,,,,,,
16.20.03.417,11.6,2.9,0,2.0,,71152.2,14.05,0.56,0.4,0.73,3.5,3.1,-3.7,33.5,,,,,,,,,,
16.20.03.429,32.5,8.1,0,2.0,,71493.0,13.99,0.57,0.42,0.71,1.9,3.7,-2.3,33.5,,,,,,,,,,
16.20.03.437,11.4,2.8,0,2.0,,70702.0,14.14,0.57,0.43,0.71,-0.1,5.3,-1.0,33.5,,,,,,,,,,
16.20.03.450,61.5,15.4,0,2.0,,72234.7,13.84,0.57,0.43,0.71,-2.6,6.7,0.5,33.5,,,,,,,,,,
16.20.03.462,50.4,12.6,0,2.0,,68779.9,14.54,0.55,0.41,0.72,-4.2,6.8,1.4,33.5,,,,,,,,,,
16.20.03.470,43.9,11.0,0,2.0,,71802.8,13.93,0.54,0.4,0.72,-4.8,7.1,1.1,33.5,,,,,,,,,,
16.20.03.483,76.7,19.2,0,2.0,,69630.6,14.36,0.54,0.39,0.73,-4.7,7.5,0.9,33.5,,,,,,,,,,
16.20.03.495,61.6,15.4,0,2.0,,69710.9,14.34,0.54,0.38,0.73,-3.4,7.6,0.1,33.5,,,,,,,,,,
16.20.03.503,35.9,9.0,0,2.0,,69909.9,14.3,0.53,0.39,0.73,-2.2,6.6,-0.7,33.5,,,,,,,,,,
16.20.03.515,57.8,14.4,0,2.0,,70287.8,14.23,0.53,0.39,0.74,-1.1,6.2,-1.3,33.5,,,,,,,,,,
16.20.03.528,9.0,2.2,0,2.0,,67584.3,14.8,0.54,0.39,0.73,-0.2,6.1,-1.5,33.5,,,,,,,,,,
16.20.03.536,-11.1,2.8,0,2.0,,70227.0,14.24,0.54,0.38,0.73,0.5,6.1,-1.8,33.5,,,,,,,,,,
16.20.03.548,-1.2,0.3,0,2.0,,72158.0,13.86,0.54,0.38,0.73,1.3,5.9,-2.2,33.5,,,,,,,,,,
16.20.03.556,-20.6,5.2,0,2.0,,69962.0,14.29,0.55,0.4,0.73,1.6,5.6,-1.9,33.5,,,,,,,,,,
16.20.03.568,-22.7,5.7,0,2.0,,68903.9,14.51,0.55,0.41,0.72,1.3,6.1,-1.7,33.5,,,,,,,,,,
16.20.03.581,-53.1,13.3,0,2.0,,70673.7,14.15,0.56,0.42,0.72,-0.7,6.5,-0.6,33.5,,,,,,,,,,
16.20.03.589,-50.9,12.7,0,2.0,,68384.4,14.62,0.55,0.42,0.72,-1.9,6.6,0.2,33.5,,,,,,,,,,
16.20.03.601,-30.8,7.7,0,2.0,,70822.9,14.12,0.55,0.42,0.71,-3.1,7.2,1.4,33.5,,,,,,,,,,
16.20.03.614,-40.9,10.2,0,2.0,,73566.6,13.59,0.55,0.4,0.73,-3.7,7.2,1.4,33.5,,,,,,,,,,
16.20.03.622,-63.5,15.9,0,2.0,,73015.6,13.7,0.54,0.38,0.73,-3.3,7.1,1.3,33.5,,,,,,,,,,
16.20.03.634,-47.3,11.8,0,2.0,,74791.7,13.37,0.54,0.37,0.73,-2.1,6.9,0.1,33.5,,,,,,,,,,
16.20.03.646,-72.1,18.0,0,2.0,,70138.8,14.26,0.54,0.36,0.74,-0.7,6.6,-1.2,33.5,,,,,,,,,,
16.20.03.655,-69.8,17.4,0,2.0,,71266.3,14.03,0.54,0.36,0.73,0.9,6.0,-2.3,33.5,,,,,,,,,,
16.20.03.667,-109.5,27.4,0,2.0,,71451.8,14.0,0.54,0.37,0.73,2.5,5.9,-2.7,33.5,,,,,,,,,,
16.20.03.679,-69.7,17.4,0,2.0,,69333.3,14.42,0.55,0.38,0.73,3.2,6.2,-3.0,33.5,,,,,,,,,,
16.20.03.687,-111.0,27.8,0,2.0,,68309.3,14.64,0.56,0.4,0.72,3.3,5.4,-2.8,33.5,,,,,,,,,,
16.20.03.728,-146.5,36.6,0,2.0,,69342.9,14.42,0.54,0.41,0.72,0.8,7.1,-0.9,33.5,,,,,,,,,,
16.20.03.741,-126.2,31.6,0,2.0,,76438.0,13.08,0.54,0.4,0.73,0.1,6.1,-1.1,33.5,,,,,,,,,,
16.20.03.749,-147.6,36.9,0,2.0,,74236.6,13.47,0.54,0.39,0.74,0.1,6.9,-1.5,33.5,,,,,,,,,,
16.20.03.761,-141.7,35.4,0,2.0,,68776.1,14.54,0.53,0.37,0.74,0.5,6.9,-2.0,33.5,,,,,,,,,,
16.20.03.773,-176.7,44.2,0,2.0,,71389.4,14.01,0.53,0.36,0.74,2.3,6.9,-3.0,33.5,,,,,,,,,,
16.20.03.782,-140.1,35.0,0,2.0,,70656.3,14.15,0.53,0.37,0.73,3.9,6.1,-4.1,33.5,,,,,,,,,,
16.20.03.794,70.9,17.7,1,3.0,104.7,69764.4,14.33,0.54,0.39,0.72,4.5,5.0,-4.5,33.5,,,,,,,,,,
16.20.03.802,76.6,19.2,0,3.0,,70988.4,14.09,0.55,0.41,0.72,3.6,4.4,-4.1,33.5,,,,,,,,,,
16.20.03.814,177.0,44.2,0,3.0,,71378.9,14.01,0.57,0.44,0.71,2.0,5.1,-2.6,33.5,,,,,,,,,,
16.20.03.827,226.9,56.7,0,3.0,,76251.5,13.11,0.57,0.44,0.71,-0.1,6.5,-0.5,33.5,,,,,,,,,,
16.20.03.835,265.8,66.4,0,3.0,,72538.4,13.79,0.57,0.42,0.72,-2.1,7.8,0.4,33.5,,,,,,,,,,
16.20.03.847,315.5,78.9,0,3.0,,72451.6,13.8,0.55,0.41,0.73,-2.9,8.9,0.8,33.5,,,,,,,,,,
16.20.03.859,363.6,90.9,0,3.0,,72004.4,13.89,0.53,0.4,0.74,-3.0,9.0,0.7,33.5,,,,,,,,,,
16.20.03.868,330.5,82.6,0,3.0,,74233.6,13.47,0.52,0.38,0.75,-2.4,9.5,0.0,33.5,,,,,,,,,,
16.20.03.880,426.8,106.7,0,3.0,,69824.8,14.32,0.51,0.37,0.74,-0.9,9.7,-1.2,33.5,,,,,,,,,,
16.20.03.892,432.2,108.0,0,3.0,,70071.4,14.27,0.52,0.38,0.74,-0.4,8.7,-1.4,33.5,,,,,,,,,,
16.20.03.900,442.3,110.6,0,3.0,,70785.7,14.13,0.54,0.4,0.74,0.4,7.8,-0.7,33.5,,,,,,,,,,
16.20.03.913,390.2,97.6,0,3.0,,73638.2,13.58,0.55,0.41,0.73,0.5,8.3,-0.4,33.5,,,,,,,,,,
16.20.03.925,336.2,84.0,0,3.0,,70577.2,14.17,0.55,0.41,0.72,-0.7,8.4,-0.3,33.5,,,,,,,,,,
16.20.03.933,314.5,78.6,0,3.0,,68137.5,14.68,0.55,0.41,0.72,-2.0,8.7,0.1,33.5,,,,,,,,,,
16.20.03.945,203.6,50.9,0,3.0,,72056.9,13.88,0.54,0.42,0.73,-3.1,8.8,0.6,33.5,,,,,,,,,,
16.20.03.958,173.6,43.4,0,3.0,,73079.8,13.68,0.55,0.42,0.73,-4.0,8.5,1.4,33.5,,,,,,,,,,
16.20.03.966,135.7,33.9,0,3.0,,68320.9,14.64,0.55,0.41,0.74,-4.5,9.1,1.4,33.5,,,,,,,,,,
16.20.03.978,58.1,14.5,0,3.0,,72327.2,13.83,0.53,0.38,0.74,-5.2,10.2,1.4,33.5,,,,,,,,,,
16.20.03.990,36.7,9.2,0,3.0,,72597.1,13.77,0.53,0.36,0.74,-3.9,9.1,1.6,33.5,,,,,,,,,,
16.20.03.999,38.3,9.6,0,3.0,,71238.4,14.04,0.52,0.35,0.74,-1.6,7.5,1.1,33.5,,,,,,,,,,
16.20.04.011,62.3,15.6,0,3.0,,72913.8,13.71,0.53,0.35,0.73,0.6,5.2,0.5,33.5,,,,,,,,,,
16.20.04.019,76.2,19.0,0,3.0,,73706.6,13.57,0.54,0.36,0.73,3.1,5.0,-1.3,33.5,,,,,,,,,,
16.20.04.031,82.1,20.5,0,3.0,,71763.7,13.93,0.55,0.38,0.72,3.9,4.8,-2.5,33.5,,,,,,,,,,
16.20.04.044,70.1,17.5,0,3.0,,73250.3,13.65,0.56,0.4,0.73,3.0,4.6,-1.6,33.5,,,,,,,,,,
16.20.04.052,75.5,18.9,0,3.0,,69765.7,14.33,0.57,0.42,0.73,2.2,4.7,-0.5,33.5,,,,,,,,,,
16.20.04.064,58.4,14.6,0,3.0,,68537.0,14.59,0.56,0.4,0.72,1.8,7.2,-1.2,33.5,,,,,,,,,,
16.20.04.076,46.1,11.5,0,3.0,,74452.9,13.43,0.52,0.41,0.74,-0.3,8.3,-0.1,33.5,,,,,,,,,,
16.20.04.085,0.6,0.2,0,3.0,,69932.3,14.3,0.53,0.39,0.74,-1.9,6.2,2.3,33.5,,,,,,,,,,
16.20.04.097,16.3,4.1,0,3.0,,71013.3,14.08,0.53,0.39,0.75,-2.1,7.7,1.9,33.5,,,,,,,,,,
16.20.04.109,-11.4,2.8,0,3.0,,69220.2,14.45,0.51,0.37,0.75,-0.6,6.4,1.0,33.5,,,,,,,,,,
16.20.04.117,-10.9,2.7,0,3.0,,68935.7,14.51,0.52,0.37,0.74,0.7,4.9,1.1,33.5,,,,,,,,,,
16.20.04.130,-21.5,5.4,0,3.0,,71743.3,13.94,0.53,0.38,0.75,2.2,3.9,0.9,33.5,,,,,,,,,,
16.20.04.142,-25.1,6.3,0,3.0,,70929.0,14.1,0.54,0.39,0.73,2.8,2.3,1.8,33.5,,,,,,,,,,
16.20.04.150,-23.2,5.8,0,3.0,,71182.6,14.05,0.54,0.4,0.73,3.5,3.3,2.3,33.5,,,,,,,,,,
16.20.04.163,-15.8,4.0,0,3.0,,71260.2,14.03,0.54,0.41,0.74,2.1,2.2,2.3,33.5,,,,,,,,,,
16.20.04.175,-53.9,13.5,0,3.0,,75476.0,13.25,0.54,0.42,0.73,0.4,1.5,1.8,33.5,,,,,,,,,,
16.20.04.183,-39.9,10.0,0,3.0,,74170.9,13.48,0.54,0.43,0.74,-2.2,0.3,2.3,33.5,,,,,,,,,,
16.20.04.195,-59.7,14.9,0,3.0,,74406.9,13.44,0.55,0.41,0.71,-4.1,0.7,2.8,33.5,,,,,,,,,,
16.20.04.208,-60.0,15.0,0,3.0,,67019.4,14.92,0.55,0.4,0.73,-5.0,1.8,3.6,33.5,,,,,,,,,,
16.20.04.216,-103.8,26.0,0,3.0,,72722.7,13.75,0.55,0.37,0.73,-4.9,2.3,3.6,33.5,,,,,,,,,,
16.20.04.228,-106.7,26.7,0,3.0,,67529.1,14.81,0.54,0.36,0.73,-2.2,1.5,1.3,33.5,,,,,,,,,,
16.20.04.240,-80.4,20.1,0,3.0,,69661.2,14.36,0.54,0.37,0.75,0.0,0.5,1.1,33.5,,,,,,,,,,
16.20.04.253,-56.1,14.0,0,3.0,,74867.9,13.36,0.53,0.37,0.74,2.2,0.8,0.2,33.5,,,,,,,,,,
16.20.04.261,-97.9,24.5,0,3.0,,74387.5,13.44,0.53,0.39,0.74,1.9,-0.1,0.8,33.5,,,,,,,,,,
16.20.04.274,-86.5,21.6,0,3.0,,73294.1,13.64,0.55,0.38,0.74,2.7,-1.6,2.0,33.5,,,,,,,,,,
16.20.04.285,-121.8,30.4,0,3.0,,72741.9,13.75,0.56,0.37,0.73,3.5,-0.6,2.4,33.5,,,,,,,,,,
16.20.04.294,-141.4,35.4,0,3.0,,71883.9,13.91,0.56,0.37,0.73,4.4,0.6,2.4,33.5,,,,,,,,,,
16.20.04.306,-125.1,31.3,0,3.0,,72190.4,13.85,0.58,0.38,0.73,4.9,1.1,1.6,33.5,,,,,,,,,,
16.20.04.318,-143.7,35.9,0,3.0,,73598.2,13.59,0.56,0.37,0.72,6.1,3.3,0.7,33.5,,,,,,,,,,
16.20.04.326,-131.3,32.8,0,3.0,,67968.3,14.71,0.56,0.37,0.7,6.9,4.3,1.2,33.5,,,,,,,,,,
16.20.04.339,-140.6,35.2,0,3.0,,71857.1,13.92,0.56,0.37,0.71,8.0,3.6,1.4,33.5,,,,,,,,,,
16.20.04.351,-158.2,39.6,0,3.0,,69541.2,14.38,0.59,0.38,0.72,7.6,3.1,4.4,33.5,,,,,,,,,,
16.20.04.359,61.6,15.4,1,4.0,103.2,70389.9,14.21,0.6,0.41,0.73,6.8,2.4,8.1,33.5,,,,,,,,,,
16.20.04.371,144.5,36.1,0,4.0,,70766.8,14.13,0.64,0.51,0.73,7.1,3.8,-1.6,33.5,,,,,,,,,,
16.20.04.380,126.1,31.5,0,4.0,,71317.1,14.02,0.58,0.39,0.71,1.4,6.3,12.1,33.5,,,,,,,,,,
16.20.04.392,210.9,52.7,0,4.0,,69922.8,14.3,0.57,0.41,0.71,-3.1,9.0,11.1,33.5,,,,,,,,,,
16.20.04.404,309.3,77.3,0,4.0,,66112.0,15.13,0.56,0.41,0.72,-6.9,10.1,11.3,33.5,,,,,,,,,,
16.20.04.412,335.3,83.8,0,4.0,,71397.2,14.01,0.56,0.4,0.71,-8.8,11.2,10.9,33.5,,,,,,,,,,
16.20.04.425,369.4,92.4,0,4.0,,70174.1,14.25,0.55,0.37,0.71,-9.4,10.8,9.9,33.5,,,,,,,,,,
16.20.04.437,339.4,84.8,0,4.0,,70501.9,14.18,0.56,0.36,0.72,-8.1,10.2,8.7,33.5,,,,,,,,,,
16.20.04.450,429.7,107.4,0,4.0,,72697.4,13.76,0.56,0.34,0.71,-6.8,8.5,7.1,33.5,,,,,,,,,,
16.20.04.457,441.2,110.3,0,4.0,,71663.7,13.95,0.57,0.35,0.73,-4.9,7.3,6.2,33.5,,,,,,,,,,
16.20.04.470,431.0,107.8,0,4.0,,71455.7,13.99,0.57,0.35,0.73,-6.2,5.4,5.5,33.5,,,,,,,,,,
16.20.04.482,315.2,78.8,0,4.0,,70851.0,14.11,0.56,0.36,0.73,-6.2,7.1,6.1,33.5,,,,,,,,,,
16.20.04.490,381.9,95.5,0,4.0,,71078.5,14.07,0.54,0.36,0.72,-6.2,8.1,5.1,33.5,,,,,,,,,,
16.20.04.531,151.1,37.8,0,4.0,,68889.1,14.52,0.6,0.4,0.76,-5.0,9.2,10.6,33.5,,,,,,,,,,
16.20.04.543,18.4,4.6,0,4.0,,71466.3,13.99,0.58,0.4,0.75,-6.7,13.2,14.3,33.5,,,,,,,,,,
16.20.04.552,4.8,1.2,0,4.0,,69157.3,14.46,0.55,0.37,0.72,-8.9,15.9,16.2,33.5,,,,,,,,,,
16.20.04.564,8.5,2.1,0,4.0,,69901.2,14.31,0.54,0.33,0.72,-8.4,13.7,15.4,33.5,,,,,,,,,,
16.20.04.576,65.7,16.4,0,4.0,,68244.5,14.65,0.52,0.32,0.75,-7.3,11.6,12.6,33.5,,,,,,,,,,
16.20.04.589,64.9,16.2,0,4.0,,72308.4,13.83,0.52,0.31,0.75,-5.3,8.4,8.6,33.5,,,,,,,,,,
16.20.04.597,82.9,20.7,0,4.0,,75477.4,13.25,0.52,0.32,0.75,-3.3,7.3,4.9,33.5,,,,,,,,,,
16.20.04.609,63.9,16.0,0,4.0,,72334.3,13.82,0.55,0.33,0.74,-1.8,5.7,2.6,33.5,,,,,,,,,,
16.20.04.621,80.0,20.0,0,4.0,,65143.8,15.35,0.57,0.35,0.74,-1.9,5.2,2.2,33.5,,,,,,,,,,
16.20.04.634,45.8,11.4,0,4.0,,71839.5,13.92,0.58,0.35,0.73,-3.7,3.8,0.8,33.5,,,,,,,,,,
16.20.04.642,50.6,12.6,0,4.0,,70505.7,14.18,0.58,0.37,0.72,-3.6,3.0,0.4,33.5,,,,,,,,,,
16.20.04.654,22.6,5.6,0,4.0,,71641.9,13.96,0.59,0.36,0.75,-5.0,4.2,3.2,33.5,,,,,,,,,,
16.20.04.666,-3.8,1.0,0,4.0,,73954.1,13.52,0.58,0.36,0.76,-6.0,6.4,4.9,33.5,,,,,,,,,,
16.20.04.675,-24.9,6.2,0,4.0,,71730.9,13.94,0.57,0.33,0.74,-6.2,8.7,6.1,33.5,,,,,,,,,,
16.20.04.687,-10.7,2.7,0,4.0,,73077.5,13.68,0.57,0.31,0.73,-5.0,9.1,5.1,33.5,,,,,,,,,,
16.20.04.695,-6.9,1.7,0,4.0,,72076.4,13.87,0.56,0.31,0.73,-4.9,10.1,4.6,33.5,,,,,,,,,,
16.20.04.707,-47.8,12.0,0,4.0,,68589.8,14.58,0.56,0.31,0.74,-2.9,10.5,4.9,33.5,,,,,,,,,,
16.20.04.716,-17.5,4.4,0,4.0,,73095.8,13.68,1.07,0.23,0.68,-34.6,-13.8,8.2,33.5,,,,,,,,,,
16.20.04.728,-35.4,8.8,0,4.0,,72958.0,13.71,0.56,0.33,0.77,-1.8,9.1,5.0,33.5,,,,,,,,,,
16.20.04.740,-52.6,13.2,0,4.0,,71245.7,14.04,0.56,0.3,0.74,-4.0,3.7,7.0,33.5,,,,,,,,,,
16.20.04.748,-59.7,14.9,0,4.0,,73247.7,13.65,0.58,0.33,0.75,1.6,11.4,7.1,33.5,,,,,,,,,,
16.20.04.761,-101.7,25.4,0,4.0,,72981.8,13.7,0.57,0.33,0.76,-1.0,7.7,9.0,33.5,,,,,,,,,,
16.20.04.769,-46.7,11.7,0,4.0,,70926.4,14.1,0.57,0.3,0.67,-10.3,-14.4,13.8,33.5,,,,,,,,,,
16.20.04.781,-81.7,20.4,0,4.0,,69479.7,14.39,0.55,0.32,0.74,0.8,8.2,10.1,33.5,,,,,,,,,,
16.20.04.790,-102.1,25.5,0,4.0,,69875.0,14.31,0.61,0.31,0.75,-4.4,1.8,10.8,33.5,,,,,,,,,,
16.20.04.802,-70.8,17.7,0,4.0,,73958.1,13.52,0.57,0.3,0.74,0.0,8.9,8.9,33.5,,,,,,,,,,
16.20.04.810,-71.0,17.8,0,4.0,,70369.4,14.21,0.55,0.28,0.73,0.0,6.4,7.7,33.5,,,,,,,,,,
16.20.04.822,-114.5,28.6,0,4.0,,72548.1,13.78,0.57,0.29,0.73,2.5,6.2,5.6,33.5,,,,,,,,,,
16.20.04.830,-75.0,18.8,0,4.0,,69918.1,14.3,0.58,0.31,0.74,-2.0,1.0,4.9,33.5,,,,,,,,,,
16.20.04.843,-110.1,27.5,0,4.0,,70643.5,14.16,0.61,0.33,0.73,-1.2,5.3,2.7,33.5,,,,,,,,,,
16.20.04.851,-133.6,33.4,0,4.0,,73077.3,13.68,0.61,0.35,0.73,-5.4,5.3,3.5,33.5,,,,,,,,,,
16.20.04.859,-118.6,29.6,0,4.0,,72792.1,13.74,0.61,0.33,0.72,-9.0,2.3,4.3,33.5,,,,,,,,,,
16.20.04.871,-128.8,32.2,0,4.0,,70821.3,14.12,0.62,0.31,0.72,-9.4,4.2,4.4,33.5,,,,,,,,,,
16.20.04.879,-143.4,35.8,0,4.0,,74296.0,13.46,0.59,0.29,0.72,-4.4,7.9,3.3,33.5,,,,,,,,,,
16.20.04.892,-122.3,30.6,0,4.0,,69614.9,14.36,0.59,0.28,0.73,-0.9,6.8,2.5,33.5,,,,,,,,,,
16.20.04.900,-149.5,37.4,0,4.0,,69421.0,14.4,0.58,0.28,0.75,2.2,7.0,3.5,33.5,,,,,,,,,,
16.20.04.912,-166.2,41.6,0,4.0,,71129.7,14.06,0.57,0.28,0.77,2.4,7.2,3.5,33.5,,,,,,,,,,
16.20.04.920,22.5,5.6,1,5.0,104.1,73072.4,13.69,0.58,0.29,0.77,2.3,7.9,4.8,33.5,,,,,,,,,,
16.20.04.933,89.9,22.5,0,5.0,,76092.0,13.14,0.57,0.3,0.75,1.0,7.2,5.2,33.5,,,,,,,,,,
16.20.04.945,176.0,44.0,0,5.0,,67825.2,14.74,0.56,0.29,0.74,1.5,7.3,4.4,33.5,,,,,,,,,,
16.20.04.953,216.5,54.1,0,5.0,,71384.1,14.01,0.57,0.29,0.74,0.5,5.8,2.9,33.5,,,,,,,,,,
16.20.04.965,242.9,60.7,0,5.0,,74139.0,13.49,0.58,0.31,0.75,0.3,5.7,1.9,33.5,,,,,,,,,,
16.20.04.978,312.9,78.2,0,5.0,,71691.3,13.95,0.57,0.31,0.74,0.5,5.5,0.5,33.5,,,,,,,,,,
16.20.04.986,364.4,91.1,0,5.0,,69761.6,14.33,0.57,0.31,0.75,0.4,3.1,-1.3,33.5,,,,,,,,,,
16.20.04.998,316.8,79.2,0,5.0,,70842.4,14.12,0.55,0.29,0.74,3.7,7.0,-1.1,33.5,,,,,,,,,,
16.20.05.011,394.3,98.6,0,5.0,,71006.6,14.08,0.58,0.32,0.75,0.8,4.0,-1.2,33.5,,,,,,,,,,
16.20.05.019,401.9,100.5,0,5.0,,74487.3,13.43,1.03,0.04,0.85,5.7,-6.1,-2.1,33.5,,,,,,,,,,
16.20.05.031,421.4,105.4,0,5.0,,74495.4,13.42,0.6,0.25,0.75,-1.1,5.4,1.0,33.5,,,,,,,,,,
16.20.05.043,366.9,91.7,0,5.0,,69567.2,14.37,0.64,0.27,0.75,-1.9,5.3,6.7,33.5,,,,,,,,,,
16.20.05.056,331.7,82.9,0,5.0,,75398.8,13.26,0.62,0.27,0.76,-1.8,11.0,10.7,33.5,,,,,,,,,,
16.20.05.064,283.7,70.9,0,5.0,,70192.7,14.25,0.61,0.25,0.73,-2.1,13.9,12.8,33.5,,,,,,,,,,
16.20.05.076,224.0,56.0,0,5.0,,72050.3,13.88,0.59,0.26,0.74,0.6,19.0,8.5,33.5,,,,,,,,,,
16.20.05.088,169.6,42.4,0,5.0,,72154.2,13.86,0.61,0.31,0.74,1.5,12.6,10.0,33.5,,,,,,,,,,
16.20.05.101,57.7,14.4,0,5.0,,69837.5,14.32,0.62,0.33,0.74,-1.5,9.7,8.3,33.5,,,,,,,,,,
16.20.05.109,54.7,13.7,0,5.0,,73247.3,13.65,0.67,0.35,0.74,-6.0,9.0,10.0,33.5,,,,,,,,,,
16.20.05.121,-5.9,1.5,0,5.0,,68070.0,14.69,0.66,0.38,0.75,-13.6,9.8,16.3,33.5,,,,,,,,,,
16.20.05.133,5.1,1.3,0,5.0,,72278.3,13.84,0.64,0.39,0.73,-27.7,7.7,24.2,33.5,,,,,,,,,,
16.20.05.146,59.8,15.0,0,5.0,,73022.3,13.69,0.74,0.3,0.7,-30.2,14.7,29.0,33.5,,,,,,,,,,
16.20.05.154,42.4,10.6,0,5.0,,72738.5,13.75,0.63,0.28,0.72,-25.5,14.4,30.5,33.5,,,,,,,,,,
16.20.05.166,102.5,25.6,0,5.0,,74572.8,13.41,0.58,0.26,0.75,-20.2,16.2,27.0,33.5,,,,,,,,,,
16.20.05.179,77.1,19.3,0,5.0,,71169.6,14.05,0.58,0.27,0.7,-29.7,-0.4,30.9,33.5,,,,,,,,,,
16.20.05.191,50.8,12.7,0,5.0,,66646.2,15.0,0.56,0.21,0.7,-20.7,11.9,23.5,33.5,,,,,,,,,,
16.20.05.199,42.1,10.5,0,5.0,,74921.1,13.35,0.66,0.15,0.77,0.5,31.7,23.7,33.5,,,,,,,,,,
16.20.05.211,9.7,2.4,0,5.0,,70687.4,14.15,0.51,0.27,0.68,-23.7,2.8,25.4,33.5,,,,,,,,,,
16.20.05.224,28.0,7.0,0,5.0,,70310.5,14.22,0.54,0.21,0.75,-22.7,-0.3,22.7,33.5,,,,,,,,,,
16.20.05.232,16.3,4.1,0,5.0,,69259.5,14.44,0.61,0.19,0.73,-13.9,9.9,18.9,33.5,,,,,,,,,,
16.20.05.244,17.8,4.4,0,5.0,,68251.1,14.65,0.53,0.2,0.77,-16.3,1.5,14.6,33.5,,,,,,,,,,
16.20.05.252,17.5,4.4,0,5.0,,67468.6,14.82,0.4,0.24,0.76,-22.4,-11.7,10.6,33.5,,,,,,,,,,
16.20.05.265,-2.1,0.5,0,5.0,,71677.4,13.95,0.68,0.17,0.67,0.0,23.3,4.6,33.5,,,,,,,,,,
16.20.05.273,-33.3,8.3,0,5.0,,73714.9,13.57,0.65,0.19,0.58,-17.9,10.6,1.2,33.5,,,,,,,,,,
16.20.05.285,-46.5,11.6,0,5.0,,70239.9,14.24,0.53,0.23,0.76,-13.4,-2.3,4.6,33.5,,,,,,,,,,
16.20.05.293,-17.7,4.4,0,5.0,,72130.7,13.86,0.6,0.24,0.76,-15.6,-3.2,4.9,33.5,,,,,,,,,,
16.20.05.330,-66.8,16.7,0,5.0,,75004.5,13.33,0.68,0.26,0.76,-20.6,-9.9,5.7,33.56,,,,,,,,,,
16.20.05.342,-82.9,20.7,0,5.0,,71553.4,13.98,0.63,0.18,0.74,-19.9,15.7,18.4,33.56,,,,,,,,,,
16.20.05.351,-88.7,22.2,0,5.0,,69085.8,14.47,0.55,0.13,0.76,-19.2,18.6,17.9,33.56,,,,,,,,,,
16.20.05.363,-51.0,12.8,0,5.0,,71788.9,13.93,0.46,0.01,0.78,-2.8,30.1,18.9,33.56,,,,,,,,,,
16.20.05.371,-68.8,17.2,0,5.0,,69637.2,14.36,0.48,0.02,0.8,17.1,23.3,4.9,33.56,,,,,,,,,,
16.20.05.383,-121.8,30.4,0,5.0,,72403.3,13.81,0.49,0.02,0.76,13.8,-10.2,-18.4,33.56,,,,,,,,,,
16.20.05.392,-106.3,26.6,0,5.0,,69270.3,14.44,0.63,0.04,0.8,30.7,-11.9,-27.6,33.56,,,,,,,,,,
16.20.05.404,-123.9,31.0,0,5.0,,67815.3,14.75,0.68,0.17,0.81,26.4,-23.4,-26.1,33.56,,,,,,,,,,
16.20.05.412,-121.1,30.3,0,5.0,,73542.7,13.6,0.65,0.28,0.77,20.1,-16.9,-25.4,33.56,,,,,,,,,,
16.20.05.424,-123.0,30.8,0,5.0,,71725.1,13.94,0.62,0.35,0.76,17.0,-5.9,-21.3,33.56,,,,,,,,,,
16.20.05.437,-145.2,36.3,0,5.0,,72643.0,13.77,0.55,0.34,0.73,10.1,5.3,-15.7,33.56,,,,,,,,,,
16.20.05.445,-100.7,25.2,0,5.0,,69676.9,14.35,0.52,0.31,0.76,6.0,-1.7,-12.8,33.56,,,,,,,,,,
16.20.05.457,-150.1,37.5,0,5.0,,67882.6,14.73,0.54,0.29,0.8,2.1,0.3,-8.3,33.56,,,,,,,,,,
16.20.05.465,-166.4,41.6,0,5.0,,73321.1,13.64,0.6,0.27,0.83,1.3,-2.1,-1.7,33.56,,,,,,,,,,
16.20.05.478,-167.6,41.9,0,5.0,,73549.3,13.6,0.59,0.21,0.82,0.1,4.8,0.1,33.56,,,,,,,,,,
16.20.05.490,37.9,9.5,1,6.0,106.4,69298.2,14.43,0.59,0.2,0.81,-4.5,14.8,-3.1,33.56,,,,,,,,,,
16.20.05.498,81.9,20.5,0,6.0,,73799.0,13.55,0.56,0.18,0.78,-5.2,23.4,-5.7,33.56,,,,,,,,,,
16.20.05.510,164.6,41.2,0,6.0,,71575.4,13.97,0.54,0.2,0.81,-4.4,26.8,-4.2,33.56,,,,,,,,,,
16.20.05.519,200.1,50.0,0,6.0,,70886.8,14.11,0.52,0.24,0.8,-4.2,25.6,-4.4,33.56,,,,,,,,,,
16.20.05.531,294.2,73.6,0,6.0,,69394.6,14.41,0.52,0.24,0.78,-3.7,23.9,-2.6,33.56,,,,,,,,,,
16.20.05.539,288.9,72.2,0,6.0,,72652.2,13.76,0.54,0.22,0.76,-0.8,21.7,-0.1,33.56,,,,,,,,,,
16.20.05.551,399.6,99.9,0,6.0,,72459.1,13.8,0.57,0.19,0.75,6.7,22.5,0.1,33.56,,,,,,,,,,
16.20.05.560,411.8,103.0,0,6.0,,72326.8,13.83,0.6,0.21,0.73,11.1,27.6,-2.2,33.56,,,,,,,,,,
16.20.05.572,408.5,102.1,0,6.0,,66315.5,15.08,0.59,0.17,0.7,21.1,32.9,-10.6,33.56,,,,,,,,,,
16.20.05.580,428.4,107.1,0,6.0,,70266.5,14.23,0.59,0.29,0.79,11.7,39.2,-11.3,33.56,,,,,,,,,,
16.20.05.592,406.3,101.6,0,6.0,,71556.4,13.97,0.57,0.31,0.81,5.9,40.6,-13.7,33.56,,,,,,,,,,
16.20.05.600,372.6,93.2,0,6.0,,71514.1,13.98,0.57,0.29,0.74,8.3,40.9,-14.9,33.56,,,,,,,,,,
16.20.05.613,411.7,102.9,0,6.0,,67907.4,14.73,0.57,0.24,0.77,5.9,42.5,-16.3,33.56,,,,,,,,,,
16.20.05.621,321.6,80.4,0,6.0,,72304.5,13.83,0.59,0.26,0.72,12.1,45.5,-14.2,33.56,,,,,,,,,,
16.20.05.633,243.6,60.9,0,6.0,,73533.9,13.6,0.58,0.24,0.78,12.0,46.5,-13.0,33.56,,,,,,,,,,
16.20.05.642,254.5,63.6,0,6.0,,67258.8,14.87,0.63,0.25,0.82,13.1,48.1,-8.3,33.56,,,,,,,,,,
16.20.05.654,172.3,43.1,0,6.0,,71540.2,13.98,0.69,0.26,0.82,12.2,52.3,-1.1,33.56,,,,,,,,,,
16.20.05.662,127.1,31.8,0,6.0,,68976.9,14.5,0.72,0.25,0.84,5.1,58.9,7.3,33.56,,,,,,,,,,
16.20.05.674,24.5,6.1,0,6.0,,71527.5,13.98,0.73,0.26,0.85,-4.6,56.5,8.1,33.56,,,,,,,,,,
16.20.05.682,16.8,4.2,0,6.0,,68789.9,14.54,0.67,0.22,0.89,-5.6,71.1,17.1,33.56,,,,,,,,,,
16.20.05.695,34.0,8.5,0,6.0,,71283.7,14.03,0.6,0.25,0.94,-10.4,75.3,15.2,33.56,,,,,,,,,,
16.20.05.703,59.8,15.0,0,6.0,,71197.8,14.05,0.49,0.12,0.88,-13.3,74.2,12.6,33.56,,,,,,,,,,
16.20.05.715,46.1,11.5,0,6.0,,75175.2,13.3,0.41,0.09,0.85,-2.6,70.5,1.4,33.56,,,,,,,,,,
16.20.05.723,45.0,11.2,0,6.0,,73732.0,13.56,0.39,0.09,0.84,7.1,63.1,-10.7,33.56,,,,,,,,,,
16.20.05.736,44.3,11.1,0,6.0,,74921.8,13.35,0.42,0.13,0.81,13.1,58.4,-20.7,33.56,,,,,,,,,,
16.20.05.744,72.9,18.2,0,6.0,,69374.1,14.41,0.45,0.16,0.83,16.5,58.7,-28.6,33.56,,,,,,,,,,
16.20.05.756,45.8,11.4,0,6.0,,66938.7,14.94,0.47,0.19,0.87,22.7,59.1,-31.8,33.56,,,,,,,,,,
16.20.05.764,52.6,13.2,0,6.0,,68169.3,14.67,0.49,0.25,0.89,23.8,64.7,-28.6,33.56,,,,,,,,,,
16.20.05.777,40.4,10.1,0,6.0,,69126.0,14.47,0.54,0.28,0.93,21.2,67.0,-24.2,33.56,,,,,,,,,,
16.20.05.785,9.3,2.3,0,6.0,,71399.9,14.01,0.51,0.29,0.92,19.8,73.5,-13.1,33.56,,,,,,,,,,
16.20.05.797,-18.5,4.6,0,6.0,,74924.7,13.35,0.54,0.34,0.93,17.7,84.2,-9.9,33.56,,,,,,,,,,
16.20.05.805,-45.8,11.4,0,6.0,,71077.3,14.07,0.5,0.33,0.97,6.8,89.1,1.4,33.56,,,,,,,,,,
16.20.05.818,3.7,0.9,0,6.0,,72172.0,13.86,0.47,0.34,0.98,1.4,94.0,1.2,33.56,,,,,,,,,,
16.20.05.826,-5.5,1.4,0,6.0,,73190.2,13.66,0.4,0.32,0.97,-1.7,92.2,-0.1,33.56,,,,,,,,,,
16.20.05.838,-38.7,9.7,0,6.0,,70163.7,14.25,0.4,0.41,1.18,-4.2,81.0,-0.1,33.56,,,,,,,,,,
16.20.05.846,-46.1,11.5,0,6.0,,71504.3,13.99,0.28,0.24,0.91,-10.9,87.3,-11.8,33.56,,,,,,,,,,
16.20.05.859,-39.0,9.8,0,6.0,,68782.6,14.54,0.36,0.36,1.06,-6.6,67.4,-13.1,33.56,,,,,,,,,,
16.20.05.867,-61.6,15.4,0,6.0,,66652.9,15.0,0.31,0.32,0.9,-9.6,63.2,-13.9,33.56,,,,,,,,,,
16.20.05.879,-60.4,15.1,0,6.0,,71775.2,13.93,0.37,0.28,1.0,-7.0,54.0,-19.8,33.56,,,,,,,,,,
16.20.05.887,-52.1,13.0,0,6.0,,71340.0,14.02,0.4,0.3,0.99,3.0,49.1,-14.9,33.56,,,,,,,,,,
16.20.05.900,-61.8,15.4,0,6.0,,71613.3,13.96,0.42,0.33,1.0,4.8,51.9,-12.6,33.56,,,,,,,,,,
16.20.05.908,-95.7,23.9,0,6.0,,73501.3,13.61,0.38,0.32,1.0,3.6,44.4,-14.7,33.56,,,,,,,,,,
16.20.05.920,-81.7,20.4,0,6.0,,74378.1,13.44,0.38,0.28,0.96,12.4,49.1,-20.3,33.56,,,,,,,,,,
16.20.05.928,-81.6,20.4,0,6.0,,71048.1,14.07,0.36,0.35,1.09,8.4,39.0,-23.2,33.56,,,,,,,,,,
16.20.05.941,-94.1,23.5,0,6.0,,69138.0,14.46,0.33,0.41,1.1,-3.9,37.4,-23.0,33.56,,,,,,,,,,
16.20.05.949,-89.5,22.4,0,6.0,,69506.1,14.39,0.32,0.38,1.1,-14.1,26.8,-21.9,33.56,,,,,,,,,,
16.20.05.961,-104.6,26.2,0,6.0,,67650.9,14.78,0.32,0.29,1.08,-17.6,21.5,-20.8,33.56,,,,,,,,,,
16.20.05.969,-87.2,21.8,0,6.0,,74879.5,13.35,0.28,0.27,1.02,-12.0,21.0,-24.5,33.56,,,,,,,,,,
16.20.05.982,-125.7,31.4,0,6.0,,68772.1,14.54,0.24,0.26,1.02,-1.5,14.9,-24.4,33.56,,,,,,,,,,
16.20.05.994,-147.4,36.8,0,6.0,,71524.8,13.98,0.26,0.26,1.01,9.0,10.9,-23.1,33.56,,,,,,,,,,
16.20.06.002,-148.5,37.1,0,6.0,,67561.1,14.8,0.26,0.27,1.02,20.1,3.5,-19.5,33.56,,,,,,,,,,
16.20.06.014,-145.6,36.4,0,6.0,,71669.4,13.95,0.27,0.28,1.0,28.6,-3.8,-15.4,33.56,,,,,,,,,,
16.20.06.022,-143.9,36.0,0,6.0,,70544.1,14.18,0.3,0.29,1.01,28.8,-13.2,-13.0,33.56,,,,,,,,,,
16.20.06.035,-137.2,34.3,0,6.0,,67662.9,14.78,0.32,0.34,1.05,20.6,-15.2,-6.0,33.56,,,,,,,,,,
16.20.06.047,-198.8,49.7,0,6.0,,69040.7,14.48,0.29,0.33,1.05,6.8,-13.6,-6.8,33.56,,,,,,,,,,
16.20.06.055,27.3,6.8,1,7.0,106.0,69217.2,14.45,0.24,0.26,0.97,-3.2,-18.5,-9.7,33.56,,,,,,,,,,
16.20.06.067,143.5,35.9,0,7.0,,71951.3,13.9,0.22,0.23,0.92,-2.8,-15.2,-14.7,33.56,,,,,,,,,,
16.20.06.076,164.8,41.2,0,7.0,,72695.9,13.76,0.19,0.2,0.9,2.3,-14.6,-20.1,33.56,,,,,,,,,,
16.20.06.088,203.9,51.0,0,7.0,,71873.4,13.91,0.21,0.22,0.88,7.9,-16.4,-27.1,33.56,,,,,,,,,,
16.20.06.100,322.0,80.5,0,7.0,,71118.5,14.06,0.2,0.26,0.89,11.6,-14.8,-31.8,33.56,,,,,,,,,,
16.20.06.137,410.2,102.6,0,7.0,,71835.7,13.92,0.2,0.28,0.9,14.0,-16.2,-35.7,33.56,,,,,,,,,,
16.20.06.146,422.5,105.6,0,7.0,,69191.7,14.45,0.29,0.36,0.95,-4.8,-18.2,-21.6,33.56,,,,,,,,,,
16.20.06.158,427.9,107.0,0,7.0,,71513.0,13.98,0.27,0.34,0.94,-7.4,-14.0,-12.9,33.56,,,,,,,,,,
16.20.06.166,390.6,97.6,0,7.0,,70790.5,14.13,0.24,0.28,0.85,-15.8,-3.8,-9.0,33.56,,,,,,,,,,
16.20.06.178,362.0,90.5,0,7.0,,70710.1,14.14,0.19,0.23,0.78,-17.3,1.2,-10.5,33.56,,,,,,,,,,
16.20.06.190,356.9,89.2,0,7.0,,71570.2,13.97,0.16,0.25,0.79,-20.0,-7.2,-11.8,33.56,,,,,,,,,,
16.20.06.199,348.3,87.1,0,7.0,,68239.1,14.65,0.17,0.25,0.69,24.5,-23.8,-33.0,33.56,,,,,,,,,,
16.20.06.211,193.9,48.5,0,7.0,,68017.8,14.7,0.2,0.3,0.82,6.4,2.7,-38.9,33.56,,,,,,,,,,
16.20.06.219,187.1,46.8,0,7.0,,72858.8,13.73,0.25,0.38,0.96,-20.9,24.3,-29.1,33.56,,,,,,,,,,
16.20.06.231,93.4,23.4,0,7.0,,69935.8,14.3,0.31,0.43,0.99,-49.0,28.1,-12.1,33.56,,,,,,,,,,
16.20.06.244,85.6,21.4,0,7.0,,72750.4,13.75,0.32,0.3,0.86,-22.8,9.5,-12.0,33.56,,,,,,,,,,
16.20.06.252,12.6,3.2,0,7.0,,70875.0,14.11,0.31,0.23,0.81,-15.6,10.4,-6.0,33.56,,,,,,,,,,
16.20.06.264,17.4,4.4,0,7.0,,71030.3,14.08,0.32,0.22,0.78,-4.4,14.1,-2.1,33.56,,,,,,,,,,
16.20.06.272,27.5,6.9,0,7.0,,74019.1,13.51,0.29,0.18,0.73,1.3,19.5,-3.2,33.56,,,,,,,,,,
16.20.06.285,83.3,20.8,0,7.0,,71267.5,14.03,0.27,0.14,0.69,-1.8,16.5,-5.2,33.56,,,,,,,,,,
16.20.06.297,64.4,16.1,0,7.0,,69878.7,14.31,0.2,0.09,0.63,4.8,10.2,-9.7,33.56,,,,,,,,,,
16.20.06.305,132.4,33.1,0,7.0,,70132.0,14.26,0.24,0.11,0.57,3.4,8.7,-10.8,33.56,,,,,,,,,,
16.20.06.317,103.2,25.8,0,7.0,,72466.2,13.8,0.25,0.11,0.61,4.7,7.7,-11.4,33.56,,,,,,,,,,
16.20.06.326,38.8,9.7,0,7.0,,68014.9,14.7,0.28,0.15,0.62,-2.3,11.9,-6.3,33.56,,,,,,,,,,
16.20.06.338,18.3,4.6,0,7.0,,69420.1,14.41,0.26,0.15,0.65,-7.9,14.6,-2.0,33.56,,,,,,,,,,
16.20.06.346,34.8,8.7,0,7.0,,68075.2,14.69,0.22,0.15,0.69,-16.0,18.3,3.1,33.56,,,,,,,,,,
16.20.06.358,24.5,6.1,0,7.0,,69608.7,14.37,0.21,0.17,0.72,-17.3,29.6,3.0,33.56,,,,,,,,,,
16.20.06.371,0.4,0.1,0,7.0,,70682.5,14.15,0.15,0.14,0.75,-18.1,27.3,3.2,33.56,,,,,,,,,,
16.20.06.379,10.9,2.7,0,7.0,,70246.7,14.24,0.14,0.15,0.78,-13.0,28.0,-4.4,33.56,,,,,,,,,,
16.20.06.391,-20.4,5.1,0,7.0,,68202.6,14.66,0.17,0.18,0.84,-4.0,24.3,-14.4,33.56,,,,,,,,,,
16.20.06.403,-37.0,9.2,0,7.0,,71257.2,14.03,0.19,0.17,0.84,2.1,19.1,-22.6,33.56,,,,,,,,,,
16.20.06.416,-36.9,9.2,0,7.0,,71850.5,13.92,0.23,0.2,0.86,5.6,15.8,-26.5,33.56,,,,,,,,,,
16.20.06.424,-49.2,12.3,0,7.0,,71464.9,13.99,0.23,0.22,0.9,9.1,5.3,-31.4,33.56,,,,,,,,,,
16.20.06.436,-28.6,7.2,0,7.0,,74146.4,13.49,0.21,0.22,0.91,16.7,4.7,-30.2,33.56,,,,,,,,,,
16.20.06.444,-64.6,16.2,0,7.0,,72564.7,13.78,0.18,0.27,0.97,11.6,-2.8,-28.7,33.56,,,,,,,,,,
16.20.06.457,-94.3,23.6,0,7.0,,70332.6,14.22,0.14,0.31,1.0,21.5,-9.9,-32.2,33.56,,,,,,,,,,
16.20.06.465,-73.2,18.3,0,7.0,,78107.1,12.8,0.18,0.32,0.98,20.3,-7.2,-24.9,33.56,,,,,,,,,,
16.20.06.477,-63.6,15.9,0,7.0,,68138.5,14.68,0.19,0.3,0.96,12.8,-2.4,-19.0,33.56,,,,,,,,,,
16.20.06.489,-91.1,22.8,0,7.0,,69102.6,14.47,0.2,0.3,0.94,16.3,-3.1,-16.0,33.56,,,,,,,,,,
16.20.06.498,-92.3,23.1,0,7.0,,70305.5,14.22,0.2,0.32,0.92,15.8,-1.3,-13.2,33.56,,,,,,,,,,
16.20.06.510,-83.9,21.0,0,7.0,,67156.6,14.89,0.21,0.31,0.93,15.5,1.2,-11.2,33.56,,,,,,,,,,
16.20.06.518,-114.8,28.7,0,7.0,,74430.9,13.44,0.2,0.32,0.94,17.7,-0.8,-7.5,33.56,,,,,,,,,,
16.20.06.530,-92.3,23.1,0,7.0,,68652.9,14.57,0.23,0.33,0.92,16.4,0.9,-1.1,33.56,,,,,,,,,,
16.20.06.539,-108.7,27.2,0,7.0,,69212.0,14.45,0.25,0.32,0.92,15.3,-0.6,4.0,33.56,,,,,,,,,,
16.20.06.551,-117.4,29.4,0,7.0,,71065.8,14.07,0.25,0.29,0.91,13.6,4.3,9.9,33.56,,,,,,,,,,
16.20.06.559,-141.0,35.2,0,7.0,,71850.1,13.92,0.25,0.27,0.92,14.4,8.0,15.7,33.56,,,,,,,,,,
16.20.06.571,-129.6,32.4,0,7.0,,68537.8,14.59,0.24,0.27,0.94,15.2,11.0,21.4,33.56,,,,,,,,,,
16.20.06.584,-156.8,39.2,0,7.0,,68810.2,14.53,0.24,0.24,0.9,15.7,13.8,24.0,33.56,,,,,,,,,,
16.20.06.592,-135.8,34.0,0,7.0,,71326.2,14.02,0.24,0.21,0.87,16.0,16.1,26.5,33.56,,,,,,,,,,
16.20.06.604,-145.6,36.4,0,7.0,,71167.4,14.05,0.25,0.21,0.88,21.2,15.0,26.0,33.56,,,,,,,,,,
16.20.06.612,-150.6,37.6,0,7.0,,73952.8,13.52,0.29,0.24,0.94,20.4,19.8,26.0,33.56,,,,,,,,,,
16.20.06.625,71.6,17.9,1,8.0,109.7,71756.1,13.94,0.31,0.27,0.92,20.7,23.7,23.7,33.56,,,,,,,,,,
16.20.06.633,127.5,31.9,0,8.0,,71807.8,13.93,0.29,0.25,0.96,24.2,20.5,20.2,33.56,,,,,,,,,,
16.20.06.645,230.7,57.7,0,8.0,,71941.5,13.9,0.32,0.28,1.0,18.7,20.6,22.8,33.56,,,,,,,,,,
16.20.06.653,178.8,44.7,0,8.0,,71317.1,14.02,0.3,0.24,0.94,19.9,20.0,22.2,33.56,,,,,,,,,,
16.20.06.666,335.8,84.0,0,8.0,,68610.2,14.58,0.26,0.18,0.93,31.0,10.6,19.0,33.56,,,,,,,,,,
16.20.06.674,307.4,76.8,0,8.0,,71306.1,14.02,0.29,0.22,0.97,38.8,8.5,16.1,33.56,,,,,,,,,,
16.20.06.686,359.6,89.9,0,8.0,,70277.1,14.23,0.31,0.25,0.92,50.1,6.8,14.1,33.56,,,,,,,,,,
16.20.06.699,381.3,95.3,0,8.0,,68126.0,14.68,0.3,0.27,0.94,52.7,11.1,12.8,33.56,,,,,,,,,,
16.20.06.711,368.8,92.2,0,8.0,,71307.0,14.02,0.28,0.28,0.92,51.0,12.7,15.0,33.56,,,,,,,,,,
16.20.06.719,406.7,101.7,0,8.0,,68814.1,14.53,0.27,0.31,0.97,51.4,11.7,24.3,33.56,,,,,,,,,,
16.20.06.731,389.2,97.3,0,8.0,,73030.0,13.69,0.22,0.27,0.94,52.6,3.3,23.1,33.56,,,,,,,,,,
16.20.06.739,354.3,88.6,0,8.0,,70070.4,14.27,0.15,0.23,0.91,57.9,-0.1,19.3,33.56,,,,,,,,,,
16.20.06.752,315.7,78.9,0,8.0,,73351.5,13.63,0.15,0.23,0.83,71.7,-3.7,10.0,33.56,,,,,,,,,,
16.20.06.760,296.9,74.2,0,8.0,,69620.9,14.36,0.15,0.21,0.75,88.9,-0.7,-3.2,33.56,,,,,,,,,,
16.20.06.772,247.1,61.8,0,8.0,,71754.1,13.94,0.15,0.17,0.68,109.1,6.2,-18.0,33.56,,,,,,,,,,
16.20.06.780,249.1,62.3,0,8.0,,70814.1,14.12,0.19,0.2,0.64,124.6,17.4,-37.4,33.56,,,,,,,,,,
16.20.06.793,128.9,32.2,0,8.0,,69359.3,14.42,0.23,0.33,0.68,144.2,15.9,-55.4,33.56,,,,,,,,,,
16.20.06.801,104.8,26.2,0,8.0,,70619.4,14.16,0.18,0.42,0.71,157.9,20.9,-70.1,33.56,,,,,,,,,,
16.20.06.813,-45.0,11.2,0,8.0,,71180.1,14.05,0.15,0.45,0.7,171.2,29.2,-81.8,33.56,,,,,,,,,,
16.20.06.822,21.8,5.4,0,8.0,,71576.2,13.97,0.1,0.55,0.81,168.4,42.7,-87.5,33.56,,,,,,,,,,
16.20.06.834,13.2,3.3,0,8.0,,68020.6,14.7,0.06,0.67,0.93,148.1,21.5,-103.6,33.56,,,,,,,,,,
16.20.06.846,69.3,17.3,0,8.0,,72180.6,13.85,0.32,0.53,0.62,148.3,26.4,-99.7,33.56,,,,,,,,,,
16.20.06.854,51.2,12.8,0,8.0,,71052.4,14.07,0.07,0.56,0.67,155.0,24.0,-107.8,33.56,,,,,,,,,,
16.20.06.866,82.7,20.7,0,8.0,,71548.2,13.98,0.07,0.53,0.59,176.0,40.2,-134.1,33.56,,,,,,,,,,
16.20.06.875,76.6,19.2,0,8.0,,69330.2,14.42,0.12,0.57,0.5,202.0,59.1,-157.7,33.56,,,,,,,,,,
16.20.06.887,60.2,15.0,0,8.0,,68148.7,14.67,0.13,0.69,0.49,226.6,84.1,-171.8,33.56,,,,,,,,,,
16.20.06.895,43.9,11.0,0,8.0,,69189.5,14.45,-0.02,0.85,0.54,218.3,68.7,-163.7,33.56,,,,,,,,,,
16.20.06.907,34.7,8.7,0,8.0,,72857.2,13.73,0.09,1.0,0.72,193.4,75.3,-145.4,33.56,,,,,,,,,,
16.20.06.944,-9.1,2.3,0,8.0,,66017.0,15.15,0.09,1.03,0.69,163.9,44.5,-118.8,33.63,,,,,,,,,,
16.20.06.956,-31.6,7.9,0,8.0,,70272.1,14.23,-0.08,0.73,0.27,154.8,68.0,-140.5,33.63,,,,,,,,,,
16.20.06.965,-53.6,13.4,0,8.0,,73642.9,13.58,-0.16,0.78,0.16,186.2,128.5,-164.4,33.63,,,,,,,,,,
16.20.06.977,-13.2,3.3,0,8.0,,70431.5,14.2,-0.23,0.88,0.11,218.9,176.7,-180.0,33.63,,,,,,,,,,
16.20.06.989,-36.6,9.2,0,8.0,,70957.0,14.09,-0.26,1.15,0.24,206.0,149.6,-145.2,33.63,,,,,,,,,,
16.20.06.998,-67.7,16.9,0,8.0,,68357.1,14.63,-0.18,1.32,0.49,158.7,87.1,-86.6,33.63,,,,,,,,,,
16.20.07.010,-46.4,11.6,0,8.0,,72096.6,13.87,-0.21,1.14,0.34,113.9,-18.4,-42.0,33.63,,,,,,,,,,
16.20.07.018,-85.5,21.4,0,8.0,,71922.0,13.9,-0.13,1.08,0.39,81.3,-38.9,-19.5,33.63,,,,,,,,,,
16.20.07.030,-45.7,11.4,0,8.0,,69888.2,14.31,-0.17,0.91,0.24,53.3,21.8,-20.4,33.63,,,,,,,,,,
16.20.07.043,-57.4,14.4,0,8.0,,70106.7,14.26,-0.21,0.79,0.15,52.6,57.3,-30.0,33.63,,,,,,,,,,
16.20.07.051,-58.5,14.6,0,8.0,,69469.9,14.39,-0.24,0.69,0.13,71.9,89.1,-54.2,33.63,,,,,,,,,,
16.20.07.063,-124.6,31.2,0,8.0,,73964.1,13.52,-0.24,0.85,0.24,82.0,62.9,-64.8,33.63,,,,,,,,,,
16.20.07.071,-138.4,34.6,0,8.0,,74414.6,13.44,-0.31,0.84,0.24,104.0,75.4,-85.8,33.63,,,,,,,,,,
16.20.07.083,-106.7,26.7,0,8.0,,72432.5,13.81,-0.43,1.06,0.51,105.7,28.7,-68.9,33.63,,,,,,,,,,
16.20.07.092,-106.0,26.5,0,8.0,,72653.3,13.76,-0.14,1.13,0.79,30.0,-13.4,-25.3,33.63,108.9,,,,,,,,,
16.20.07.104,-118.6,29.6,0,8.0,,70733.6,14.14,-0.34,0.92,0.07,48.2,52.7,-33.5,33.63,,,,,,,,,,
16.20.07.116,-144.9,36.2,0,8.0,,71258.8,14.03,-0.39,0.82,0.32,58.7,35.1,-43.8,33.63,,,,,,,,,,
16.20.07.124,-116.7,29.2,0,8.0,,73785.6,13.55,-0.08,0.86,0.11,71.7,21.6,-37.4,33.63,,,,,,,,,,
16.20.07.137,-138.8,34.7,0,8.0,,67215.8,14.88,-0.35,0.83,0.29,54.7,16.3,-33.0,33.63,,,,,,,,,,
16.20.07.145,-152.9,38.2,0,8.0,,69664.6,14.35,-0.31,0.95,0.36,57.2,37.3,-34.1,33.63,,,,,,,,,,
16.20.07.157,-156.9,39.2,0,8.0,,69929.2,14.3,-0.29,0.93,0.24,37.2,3.4,-21.2,33.63,,,,,,,,,,
16.20.07.166,-149.8,37.4,0,8.0,,70289.4,14.23,-0.33,0.93,0.29,32.4,-10.0,-14.3,33.63,,,,,,,,,,
16.20.07.178,-159.7,39.9,0,8.0,,72809.3,13.73,-0.26,0.93,0.25,15.0,-18.6,-8.8,33.63,,,,,,,,,,
16.20.07.190,90.3,22.6,1,9.0,108.6,71907.2,13.91,-0.28,0.87,0.17,4.0,-9.8,-11.7,33.63,,,,,,,,,,
16.20.07.198,87.1,21.8,0,9.0,,71981.5,13.89,-0.4,0.86,0.05,3.2,2.2,-7.8,33.63,,,,,,,,,,
16.20.07.211,187.8,47.0,0,9.0,,72636.5,13.77,-0.33,0.77,0.01,16.0,-7.6,-9.2,33.63,,,,,,,,,,
16.20.07.219,238.9,59.7,0,9.0,,72091.3,13.87,-0.35,0.76,0.01,28.6,-10.7,-17.9,33.63,,,,,,,,,,
16.20.07.231,268.3,67.1,0,9.0,,69020.6,14.49,-0.34,0.86,0.13,39.3,-7.2,-19.1,33.63,,,,,,,,,,
16.20.07.239,305.7,76.4,0,9.0,,72026.8,13.88,-0.32,0.92,0.21,30.6,-11.5,-18.3,33.63,,,,,,,,,,
16.20.07.251,344.4,86.1,0,9.0,,67631.8,14.79,-0.32,0.95,0.25,12.2,-14.5,-12.3,33.63,,,,,,,,,,
16.20.07.260,360.8,90.2,0,9.0,,71705.1,13.95,-0.34,0.79,0.21,-6.2,-16.3,-19.4,33.63,,,,,,,,,,
16.20.07.272,410.7,102.7,0,9.0,,71366.3,14.01,-0.33,0.77,0.17,-5.8,-12.6,-21.3,33.63,,,,,,,,,,
16.20.07.284,411.8,103.0,0,9.0,,69929.2,14.3,-0.43,0.68,0.05,9.0,-16.7,-25.7,33.63,,,,,,,,,,
16.20.07.292,380.6,95.2,0,9.0,,71244.6,14.04,-0.37,0.81,0.09,18.8,-14.2,-33.4,33.63,,,,,,,,,,
16.20.07.305,377.0,94.2,0,9.0,,67288.2,14.86,-0.38,0.8,0.05,28.1,-13.8,-37.5,33.63,,,,,,,,,,
16.20.07.313,397.3,99.3,0,9.0,,73577.3,13.59,-0.37,0.81,0.03,38.6,-13.3,-41.8,33.63,,,,,,,,,,
16.20.07.325,344.1,86.0,0,9.0,,71304.4,14.02,-0.34,0.86,0.0,52.0,-7.9,-44.1,33.63,,,,,,,,,,
16.20.07.333,242.1,60.5,0,9.0,,73427.4,13.62,-0.33,0.88,-0.08,64.6,-6.3,-45.3,33.63,,,,,,,,,,
16.20.07.346,167.5,41.9,0,9.0,,66399.5,15.06,-0.33,0.91,-0.14,80.1,-7.3,-40.9,33.63,,,,,,,,,,
16.20.07.358,142.4,35.6,0,9.0,,68746.2,14.55,-0.33,0.95,-0.17,95.4,-8.5,-39.4,33.63,,,,,,,,,,
16.20.07.366,57.5,14.4,0,9.0,,71470.8,13.99,-0.7,0.96,-0.26,91.0,-54.0,-44.6,33.63,,,,,,,,,,
16.20.07.378,-9.7,2.4,0,9.0,,71298.3,14.03,-0.53,1.0,-0.45,117.2,24.7,-50.2,33.63,,,,,,,,,,
16.20.07.387,20.9,5.2,0,9.0,,66751.3,14.98,-0.19,1.0,-0.57,178.5,39.0,-67.0,33.63,,,,,,,,,,
16.20.07.399,54.6,13.6,0,9.0,,70307.7,14.22,-0.29,1.17,-0.32,223.3,28.9,-64.9,33.63,,,,,,,,,,
16.20.07.411,52.9,13.2,0,9.0,,69295.5,14.43,-0.43,1.23,-0.2,180.5,20.8,-41.1,33.63,,,,,,,,,,
16.20.07.419,70.8,17.7,0,9.0,,73062.4,13.69,-0.35,1.19,-0.14,168.8,37.5,-27.6,33.63,,,,,,,,,,
16.20.07.432,67.4,16.8,0,9.0,,73689.5,13.57,-0.52,1.22,-0.23,164.8,57.8,-16.6,33.63,,,,,,,,,,
16.20.07.440,64.4,16.1,0,9.0,,74859.2,13.36,-0.49,1.13,-0.36,132.1,41.7,3.1,33.63,,,,,,,,,,
16.20.07.452,78.9,19.7,0,9.0,,70545.4,14.18,-0.34,1.37,-0.29,95.5,59.6,23.0,33.63,,,,,,,,,,
16.20.07.460,84.9,21.2,0,9.0,,70776.3,14.13,-0.45,1.02,-0.36,39.4,67.6,17.7,33.63,,,,,,,,,,
16.20.07.473,54.9,13.7,0,9.0,,68334.3,14.63,-0.36,0.79,-0.48,25.6,83.1,3.1,33.63,,,,,,,,,,
16.20.07.481,3.8,1.0,0,9.0,,75934.4,13.17,-0.63,0.77,-0.46,51.5,107.1,-20.6,33.63,,,,,,,,,,
16.20.07.493,-37.5,9.4,0,9.0,,74335.1,13.45,-0.66,0.74,-0.14,100.8,78.8,-41.5,33.63,,,,,,,,,,
16.20.07.506,-9.1,2.3,0,9.0,,68794.9,14.54,-0.39,1.11,-0.07,-1.8,4.5,4.1,33.63,,,,,,,,,,
16.20.07.514,-20.3,5.1,0,9.0,,72731.6,13.75,-0.48,0.69,-0.15,66.4,66.3,-22.6,33.63,,,,,,,,,,
16.20.07.526,-15.2,3.8,0,9.0,,75665.7,13.22,-0.47,0.87,0.09,33.7,18.8,-3.5,33.63,,,,,,,,,,
16.20.07.534,-34.1,8.5,0,9.0,,68541.6,14.59,-0.46,0.83,-0.07,40.1,25.9,-1.4,33.63,,,,,,,,,,
16.20.07.547,-22.3,5.6,0,9.0,,68793.8,14.54,-0.51,0.73,-0.23,42.2,18.3,-5.5,33.63,,,,,,,,,,
16.20.07.555,-10.8,2.7,0,9.0,,71405.3,14.0,-0.43,0.93,-0.15,41.3,38.3,-6.6,33.63,,,,,,,,,,
16.20.07.567,-25.2,6.3,0,9.0,,70897.7,14.1,-0.4,0.92,-0.18,42.1,28.4,-11.5,33.63,,,,,,,,,,
16.20.07.575,-37.2,9.3,0,9.0,,71536.9,13.98,-0.34,0.93,-0.17,24.7,7.3,-11.3,33.63,,,,,,,,,,
16.20.07.587,-40.4,10.1,0,9.0,,74968.3,13.34,-0.43,0.86,-0.31,2.2,5.6,-9.8,33.63,,,,,,,,,,
16.20.07.596,-71.6,17.9,0,9.0,,71424.7,14.0,-0.36,0.87,-0.26,18.7,30.5,-16.8,33.63,,,,,,,,,,
16.20.07.608,-69.0,17.2,0,9.0,,70300.1,14.22,-0.3,0.95,-0.36,16.7,-3.9,-4.6,33.63,,,,,,,,,,
16.20.07.616,-76.2,19.0,0,9.0,,71271.9,14.03,-0.29,0.95,-0.36,30.5,-7.6,2.1,33.63,,,,,,,,,,
16.20.07.629,-102.0,25.5,0,9.0,,71150.8,14.05,-0.34,0.88,-0.46,50.9,-4.8,-1.5,33.63,,,,,,,,,,
16.20.07.641,-87.0,21.8,0,9.0,,71063.7,14.07,-0.38,0.89,-0.53,65.4,-13.7,0.6,33.63,,,,,,,,,,
16.20.07.649,-94.2,23.6,0,9.0,,69916.8,14.3,-0.35,0.99,-0.49,84.4,-6.6,1.4,33.63,,,,,,,,,,
16.20.07.661,-109.1,27.3,0,9.0,,70115.7,14.26,-0.45,1.03,-0.53,83.5,11.9,5.8,33.63,,,,,,,,,,
16.20.07.670,-87.4,21.8,0,9.0,,70180.8,14.25,-0.48,0.89,-0.41,79.9,22.3,2.9,33.63,,,,,,,,,,
16.20.07.682,-143.3,35.8,0,9.0,,70125.2,14.26,-0.47,0.77,-0.37,92.7,40.0,-6.8,33.63,,,,,,,,,,
16.20.07.690,-122.3,30.6,0,9.0,,72730.3,13.75,-0.44,0.76,-0.46,94.4,28.7,-7.0,33.63,,,,,,,,,,
16.20.07.702,-147.2,36.8,0,9.0,,69348.8,14.42,-0.39,0.78,-0.43,102.7,26.6,-12.5,33.63,,,,,,,,,,
16.20.07.710,-152.6,38.2,0,9.0,,69569.3,14.37,-0.36,0.89,-0.44,93.4,23.0,-8.3,33.63,,,,,,,,,,
16.20.07.747,8.3,2.1,1,10.0,102.7,72922.9,13.71,-0.33,0.94,-0.42,83.2,23.3,-4.1,33.63,,,,,,,,,,
16.20.07.760,99.9,25.0,0,10.0,,70706.9,14.14,-0.45,0.65,-0.56,78.9,30.6,2.2,33.63,,,,,,,,,,
16.20.07.768,116.0,29.0,0,10.0,,69545.6,14.38,-0.44,0.63,-0.51,87.3,29.3,-0.8,33.63,,,,,,,,,,
16.20.07.780,216.6,54.2,0,10.0,,72377.2,13.82,-0.47,0.61,-0.55,92.9,37.2,-4.6,33.63,,,,,,,,,,
16.20.07.788,248.3,62.1,0,10.0,,78073.7,12.81,-0.54,0.71,-0.53,74.1,3.0,-0.6,33.63,,,,,,,,,,
16.20.07.800,354.9,88.7,0,10.0,,72441.6,13.8,-0.18,0.6,-0.61,98.3,15.4,-26.1,33.63,,,,,,,,,,
16.20.07.809,352.5,88.1,0,10.0,,70564.9,14.17,-1.78,-0.42,-0.66,-98.0,-250.1,-236.4,33.63,,,,,,,,,,
16.20.07.821,391.3,97.8,0,10.0,,72950.2,13.71,-0.8,0.98,-0.61,117.1,136.5,-43.9,33.63,,,,,,,,,,
16.20.07.829,410.2,102.6,0,10.0,,74519.6,13.42,0.04,0.53,-0.84,81.0,32.1,-18.8,33.63,,,,,,,,,,
16.20.07.841,373.3,93.3,0,10.0,,68024.0,14.7,-0.33,0.78,-0.58,76.4,50.4,-4.6,33.63,,,,,,,,,,
16.20.07.850,410.7,102.7,0,10.0,,72419.0,13.81,-0.39,0.8,-0.61,89.0,47.3,11.0,33.63,,,,,,,,,,
16.20.07.862,390.7,97.7,0,10.0,,71981.0,13.89,-0.43,0.71,-0.64,94.9,40.4,4.7,33.63,,,,,,,,,,
16.20.07.870,380.6,95.2,0,10.0,,73118.7,13.68,-0.49,0.72,-0.62,100.3,48.0,-2.9,33.63,,,,,,,,,,
16.20.07.883,334.1,83.5,0,10.0,,67976.8,14.71,-0.36,0.67,-0.62,90.6,64.0,-3.8,33.63,,,,,,,,,,
16.20.07.891,339.7,84.9,0,10.0,,69664.0,14.35,-0.47,0.72,-0.64,89.5,55.6,-10.4,33.63,,,,,,,,,,
16.20.07.903,245.7,61.4,0,10.0,,71086.0,14.07,-0.47,0.76,-0.68,91.7,52.6,-11.9,33.63,,,,,,,,,,
16.20.07.915,191.4,47.8,0,10.0,,72303.1,13.83,-0.36,0.77,-0.64,92.5,50.3,-5.9,33.63,,,,,,,,,,
16.20.07.923,155.1,38.8,0,10.0,,69038.0,14.48,-0.38,0.76,-0.65,83.3,44.4,-3.9,33.63,,,,,,,,,,
16.20.07.936,40.4,10.1,0,10.0,,72503.3,13.79,-0.38,0.72,-0.6,62.6,39.0,1.8,33.63,,,,,,,,,,
16.20.07.944,-6.5,1.6,0,10.0,,70568.3,14.17,-0.37,0.79,-0.53,33.1,36.6,6.1,33.63,,,,,,,,,,
16.20.07.956,12.5,3.1,0,10.0,,68830.9,14.53,-0.38,0.76,-0.59,29.7,32.1,13.7,33.63,,,,,,,,,,
16.20.07.964,34.6,8.6,0,10.0,,74562.7,13.41,-0.41,0.73,-0.76,39.6,30.1,13.6,33.63,,,,,,,,,,
16.20.07.977,64.9,16.2,0,10.0,,71689.8,13.95,-0.44,0.7,-0.79,60.2,30.9,8.7,33.63,,,,,,,,,,
16.20.07.985,91.2,22.8,0,10.0,,72394.4,13.81,-0.38,0.68,-0.73,79.9,35.4,4.6,33.63,,,,,,,,,,
16.20.07.997,62.0,15.5,0,10.0,,74026.7,13.51,-0.36,0.69,-0.72,89.5,37.3,3.6,33.63,,,,,,,,,,
16.20.08.005,64.3,16.1,0,10.0,,71162.9,14.05,-0.18,0.86,-0.54,71.3,44.0,-5.7,33.63,,,,,,,,,,
16.20.08.018,82.5,20.6,0,10.0,,71005.1,14.08,-0.37,0.8,-0.58,86.1,46.5,-4.8,33.63,,,,,,,,,,
16.20.08.026,47.2,11.8,0,10.0,,72385.5,13.81,-0.34,0.77,-0.73,86.6,36.0,11.2,33.63,,,,,,,,,,
16.20.08.038,53.4,13.4,0,10.0,,71079.4,14.07,-0.26,0.73,-0.7,87.2,40.2,15.1,33.63,,,,,,,,,,
16.20.08.046,40.5,10.1,0,10.0,,71228.9,14.04,-0.27,0.7,-0.76,74.9,26.7,24.5,33.63,,,,,,,,,,
16.20.08.058,-6.0,1.5,0,10.0,,72893.5,13.72,-0.21,0.66,-0.76,68.3,26.0,30.2,33.63,,,,,,,,,,
16.20.08.067,12.4,3.1,0,10.0,,71601.9,13.97,-0.25,0.65,-0.73,76.0,25.1,29.2,33.63,,,,,,,,,,
16.20.08.079,-35.7,8.9,0,10.0,,69990.9,14.29,-0.39,0.86,-0.7,60.4,14.7,-12.3,33.63,,,,,,,,,,
16.20.08.091,-20.0,5.0,0,10.0,,68628.7,14.57,-0.26,0.7,-0.75,56.8,32.0,37.1,33.63,,,,,,,,,,
16.20.08.099,-36.8,9.2,0,10.0,,68256.5,14.65,-0.25,0.76,-0.71,44.0,32.1,34.6,33.63,,,,,,,,,,
16.20.08.112,-28.3,7.1,0,10.0,,70981.5,14.09,-0.22,0.64,-0.74,37.0,27.7,36.2,33.63,,,,,,,,,,
16.20.08.120,-51.6,12.9,0,10.0,,70231.9,14.24,-0.22,0.57,-0.83,31.6,31.0,32.7,33.63,,,,,,,,,,
16.20.08.132,-21.7,5.4,0,10.0,,67272.3,14.86,-0.18,0.58,-0.88,32.7,23.5,36.6,33.63,,,,,,,,,,
16.20.08.140,-62.3,15.6,0,10.0,,70828.6,14.12,-0.2,0.54,-0.95,35.0,21.2,38.0,33.63,,,,,,,,,,
16.20.08.153,-37.5,9.4,0,10.0,,73988.4,13.52,-0.24,0.53,-1.01,44.6,30.1,35.0,33.63,,,,,,,,,,
16.20.08.165,-63.1,15.8,0,10.0,,70262.2,14.23,-0.19,0.58,-0.94,48.4,25.0,36.1,33.63,,,,,,,,,,
16.20.08.173,-79.4,19.8,0,10.0,,70785.4,14.13,-0.2,0.66,-0.89,42.6,29.9,39.5,33.63,,,,,,,,,,
16.20.08.185,-67.5,16.9,0,10.0,,70484.5,14.19,-0.2,0.68,-0.85,40.0,32.5,41.0,33.63,,,,,,,,,,
16.20.08.194,-98.8,24.7,0,10.0,,75123.3,13.31,-0.2,0.67,-0.85,26.2,32.2,46.2,33.63,,,,,,,,,,
16.20.08.206,-90.0,22.5,0,10.0,,71450.9,14.0,-0.21,0.6,-0.89,19.8,30.3,47.0,33.63,,,,,,,,,,
16.20.08.218,-98.2,24.6,0,10.0,,69951.7,14.3,-0.18,0.61,-0.84,16.8,30.2,48.5,33.63,,,,,,,,,,
16.20.08.227,-103.8,26.0,0,10.0,,71715.1,13.94,-0.2,0.54,-0.88,17.4,26.1,50.2,33.63,,,,,,,,,,
16.20.08.239,-135.6,33.9,0,10.0,,70572.5,14.17,-0.21,0.54,-0.91,26.7,25.9,49.7,33.63,,,,,,,,,,
16.20.08.247,-118.0,29.5,0,10.0,,66513.8,15.03,-0.21,0.54,-0.93,32.5,25.0,48.3,33.63,,,,,,,,,,
16.20.08.259,-155.9,39.0,0,10.0,,70084.8,14.27,-0.22,0.54,-0.95,40.1,27.6,44.3,33.63,,,,,,,,,,
16.20.08.272,-116.1,29.0,0,10.0,,70514.6,14.18,-0.22,0.53,-0.97,39.2,30.5,40.6,33.63,,,,,,,,,,
16.20.08.280,-128.8,32.2,0,10.0,,68395.5,14.62,-0.22,0.56,-0.98,39.3,36.2,34.9,33.63,,,,,,,,,,
16.20.08.292,-155.2,38.8,0,10.0,,70374.2,14.21,-0.2,0.57,-0.95,36.6,39.0,32.6,33.63,,,,,,,,,,
16.20.08.304,-147.8,37.0,0,10.0,,69417.3,14.41,-0.18,0.57,-0.95,31.6,38.2,31.2,33.63,,,,,,,,,,
16.20.08.312,8.7,2.2,1,11.0,106.2,68820.7,14.53,-0.16,0.57,-0.95,27.8,40.0,29.9,33.63,,,,,,,,,,
16.20.08.325,77.6,19.4,0,11.0,,70604.2,14.16,-0.14,0.56,-0.94,22.8,34.4,32.1,33.63,,,,,,,,,,
16.20.08.333,159.4,39.8,0,11.0,,71592.8,13.97,-0.14,0.54,-0.94,19.6,32.2,33.8,33.63,,,,,,,,,,
16.20.08.345,217.8,54.4,0,11.0,,73259.8,13.65,-0.14,0.56,-0.94,14.4,26.8,34.8,33.63,,,,,,,,,,
16.20.08.358,273.8,68.4,0,11.0,,70301.1,14.22,-0.14,0.54,-0.94,10.4,24.1,36.4,33.63,,,,,,,,,,
16.20.08.366,322.2,80.6,0,11.0,,73291.7,13.64,0.05,0.5,-0.98,-1.0,24.0,26.3,33.63,,,,,,,,,,
16.20.08.378,334.4,83.6,0,11.0,,69957.1,14.29,-0.24,0.16,-1.01,12.1,26.4,41.4,33.63,,,,,,,,,,
16.20.08.386,416.7,104.2,0,11.0,,64535.9,15.5,-0.14,0.54,-0.95,0.2,31.6,30.7,33.63,,,,,,,,,,
16.20.08.399,435.7,108.9,0,11.0,,73955.0,13.52,-0.16,0.51,-0.96,3.5,33.6,26.4,33.63,,,,,,,,,,
16.20.08.411,431.4,107.8,0,11.0,,73621.9,13.58,-0.14,0.49,-0.96,6.7,36.6,20.7,33.63,,,,,,,,,,
16.20.08.419,393.2,98.3,0,11.0,,68190.1,14.66,-0.11,0.52,-0.94,6.0,40.5,17.6,33.63,,,,,,,,,,
16.20.08.431,473.3,118.3,0,11.0,,72683.9,13.76,-0.1,0.49,-0.94,3.4,40.9,15.9,33.63,,,,,,,,,,
16.20.08.439,363.4,90.8,0,11.0,,72043.5,13.88,-0.09,0.5,-0.93,0.0,40.8,14.2,33.63,,,,,,,,,,
16.20.08.452,330.0,82.5,0,11.0,,70326.5,14.22,-0.12,0.63,-0.9,-18.6,37.2,-12.4,33.63,,,,,,,,,,
16.20.08.464,258.0,64.5,0,11.0,,72911.6,13.72,-0.1,0.59,-0.91,0.8,36.0,9.7,33.63,,,,,,,,,,
16.20.08.472,220.3,55.1,0,11.0,,70478.6,14.19,-0.1,0.48,-0.89,-5.2,30.5,13.2,33.63,,,,,,,,,,
16.20.08.485,120.1,30.0,0,11.0,,72170.8,13.86,-0.09,0.47,-0.91,-10.4,29.7,12.3,33.63,,,,,,,,,,
16.20.08.497,76.5,19.1,0,11.0,,71251.7,14.03,-0.09,0.47,-0.94,-7.1,27.8,7.7,33.63,,,,,,,,,,
16.20.08.505,-15.2,3.8,0,11.0,,72624.3,13.77,-0.08,0.47,-0.97,-2.8,29.6,4.7,33.63,,,,,,,,,,
16.20.08.518,10.0,2.5,0,11.0,,69281.3,14.43,-0.06,0.67,-1.02,-11.5,29.7,-19.6,33.63,,,,,,,,,,
16.20.08.554,65.8,16.4,0,11.0,,73204.5,13.66,-0.03,0.39,-0.9,7.5,35.9,-11.0,33.63,,,,,,,,,,
16.20.08.566,66.4,16.6,0,11.0,,72387.0,13.81,-0.06,0.52,-0.87,3.7,42.5,-6.8,33.63,,,,,,,,,,
16.20.08.575,52.4,13.1,0,11.0,,73723.2,13.56,-0.06,0.49,-0.87,3.2,38.9,-7.2,33.63,,,,,,,,,,
16.20.08.587,76.7,19.2,0,11.0,,70640.1,14.16,-0.22,0.31,-0.87,2.6,31.8,-18.5,33.63,,,,,,,,,,
16.20.08.599,56.2,14.0,0,11.0,,73561.9,13.59,-0.15,0.4,-0.85,-0.3,35.7,-12.1,33.63,,,,,,,,,,
16.20.08.607,33.5,8.4,0,11.0,,70517.0,14.18,-0.07,0.35,-0.89,14.3,31.2,-6.4,33.63,,,,,,,,,,
16.20.08.620,-7.0,1.8,0,11.0,,69832.0,14.32,-0.08,0.3,-0.87,19.2,28.9,-17.1,33.63,,,,,,,,,,
16.20.08.632,-16.1,4.0,0,11.0,,69052.3,14.48,-0.07,0.46,-0.86,16.1,30.7,-16.6,33.63,,,,,,,,,,
16.20.08.640,18.7,4.7,0,11.0,,71814.8,13.92,-0.07,0.43,-0.83,18.1,31.1,-15.0,33.63,,,,,,,,,,
16.20.08.653,-14.9,3.7,0,11.0,,72397.0,13.81,-0.07,0.43,-0.81,11.1,29.7,-18.6,33.63,,,,,,,,,,
16.20.08.665,-2.0,0.5,0,11.0,,65029.2,15.38,-0.07,0.44,-0.81,5.4,28.5,-23.2,33.63,,,,,,,,,,
16.20.08.673,-34.0,8.5,0,11.0,,74701.3,13.39,-0.05,0.4,-0.82,1.9,26.6,-28.3,33.63,,,,,,,,,,
16.20.08.685,-68.0,17.0,0,11.0,,71670.5,13.95,-0.02,0.42,-0.83,0.0,25.7,-29.5,33.63,,,,,,,,,,
16.20.08.693,-50.7,12.7,0,11.0,,72510.3,13.79,-0.02,0.5,-0.79,-14.3,31.4,-29.8,33.63,,,,,,,,,,
16.20.08.706,-70.3,17.6,0,11.0,,68973.3,14.5,-0.01,0.4,-0.81,-1.9,12.8,-30.1,33.63,,,,,,,,,,
16.20.08.718,-88.7,22.2,0,11.0,,71219.7,14.04,-0.02,0.38,-0.86,-6.2,8.9,-22.5,33.63,,,,,,,,,,
16.20.08.726,-79.5,19.9,0,11.0,,71850.3,13.92,-0.03,0.37,-0.89,-2.5,8.0,-22.2,33.63,,,,,,,,,,
16.20.08.739,-77.6,19.4,0,11.0,,68897.7,14.51,-0.02,0.36,-0.9,2.4,5.2,-21.7,33.63,,,,,,,,,,
16.20.08.747,-65.1,16.3,0,11.0,,76123.7,13.14,-0.03,0.38,-0.9,4.8,3.3,-22.3,33.63,,,,,,,,,,
16.20.08.759,-94.9,23.7,0,11.0,,69323.5,14.43,-0.03,0.35,-0.92,4.5,6.6,-25.2,33.63,,,,,,,,,,
16.20.08.767,-110.9,27.7,0,11.0,,71133.3,14.06,-0.01,0.39,-0.91,5.9,15.1,-29.4,33.63,,,,,,,,,,
16.20.08.780,-102.7,25.7,0,11.0,,72810.8,13.73,0.0,0.4,-0.92,8.0,18.0,-30.0,33.63,,,,,,,,,,
16.20.08.792,-110.9,27.7,0,11.0,,70523.5,14.18,-0.01,0.38,-0.93,7.3,20.0,-30.6,33.63,,,,,,,,,,
16.20.08.800,-119.8,30.0,0,11.0,,68876.3,14.52,0.01,0.42,-0.89,10.3,23.3,-33.0,33.63,,,,,,,,,,
16.20.08.812,-130.0,32.5,0,11.0,,70115.5,14.26,0.05,0.43,-0.86,7.9,21.6,-29.5,33.63,,,,,,,,,,
16.20.08.820,-146.5,36.6,0,11.0,,69765.9,14.33,0.03,0.44,-0.89,3.2,18.7,-26.4,33.63,,,,,,,,,,
16.20.08.833,-141.1,35.3,0,11.0,,69790.3,14.33,0.04,0.43,-0.91,1.9,16.8,-23.7,33.63,,,,,,,,,,
16.20.08.845,-145.7,36.4,0,11.0,,71089.5,14.07,0.04,0.41,-0.91,3.9,14.9,-23.6,33.63,,,,,,,,,,
16.20.08.853,-154.1,38.5,0,11.0,,72273.2,13.84,0.06,0.42,-0.9,4.6,17.0,-21.9,33.63,,,,,,,,,,
16.20.08.866,-152.8,38.2,0,11.0,,71924.2,13.9,0.06,0.4,-0.88,4.8,18.8,-21.6,33.63,,,,,,,,,,
16.20.08.874,-184.1,46.0,0,11.0,,69285.9,14.43,0.07,0.38,-0.85,6.7,19.0,-20.9,33.63,,,,,,,,,,
16.20.08.886,41.9,10.5,1,12.0,107.6,71667.3,13.95,0.09,0.42,-0.84,4.3,19.4,-18.1,33.63,,,,,,,,,,
16.20.08.899,163.0,40.8,0,12.0,,69272.0,14.44,0.08,0.41,-0.86,3.5,17.5,-16.4,33.63,,,,,,,,,,
16.20.08.911,220.6,55.2,0,12.0,,73570.9,13.59,0.08,0.4,-0.88,1.8,14.6,-15.3,33.63,,,,,,,,,,
16.20.08.919,271.3,67.8,0,12.0,,72335.9,13.82,0.08,0.4,-0.9,-1.2,9.2,-12.8,33.63,,,,,,,,,,
16.20.08.931,326.3,81.6,0,12.0,,72167.3,13.86,0.09,0.39,-0.91,1.8,7.9,-12.3,33.63,,,,,,,,,,
16.20.08.939,307.5,76.9,0,12.0,,68907.2,14.51,0.09,0.35,-0.92,5.0,9.5,-11.4,33.63,,,,,,,,,,
16.20.08.952,400.1,100.0,0,12.0,,72975.1,13.7,0.09,0.35,-0.93,2.5,5.0,-8.8,33.63,,,,,,,,,,
16.20.08.960,436.2,109.0,0,12.0,,73176.1,13.67,0.07,0.34,-0.94,7.0,4.7,-8.4,33.63,,,,,,,,,,
16.20.08.972,362.6,90.6,0,12.0,,69844.4,14.32,0.05,0.35,-0.93,12.0,7.7,-9.1,33.63,,,,,,,,,,
16.20.08.984,400.1,100.0,0,12.0,,69484.5,14.39,0.04,0.38,-0.95,15.3,10.1,-9.7,33.63,,,,,,,,,,
16.20.08.993,413.6,103.4,0,12.0,,71186.4,14.05,0.05,0.39,-0.94,16.1,13.2,-9.4,33.63,,,,,,,,,,
16.20.09.005,375.9,94.0,0,12.0,,70057.4,14.27,0.05,0.39,-0.94,17.1,15.0,-9.2,33.63,,,,,,,,,,
16.20.09.013,357.2,89.3,0,12.0,,71421.6,14.0,0.05,0.4,-0.93,16.7,14.5,-8.6,33.63,,,,,,,,,,
16.20.09.025,298.1,74.5,0,12.0,,70079.7,14.27,0.05,0.39,-0.92,14.8,13.2,-7.2,33.63,,,,,,,,,,
16.20.09.034,234.2,58.6,0,12.0,,71087.7,14.07,0.05,0.4,-0.91,13.1,10.3,-4.6,33.63,,,,,,,,,,
16.20.09.046,143.3,35.8,0,12.0,,68057.3,14.69,0.04,0.4,-0.91,12.6,6.5,-2.3,33.63,,,,,,,,,,
16.20.09.058,127.7,31.9,0,12.0,,70671.5,14.15,0.02,0.42,-0.93,10.9,5.0,-0.6,33.63,,,,,,,,,,
16.20.09.066,38.7,9.7,0,12.0,,69853.9,14.32,0.02,0.41,-0.94,10.6,3.6,0.3,33.63,,,,,,,,,,
16.20.09.079,15.4,3.8,0,12.0,,70379.7,14.21,0.02,0.39,-0.94,10.7,2.0,0.4,33.63,,,,,,,,,,
16.20.09.087,57.3,14.3,0,12.0,,71979.5,13.89,0.02,0.4,-0.92,7.9,4.7,1.8,33.63,,,,,,,,,,
16.20.09.099,55.5,13.9,0,12.0,,69492.7,14.39,0.02,0.37,-0.93,18.1,5.2,-1.1,33.63,,,,,,,,,,
16.20.09.107,43.2,10.8,0,12.0,,75957.6,13.17,0.01,0.42,-0.92,12.6,8.2,-0.2,33.63,,,,,,,,,,
16.20.09.120,58.1,14.5,0,12.0,,74769.5,13.37,0.01,0.38,-0.91,12.7,14.0,1.4,33.63,,,,,,,,,,
16.20.09.128,42.2,10.6,0,12.0,,74490.0,13.42,0.02,0.36,-0.94,13.6,18.1,-1.0,33.63,,,,,,,,,,
16.20.09.140,55.8,14.0,0,12.0,,67847.5,14.74,-0.01,0.31,-0.93,18.4,16.7,-2.4,33.63,,,,,,,,,,
16.20.09.152,64.8,16.2,0,12.0,,71580.0,13.97,0.02,0.38,-0.89,24.9,17.2,-3.4,33.63,,,,,,,,,,
16.20.09.161,48.4,12.1,0,12.0,,67274.0,14.86,0.01,0.4,-0.89,22.5,13.0,-0.8,33.63,,,,,,,,,,
16.20.09.173,48.6,12.2,0,12.0,,67968.1,14.71,0.01,0.39,-0.89,23.6,11.8,-1.5,33.63,,,,,,,,,,
16.20.09.181,11.6,2.9,0,12.0,,67729.2,14.76,0.0,0.38,-0.92,21.6,12.0,-0.2,33.63,,,,,,,,,,
16.20.09.193,2.0,0.5,0,12.0,,72356.0,13.82,0.02,0.36,-0.93,23.1,12.5,-1.0,33.63,,,,,,,,,,
16.20.09.202,-0.4,0.1,0,12.0,,69086.0,14.47,0.01,0.35,-0.93,25.1,13.2,-3.0,33.63,,,,,,,,,,
16.20.09.214,14.3,3.6,0,12.0,,68435.4,14.61,0.03,0.35,-0.94,27.4,15.9,-3.9,33.63,,,,,,,,,,
16.20.09.222,-21.3,5.3,0,12.0,,69579.7,14.37,0.02,0.38,-0.94,26.1,20.5,-6.6,33.63,,,,,,,,,,
16.20.09.234,-23.8,6.0,0,12.0,,72072.2,13.87,0.03,0.42,-0.9,22.9,22.0,-7.8,33.63,,,,,,,,,,
16.20.09.247,-13.4,3.4,0,12.0,,70315.9,14.22,0.03,0.41,-0.91,16.5,26.6,-8.7,33.63,,,,,,,,,,
16.20.09.255,-60.0,15.0,0,12.0,,73639.7,13.58,0.02,0.4,-0.92,12.8,26.0,-9.4,33.63,,,,,,,,,,
16.20.09.267,-44.7,11.2,0,12.0,,72527.9,13.79,0.03,0.41,-0.9,7.0,24.0,-9.1,33.63,,,,,,,,,,
16.20.09.275,-59.8,15.0,0,12.0,,71985.1,13.89,0.03,0.4,-0.91,2.1,21.7,-7.6,33.63,,,,,,,,,,
16.20.09.288,-37.4,9.4,0,12.0,,74771.3,13.37,0.03,0.4,-0.89,-1.3,16.7,-6.8,33.63,,,,,,,,,,
16.20.09.296,-68.8,17.2,0,12.0,,72487.6,13.8,0.04,0.37,-0.92,-4.8,13.1,-3.8,33.63,,,,,,,,,,
16.20.09.308,-95.3,23.8,0,12.0,,68469.5,14.61,0.05,0.37,-0.93,-5.6,8.6,-1.7,33.63,,,,,,,,,,
16.20.09.316,-101.0,25.2,0,12.0,,70598.7,14.16,0.04,0.33,-0.94,-3.2,5.9,-0.1,33.63,,,,,,,,,,
16.20.09.353,-92.7,23.2,0,12.0,,73645.5,13.58,0.03,0.31,-0.98,3.5,4.9,-1.5,33.69,,,,,,,,,,
16.20.09.366,-132.6,33.2,0,12.0,,74677.4,13.39,0.01,0.36,-0.95,12.9,13.8,-4.2,33.69,,,,,,,,,,
16.20.09.374,-124.2,31.0,0,12.0,,68870.8,14.52,0.01,0.39,-0.94,11.1,16.4,-4.7,33.69,,,,,,,,,,
16.20.09.386,-119.2,29.8,0,12.0,,71199.7,14.04,0.01,0.39,-0.93,6.6,18.0,-5.3,33.69,,,,,,,,,,
16.20.09.398,-159.9,40.0,0,12.0,,76317.2,13.1,0.02,0.4,-0.94,4.1,17.6,-5.7,33.69,,,,,,,,,,
16.20.09.406,-102.8,25.7,0,12.0,,66266.2,15.09,0.04,0.39,-0.92,0.9,15.9,-5.1,33.69,,,,,,,,,,
16.20.09.419,-128.9,32.2,0,12.0,,68564.4,14.58,0.05,0.41,-0.92,-2.7,14.1,-3.6,33.69,,,,,,,,,,
16.20.09.427,-172.2,43.0,0,12.0,,66686.6,15.0,0.05,0.38,-0.93,-5.4,12.2,-1.6,33.69,,,,,,,,,,
16.20.09.439,-169.8,42.4,0,12.0,,72926.7,13.71,0.05,0.34,-0.95,-5.0,8.5,0.7,33.69,,,,,,,,,,
16.20.09.447,19.2,4.8,1,13.0,103.7,67995.5,14.71,0.05,0.34,-0.98,-1.7,9.1,0.7,33.69,,,,,,,,,,
16.20.09.460,106.8,26.7,0,13.0,,70690.7,14.15,0.04,0.32,-0.99,2.9,9.9,-0.6,33.69,,,,,,,,,,
16.20.09.468,188.1,47.0,0,13.0,,74823.5,13.36,0.03,0.32,-1.0,8.9,12.5,-2.8,33.69,,,,,,,,,,
16.20.09.480,252.8,63.2,0,13.0,,70239.0,14.24,0.03,0.35,-0.98,10.9,15.8,-5.0,33.69,,,,,,,,,,
16.20.09.488,267.9,67.0,0,13.0,,69639.6,14.36,0.05,0.36,-0.95,12.4,16.5,-5.7,33.69,,,,,,,,,,
16.20.09.501,340.1,85.0,0,13.0,,72288.0,13.83,0.05,0.37,-0.93,10.5,16.7,-5.5,33.69,,,,,,,,,,
16.20.09.509,367.4,91.8,0,13.0,,71193.2,14.05,0.06,0.35,-0.91,9.2,16.4,-3.8,33.69,,,,,,,,,,
16.20.09.521,384.7,96.2,0,13.0,,73297.2,13.64,0.06,0.36,-0.93,8.8,13.3,-2.6,33.69,,,,,,,,,,
16.20.09.529,438.4,109.6,0,13.0,,76520.9,13.07,0.06,0.35,-0.92,7.8,10.0,-1.0,33.69,,,,,,,,,,
16.20.09.542,395.4,98.8,0,13.0,,70714.0,14.14,0.05,0.34,-0.93,6.7,7.1,0.1,33.69,,,,,,,,,,
16.20.09.554,380.9,95.2,0,13.0,,69437.2,14.4,0.06,0.34,-0.93,5.5,5.5,0.8,33.69,,,,,,,,,,
16.20.09.562,359.7,89.9,0,13.0,,77110.5,12.97,0.06,0.54,-0.93,-2.0,23.0,-4.8,33.69,,,,,,,,,,
16.20.09.574,348.4,87.1,0,13.0,,73634.7,13.58,0.05,0.28,-0.94,9.3,9.8,-3.2,33.69,,,,,,,,,,
16.20.09.582,332.5,83.1,0,13.0,,74709.2,13.39,0.03,0.33,-0.97,5.8,7.6,-2.5,33.69,,,,,,,,,,
16.20.09.595,246.6,61.6,0,13.0,,71935.8,13.9,0.05,0.36,-0.95,7.4,8.9,-1.8,33.69,,,,,,,,,,
16.20.09.603,228.4,57.1,0,13.0,,67145.2,14.89,0.06,0.34,-0.97,7.8,10.4,-2.1,33.69,,,,,,,,,,
16.20.09.615,126.1,31.5,0,13.0,,69614.2,14.36,0.05,0.34,-0.96,11.3,10.0,-3.9,33.69,,,,,,,,,,
16.20.09.623,55.6,13.9,0,13.0,,69913.5,14.3,0.06,0.35,-0.95,11.8,10.4,-3.5,33.69,,,,,,,,,,
16.20.09.636,-3.4,0.8,0,13.0,,74477.4,13.43,0.06,0.35,-0.95,11.9,10.4,-2.8,33.69,,,,,,,,,,
16.20.09.644,-0.9,0.2,0,13.0,,70635.7,14.16,0.06,0.35,-0.95,11.8,9.1,-2.3,33.69,,,,,,,,,,
16.20.09.656,49.6,12.4,0,13.0,,71541.8,13.98,0.05,0.35,-0.96,11.3,7.7,-0.9,33.69,,,,,,,,,,
16.20.09.665,49.7,12.4,0,13.0,,68653.7,14.57,0.05,0.34,-0.96,9.8,6.3,-0.2,33.69,,,,,,,,,,
16.20.09.677,63.4,15.8,0,13.0,,73229.7,13.66,0.05,0.35,-0.96,7.2,5.5,2.1,33.69,,,,,,,,,,
16.20.09.685,75.0,18.8,0,13.0,,73944.6,13.52,0.05,0.33,-0.97,6.4,4.3,3.4,33.69,,,,,,,,,,
16.20.09.697,82.4,20.6,0,13.0,,71230.6,14.04,0.05,0.33,-0.99,5.7,4.4,3.9,33.69,,,,,,,,,,
16.20.09.706,50.6,12.6,0,13.0,,71204.4,14.04,0.03,0.32,-0.99,6.2,5.2,2.2,33.69,,,,,,,,,,
16.20.09.718,47.6,11.9,0,13.0,,72022.2,13.88,0.05,0.34,-0.98,4.7,6.8,1.2,33.69,,,,,,,,,,
16.20.09.726,44.9,11.2,0,13.0,,71275.6,14.03,0.05,0.37,-0.98,2.4,8.5,-0.1,33.69,,,,,,,,,,
16.20.09.738,14.4,3.6,0,13.0,,73052.8,13.69,0.06,0.33,-0.99,2.6,10.5,0.1,33.69,,,,,,,,,,
16.20.09.751,38.1,9.5,0,13.0,,71896.4,13.91,0.07,0.32,-1.01,5.2,11.5,-0.1,33.69,,,,,,,,,,
16.20.09.759,20.1,5.0,0,13.0,,71624.8,13.96,0.08,0.32,-1.01,9.5,11.4,0.1,33.69,,,,,,,,,,
16.20.09.771,-33.0,8.2,0,13.0,,70678.0,14.15,0.08,0.33,-1.0,10.8,11.0,2.2,33.69,,,,,,,,,,
16.20.09.783,-27.2,6.8,0,13.0,,71547.2,13.98,0.07,0.33,-1.0,10.8,10.3,3.2,33.69,,,,,,,,,,
16.20.09.795,-27.2,6.8,0,13.0,,70500.4,14.18,0.07,0.32,-0.99,9.9,9.2,4.2,33.69,,,,,,,,,,
16.20.09.804,-44.6,11.2,0,13.0,,71774.3,13.93,0.07,0.31,-0.99,7.7,10.0,4.6,33.69,,,,,,,,,,
16.20.09.816,-33.6,8.4,0,13.0,,70061.8,14.27,0.06,0.3,-0.97,6.7,9.9,3.4,33.69,,,,,,,,,,
16.20.09.824,-47.9,12.0,0,13.0,,70052.4,14.28,0.06,0.3,-0.96,5.4,10.6,2.0,33.69,,,,,,,,,,
16.20.09.836,16.6,4.2,0,13.0,,71718.5,13.94,0.07,0.29,-0.95,6.8,11.7,0.8,33.69,,,,,,,,,,
16.20.09.849,-60.2,15.0,0,13.0,,72769.5,13.74,0.07,0.3,-0.94,6.0,12.1,-0.2,33.69,,,,,,,,,,
16.20.09.857,-73.7,18.4,0,13.0,,65917.2,15.17,0.07,0.3,-0.94,5.4,11.4,0.0,33.69,,,,,,,,,,
16.20.09.869,-69.6,17.4,0,13.0,,70119.5,14.26,0.07,0.3,-0.95,5.1,10.2,-0.2,33.69,,,,,,,,,,
16.20.09.882,-91.2,22.8,0,13.0,,70126.0,14.26,0.07,0.31,-0.96,4.8,9.8,-0.4,33.69,,,,,,,,,,
16.20.09.894,-98.8,24.7,0,13.0,,71707.7,13.95,0.08,0.31,-0.96,3.6,8.0,0.2,33.69,,,,,,,,,,
16.20.09.902,-104.4,26.1,0,13.0,,72099.6,13.87,0.08,0.3,-0.97,3.3,6.7,0.2,33.69,,,,,,,,,,
16.20.09.914,-118.9,29.7,0,13.0,,75405.7,13.26,0.07,0.3,-0.95,0.6,5.3,1.3,33.69,,,,,,,,,,
16.20.09.923,-91.4,22.8,0,13.0,,69519.1,14.38,0.07,0.31,-0.96,-0.4,6.0,1.4,33.69,,,,,,,,,,
16.20.09.935,-116.0,29.0,0,13.0,,74947.7,13.34,0.06,0.31,-0.96,-1.8,4.1,2.4,33.69,,,,,,,,,,
16.20.09.947,-140.7,35.2,0,13.0,,66470.0,15.04,0.07,0.3,-0.96,-2.8,4.0,2.6,33.69,,,,,,,,,,
16.20.09.955,-158.8,39.7,0,13.0,,67531.8,14.81,0.07,0.28,-0.99,-0.1,4.2,1.9,33.69,,,,,,,,,,
16.20.09.967,-152.7,38.2,0,13.0,,68262.8,14.65,0.08,0.29,-0.99,3.3,5.0,0.8,33.69,,,,,,,,,,
16.20.09.980,-140.2,35.0,0,13.0,,73940.9,13.52,0.08,0.3,-0.99,5.4,6.1,0.0,33.69,,,,,,,,,,
16.20.09.988,-138.7,34.7,0,13.0,,71979.0,13.89,0.09,0.31,-0.99,5.2,5.9,0.2,33.69,,,,,,,,,,
16.20.10.000,-160.6,40.2,0,13.0,,73793.6,13.55,0.09,0.32,-1.0,4.7,6.2,1.3,33.69,,,,,,,,,,
16.20.10.013,43.8,11.0,1,14.0,104.1,74655.1,13.39,0.08,0.3,-0.99,4.6,5.5,1.5,33.69,,,,,,,,,,
16.20.10.021,116.5,29.1,0,14.0,,70767.2,14.13,0.08,0.3,-0.97,2.9,4.8,2.1,33.69,,,,,,,,,,
16.20.10.033,193.9,48.5,0,14.0,,71226.4,14.04,0.08,0.3,-0.99,2.4,5.2,2.5,33.69,,,,,,,,,,
16.20.10.045,244.2,61.0,0,14.0,,71000.2,14.08,0.08,0.29,-0.99,2.1,6.6,1.6,33.69,,,,,,,,,,
16.20.10.054,268.8,67.2,0,14.0,,71856.8,13.92,0.08,0.28,-1.0,4.3,6.8,0.5,33.69,,,,,,,,,,
16.20.10.066,346.0,86.5,0,14.0,,73444.6,13.62,0.09,0.28,-0.97,4.7,7.7,-0.6,33.69,,,,,,,,,,
16.20.10.078,361.0,90.2,0,14.0,,70752.1,14.13,0.08,0.28,-0.96,4.4,8.2,0.0,33.69,,,,,,,,,,
16.20.10.086,372.7,93.2,0,14.0,,72997.6,13.7,0.08,0.28,-0.97,5.5,7.6,-1.0,33.69,,,,,,,,,,
16.20.10.099,435.6,108.9,0,14.0,,71802.7,13.93,0.09,0.3,-0.96,4.2,7.0,-1.1,33.69,,,,,,,,,,
16.20.10.111,419.1,104.8,0,14.0,,74288.5,13.46,0.09,0.31,-0.95,1.1,6.3,-1.3,33.69,,,,,,,,,,
16.20.10.119,411.9,103.0,0,14.0,,68719.0,14.55,0.08,0.31,-0.95,-1.1,5.8,-1.0,33.69,,,,,,,,,,
16.20.10.160,279.1,69.8,0,14.0,,72424.5,13.81,0.09,0.3,-0.97,-6.8,5.4,-0.4,33.69,,,,,,,,,,
16.20.10.172,206.1,51.5,0,14.0,,66815.7,14.97,0.08,0.29,-0.97,-5.5,5.4,-1.1,33.69,,,,,,,,,,
16.20.10.181,156.0,39.0,0,14.0,,69092.1,14.47,,,-0.91,-7.1,10.0,1.9,33.75,,,,,,,,,,
16.20.12.834,95.4,23.8,0,14.0,,69650.6,14.36,0.15,0.33,-0.91,-7.1,10.0,1.9,33.75,105.5,,,,,,,,,
16.20.12.835,112.7,28.2,0,14.0,,70904.5,14.1,0.16,0.34,-0.88,-6.2,6.1,6.3,33.75,,,,,,,,,,
16.20.12.847,65.5,16.4,0,14.0,,74066.8,13.5,0.15,0.37,-0.92,-2.0,5.3,9.3,33.75,,,,,,,,,,
16.20.12.856,14.1,3.5,0,14.0,,70492.9,14.19,0.13,0.36,-0.94,-1.7,3.1,11.2,33.75,,,,,,,,,,
16.20.12.868,31.2,7.8,0,14.0,,68287.4,14.64,0.12,0.35,-0.97,-3.5,3.5,10.3,33.75,,,,,,,,,,
16.20.12.880,75.4,18.8,0,14.0,,74270.0,13.46,0.12,0.33,-0.98,-4.9,4.6,8.3,33.75,,,,,,,,,,
16.20.12.892,102.1,25.5,0,14.0,,68501.8,14.6,0.11,0.31,-0.99,-7.2,6.1,5.4,33.75,,,,,,,,,,
16.20.12.901,55.8,14.0,0,14.0,,73170.1,13.67,0.12,0.3,-0.97,-9.0,6.7,2.3,33.75,,,,,,,,,,
16.20.12.913,47.1,11.8,0,14.0,,67013.6,14.92,0.12,0.3,-0.97,-8.4,7.4,-0.2,33.75,,,,,,,,,,
16.20.12.925,37.3,9.3,0,14.0,,69227.8,14.45,0.12,0.3,-0.96,-7.8,7.1,-0.2,33.75,,,,,,,,,,
16.20.12.933,23.3,5.8,0,14.0,,70081.9,14.27,0.12,0.3,-0.97,-5.2,6.4,0.1,33.75,,,,,,,,,,
16.20.12.946,50.6,12.6,0,14.0,,69143.0,14.46,0.14,0.3,-0.97,-2.8,7.3,1.5,33.75,,,,,,,,,,
16.20.12.958,2.9,0.7,0,14.0,,72884.2,13.72,0.14,0.31,-0.96,-2.2,6.7,2.4,33.75,,,,,,,,,,
16.20.12.970,8.5,2.1,0,14.0,,66968.9,14.93,0.13,0.32,-0.95,-1.7,6.0,4.3,33.75,,,,,,,,,,
16.20.12.978,-7.7,1.9,0,14.0,,70979.3,14.09,0.13,0.31,-0.98,-1.5,5.9,4.5,33.75,,,,,,,,,,
16.20.12.991,-3.2,0.8,0,14.0,,70420.2,14.2,0.13,0.31,-0.97,-1.9,7.0,4.8,33.75,,,,,,,,,,
16.20.13.003,0.0,0.0,0,14.0,,71241.1,14.04,0.13,0.31,-0.97,-2.5,7.6,3.6,33.75,,,,,,,,,,
16.20.13.011,-14.5,3.6,0,14.0,,70369.0,14.21,0.14,0.31,-0.96,-2.4,9.9,2.5,33.75,,,,,,,,,,
16.20.13.024,-19.3,4.8,0,14.0,,71170.0,14.05,0.14,0.32,-0.95,-1.3,10.4,1.3,33.75,,,,,,,,,,
16.20.13.036,-62.5,15.6,0,14.0,,69025.4,14.49,0.15,0.31,-0.94,-0.2,9.7,0.8,33.75,,,,,,,,,,
16.20.13.048,-64.4,16.1,0,14.0,,70419.3,14.2,0.15,0.31,-0.94,1.7,10.0,0.7,33.75,,,,,,,,,,
16.20.13.056,-60.1,15.0,0,14.0,,71155.1,14.05,0.16,0.32,-0.95,2.4,9.9,1.3,33.75,,,,,,,,,,
16.20.13.069,-69.6,17.4,0,14.0,,72041.1,13.88,0.16,0.31,-0.95,1.9,8.7,1.4,33.75,,,,,,,,,,
16.20.13.082,-83.1,20.8,0,14.0,,75135.3,13.31,0.16,0.32,-0.95,1.9,7.8,1.5,33.75,,,,,,,,,,
16.20.13.089,-49.9,12.5,0,14.0,,71501.0,13.99,0.17,0.32,-0.94,1.8,6.4,2.4,33.75,,,,,,,,,,
16.20.13.101,-100.2,25.0,0,14.0,,74910.4,13.35,0.15,0.32,-0.97,1.5,5.4,3.3,33.75,,,,,,,,,,
16.20.13.114,-93.8,23.4,0,14.0,,70241.5,14.24,0.15,0.32,-0.96,2.4,4.1,3.5,33.75,,,,,,,,,,
16.20.13.122,-92.2,23.0,0,14.0,,69718.8,14.34,0.15,0.33,-0.96,2.8,4.2,4.3,33.75,,,,,,,,,,
16.20.13.135,-107.5,26.9,0,14.0,,69060.8,14.48,0.15,0.34,-0.94,2.5,3.6,4.5,33.75,,,,,,,,,,
16.20.13.146,-152.9,38.2,0,14.0,,69654.7,14.36,0.15,0.34,-0.95,2.1,4.3,4.7,33.75,,,,,,,,,,
16.20.13.155,-99.2,24.8,0,14.0,,68412.7,14.62,0.16,0.33,-0.94,1.7,4.1,4.3,33.75,,,,,,,,,,
16.20.13.167,-116.2,29.0,0,14.0,,65326.5,15.31,0.15,0.32,-0.95,1.0,3.9,3.0,33.75,,,,,,,,,,
16.20.13.179,-171.4,42.8,0,14.0,,70071.6,14.27,0.16,0.31,-0.96,1.3,4.4,1.7,33.75,,,,,,,,,,
16.20.13.187,-149.1,37.3,0,14.0,,73276.0,13.65,0.16,0.31,-0.96,2.6,4.5,0.2,33.75,,,,,,,,,,
16.20.13.200,-175.3,43.8,0,14.0,,74415.9,13.44,0.15,0.3,-0.96,3.6,4.4,0.9,33.75,,,,,,,,,,
16.20.13.212,-147.7,36.9,0,14.0,,72171.3,13.86,0.16,0.3,-0.96,4.3,4.7,1.1,33.75,,,,,,,,,,
16.20.13.220,25.0,6.2,1,15.0,108.7,68510.5,14.6,0.16,0.31,-0.97,4.8,5.4,1.4,33.75,,,,,,,,,,
16.20.13.232,62.1,15.5,0,15.0,,68680.4,14.56,0.15,0.31,-0.98,6.3,5.4,1.3,33.75,,,,,,,,,,
16.20.13.245,172.6,43.2,0,15.0,,70771.4,14.13,0.17,0.32,-0.95,6.5,5.7,1.7,33.75,,,,,,,,,,
16.20.13.253,177.7,44.4,0,15.0,,71159.7,14.05,0.16,0.34,-0.96,5.7,5.3,2.5,33.75,,,,,,,,,,
16.20.13.265,260.8,65.2,0,15.0,,71866.4,13.91,0.16,0.35,-0.94,2.7,4.4,3.4,33.75,,,,,,,,,,
16.20.13.278,323.8,81.0,0,15.0,,68089.4,14.69,0.16,0.34,-0.94,-0.7,3.5,3.9,33.75,,,,,,,,,,
16.20.13.286,374.4,93.6,0,15.0,,69784.0,14.33,0.16,0.34,-0.95,-1.9,1.9,4.0,33.75,,,,,,,,,,
16.20.13.298,381.7,95.4,0,15.0,,70048.0,14.28,0.17,0.32,-0.96,-2.6,1.3,4.7,33.75,,,,,,,,,,
16.20.13.310,388.0,97.0,0,15.0,,71507.7,13.98,0.16,0.29,-0.97,-1.2,1.6,4.1,33.75,,,,,,,,,,
16.20.13.318,424.3,106.1,0,15.0,,72181.9,13.85,0.15,0.28,-0.99,1.4,3.3,2.1,33.75,,,,,,,,,,
16.20.13.331,413.1,103.3,0,15.0,,72736.6,13.75,0.15,0.29,-0.98,3.0,5.0,0.5,33.75,,,,,,,,,,
16.20.13.372,280.1,70.0,0,15.0,,72951.5,13.71,0.15,0.33,-0.97,3.6,4.4,0.9,33.81,,,,,,,,,,
16.20.13.380,226.6,56.6,0,15.0,,70869.3,14.11,0.15,0.34,-0.96,2.1,4.5,0.8,33.81,,,,,,,,,,
16.20.13.392,170.1,42.5,0,15.0,,69811.3,14.32,0.16,0.34,-0.96,0.9,5.0,0.5,33.81,,,,,,,,,,
16.20.13.405,81.9,20.5,0,15.0,,73187.9,13.66,0.15,0.32,-0.97,0.8,5.1,0.4,33.81,,,,,,,,,,
16.20.13.413,2.0,0.5,0,15.0,,71380.8,14.01,0.15,0.31,-0.96,1.2,4.9,0.1,33.81,,,,,,,,,,
16.20.13.425,15.5,3.9,0,15.0,,69318.5,14.43,0.15,0.3,-0.97,2.5,5.5,0.3,33.81,,,,,,,,,,
16.20.13.437,30.5,7.6,0,15.0,,74618.1,13.4,0.15,0.29,-0.97,3.4,6.0,0.5,33.81,,,,,,,,,,
16.20.13.446,31.4,7.8,0,15.0,,72019.8,13.89,0.15,0.29,-0.97,4.2,7.1,-0.1,33.81,,,,,,,,,,
16.20.13.458,63.1,15.8,0,15.0,,68638.8,14.57,0.14,0.3,-0.96,4.6,7.8,-1.0,33.81,,,,,,,,,,
16.20.13.470,62.4,15.6,0,15.0,,73379.6,13.63,0.15,0.32,-0.96,3.8,7.8,-1.4,33.81,,,,,,,,,,
16.20.13.478,78.6,19.6,0,15.0,,70471.1,14.19,0.14,0.32,-0.96,2.4,7.5,-1.1,33.81,,,,,,,,,,
16.20.13.491,37.8,9.4,0,15.0,,70916.4,14.1,0.15,0.32,-0.96,0.6,6.8,-0.4,33.81,,,,,,,,,,
16.20.13.503,70.9,17.7,0,15.0,,69546.8,14.38,0.14,0.31,-0.96,-0.5,5.9,0.5,33.81,,,,,,,,,,
16.20.13.515,29.0,7.2,0,15.0,,73765.3,13.56,0.14,0.3,-0.96,-0.6,5.5,0.5,33.81,,,,,,,,,,
16.20.13.524,-2.6,0.6,0,15.0,,70627.6,14.16,0.15,0.3,-0.96,-0.4,4.0,0.5,33.81,,,,,,,,,,
16.20.13.536,-30.5,7.6,0,15.0,,71225.2,14.04,0.14,0.3,-0.96,-0.2,3.8,0.5,33.81,,,,,,,,,,
16.20.13.548,2.9,0.7,0,15.0,,72552.3,13.78,0.15,0.3,-0.96,0.0,3.2,0.7,33.81,,,,,,,,,,
16.20.13.560,2.7,0.7,0,15.0,,69094.3,14.47,0.16,0.29,-0.96,-0.5,3.9,0.9,33.81,,,,,,,,,,
16.20.13.568,-30.2,7.6,0,15.0,,69777.9,14.33,0.14,0.28,-0.96,0.0,4.5,-0.5,33.81,,,,,,,,,,
16.20.13.581,-35.3,8.8,0,15.0,,70634.7,14.16,0.14,0.29,-0.95,0.4,4.1,-2.1,33.81,,,,,,,,,,
16.20.13.593,-13.8,3.4,0,15.0,,66959.3,14.93,0.15,0.3,-0.97,0.7,3.4,-2.4,33.81,,,,,,,,,,
16.20.13.605,-74.2,18.6,0,15.0,,76637.5,13.05,0.14,0.3,-0.97,2.2,2.7,-1.8,33.81,,,,,,,,,,
16.20.13.613,-38.8,9.7,0,15.0,,69920.5,14.3,0.14,0.31,-0.97,2.2,2.5,-1.6,33.81,,,,,,,,,,
16.20.13.626,-40.0,10.0,0,15.0,,69559.6,14.38,0.13,0.31,-0.96,0.6,3.6,-2.1,33.81,,,,,,,,,,
16.20.13.638,-81.9,20.5,0,15.0,,71237.6,14.04,0.13,0.3,-0.97,-0.5,4.1,-3.2,33.81,,,,,,,,,,
16.20.13.650,-77.4,19.4,0,15.0,,72195.9,13.85,0.14,0.29,-0.96,-0.7,5.2,-3.2,33.81,,,,,,,,,,
16.20.13.658,-62.9,15.7,0,15.0,,70554.0,14.17,0.15,0.29,-0.97,-0.4,5.1,-3.6,33.81,,,,,,,,,,
16.20.13.671,-82.1,20.5,0,15.0,,71373.2,14.01,0.15,0.31,-0.97,-0.2,5.6,-3.8,33.81,,,,,,,,,,
16.20.13.683,-92.5,23.1,0,15.0,,71202.4,14.04,0.15,0.32,-0.97,-1.7,4.9,-4.3,33.81,,,,,,,,,,
16.20.13.695,-110.8,27.7,0,15.0,,71359.8,14.01,0.15,0.3,-0.97,-1.8,4.2,-3.2,33.81,,,,,,,,,,
16.20.13.708,-123.7,30.9,0,15.0,,72051.3,13.88,0.15,0.29,-0.97,-0.7,4.5,-3.0,33.81,,,,,,,,,,
16.20.13.720,-129.3,32.3,0,15.0,,76547.5,13.06,0.14,0.31,-0.96,2.1,5.4,-3.4,33.81,,,,,,,,,,
16.20.13.728,-150.1,37.5,0,15.0,,74857.2,13.36,0.13,0.3,-0.95,3.5,5.7,-3.1,33.81,,,,,,,,,,
16.20.13.740,-153.9,38.5,0,15.0,,72300.2,13.83,0.13,0.32,-0.92,4.8,3.3,-3.0,33.81,,,,,,,,,,
16.20.13.753,-114.2,28.6,0,15.0,,71868.4,13.91,0.12,0.32,-0.93,2.2,0.3,-2.4,33.81,,,,,,,,,,
16.20.13.761,-146.0,36.5,0,15.0,,69373.2,14.41,0.13,0.34,-0.91,-0.6,-3.5,-2.3,33.81,,,,,,,,,,
16.20.13.773,-143.2,35.8,0,15.0,,67321.1,14.85,0.12,0.33,-0.9,-6.5,-8.2,-3.3,33.81,,,,,,,,,,
16.20.13.785,-9.6,2.4,1,16.0,104.6,72279.7,13.84,0.13,0.36,-0.88,-11.7,-15.7,-4.5,33.81,,,,,,,,,,
16.20.13.798,102.2,25.6,0,16.0,,72589.7,13.78,0.1,0.32,-0.92,-15.5,-18.7,-6.1,33.81,,,,,,,,,,
16.20.13.806,142.6,35.6,0,16.0,,71259.1,14.03,0.11,0.31,-1.01,-9.1,-17.4,-8.4,33.81,,,,,,,,,,
16.20.13.818,198.1,49.5,0,16.0,,64871.0,15.42,0.15,0.28,-1.04,-6.2,-11.7,-7.3,33.81,,,,,,,,,,
16.20.13.826,263.4,65.8,0,16.0,,69654.8,14.36,0.15,0.3,-1.03,1.7,-2.8,-6.8,33.81,,,,,,,,,,
16.20.13.839,320.0,80.0,0,16.0,,71354.6,14.01,0.15,0.31,-1.03,3.1,7.2,-7.1,33.81,,,,,,,,,,
16.20.13.851,365.8,91.4,0,16.0,,67685.2,14.77,0.13,0.31,-1.02,5.4,15.6,-7.4,33.81,,,,,,,,,,
16.20.13.859,358.8,89.7,0,16.0,,73046.2,13.69,0.11,0.3,-1.03,8.4,19.8,-8.0,33.81,,,,,,,,,,
16.20.13.872,434.1,108.5,0,16.0,,71059.0,14.07,0.12,0.34,-0.99,9.9,18.7,-5.8,33.81,,,,,,,,,,
16.20.13.880,436.3,109.1,0,16.0,,68598.4,14.58,0.14,0.4,-0.97,7.2,14.1,-2.6,33.81,,,,,,,,,,
16.20.13.892,428.5,107.1,0,16.0,,67680.5,14.78,0.14,0.36,-0.97,5.9,10.1,-0.7,33.81,,,,,,,,,,
16.20.13.900,437.7,109.4,0,16.0,,71001.9,14.08,0.12,0.35,-0.97,2.8,6.5,0.5,33.81,,,,,,,,,,
16.20.13.913,367.3,91.8,0,16.0,,72123.2,13.87,0.14,0.33,-0.97,1.5,3.2,1.3,33.81,,,,,,,,,,
16.20.13.921,292.7,73.2,0,16.0,,67725.6,14.77,0.15,0.31,-0.97,3.9,2.4,1.6,33.81,,,,,,,,,,
16.20.13.933,247.8,62.0,0,16.0,,70122.8,14.26,0.16,0.31,-1.0,4.4,5.3,3.4,33.81,,,,,,,,,,
16.20.13.941,271.2,67.8,0,16.0,,71958.3,13.9,0.16,0.29,-0.99,3.6,8.5,3.3,33.81,,,,,,,,,,
16.20.13.954,203.2,50.8,0,16.0,,68300.4,14.64,0.14,0.28,-0.99,3.4,13.8,1.5,33.81,,,,,,,,,,
16.20.13.962,125.4,31.4,0,16.0,,73021.5,13.69,0.12,0.29,-0.99,4.4,16.8,-1.1,33.81,,,,,,,,,,
16.20.13.974,39.7,9.9,0,16.0,,70936.9,14.1,0.12,0.32,-0.98,4.8,18.2,-0.4,33.81,,,,,,,,,,
16.20.13.986,-7.0,1.8,0,16.0,,70583.9,14.17,0.13,0.33,-0.96,3.8,15.5,0.7,33.81,,,,,,,,,,
16.20.13.999,81.0,20.2,0,16.0,,73007.9,13.7,0.13,0.34,-0.94,1.0,11.0,2.9,33.81,,,,,,,,,,
16.20.14.007,43.3,10.8,0,16.0,,73514.0,13.6,0.14,0.32,-0.94,-0.4,7.4,5.7,33.81,,,,,,,,,,
16.20.14.019,59.9,15.0,0,16.0,,68351.3,14.63,0.15,0.31,-0.95,0.3,4.3,7.0,33.81,,,,,,,,,,
16.20.14.027,69.2,17.3,0,16.0,,73439.2,13.62,0.14,0.29,-0.97,1.9,3.1,8.4,33.81,,,,,,,,,,
16.20.14.040,63.4,15.8,0,16.0,,74204.9,13.48,0.14,0.27,-0.98,6.0,3.0,8.2,33.81,,,,,,,,,,
16.20.14.048,55.9,14.0,0,16.0,,69317.5,14.43,0.13,0.28,-0.99,7.5,5.5,7.3,33.81,,,,,,,,,,
16.20.14.060,76.4,19.1,0,16.0,,72314.8,13.83,0.13,0.28,-0.98,8.3,8.5,5.4,33.81,,,,,,,,,,
16.20.14.068,45.3,11.3,0,16.0,,70420.8,14.2,0.13,0.3,-0.98,7.0,10.5,3.4,33.81,,,,,,,,,,
16.20.14.081,3.9,1.0,0,16.0,,70804.2,14.12,0.13,0.3,-0.98,5.4,11.3,1.9,33.81,,,,,,,,,,
16.20.14.089,47.5,11.9,0,16.0,,71459.0,13.99,0.13,0.31,-0.97,3.7,11.7,0.6,33.81,,,,,,,,,,
16.20.14.103,6.6,1.6,0,16.0,,66988.4,14.93,0.13,0.32,-0.96,1.3,10.0,-0.6,33.81,,,,,,,,,,
16.20.14.110,-18.8,4.7,0,16.0,,66818.4,14.97,0.13,0.31,-0.95,0.0,8.1,-1.4,33.81,,,,,,,,,,
16.20.14.122,3.1,0.8,0,16.0,,67093.1,14.9,0.14,0.31,-0.95,-1.6,5.9,-0.4,33.81,,,,,,,,,,
16.20.14.130,-6.8,1.7,0,16.0,,73692.7,13.57,0.14,0.3,-0.97,-2.0,4.3,0.1,33.81,,,,,,,,,,
16.20.14.166,-48.3,12.1,0,16.0,,71694.2,13.95,0.14,0.29,-0.97,-2.5,4.4,0.5,33.81,,,,,,,,,,
16.20.14.179,-25.6,6.4,0,16.0,,70079.0,14.27,0.14,0.29,-0.98,-4.0,10.6,-3.6,33.81,,,,,,,,,,
16.20.14.187,-55.0,13.8,0,16.0,,74072.7,13.5,0.15,0.3,-0.99,-6.1,13.5,-4.3,33.81,,,,,,,,,,
16.20.14.199,-110.0,27.5,0,16.0,,72212.1,13.85,0.15,0.28,-0.99,-6.9,14.7,-4.9,33.81,,,,,,,,,,
16.20.14.207,-86.7,21.7,0,16.0,,72890.3,13.72,0.16,0.28,-0.98,-7.1,15.3,-4.6,33.81,,,,,,,,,,
16.20.14.220,-55.7,13.9,0,16.0,,74288.8,13.46,0.16,0.28,-0.97,-7.0,15.6,-3.9,33.81,,,,,,,,,,
16.20.14.232,-75.8,19.0,0,16.0,,64776.9,15.44,0.16,0.3,-0.95,-7.1,13.2,-3.4,33.81,,,,,,,,,,
16.20.14.240,-111.9,28.0,0,16.0,,70419.8,14.2,0.16,0.32,-0.95,-7.1,11.6,-1.7,33.81,,,,,,,,,,
16.20.14.253,-112.0,28.0,0,16.0,,73331.2,13.64,0.14,0.3,-0.94,-5.8,8.2,-2.0,33.81,,,,,,,,,,
16.20.14.261,-119.0,29.8,0,16.0,,72949.3,13.71,0.15,0.31,-0.94,-4.5,6.6,-0.9,33.81,,,,,,,,,,
16.20.14.273,-134.0,33.5,0,16.0,,68844.1,14.53,0.15,0.3,-0.94,-4.1,5.5,-0.3,33.81,,,,,,,,,,
16.20.14.281,-117.7,29.4,0,16.0,,69951.8,14.3,0.14,0.29,-0.95,-1.4,4.8,-0.9,33.81,,,,,,,,,,
16.20.14.294,-158.9,39.7,0,16.0,,71254.4,14.03,0.14,0.3,-0.96,0.7,5.7,-0.8,33.81,,,,,,,,,,
16.20.14.302,-116.7,29.2,0,16.0,,71783.5,13.93,0.14,0.3,-0.96,2.1,6.0,-1.5,33.81,,,,,,,,,,
16.20.14.314,-139.1,34.8,0,16.0,,71930.3,13.9,0.14,0.32,-0.95,2.9,6.9,-2.2,33.81,,,,,,,,,,
16.20.14.323,-159.5,39.9,0,16.0,,70729.9,14.14,0.14,0.32,-0.96,2.3,7.0,-2.4,33.81,,,,,,,,,,
16.20.14.335,-130.2,32.6,0,16.0,,69903.1,14.31,0.14,0.33,-0.96,1.1,7.0,-3.0,33.81,,,,,,,,,,
16.20.14.343,-125.9,31.5,0,16.0,,70265.5,14.23,0.15,0.32,-0.96,0.7,6.7,-3.2,33.81,,,,,,,,,,
16.20.14.355,42.6,10.6,1,17.0,106.2,75955.2,13.17,0.15,0.33,-0.97,0.5,6.4,-3.1,33.81,,,,,,,,,,
16.20.14.363,61.3,15.3,0,17.0,,68918.9,14.51,0.16,0.32,-0.98,0.5,6.5,-2.2,33.81,,,,,,,,,,
16.20.14.376,135.8,34.0,0,17.0,,69970.6,14.29,0.16,0.32,-0.97,1.1,6.3,-1.4,33.81,,,,,,,,,,
16.20.14.384,187.8,47.0,0,17.0,,73229.7,13.66,0.16,0.32,-0.97,1.9,7.4,-0.4,33.81,,,,,,,,,,
16.20.14.396,243.3,60.8,0,17.0,,70620.8,14.16,0.16,0.32,-0.98,3.2,7.9,-0.4,33.81,,,,,,,,,,
16.20.14.404,322.4,80.6,0,17.0,,70127.9,14.26,0.16,0.32,-0.98,3.4,9.1,0.0,33.81,,,,,,,,,,
16.20.14.416,375.3,93.8,0,17.0,,69632.3,14.36,0.15,0.33,-0.97,3.6,10.0,0.0,33.81,,,,,,,,,,
16.20.14.429,453.9,113.5,0,17.0,,73094.5,13.68,0.16,0.33,-0.97,2.4,10.5,0.0,33.81,,,,,,,,,,
16.20.14.437,420.8,105.2,0,17.0,,71951.5,13.9,0.15,0.33,-0.96,0.9,10.8,-0.5,33.81,,,,,,,,,,
16.20.14.449,372.1,93.0,0,17.0,,73516.6,13.6,0.17,0.33,-0.95,-0.4,10.4,-1.3,33.81,,,,,,,,,,
16.20.14.457,402.2,100.6,0,17.0,,70190.8,14.25,0.16,0.32,-0.96,-1.5,10.2,-1.0,33.81,,,,,,,,,,
16.20.14.470,360.1,90.0,0,17.0,,75230.2,13.29,0.17,0.32,-0.97,-1.2,9.9,-1.2,33.81,,,,,,,,,,
16.20.14.478,354.8,88.7,0,17.0,,70005.9,14.28,0.17,0.32,-0.97,-1.1,9.5,-0.8,33.81,,,,,,,,,,
16.20.14.490,349.7,87.4,0,17.0,,70540.7,14.18,0.17,0.32,-0.97,-0.3,9.3,0.0,33.81,,,,,,,,,,
16.20.14.498,257.4,64.4,0,17.0,,74896.4,13.35,0.17,0.31,-0.96,1.0,9.4,-0.2,33.81,,,,,,,,,,
16.20.14.511,237.2,59.3,0,17.0,,71224.0,14.04,0.16,0.31,-0.95,2.7,8.6,-0.3,33.81,,,,,,,,,,
16.20.14.519,152.7,38.2,0,17.0,,70911.3,14.1,0.16,0.32,-0.96,3.3,7.7,0.0,33.81,,,,,,,,,,
16.20.14.531,117.2,29.3,0,17.0,,67533.6,14.81,0.16,0.32,-0.95,2.8,6.0,0.8,33.81,,,,,,,,,,
16.20.14.539,27.4,6.8,0,17.0,,70679.1,14.15,0.15,0.32,-0.97,3.1,6.0,1.1,33.81,,,,,,,,,,
16.20.14.552,-25.8,6.4,0,17.0,,73968.5,13.52,0.16,0.33,-0.97,2.1,6.0,1.8,33.81,,,,,,,,,,
16.20.14.560,17.4,4.4,0,17.0,,68970.9,14.5,0.16,0.33,-0.96,0.9,6.0,1.9,33.81,,,,,,,,,,
16.20.14.572,49.5,12.4,0,17.0,,66117.1,15.12,0.16,0.33,-0.97,0.1,7.3,2.2,33.81,,,,,,,,,,
16.20.14.581,51.2,12.8,0,17.0,,71041.7,14.08,0.15,0.31,-0.97,0.5,8.4,2.2,33.81,,,,,,,,,,
16.20.14.593,80.9,20.2,0,17.0,,66712.2,14.99,0.15,0.31,-0.97,1.3,9.3,2.4,33.81,,,,,,,,,,
16.20.14.601,73.1,18.3,0,17.0,,72583.5,13.78,0.16,0.3,-0.97,2.0,10.6,2.0,33.81,,,,,,,,,,
16.20.14.613,35.3,8.8,0,17.0,,72677.4,13.76,0.16,0.32,-0.97,2.7,11.1,2.2,33.81,,,,,,,,,,
16.20.14.621,78.3,19.6,0,17.0,,75705.2,13.21,0.16,0.32,-0.96,2.4,11.6,2.0,33.81,,,,,,,,,,
16.20.14.634,39.2,9.8,0,17.0,,72553.8,13.78,0.16,0.33,-0.94,0.4,11.5,2.2,33.81,,,,,,,,,,
16.20.14.642,30.4,7.6,0,17.0,,72323.8,13.83,0.16,0.33,-0.94,-1.4,10.3,2.9,33.81,,,,,,,,,,
16.20.14.654,10.1,2.5,0,17.0,,69347.9,14.42,0.16,0.32,-0.94,-2.8,9.0,2.9,33.81,,,,,,,,,,
16.20.14.662,-22.0,5.5,0,17.0,,67128.6,14.9,0.16,0.31,-0.94,-3.7,7.6,3.1,33.81,,,,,,,,,,
16.20.14.675,-9.2,2.3,0,17.0,,69897.8,14.31,0.16,0.31,-0.96,-3.2,6.3,3.4,33.81,,,,,,,,,,
16.20.14.683,-13.0,3.2,0,17.0,,72174.6,13.86,0.16,0.31,-0.96,-2.0,4.9,3.3,33.81,,,,,,,,,,
16.20.14.695,-34.4,8.6,0,17.0,,73417.8,13.62,0.16,0.3,-0.96,-1.1,5.1,3.1,33.81,,,,,,,,,,
16.20.14.703,-13.9,3.5,0,17.0,,72140.8,13.86,0.15,0.31,-0.97,-0.3,5.1,2.5,33.81,,,,,,,,,,
16.20.14.715,-48.2,12.0,0,17.0,,71559.0,13.97,0.0,0.47,-0.89,-9.3,5.8,-40.2,33.81,,,,,,,,,,
16.20.14.724,-48.0,12.0,0,17.0,,74089.2,13.5,0.15,0.33,-0.93,5.6,10.0,2.0,33.81,,,,,,,,,,
16.20.14.736,-71.0,17.8,0,17.0,,70699.0,14.14,0.15,0.31,-0.97,-0.2,3.5,0.8,33.81,,,,,,,,,,
16.20.14.744,-53.1,13.3,0,17.0,,73215.6,13.66,0.15,0.31,-0.96,2.0,10.3,0.4,33.81,,,,,,,,,,
16.20.14.757,-85.9,21.5,0,17.0,,69374.8,14.41,0.18,0.32,-0.94,1.4,9.9,-0.9,33.81,,,,,,,,,,
16.20.14.765,-46.9,11.7,0,17.0,,73011.2,13.7,0.18,0.33,-0.95,0.5,9.6,-0.4,33.81,,,,,,,,,,
16.20.14.777,-92.7,23.2,0,17.0,,70129.5,14.26,0.18,0.35,-0.96,-1.3,9.9,0.9,33.81,,,,,,,,,,
16.20.14.785,-59.6,14.9,0,17.0,,70593.8,14.17,0.18,0.34,-0.94,-1.9,8.8,0.9,33.81,,,,,,,,,,
16.20.14.797,-96.0,24.0,0,17.0,,72042.7,13.88,0.19,0.34,-0.95,-2.6,8.9,1.2,33.81,,,,,,,,,,
16.20.14.806,-94.5,23.6,0,17.0,,73385.0,13.63,0.2,0.44,-0.92,-17.1,12.0,-1.9,33.81,,,,,,,,,,
16.20.14.818,-95.9,24.0,0,17.0,,72412.9,13.81,0.19,0.36,-0.94,-6.7,6.4,3.3,33.81,,,,,,,,,,
16.20.14.826,-111.8,28.0,0,17.0,,72277.1,13.84,0.19,0.39,-0.93,-11.4,3.6,5.0,33.81,,,,,,,,,,
16.20.14.838,-99.3,24.8,0,17.0,,71013.9,14.08,0.18,0.35,-0.94,-14.0,3.1,6.1,33.81,,,,,,,,,,
16.20.14.847,-160.9,40.2,0,17.0,,71867.2,13.91,0.18,0.35,-0.96,-13.4,3.5,5.8,33.81,,,,,,,,,,
16.20.14.859,-129.3,32.3,0,17.0,,68296.5,14.64,0.19,0.54,-1.0,-36.3,5.4,4.6,33.81,,,,,,,,,,
16.20.14.867,-134.8,33.7,0,17.0,,72386.6,13.81,0.21,0.36,-0.97,-13.5,2.8,9.2,33.81,,,,,,,,,,
16.20.14.879,-153.6,38.4,0,17.0,,71275.4,14.03,0.18,0.25,-0.97,-11.9,7.5,8.2,33.81,,,,,,,,,,
16.20.14.892,-113.4,28.4,0,17.0,,68028.6,14.7,0.22,0.27,-0.94,-8.7,6.5,11.3,33.81,,,,,,,,,,
16.20.14.900,-165.1,41.3,0,17.0,,68165.2,14.67,0.2,0.31,-0.98,-6.3,7.1,10.8,33.81,,,,,,,,,,
16.20.14.912,-172.0,43.0,0,17.0,,75327.7,13.28,0.22,0.32,-0.97,-1.3,7.3,8.6,33.81,,,,,,,,,,
16.20.14.920,31.0,7.8,1,18.0,98.8,72666.0,13.76,0.2,0.3,-0.92,6.8,11.0,4.5,33.81,,,,,,,,,,
16.20.14.933,115.5,28.9,0,18.0,,72089.5,13.87,0.21,0.32,-0.86,11.8,3.1,4.2,33.81,,,,,,,,,,
16.20.14.970,334.5,83.6,0,18.0,,68938.6,14.51,0.2,0.32,-0.84,9.9,1.3,4.0,33.81,,,,,,,,,,
16.20.14.978,310.2,77.6,0,18.0,,74721.3,13.38,0.16,0.38,-0.83,-16.6,0.6,-0.9,33.81,,,,,,,,,,
16.20.14.990,360.5,90.1,0,18.0,,68888.2,14.52,0.07,0.18,-0.83,-19.3,-4.5,-5.5,33.81,,,,,,,,,,
16.20.14.998,429.4,107.4,0,18.0,,71128.8,14.06,0.18,0.32,-0.84,-28.0,-1.2,-3.1,33.81,,,,,,,,,,
16.20.15.010,423.3,105.8,0,18.0,,71301.4,14.02,0.18,0.31,-0.94,-31.0,-6.2,-5.4,33.81,,,,,,,,,,
16.20.15.023,404.7,101.2,0,18.0,,64950.7,15.4,0.2,0.28,-0.93,-27.3,-5.2,-7.5,33.81,,,,,,,,,,
16.20.15.031,398.8,99.7,0,18.0,,70293.5,14.23,0.2,0.28,-0.97,-22.8,-6.0,-7.2,33.81,,,,,,,,,,
16.20.15.044,314.6,78.6,0,18.0,,72705.2,13.75,0.2,0.3,-0.99,-18.3,-8.1,-6.1,33.81,,,,,,,,,,
16.20.15.052,353.8,88.4,0,18.0,,72387.9,13.81,0.15,0.13,-1.0,-8.2,-6.6,-5.2,33.81,,,,,,,,,,
16.20.15.064,314.7,78.7,0,18.0,,70162.7,14.25,0.17,0.29,-0.97,-2.2,-2.6,-7.5,33.81,,,,,,,,,,
16.20.15.072,277.7,69.4,0,18.0,,70202.4,14.24,0.16,0.33,-0.95,1.2,-6.2,-11.1,33.81,,,,,,,,,,
16.20.15.084,125.2,31.3,0,18.0,,70570.4,14.17,0.18,0.36,-0.9,4.3,-4.3,-10.1,33.81,,,,,,,,,,
16.20.15.092,125.3,31.3,0,18.0,,71062.3,14.07,0.15,0.39,-0.93,-1.9,0.7,-9.4,33.81,,,,,,,,,,
16.20.15.105,46.2,11.6,0,18.0,,69962.5,14.29,0.16,0.24,-0.9,-2.5,3.9,-11.5,33.81,,,,,,,,,,
16.20.15.113,6.6,1.6,0,18.0,,71833.1,13.92,0.15,0.36,-0.92,-8.6,3.8,-12.0,33.81,,,,,,,,,,
16.20.15.125,20.7,5.2,0,18.0,,72175.1,13.86,0.17,0.37,-0.92,-12.4,6.2,-12.7,33.81,,,,,,,,,,
16.20.15.133,70.4,17.6,0,18.0,,72916.1,13.71,0.18,0.38,-0.96,-15.0,7.2,-13.3,33.81,,,,,,,,,,
16.20.15.146,71.5,17.9,0,18.0,,72624.9,13.77,0.17,0.38,-0.94,-17.3,9.5,-14.4,33.81,,,,,,,,,,
16.20.15.158,55.7,13.9,0,18.0,,74377.8,13.44,0.17,0.47,-0.96,-31.2,4.4,-15.4,33.81,,,,,,,,,,
16.20.15.166,63.4,15.8,0,18.0,,69759.5,14.33,0.17,0.33,-0.95,-16.2,4.0,-16.7,33.81,,,,,,,,,,
16.20.15.178,65.3,16.3,0,18.0,,71468.4,13.99,0.19,0.43,-0.93,-20.4,1.5,-15.1,33.81,,,,,,,,,,
16.20.15.187,82.9,20.7,0,18.0,,69397.8,14.41,0.17,0.4,-0.97,-25.0,-3.5,-11.8,33.81,,,,,,,,,,
16.20.15.199,54.4,13.6,0,18.0,,70232.6,14.24,0.15,0.37,-0.98,-22.7,-4.0,-9.8,33.81,,,,,,,,,,
16.20.15.207,3.4,0.8,0,18.0,,70639.4,14.16,0.13,0.39,-1.02,-19.5,-6.1,-9.8,33.81,,,,,,,,,,
16.20.15.224,-6.7,1.7,0,18.0,,69754.8,14.34,0.13,0.38,-1.02,-15.6,-2.4,-10.1,33.81,,,,,,,,,,
16.20.15.232,-2.6,0.6,0,18.0,,73330.0,13.64,0.11,0.37,-1.03,-8.5,-1.1,-11.2,33.81,,,,,,,,,,
16.20.15.244,1.8,0.4,0,18.0,,71207.9,14.04,0.12,0.35,-0.99,-8.7,4.7,-10.4,33.81,,,,,,,,,,
16.20.15.252,-17.5,4.4,0,18.0,,71051.5,14.07,0.1,0.39,-1.01,1.8,6.5,-12.2,33.81,,,,,,,,,,
16.20.15.265,-37.8,9.4,0,18.0,,72362.3,13.82,0.11,0.42,-0.97,2.1,10.6,-11.1,33.81,,,,,,,,,,
16.20.15.273,-19.0,4.8,0,18.0,,72236.1,13.84,0.11,0.41,-0.95,4.1,11.1,-11.0,33.81,,,,,,,,,,
16.20.15.285,-79.0,19.8,0,18.0,,70765.8,14.13,0.11,0.43,-0.94,6.2,11.2,-11.2,33.81,,,,,,,,,,
16.20.15.293,-55.0,13.8,0,18.0,,70951.5,14.09,0.12,0.44,-0.9,7.7,7.6,-11.5,33.81,,,,,,,,,,
16.20.15.306,-31.6,7.9,0,18.0,,76280.0,13.11,0.1,0.42,-0.92,6.2,5.5,-13.2,33.81,,,,,,,,,,
16.20.15.314,-94.9,23.7,0,18.0,,69895.3,14.31,0.11,0.45,-0.92,6.0,4.0,-14.3,33.81,,,,,,,,,,
16.20.15.326,-44.1,11.0,0,18.0,,70371.9,14.21,0.11,0.47,-0.91,0.6,3.2,-13.3,33.81,,,,,,,,,,
16.20.15.338,-66.6,16.6,0,18.0,,68863.6,14.52,0.1,0.46,-0.94,-1.1,3.9,-13.2,33.81,,,,,,,,,,
16.20.15.346,-68.0,17.0,0,18.0,,73355.9,13.63,0.1,0.45,-0.93,-1.5,6.4,-15.9,33.81,,,,,,,,,,
16.20.15.359,-61.2,15.3,0,18.0,,68090.3,14.69,0.12,0.47,-0.92,-2.5,9.4,-16.5,33.81,,,,,,,,,,
16.20.15.367,-95.5,23.9,0,18.0,,71722.5,13.94,0.14,0.49,-0.88,-3.7,11.2,-15.8,33.81,,,,,,,,,,
16.20.15.379,-114.3,28.6,0,18.0,,68394.0,14.62,0.13,0.47,-0.87,-7.0,10.2,-14.2,33.81,,,,,,,,,,
16.20.15.388,-97.3,24.3,0,18.0,,75131.6,13.31,0.1,0.33,-0.81,-6.0,7.1,-14.7,33.81,,,,,,,,,,
16.20.15.400,-95.7,23.9,0,18.0,,66656.9,15.0,0.14,0.48,-0.92,-7.1,5.3,-8.9,33.81,,,,,,,,,,
16.20.15.408,-105.9,26.5,0,18.0,,69126.2,14.47,0.11,0.42,-1.02,-3.3,8.0,-6.3,33.81,,,,,,,,,,
16.20.15.420,-164.7,41.2,0,18.0,,70473.9,14.19,0.14,0.52,-1.01,10.7,8.2,-6.0,33.81,,,,,,,,,,
16.20.15.433,-136.4,34.1,0,18.0,,73786.5,13.55,0.12,0.47,-1.01,14.0,15.2,-7.2,33.81,,,,,,,,,,
16.20.15.441,-128.5,32.1,0,18.0,,66956.7,14.94,0.16,0.57,-0.94,13.5,17.4,-3.9,33.81,,,,,,,,,,
16.20.15.453,-153.2,38.3,0,18.0,,70806.2,14.12,0.18,0.67,-0.98,10.5,19.5,-3.2,33.81,,,,,,,,,,
16.20.15.461,-166.8,41.7,0,18.0,,69069.2,14.48,0.15,0.47,-0.92,6.5,26.3,-3.4,33.81,,,,,,,,,,
16.20.15.473,-133.1,33.3,0,18.0,,71737.2,13.94,0.16,0.48,-0.91,11.5,25.1,-7.5,33.81,,,,,,,,,,
16.20.15.482,3.4,0.8,1,19.0,104.0,71063.3,14.07,0.19,0.48,-0.84,0.2,27.1,-5.0,33.81,,,,,,,,,,
16.20.15.494,101.5,25.4,0,19.0,,70734.6,14.14,0.19,0.5,-0.84,-6.3,26.2,-9.2,33.81,,,,,,,,,,
16.20.15.502,135.2,33.8,0,19.0,,70499.9,14.18,0.19,0.48,-0.82,-17.9,24.5,-8.2,33.81,,,,,,,,,,
16.20.15.514,242.4,60.6,0,19.0,,70381.1,14.21,0.19,0.47,-0.87,-24.4,23.5,-7.2,33.81,,,,,,,,,,
16.20.15.523,299.9,75.0,0,19.0,,68390.2,14.62,0.21,0.45,-0.88,-25.1,25.0,-7.5,33.81,,,,,,,,,,
16.20.15.535,324.9,81.2,0,19.0,,65750.7,15.21,0.22,0.43,-0.89,-20.6,24.6,-7.6,33.81,,,,,,,,,,
16.20.15.547,316.4,79.1,0,19.0,,70030.2,14.28,0.24,0.41,-0.88,-17.8,26.4,-6.9,33.81,,,,,,,,,,
16.20.15.555,362.4,90.6,0,19.0,,71561.1,13.97,0.23,0.4,-0.88,-15.1,23.9,-5.5,33.81,,,,,,,,,,
16.20.15.568,423.3,105.8,0,19.0,,72369.3,13.82,0.26,0.43,-0.85,-13.2,21.9,-4.2,33.81,,,,,,,,,,
16.20.15.576,447.4,111.8,0,19.0,,69518.1,14.38,0.25,0.43,-0.84,-15.2,18.5,-2.0,33.81,,,,,,,,,,
16.20.15.588,376.2,94.0,0,19.0,,73058.5,13.69,0.23,0.43,-0.88,-11.7,13.9,-2.8,33.81,,,,,,,,,,
16.20.15.596,394.9,98.7,0,19.0,,67348.0,14.85,0.26,0.44,-0.87,-7.0,9.7,-2.3,33.81,,,,,,,,,,
16.20.15.609,375.7,93.9,0,19.0,,71863.8,13.92,0.26,0.41,-0.85,-0.2,5.0,-1.9,33.81,,,,,,,,,,
16.20.15.621,339.0,84.8,0,19.0,,73317.7,13.64,0.29,0.55,-0.89,-8.6,3.5,3.0,33.81,,,,,,,,,,
16.20.15.629,264.4,66.1,0,19.0,,70687.5,14.15,0.21,0.21,-0.85,10.5,0.0,-3.6,33.81,,,,,,,,,,
16.20.15.642,182.9,45.7,0,19.0,,70565.3,14.17,0.28,0.5,-0.84,0.4,0.4,6.7,33.81,,,,,,,,,,
16.20.15.650,180.7,45.2,0,19.0,,71344.6,14.02,0.22,0.42,-0.9,2.1,3.2,3.9,33.81,,,,,,,,,,
16.20.15.662,131.5,32.9,0,19.0,,69567.0,14.37,0.23,0.43,-0.88,3.4,3.0,5.0,33.81,,,,,,,,,,
16.20.15.670,50.4,12.6,0,19.0,,74481.9,13.43,0.26,0.5,-0.83,2.2,-1.0,6.9,33.81,,,,,,,,,,
16.20.15.682,60.4,15.1,0,19.0,,69569.4,14.37,0.24,0.48,-0.83,-5.6,-2.5,8.7,33.81,,,,,,,,,,
16.20.15.691,32.8,8.2,0,19.0,,69708.4,14.35,0.22,0.51,-0.82,-8.9,-7.8,9.6,33.81,,,,,,,,,,
16.20.15.703,46.9,11.7,0,19.0,,72975.5,13.7,0.23,0.46,-0.84,-10.4,-12.1,9.0,33.81,,,,,,,,,,
16.20.15.711,47.5,11.9,0,19.0,,71315.9,14.02,0.23,0.47,-0.84,-11.6,-12.8,10.3,33.81,,,,,,,,,,
16.20.15.724,39.0,9.8,0,19.0,,71335.6,14.02,0.21,0.48,-0.85,-10.1,-14.0,11.7,33.81,,,,,,,,,,
16.20.15.732,72.3,18.1,0,19.0,,69286.0,14.43,0.21,0.46,-0.86,-8.6,-11.1,10.6,33.81,,,,,,,,,,
16.20.15.768,35.5,8.9,0,19.0,,68665.3,14.56,0.21,0.47,-0.84,-4.3,-8.8,10.4,33.81,,,,,,,,,,
16.20.15.781,21.0,5.2,0,19.0,,70807.4,14.12,0.22,0.46,-0.8,21.0,-17.1,7.6,33.81,,,,,,,,,,
16.20.15.793,27.3,6.8,0,19.0,,68148.9,14.67,0.19,0.47,-0.85,18.2,-20.6,8.3,33.81,,,,,,,,,,
16.20.15.801,-8.5,2.1,0,19.0,,72362.8,13.82,0.15,0.43,-0.89,13.1,-19.7,7.6,33.81,,,,,,,,,,
16.20.15.814,8.1,2.0,0,19.0,,69829.7,14.32,0.14,0.46,-0.91,9.3,-17.4,5.9,33.81,,,,,,,,,,
16.20.15.822,7.4,1.8,0,19.0,,69217.9,14.45,0.14,0.43,-0.93,7.7,-14.9,3.3,33.81,,,,,,,,,,
16.20.15.834,-21.4,5.4,0,19.0,,74147.7,13.49,0.16,0.42,-0.94,10.4,-12.5,0.8,33.81,,,,,,,,,,
16.20.15.842,-24.0,6.0,0,19.0,,72512.1,13.79,0.16,0.42,-0.95,13.8,-12.5,-1.6,33.81,,,,,,,,,,
16.20.15.855,-17.8,4.4,0,19.0,,68614.1,14.57,0.17,0.43,-0.94,16.7,-17.1,-1.3,33.81,,,,,,,,,,
16.20.15.863,-55.0,13.8,0,19.0,,68468.6,14.61,0.16,0.44,-0.95,14.5,-20.2,-0.3,33.81,,,,,,,,,,
16.20.15.875,-75.5,18.9,0,19.0,,68515.2,14.6,0.15,0.42,-0.95,15.1,-24.3,0.1,33.81,,,,,,,,,,
16.20.15.883,-80.1,20.0,0,19.0,,72766.4,13.74,0.14,0.45,-0.95,12.9,-27.4,2.4,33.81,,,,,,,,,,
16.20.15.895,-26.0,6.5,0,19.0,,69615.0,14.36,0.11,0.45,-0.98,10.6,-28.2,5.1,33.81,,,,,,,,,,
16.20.15.908,-93.6,23.4,0,19.0,,72724.9,13.75,0.09,0.42,-1.0,8.3,-23.9,2.8,33.81,,,,,,,,,,
16.20.15.916,-90.2,22.6,0,19.0,,68907.1,14.51,0.08,0.42,-0.98,6.6,-20.8,-1.6,33.81,,,,,,,,,,
16.20.15.928,-48.5,12.1,0,19.0,,72157.0,13.86,0.09,0.41,-0.97,8.5,-16.3,-6.7,33.81,,,,,,,,,,
16.20.15.937,-127.0,31.8,0,19.0,,75667.6,13.22,0.1,0.42,-0.96,9.0,-11.8,-10.0,33.81,,,,,,,,,,
16.20.15.949,-105.3,26.3,0,19.0,,70757.8,14.13,0.1,0.43,-0.98,10.1,-7.7,-9.2,33.81,,,,,,,,,,
16.20.15.957,-86.3,21.6,0,19.0,,69395.5,14.41,0.12,0.44,-0.97,9.5,-8.2,-7.6,33.81,,,,,,,,,,
16.20.15.969,-139.0,34.8,0,19.0,,69623.2,14.36,0.11,0.41,-0.99,9.8,-8.1,-4.3,33.81,,,,,,,,,,
16.20.15.977,-141.8,35.4,0,19.0,,72644.2,13.77,0.09,0.43,-1.03,11.1,-10.1,1.0,33.81,,,,,,,,,,
16.20.15.990,-156.2,39.0,0,19.0,,68820.4,14.53,0.07,0.44,-1.02,11.2,-8.2,6.1,33.81,,,,,,,,,,
16.20.16.002,-126.8,31.7,0,19.0,,71549.4,13.98,0.04,0.43,-1.02,11.3,-7.3,6.8,33.81,,,,,,,,,,
16.20.16.010,-163.4,40.8,0,19.0,,75727.0,13.21,0.03,0.45,-1.04,9.9,-2.1,5.2,33.81,,,,,,,,,,
16.20.16.023,-133.8,33.4,0,19.0,,74625.6,13.4,0.04,0.48,-0.98,7.5,2.0,3.5,33.81,,,,,,,,,,
16.20.16.031,-134.8,33.7,0,19.0,,73250.5,13.65,0.07,0.71,-0.98,-8.6,3.4,-11.1,33.81,,,,,,,,,,
16.20.16.043,-169.0,42.2,0,19.0,,71569.5,13.97,0.02,0.42,-0.96,0.0,0.7,1.2,33.81,,,,,,,,,,
16.20.16.051,13.8,3.4,1,20.0,106.0,69689.9,14.35,0.04,0.42,-0.97,-5.2,2.2,2.8,33.81,,,,,,,,,,
16.20.16.064,145.9,36.5,0,20.0,,70833.6,14.12,0.05,0.42,-0.96,-6.2,5.3,3.4,33.81,,,,,,,,,,
16.20.16.072,167.1,41.8,0,20.0,,66138.2,15.12,0.07,0.41,-0.95,-4.1,9.1,3.8,33.81,,,,,,,,,,
16.20.16.084,242.1,60.5,0,20.0,,69238.4,14.44,0.07,0.35,-0.94,0.4,14.8,2.7,33.81,,,,,,,,,,
16.20.16.092,283.0,70.8,0,20.0,,74651.0,13.4,0.07,0.35,-0.94,6.1,18.6,1.4,33.81,,,,,,,,,,
16.20.16.105,354.7,88.7,0,20.0,,76781.9,13.02,0.08,0.35,-0.9,9.5,21.7,0.7,33.81,,,,,,,,,,
16.20.16.113,361.0,90.2,0,20.0,,70608.1,14.16,0.08,0.38,-0.89,9.4,23.1,1.4,33.81,,,,,,,,,,
16.20.16.125,389.7,97.4,0,20.0,,63895.2,15.65,0.07,0.39,-0.87,5.6,23.1,2.7,33.81,,,,,,,,,,
16.20.16.137,392.9,98.2,0,20.0,,70601.0,14.16,0.06,0.4,-0.86,3.9,21.3,2.6,33.81,,,,,,,,,,
16.20.16.145,433.3,108.3,0,20.0,,74324.7,13.45,0.07,0.41,-0.85,1.2,16.4,3.3,33.81,,,,,,,,,,
16.20.16.158,443.2,110.8,0,20.0,,73092.1,13.68,0.06,0.41,-0.86,-1.5,10.9,4.0,33.81,,,,,,,,,,
16.20.16.166,381.2,95.3,0,20.0,,74278.7,13.46,0.05,0.41,-0.88,-4.7,4.5,5.2,33.81,,,,,,,,,,
16.20.16.178,349.7,87.4,0,20.0,,70848.2,14.11,0.05,0.39,-0.91,-5.9,1.5,6.6,33.81,,,,,,,,,,
16.20.16.186,294.2,73.6,0,20.0,,71161.4,14.05,0.06,0.38,-0.95,-4.6,-1.2,6.3,33.81,,,,,,,,,,
16.20.16.199,264.9,66.2,0,20.0,,69175.7,14.46,0.08,0.37,-0.95,-3.2,-2.9,6.4,33.81,,,,,,,,,,
16.20.16.207,199.3,49.8,0,20.0,,72307.1,13.83,0.07,0.37,-0.97,-2.6,-4.1,5.3,33.81,,,,,,,,,,
16.20.16.219,126.3,31.6,0,20.0,,70445.4,14.2,0.07,0.39,-1.0,2.7,-3.4,2.9,33.81,,,,,,,,,,
16.20.16.227,127.5,31.9,0,20.0,,71541.5,13.98,0.06,0.41,-0.96,3.8,0.1,1.0,33.81,,,,,,,,,,
16.20.16.240,-9.4,2.4,0,20.0,,71865.2,13.91,0.08,0.43,-0.93,4.0,4.9,-2.2,33.81,,,,,,,,,,
16.20.16.252,-16.1,4.0,0,20.0,,70325.1,14.22,0.06,0.4,-0.89,-0.2,6.8,-4.8,33.81,,,,,,,,,,
16.20.16.260,65.2,16.3,0,20.0,,74474.7,13.43,0.07,0.41,-0.9,-0.2,5.1,-5.7,33.81,,,,,,,,,,
16.20.16.272,26.3,6.6,0,20.0,,72473.8,13.8,0.09,0.36,-0.92,1.9,6.3,-7.6,33.81,,,,,,,,,,
16.20.16.280,78.4,19.6,0,20.0,,70557.4,14.17,0.1,0.39,-0.92,3.8,7.2,-7.5,33.81,,,,,,,,,,
16.20.16.293,84.3,21.1,0,20.0,,69230.7,14.44,0.1,0.38,-0.91,5.8,11.2,-7.3,33.81,,,,,,,,,,
16.20.16.301,69.5,17.4,0,20.0,,68616.9,14.57,0.09,0.38,-0.92,6.1,13.3,-6.9,33.81,,,,,,,,,,
16.20.16.313,59.9,15.0,0,20.0,,69237.1,14.44,0.08,0.39,-0.92,7.8,16.0,-8.8,33.81,,,,,,,,,,
16.20.16.326,75.4,18.8,0,20.0,,70067.9,14.27,0.09,0.41,-0.87,7.5,15.1,-9.7,33.81,,,,,,,,,,
16.20.16.334,41.1,10.3,0,20.0,,69341.2,14.42,0.1,0.4,-0.86,6.1,12.3,-11.2,33.81,,,,,,,,,,
16.20.16.346,-9.5,2.4,0,20.0,,68110.1,14.68,0.16,0.42,-0.92,0.2,2.2,-11.7,33.81,,,,,,,,,,
16.20.16.354,-3.0,0.8,0,20.0,,73735.6,13.56,0.1,0.42,-0.83,8.8,15.8,-10.8,33.81,,,,,,,,,,
16.20.16.366,-20.8,5.2,0,20.0,,70280.7,14.23,0.07,0.39,-0.87,9.2,4.2,-11.6,33.81,,,,,,,,,,
16.20.16.379,-31.8,8.0,0,20.0,,72717.2,13.75,0.07,0.38,-0.88,9.3,8.0,-15.3,33.81,,,,,,,,,,
16.20.16.391,-29.4,7.4,0,20.0,,70223.0,14.24,0.06,0.39,-0.89,12.8,11.0,-19.1,33.81,,,,,,,,,,
16.20.16.400,-51.0,12.8,0,20.0,,67487.6,14.82,0.11,0.41,-0.89,14.2,9.8,-19.6,33.81,,,,,,,,,,
16.20.16.412,-40.9,10.2,0,20.0,,67256.6,14.87,0.13,0.41,-0.85,9.5,13.0,-20.9,33.81,,,,,,,,,,
16.20.16.420,-51.6,12.9,0,20.0,,68649.4,14.57,0.09,0.4,-0.88,7.1,12.4,-21.8,33.81,,,,,,,,,,
16.20.16.432,-53.2,13.3,0,20.0,,72439.6,13.8,0.13,0.4,-0.89,6.9,6.4,-20.9,33.81,,,,,,,,,,
16.20.16.445,-52.2,13.0,0,20.0,,71054.0,14.07,0.11,0.39,-0.94,6.4,9.2,-20.1,33.81,,,,,,,,,,
16.20.16.453,-62.5,15.6,0,20.0,,73045.9,13.69,0.11,0.4,-0.96,9.3,6.2,-19.2,33.81,,,,,,,,,,
16.20.16.465,-63.5,15.9,0,20.0,,70801.5,14.12,0.11,0.41,-0.96,6.9,5.1,-18.7,33.81,,,,,,,,,,
16.20.16.473,-69.1,17.3,0,20.0,,69889.9,14.31,0.1,0.43,-0.96,10.6,10.0,-17.8,33.81,,,,,,,,,,
16.20.16.485,-134.2,33.6,0,20.0,,72822.1,13.73,0.12,0.4,-0.98,10.8,6.6,-16.3,33.81,,,,,,,,,,
16.20.16.493,-69.7,17.4,0,20.0,,72485.6,13.8,0.09,0.4,-0.99,10.1,12.1,-17.4,33.81,,,,,,,,,,
16.20.16.506,-93.8,23.4,0,20.0,,71640.3,13.96,0.09,0.39,-0.98,14.7,15.9,-18.7,33.81,,,,,,,,,,
16.20.16.514,-120.2,30.0,0,20.0,,72733.6,13.75,0.09,0.4,-0.99,16.7,15.9,-19.7,33.81,,,,,,,,,,
16.20.16.526,-128.2,32.0,0,20.0,,68567.3,14.58,0.08,0.39,-0.99,17.9,18.0,-21.8,33.81,,,,,,,,,,
16.20.16.539,-90.6,22.6,0,20.0,,70501.3,14.18,0.15,0.36,-0.99,14.1,19.0,-23.0,33.81,,,,,,,,,,
16.20.16.576,-117.6,29.4,0,20.0,,73217.8,13.66,0.06,0.42,-0.97,11.6,31.5,-29.3,33.88,,,,,,,,,,
16.20.16.584,-155.6,38.9,0,20.0,,71020.4,14.08,0.1,0.44,-0.96,-6.4,16.8,-34.1,33.88,,,,,,,,,,
16.20.16.596,-165.5,41.4,0,20.0,,73489.2,13.61,0.1,0.42,-0.96,-10.9,16.2,-33.2,33.88,,,,,,,,,,
16.20.16.604,-188.4,47.1,0,20.0,,72858.0,13.73,0.13,0.39,-0.94,-13.9,16.0,-30.4,33.88,,,,,,,,,,
16.20.16.617,-0.6,0.2,1,21.0,105.6,73723.2,13.56,0.12,0.37,-0.94,-11.6,15.4,-26.4,33.88,,,,,,,,,,
16.20.16.625,95.9,24.0,0,21.0,,74658.4,13.39,0.07,0.34,-0.96,-4.3,15.8,-26.9,33.88,,,,,,,,,,
16.20.16.637,178.4,44.6,0,21.0,,69480.6,14.39,0.06,0.37,-0.95,-2.7,13.9,-25.2,33.88,,,,,,,,,,
16.20.16.649,220.2,55.0,0,21.0,,76864.0,13.01,0.05,0.4,-1.0,0.6,9.6,-25.7,33.88,,,,,,,,,,
16.20.16.658,261.1,65.3,0,21.0,,71210.9,14.04,0.04,0.38,-1.01,0.7,8.6,-25.1,33.88,,,,,,,,,,
16.20.16.670,352.6,88.2,0,21.0,,71791.6,13.93,0.04,0.39,-1.02,-1.8,7.5,-23.8,33.88,,,,,,,,,,
16.20.16.682,381.7,95.4,0,21.0,,73981.8,13.52,0.05,0.35,-1.08,-1.3,5.1,-20.8,33.88,,,,,,,,,,
16.20.16.690,381.9,95.5,0,21.0,,71630.7,13.96,0.05,0.32,-1.12,3.6,9.0,-19.7,33.88,,,,,,,,,,
16.20.16.703,370.6,92.6,0,21.0,,72091.4,13.87,0.08,0.29,-1.12,13.0,14.6,-17.4,33.88,,,,,,,,,,
16.20.16.711,451.6,112.9,0,21.0,,73985.6,13.52,0.1,0.27,-1.1,22.6,22.0,-17.4,33.88,,,,,,,,,,
16.20.16.723,420.7,105.2,0,21.0,,67256.3,14.87,0.09,0.27,-1.06,27.7,24.2,-17.7,33.88,,,,,,,,,,
16.20.16.735,361.3,90.3,0,21.0,,73209.8,13.66,0.1,0.27,-0.99,33.2,30.7,-17.0,33.88,,,,,,,,,,
16.20.16.744,326.3,81.6,0,21.0,,70846.2,14.12,0.1,0.28,-0.91,35.9,27.1,-16.3,33.88,,,,,,,,,,
16.20.16.756,264.0,66.0,0,21.0,,71853.7,13.92,0.11,0.29,-0.84,30.8,24.7,-18.3,33.88,,,,,,,,,,
16.20.16.764,231.0,57.8,0,21.0,,73230.9,13.66,0.08,0.3,-0.8,19.2,23.9,-21.2,33.88,,,,,,,,,,
16.20.16.776,217.1,54.3,0,21.0,,67837.0,14.74,0.08,0.32,-0.82,5.5,19.9,-24.3,33.88,,,,,,,,,,
16.20.16.784,128.6,32.2,0,21.0,,66520.0,15.03,0.09,0.21,-0.88,2.6,5.9,-24.5,33.88,,,,,,,,,,
16.20.16.797,33.3,8.3,0,21.0,,75266.3,13.29,0.08,0.31,-0.93,-8.8,19.0,-24.8,33.88,,,,,,,,,,
16.20.16.805,20.0,5.0,0,21.0,,72594.8,13.78,0.1,0.26,-0.93,-1.0,6.6,-25.7,33.88,,,,,,,,,,
16.20.16.817,-1.2,0.3,0,21.0,,67203.2,14.88,0.08,0.23,-0.9,-7.2,19.2,-29.5,33.88,,,,,,,,,,
16.20.16.825,59.9,15.0,0,21.0,,76348.4,13.1,0.15,0.22,-0.89,-3.7,12.7,-27.7,33.88,,,,,,,,,,
16.20.16.838,103.8,26.0,0,21.0,,70966.6,14.09,0.12,0.25,-0.92,-5.0,8.2,-25.5,33.88,,,,,,,,,,
16.20.16.850,35.7,8.9,0,21.0,,71544.3,13.98,0.1,0.28,-0.92,-8.5,6.8,-21.9,33.88,,,,,,,,,,
16.20.16.858,58.3,14.6,0,21.0,,73130.8,13.67,0.09,0.31,-0.94,-14.6,3.4,-16.7,33.88,,,,,,,,,,
16.20.16.870,58.7,14.7,0,21.0,,71793.7,13.93,0.09,0.27,-0.96,-17.3,3.2,-15.3,33.88,,,,,,,,,,
16.20.16.879,48.5,12.1,0,21.0,,66662.8,15.0,0.1,0.27,-0.99,-13.4,1.5,-14.9,33.88,,,,,,,,,,
16.20.16.891,61.1,15.3,0,21.0,,66013.2,15.15,0.11,0.27,-0.98,-9.6,1.9,-12.9,33.88,,,,,,,,,,
16.20.16.899,45.3,11.3,0,21.0,,77402.2,12.92,0.12,0.26,-0.99,-5.6,-1.4,-11.6,33.88,,,,,,,,,,
16.20.16.911,9.6,2.4,0,21.0,,73443.4,13.62,0.13,0.25,-0.99,-3.0,-2.4,-10.0,33.88,,,,,,,,,,
16.20.16.920,-27.8,7.0,0,21.0,,71873.6,13.91,0.09,0.25,-1.0,2.5,-4.3,-8.1,33.88,,,,,,,,,,
16.20.16.932,41.9,10.5,0,21.0,,69211.5,14.45,0.18,0.26,-0.99,10.4,-6.3,-4.3,33.88,,,,,,,,,,
16.20.16.940,6.9,1.7,0,21.0,,71258.2,14.03,0.11,0.29,-1.01,11.6,-7.1,-2.3,33.88,,,,,,,,,,
16.20.16.953,-33.3,8.3,0,21.0,,68184.6,14.67,0.1,0.35,-0.99,6.3,1.1,0.4,33.88,,,,,,,,,,
16.20.16.961,-19.0,4.8,0,21.0,,72935.4,13.71,0.08,0.36,-1.0,3.6,4.5,2.7,33.88,,,,,,,,,,
16.20.16.973,-48.1,12.0,0,21.0,,68895.0,14.51,0.07,0.35,-1.0,2.0,9.3,2.2,33.88,,,,,,,,,,
16.20.16.981,-45.8,11.4,0,21.0,,69687.3,14.35,0.06,0.34,-0.98,5.0,9.3,0.5,33.88,,,,,,,,,,
16.20.16.993,-52.8,13.2,0,21.0,,74747.4,13.38,0.07,0.35,-0.95,1.5,8.4,-0.3,33.88,,,,,,,,,,
16.20.17.002,-54.6,13.6,0,21.0,,70142.1,14.26,0.08,0.33,-0.95,-4.9,8.4,-2.6,33.88,,,,,,,,,,
16.20.17.014,-62.2,15.6,0,21.0,,71662.3,13.95,0.09,0.34,-0.95,-7.1,7.2,-3.2,33.88,,,,,,,,,,
16.20.17.022,-96.4,24.1,0,21.0,,69566.6,14.37,0.09,0.3,-0.97,-6.1,2.9,-3.7,33.88,,,,,,,,,,
16.20.17.034,-72.6,18.2,0,21.0,,70507.9,14.18,0.09,0.29,-0.95,-5.4,3.2,-2.8,33.88,,,,,,,,,,
16.20.17.043,-79.9,20.0,0,21.0,,68936.7,14.51,0.09,0.32,-0.96,-4.2,-1.3,-2.5,33.88,,,,,,,,,,
16.20.17.055,-87.0,21.8,0,21.0,,76636.2,13.05,0.09,0.32,-0.97,-2.9,-0.9,-2.5,33.88,,,,,,,,,,
16.20.17.067,-67.3,16.8,0,21.0,,68676.9,14.56,0.09,0.33,-0.97,-1.5,-1.3,-3.1,33.88,,,,,,,,,,
16.20.17.075,-131.6,32.9,0,21.0,,72155.8,13.86,0.09,0.33,-0.98,0.0,-2.2,-3.8,33.88,,,,,,,,,,
16.20.17.088,-117.0,29.2,0,21.0,,72646.6,13.77,0.08,0.33,-0.99,1.5,-5.1,-4.8,33.88,,,,,,,,,,
16.20.17.096,-116.8,29.2,0,21.0,,71955.9,13.9,0.09,0.34,-0.99,2.9,-7.0,-5.3,33.88,,,,,,,,,,
16.20.17.108,-111.3,27.8,0,21.0,,70808.2,14.12,0.09,0.35,-0.99,2.9,-7.6,-6.0,33.88,,,,,,,,,,
16.20.17.117,-155.5,38.9,0,21.0,,71273.6,14.03,0.08,0.37,-0.99,1.8,-7.1,-5.6,33.88,,,,,,,,,,
16.20.17.129,-131.3,32.8,0,21.0,,72660.2,13.76,0.08,0.37,-0.99,-0.3,-4.4,-5.0,33.88,,,,,,,,,,
16.20.17.137,-158.7,39.7,0,21.0,,67744.2,14.76,0.08,0.36,-0.96,-1.8,-0.4,-5.4,33.88,,,,,,,,,,
16.20.17.149,-140.2,35.0,0,21.0,,67778.1,14.75,0.09,0.34,-0.96,-2.8,4.4,-7.6,33.88,,,,,,,,,,
16.20.17.157,-113.3,28.3,0,21.0,,69699.7,14.35,0.09,0.34,-0.97,-1.0,6.3,-9.0,33.88,,,,,,,,,,
16.20.17.169,-173.4,43.4,0,21.0,,70234.0,14.24,0.1,0.35,-0.97,2.7,6.4,-8.5,33.88,,,,,,,,,,
16.20.17.178,37.4,9.4,1,22.0,109.8,69791.3,14.33,0.09,0.34,-0.96,3.6,5.7,-7.8,33.88,,,,,,,,,,
16.20.17.186,87.5,21.9,0,22.0,,71030.9,14.08,0.08,0.36,-0.96,4.6,5.2,-6.7,33.88,,,,,,,,,,
16.20.17.198,130.7,32.7,0,22.0,,70406.3,14.2,0.08,0.36,-0.96,2.9,4.6,-5.6,33.88,,,,,,,,,,
16.20.17.206,188.6,47.2,0,22.0,,70346.3,14.22,0.07,0.38,-0.96,0.5,3.8,-5.2,33.88,,,,,,,,,,
16.20.17.219,263.2,65.8,0,22.0,,69539.1,14.38,0.06,0.38,-0.94,-0.5,2.6,-6.0,33.88,,,,,,,,,,
16.20.17.227,342.1,85.5,0,22.0,,71491.2,13.99,0.07,0.38,-0.94,-4.8,2.2,-7.5,33.88,,,,,,,,,,
16.20.17.240,358.4,89.6,0,22.0,,71263.2,14.03,0.07,0.39,-0.95,-10.5,4.8,-9.1,33.88,,,,,,,,,,
16.20.17.251,354.3,88.6,0,22.0,,73042.5,13.69,0.05,0.38,-0.97,-12.5,1.0,-10.3,33.88,,,,,,,,,,
16.20.17.260,401.4,100.4,0,22.0,,69413.0,14.41,0.05,0.36,-0.98,-11.9,-1.7,-10.9,33.88,,,,,,,,,,
16.20.17.272,422.0,105.5,0,22.0,,70612.3,14.16,0.06,0.36,-1.0,-11.4,-4.2,-10.8,33.88,,,,,,,,,,
16.20.17.284,432.4,108.1,0,22.0,,67247.6,14.87,0.05,0.36,-1.03,-9.4,-5.8,-9.0,33.88,,,,,,,,,,
16.20.17.297,466.8,116.7,0,22.0,,73864.4,13.54,0.05,0.35,-1.04,-5.0,-7.4,-5.6,33.88,,,,,,,,,,
16.20.17.305,366.4,91.6,0,22.0,,72807.4,13.73,0.04,0.33,-1.05,-0.7,-7.9,-2.6,33.88,,,,,,,,,,
16.20.17.317,317.5,79.4,0,22.0,,74677.3,13.39,0.03,0.34,-1.05,4.7,-7.7,-0.1,33.88,,,,,,,,,,
16.20.17.329,267.4,66.8,0,22.0,,72816.5,13.73,0.03,0.34,-1.05,7.5,-4.4,0.6,33.88,,,,,,,,,,
16.20.17.337,239.1,59.8,0,22.0,,71800.0,13.93,0.04,0.35,-1.03,11.8,-3.0,0.4,33.88,,,,,,,,,,
16.20.17.378,20.4,5.1,0,22.0,,71818.4,13.92,0.06,0.34,-0.97,20.3,6.6,-2.1,33.94,,,,,,,,,,
16.20.17.391,97.1,24.3,0,22.0,,73124.9,13.68,0.08,0.35,-0.94,20.0,7.2,-2.1,33.94,,,,,,,,,,
16.20.17.403,59.0,14.8,0,22.0,,69882.1,14.31,0.07,0.35,-0.9,13.1,8.1,-1.4,33.94,,,,,,,,,,
16.20.17.416,89.3,22.3,0,22.0,,72268.1,13.84,0.08,0.37,-0.9,8.8,6.8,-0.8,33.94,,,,,,,,,,
16.20.17.424,87.7,21.9,0,22.0,,73495.8,13.61,0.06,0.37,-0.9,4.1,4.6,1.3,33.94,,,,,,,,,,
16.20.17.436,39.6,9.9,0,22.0,,70298.0,14.23,0.06,0.36,-0.9,-0.6,4.6,2.5,33.94,,,,,,,,,,
16.20.17.448,69.1,17.3,0,22.0,,70349.2,14.21,0.05,0.35,-0.91,-3.2,4.6,2.5,33.94,,,,,,,,,,
16.20.17.456,59.2,14.8,0,22.0,,66020.1,15.15,0.05,0.33,-0.92,-3.9,2.2,2.1,33.94,,,,,,,,,,
16.20.17.469,7.1,1.8,0,22.0,,72253.1,13.84,0.05,0.34,-0.95,-3.1,0.5,2.7,33.94,,,,,,,,,,
16.20.17.481,18.9,4.7,0,22.0,,74723.7,13.38,0.04,0.35,-0.97,-1.3,-1.1,3.7,33.94,,,,,,,,,,
16.20.17.493,-26.3,6.6,0,22.0,,71539.6,13.98,0.03,0.36,-0.98,0.6,-1.3,4.3,33.94,,,,,,,,,,
16.20.17.501,-13.9,3.5,0,22.0,,70969.8,14.09,0.02,0.37,-0.97,0.6,-0.8,4.3,33.94,,,,,,,,,,
16.20.17.513,-32.7,8.2,0,22.0,,68704.7,14.56,0.01,0.38,-0.98,-0.1,2.2,5.8,33.94,,,,,,,,,,
16.20.17.526,-30.0,7.5,0,22.0,,73861.8,13.54,0.02,0.39,-0.97,-3.3,3.9,7.4,33.94,,,,,,,,,,
16.20.17.538,-33.7,8.4,0,22.0,,73605.3,13.59,0.03,0.37,-0.96,-3.4,6.6,6.3,33.94,,,,,,,,,,
16.20.17.546,-41.8,10.4,0,22.0,,74189.3,13.48,0.03,0.37,-0.95,-3.1,8.0,5.9,33.94,,,,,,,,,,
16.20.17.559,-61.6,15.4,0,22.0,,73708.1,13.57,0.02,0.37,-0.95,-0.8,7.3,5.6,33.94,,,,,,,,,,
16.20.17.571,-41.9,10.5,0,22.0,,73069.3,13.69,0.02,0.37,-0.94,-0.7,6.2,4.8,33.94,,,,,,,,,,
16.20.17.583,-81.2,20.3,0,22.0,,68682.6,14.56,0.02,0.37,-0.91,-1.0,4.8,4.2,33.94,,,,,,,,,,
16.20.17.592,-48.8,12.2,0,22.0,,67981.8,14.71,0.01,0.36,-0.93,-3.5,5.3,3.3,33.94,,,,,,,,,,
16.20.17.604,-74.7,18.7,0,22.0,,71537.9,13.98,0.02,0.37,-0.95,-6.1,6.4,3.6,33.94,,,,,,,,,,
16.20.17.616,-103.1,25.8,0,22.0,,71620.4,13.96,0.02,0.34,-0.95,-5.2,8.4,4.3,33.94,,,,,,,,,,
16.20.17.624,-99.1,24.8,0,22.0,,66234.7,15.1,0.02,0.33,-0.97,-2.3,11.2,4.1,33.94,,,,,,,,,,
16.20.17.636,-68.3,17.1,0,22.0,,72868.5,13.72,0.04,0.34,-0.97,2.7,11.8,2.2,33.94,,,,,,,,,,
16.20.17.649,-114.1,28.5,0,22.0,,75036.9,13.33,0.05,0.33,-0.99,10.0,12.9,0.8,33.94,,,,,,,,,,
16.20.17.661,-127.2,31.8,0,22.0,,73876.1,13.54,0.05,0.35,-0.96,14.4,9.2,0.3,33.94,,,,,,,,,,
16.20.17.669,-133.3,33.3,0,22.0,,72549.3,13.78,0.03,0.37,-0.99,15.1,5.1,1.2,33.94,,,,,,,,,,
16.20.17.682,-103.8,26.0,0,22.0,,69600.4,14.37,0.04,0.4,-0.96,15.0,2.8,2.0,33.94,,,,,,,,,,
16.20.17.694,-145.4,36.4,0,22.0,,68863.9,14.52,0.04,0.4,-0.96,14.4,2.0,2.5,33.94,,,,,,,,,,
16.20.17.702,-176.5,44.1,0,22.0,,71055.6,14.07,0.03,0.4,-0.97,12.0,4.2,2.1,33.94,,,,,,,,,,
16.20.17.714,-153.9,38.5,0,22.0,,74406.0,13.44,0.03,0.38,-0.97,12.2,6.4,-0.4,33.94,,,,,,,,,,
16.20.17.727,-169.2,42.3,0,22.0,,73629.6,13.58,0.05,0.36,-0.96,15.7,10.4,-2.9,33.94,,,,,,,,,,
16.20.17.739,28.7,7.2,1,23.0,105.2,67083.4,14.91,0.07,0.34,-0.95,22.1,14.1,-4.4,33.94,,,,,,,,,,
16.20.17.747,59.0,14.8,0,23.0,,69433.7,14.4,0.08,0.35,-0.92,21.1,18.9,-6.3,33.94,,,,,,,,,,
16.20.17.760,157.4,39.4,0,23.0,,65512.4,15.26,0.07,0.34,-0.92,21.1,21.6,-8.8,33.94,,,,,,,,,,
16.20.17.772,221.4,55.4,0,23.0,,68473.5,14.6,0.07,0.36,-0.89,18.0,22.2,-9.3,33.94,,,,,,,,,,
16.20.17.784,277.0,69.2,0,23.0,,70424.5,14.2,0.07,0.37,-0.89,14.9,18.2,-8.3,33.94,,,,,,,,,,
16.20.17.792,333.5,83.4,0,23.0,,68946.4,14.5,0.08,0.38,-0.86,5.8,14.3,-5.8,33.94,,,,,,,,,,
16.20.17.805,353.9,88.5,0,23.0,,72212.6,13.85,0.06,0.38,-0.9,-3.4,11.2,-5.3,33.94,,,,,,,,,,
16.20.17.817,407.4,101.8,0,23.0,,72185.5,13.85,0.06,0.37,-0.91,-8.2,6.9,-6.6,33.94,,,,,,,,,,
16.20.17.829,414.1,103.5,0,23.0,,71968.6,13.89,0.07,0.37,-0.91,-13.4,3.1,-6.7,33.94,,,,,,,,,,
16.20.17.837,396.1,99.0,0,23.0,,74719.1,13.38,0.08,0.36,-0.91,-17.0,1.0,-6.8,33.94,106.7,,,,,,,,,
16.20.17.849,392.2,98.0,0,23.0,,72138.7,13.86,0.07,0.33,-0.94,-13.3,0.7,-9.0,33.94,,,,,,,,,,
16.20.17.862,413.7,103.4,0,23.0,,70985.0,14.09,0.07,0.33,-0.95,-11.0,3.4,-9.1,33.94,,,,,,,,,,
16.20.17.874,357.6,89.4,0,23.0,,70919.9,14.1,0.07,0.33,-0.94,-8.4,5.7,-9.7,33.94,,,,,,,,,,
16.20.17.882,299.7,74.9,0,23.0,,72642.7,13.77,0.07,0.34,-0.93,-5.8,7.5,-10.6,33.94,,,,,,,,,,
16.20.17.894,234.8,58.7,0,23.0,,72239.3,13.84,0.06,0.34,-0.94,-0.9,9.9,-13.1,33.94,,,,,,,,,,
16.20.17.907,184.7,46.2,0,23.0,,73744.4,13.56,0.06,0.37,-0.91,-1.5,9.6,-14.9,33.94,,,,,,,,,,
16.20.17.919,140.9,35.2,0,23.0,,66797.6,14.97,0.05,0.39,-0.93,-3.6,7.8,-16.3,33.94,,,,,,,,,,
16.20.17.927,59.6,14.9,0,23.0,,74451.2,13.43,0.07,0.37,-0.94,-5.3,8.1,-17.4,33.94,,,,,,,,,,
16.20.17.940,-6.3,1.6,0,23.0,,68087.6,14.69,0.07,0.37,-0.94,-8.4,7.2,-17.8,33.94,,,,,,,,,,
16.20.17.952,65.5,16.4,0,23.0,,72183.9,13.85,0.07,0.37,-0.94,-9.9,6.6,-17.7,33.94,,,,,,,,,,
16.20.17.964,43.1,10.8,0,23.0,,73030.0,13.69,0.09,0.38,-0.95,-10.8,7.2,-16.4,33.94,,,,,,,,,,
16.20.17.976,59.0,14.8,0,23.0,,72397.1,13.81,0.08,0.38,-0.95,-12.5,8.5,-16.8,33.94,,,,,,,,,,
16.20.17.985,69.2,17.3,0,23.0,,71702.4,13.95,0.09,0.37,-0.94,-12.8,14.0,-16.8,33.94,,,,,,,,,,
16.20.17.997,73.7,18.4,0,23.0,,72021.0,13.88,0.1,0.38,-0.96,-7.7,17.3,-18.2,33.94,,,,,,,,,,
16.20.18.009,92.9,23.2,0,23.0,,69446.0,14.4,0.08,0.37,-0.96,-3.3,21.4,-18.6,33.94,,,,,,,,,,
16.20.18.021,40.8,10.2,0,23.0,,71665.0,13.95,0.09,0.4,-0.95,-0.9,24.2,-18.5,33.94,,,,,,,,,,
16.20.18.034,3.3,0.8,0,23.0,,72539.5,13.79,0.09,0.41,-0.95,-1.4,23.4,-18.7,33.94,,,,,,,,,,
16.20.18.046,3.3,0.8,0,23.0,,72851.6,13.73,0.08,0.4,-0.95,-1.2,22.9,-19.2,33.94,,,,,,,,,,
16.20.18.054,-10.2,2.6,0,23.0,,71751.1,13.94,0.08,0.42,-0.95,-3.3,20.3,-18.6,33.94,,,,,,,,,,
16.20.18.066,17.0,4.2,0,23.0,,73462.6,13.61,0.08,0.44,-0.94,-8.1,21.5,-17.4,33.94,,,,,,,,,,
16.20.18.079,-30.9,7.7,0,23.0,,73696.9,13.57,-0.04,0.45,-0.94,-13.8,21.9,-18.4,33.94,,,,,,,,,,
16.20.18.091,-18.7,4.7,0,23.0,,72656.3,13.76,0.07,0.42,-0.94,-13.2,29.3,-16.7,33.94,,,,,,,,,,
16.20.18.104,-56.2,14.0,0,23.0,,72159.6,13.86,0.06,0.39,-0.96,-12.7,29.9,-17.3,33.94,,,,,,,,,,
16.20.18.112,-75.5,18.9,0,23.0,,68316.5,14.64,0.1,0.39,-0.98,-14.8,33.9,-17.4,33.94,,,,,,,,,,
16.20.18.124,-47.2,11.8,0,23.0,,68582.9,14.58,0.06,0.4,-0.98,-7.5,33.4,-15.9,33.94,,,,,,,,,,
16.20.18.136,-88.6,22.2,0,23.0,,74447.5,13.43,0.03,0.42,-0.99,-5.9,27.7,-15.4,33.94,,,,,,,,,,
16.20.18.177,-64.6,16.2,0,23.0,,71458.8,13.99,0.02,0.42,-1.01,-5.5,24.9,-14.9,33.94,,,,,,,,,,
16.20.18.186,-115.0,28.8,0,23.0,,73327.2,13.64,-0.05,0.42,-1.03,1.0,11.2,-13.9,33.94,,,,,,,,,,
16.20.18.198,-122.2,30.6,0,23.0,,74984.3,13.34,0.02,0.39,-1.02,-0.7,5.5,-11.4,33.94,,,,,,,,,,
16.20.18.210,-97.8,24.4,0,23.0,,70964.1,14.09,0.02,0.35,-1.06,0.6,-2.9,-9.4,33.94,,,,,,,,,,
16.20.18.218,-122.2,30.6,0,23.0,,74135.4,13.49,0.04,0.35,-1.04,1.6,-3.3,-8.1,33.94,,,,,,,,,,
16.20.18.231,-98.6,24.6,0,23.0,,70597.5,14.16,0.01,0.32,-1.05,5.3,-1.3,-7.9,33.94,,,,,,,,,,
16.20.18.239,-129.6,32.4,0,23.0,,68288.7,14.64,0.03,0.3,-1.02,13.9,6.8,-8.7,33.94,,,,,,,,,,
16.20.18.251,-138.9,34.7,0,23.0,,72572.6,13.78,0.04,0.27,-1.0,20.0,10.2,-8.7,33.94,,,,,,,,,,
16.20.18.259,-159.3,39.8,0,23.0,,74121.7,13.49,0.05,0.28,-0.98,25.9,16.8,-9.6,33.94,,,,,,,,,,
16.20.18.272,-143.7,35.9,0,23.0,,74468.6,13.43,0.05,0.27,-0.93,27.8,21.7,-11.2,33.94,,,,,,,,,,
16.20.18.280,-119.9,30.0,0,23.0,,71636.9,13.96,0.05,0.28,-0.91,28.1,25.5,-13.9,33.94,,,,,,,,,,
16.20.18.292,-108.0,27.0,0,23.0,,70324.0,14.22,0.04,0.29,-0.89,26.6,26.4,-15.4,33.94,,,,,,,,,,
16.20.18.304,62.0,15.5,1,24.0,108.3,69132.4,14.46,0.05,0.31,-0.84,21.6,25.1,-15.4,33.94,,,,,,,,,,
16.20.18.313,69.0,17.2,0,24.0,,69219.0,14.45,0.04,0.3,-0.85,15.3,20.2,-16.6,33.94,,,,,,,,,,
16.20.18.325,162.8,40.7,0,24.0,,71959.0,13.9,0.04,0.3,-0.84,6.0,19.4,-16.1,33.94,,,,,,,,,,
16.20.18.333,175.1,43.8,0,24.0,,77888.8,12.84,0.03,0.27,-0.88,-0.9,17.1,-17.2,33.94,,,,,,,,,,
16.20.18.349,266.4,66.6,0,24.0,,72407.9,13.81,0.02,0.26,-0.88,-5.5,11.7,-19.2,33.94,,,,,,,,,,
16.20.18.358,327.8,82.0,0,24.0,,72068.9,13.88,0.02,0.26,-0.91,-8.9,5.3,-17.3,33.94,,,,,,,,,,
16.20.18.370,325.4,81.4,0,24.0,,72548.2,13.78,0.01,0.27,-0.93,-8.3,-0.9,-14.1,33.94,,,,,,,,,,
16.20.18.378,386.1,96.5,0,24.0,,70825.3,14.12,0.01,0.23,-0.98,-4.8,-6.8,-12.1,33.94,,,,,,,,,,
16.20.18.390,420.0,105.0,0,24.0,,73102.1,13.68,0.0,0.24,-0.99,-0.6,-9.8,-8.8,33.94,,,,,,,,,,
16.20.18.403,400.8,100.2,0,24.0,,70647.7,14.15,-0.01,0.26,-1.03,1.5,-10.7,-5.7,33.94,,,,,,,,,,
16.20.18.411,410.1,102.5,0,24.0,,74709.9,13.39,-0.01,0.28,-1.01,1.9,-9.4,-3.5,33.94,,,,,,,,,,
16.20.18.423,393.0,98.2,0,24.0,,69995.3,14.29,-0.02,0.28,-1.03,2.6,-6.9,-2.3,33.94,,,,,,,,,,
16.20.18.431,332.8,83.2,0,24.0,,70249.8,14.23,-0.01,0.28,-1.03,3.8,-3.5,-2.2,33.94,,,,,,,,,,
16.20.18.444,298.7,74.7,0,24.0,,71913.3,13.91,0.0,0.28,-1.03,5.1,-1.1,-2.0,33.94,,,,,,,,,,
16.20.18.452,301.5,75.4,0,24.0,,70975.4,14.09,0.02,0.28,-1.02,6.2,1.7,-1.2,33.94,,,,,,,,,,
16.20.18.464,229.4,57.4,0,24.0,,73288.6,13.64,0.03,0.27,-0.99,7.8,4.4,-1.8,33.94,,,,,,,,,,
16.20.18.477,114.9,28.7,0,24.0,,72859.5,13.73,0.05,0.26,-0.98,8.5,5.4,-2.8,33.94,,,,,,,,,,
16.20.18.485,108.0,27.0,0,24.0,,71526.5,13.98,0.06,0.25,-0.95,8.2,3.3,-2.9,33.94,,,,,,,,,,
16.20.18.497,29.7,7.4,0,24.0,,71589.6,13.97,0.07,0.27,-0.93,6.0,1.6,-1.8,33.94,,,,,,,,,,
16.20.18.505,13.0,3.2,0,24.0,,71051.8,14.07,0.07,0.28,-0.93,3.5,-0.4,-1.4,33.94,,,,,,,,,,
16.20.18.517,71.3,17.8,0,24.0,,71438.4,14.0,0.06,0.29,-0.93,1.1,-1.7,-1.4,33.94,,,,,,,,,,
16.20.18.526,63.5,15.9,0,24.0,,67104.7,14.9,0.05,0.31,-0.91,-0.3,-1.6,-1.2,33.94,,,,,,,,,,
16.20.18.538,100.9,25.2,0,24.0,,67253.0,14.87,0.05,0.3,-0.93,-1.0,-1.0,-1.5,33.94,,,,,,,,,,
16.20.18.546,41.3,10.3,0,24.0,,66689.7,14.99,0.06,0.3,-0.93,-0.7,0.5,-1.2,33.94,,,,,,,,,,
16.20.18.558,44.1,11.0,0,24.0,,72099.7,13.87,0.07,0.29,-0.92,1.6,2.7,-1.2,33.94,,,,,,,,,,
16.20.18.566,68.3,17.1,0,24.0,,73147.8,13.67,0.06,0.29,-0.93,2.2,2.9,-0.6,33.94,,,,,,,,,,
16.20.18.579,42.9,10.7,0,24.0,,69228.4,14.44,0.07,0.32,-0.92,1.4,1.2,0.4,33.94,,,,,,,,,,
16.20.18.587,39.3,9.8,0,24.0,,72025.8,13.88,0.08,0.32,-0.91,-0.6,-3.4,2.1,33.94,,,,,,,,,,
16.20.18.599,29.1,7.3,0,24.0,,74670.9,13.39,0.07,0.33,-0.92,-5.7,-10.1,4.8,33.94,,,,,,,,,,
16.20.18.608,13.6,3.4,0,24.0,,72796.8,13.74,-0.01,0.4,-0.93,-17.4,-10.6,6.1,33.94,,,,,,,,,,
16.20.18.620,-31.7,7.9,0,24.0,,69806.5,14.33,0.05,0.33,-0.99,-16.8,-19.1,9.2,33.94,,,,,,,,,,
16.20.18.628,19.4,4.8,0,24.0,,67508.1,14.81,0.03,0.34,-1.0,-19.5,-22.0,8.6,33.94,,,,,,,,,,
16.20.18.640,-12.4,3.1,0,24.0,,71504.2,13.99,0.03,0.33,-1.04,-20.4,-18.8,6.9,33.94,,,,,,,,,,
16.20.18.653,-50.3,12.6,0,24.0,,72036.9,13.88,0.03,0.33,-1.03,-23.1,-17.8,7.0,33.94,,,,,,,,,,
16.20.18.661,-31.8,8.0,0,24.0,,70944.6,14.1,0.04,0.35,-1.05,-19.2,-13.3,7.0,33.94,,,,,,,,,,
16.20.18.673,-28.1,7.0,0,24.0,,69104.2,14.47,0.04,0.37,-1.06,-17.1,-10.3,8.0,33.94,,,,,,,,,,
16.20.18.681,-58.4,14.6,0,24.0,,73766.1,13.56,0.04,0.37,-1.05,-16.7,-7.6,9.5,33.94,,,,,,,,,,
16.20.18.694,-82.8,20.7,0,24.0,,73903.7,13.53,0.04,0.38,-1.05,-15.1,-3.9,10.5,33.94,,,,,,,,,,
16.20.18.702,-91.2,22.8,0,24.0,,72483.9,13.8,0.03,0.37,-1.03,-14.8,-2.1,10.5,33.94,,,,,,,,,,
16.20.18.714,-90.2,22.6,0,24.0,,67623.7,14.79,0.03,0.37,-1.01,-13.1,-2.0,10.6,33.94,,,,,,,,,,
16.20.18.722,-91.0,22.8,0,24.0,,69538.0,14.38,0.03,0.36,-1.0,-11.1,-3.8,10.6,33.94,,,,,,,,,,
16.20.18.735,-69.2,17.3,0,24.0,,73184.2,13.66,0.03,0.36,-1.0,-8.6,-5.8,12.1,33.94,,,,,,,,,,
16.20.18.743,-80.4,20.1,0,24.0,,71358.7,14.01,0.01,0.38,-0.99,-9.7,-12.8,15.5,33.94,,,,,,,,,,
16.20.18.755,-99.2,24.8,0,24.0,,68714.8,14.55,0.0,0.39,-1.02,-13.3,-17.3,18.1,33.94,,,,,,,,,,
16.20.18.767,-84.6,21.2,0,24.0,,70966.1,14.09,0.0,0.38,-1.04,-12.3,-18.8,20.5,33.94,,,,,,,,,,
16.20.18.775,-113.3,28.3,0,24.0,,73232.9,13.66,0.02,0.37,-1.05,-8.7,-18.8,22.5,33.94,,,,,,,,,,
16.20.18.788,-95.3,23.8,0,24.0,,69550.7,14.38,0.03,0.34,-1.05,-3.4,-16.6,25.5,33.94,,,,,,,,,,
16.20.18.796,-126.2,31.6,0,24.0,,75241.0,13.29,0.03,0.34,-1.05,2.2,-9.7,27.7,33.94,,,,,,,,,,
16.20.18.808,-136.7,34.2,0,24.0,,70692.5,14.15,0.03,0.34,-1.02,9.5,-4.7,28.8,33.94,,,,,,,,,,
16.20.18.817,-139.7,34.9,0,24.0,,70690.5,14.15,0.03,0.35,-0.99,14.9,-1.4,30.9,33.94,,,,,,,,,,
16.20.18.829,-122.5,30.6,0,24.0,,72077.2,13.87,0.04,0.37,-0.96,15.8,4.6,30.4,33.94,,,,,,,,,,
16.20.18.837,-129.9,32.5,0,24.0,,72121.3,13.87,0.04,0.41,-0.94,18.5,-0.2,31.8,33.94,,,,,,,,,,
16.20.18.849,-168.3,42.1,0,24.0,,70173.0,14.25,0.04,0.38,-0.91,15.8,-1.6,32.3,33.94,,,,,,,,,,
16.20.18.857,-163.4,40.8,0,24.0,,68096.1,14.69,0.04,0.42,-0.93,13.2,-3.7,34.1,33.94,,,,,,,,,,
16.20.18.870,29.7,7.4,1,25.0,102.7,71352.2,14.01,0.0,0.42,-0.93,8.3,-3.0,34.9,33.94,,,,,,,,,,
16.20.18.882,121.5,30.4,0,25.0,,72628.2,13.77,-0.02,0.41,-0.94,7.8,-6.0,35.0,33.94,,,,,,,,,,
16.20.18.890,171.4,42.8,0,25.0,,71309.5,14.02,-0.01,0.42,-0.95,4.4,-4.9,33.4,33.94,,,,,,,,,,
16.20.18.902,223.1,55.8,0,25.0,,68237.8,14.65,-0.01,0.4,-0.93,2.9,-6.3,33.0,33.94,,,,,,,,,,
16.20.18.911,262.6,65.6,0,25.0,,69658.1,14.36,0.1,0.4,-0.94,-10.2,-8.3,20.0,33.94,,,,,,,,,,
16.20.18.923,338.7,84.7,0,25.0,,73857.2,13.54,0.01,0.46,-0.96,-12.2,-1.4,28.8,33.94,,,,,,,,,,
16.20.18.931,305.7,76.4,0,25.0,,70533.7,14.18,-0.01,0.37,-0.95,-4.0,0.1,36.2,33.94,,,,,,,,,,
16.20.18.944,393.5,98.4,0,25.0,,69141.7,14.46,-0.01,0.37,-0.95,0.4,-5.8,36.3,33.94,,,,,,,,,,
16.20.18.980,398.7,99.7,0,25.0,,70684.5,14.15,-0.02,0.35,-0.96,1.0,-1.1,37.2,34.0,,,,,,,,,,
16.20.18.989,352.5,88.1,0,25.0,,68890.2,14.52,0.04,0.31,-0.97,9.3,4.2,31.1,34.0,,,,,,,,,,
16.20.19.001,370.5,92.6,0,25.0,,71063.5,14.07,0.0,0.39,-0.92,12.0,0.5,33.8,34.0,,,,,,,,,,
16.20.19.013,291.9,73.0,0,25.0,,71237.0,14.04,0.0,0.38,-0.94,12.5,-1.5,34.6,34.0,,,,,,,,,,
16.20.19.021,259.3,64.8,0,25.0,,73454.3,13.61,-0.02,0.35,-0.95,14.0,-0.5,34.7,34.0,,,,,,,,,,
16.20.19.034,224.4,56.1,0,25.0,,70671.2,14.15,-0.03,0.35,-0.93,17.4,1.2,30.2,34.0,,,,,,,,,,
16.20.19.042,137.4,34.4,0,25.0,,70117.5,14.26,-0.02,0.36,-0.9,11.2,3.1,27.2,34.0,,,,,,,,,,
16.20.19.054,81.2,20.3,0,25.0,,66321.1,15.08,-0.08,0.3,-0.9,2.9,9.1,22.9,34.0,,,,,,,,,,
16.20.19.062,4.1,1.0,0,25.0,,75484.8,13.25,-0.05,0.31,-0.91,15.7,8.1,18.6,34.0,,,,,,,,,,
16.20.19.075,7.3,1.8,0,25.0,,72968.8,13.7,-0.02,0.35,-0.92,17.8,8.5,18.3,34.0,,,,,,,,,,
16.20.19.083,38.5,9.6,0,25.0,,73516.6,13.6,-0.01,0.37,-0.93,14.5,12.2,20.1,34.0,,,,,,,,,,
16.20.19.095,38.7,9.7,0,25.0,,71927.6,13.9,0.0,0.36,-0.92,11.7,8.7,20.8,34.0,,,,,,,,,,
16.20.19.107,62.1,15.5,0,25.0,,70949.5,14.09,0.0,0.34,-0.96,7.1,5.2,22.6,34.0,,,,,,,,,,
16.20.19.115,89.0,22.2,0,25.0,,70521.8,14.18,0.0,0.35,-0.94,11.2,2.1,22.5,34.0,,,,,,,,,,
16.20.19.128,87.9,22.0,0,25.0,,67906.9,14.73,-0.02,0.34,-0.94,12.7,0.1,23.0,34.0,,,,,,,,,,
16.20.19.136,56.0,14.0,0,25.0,,65104.6,15.36,-0.02,0.37,-0.93,14.3,0.7,20.8,34.0,,,,,,,,,,
16.20.19.148,6.3,1.6,0,25.0,,71189.3,14.05,-0.02,0.39,-0.9,8.3,-0.9,19.3,34.0,,,,,,,,,,
16.20.19.156,16.8,4.2,0,25.0,,72142.1,13.86,-0.01,0.37,-0.91,2.3,-1.6,19.1,34.0,,,,,,,,,,
16.20.19.169,1.6,0.4,0,25.0,,70200.3,14.24,-0.01,0.34,-0.94,4.0,0.1,15.4,34.0,,,,,,,,,,
16.20.19.177,13.3,3.3,0,25.0,,72150.8,13.86,-0.01,0.36,-0.96,11.7,5.3,9.8,34.0,,,,,,,,,,
16.20.19.189,-20.1,5.0,0,25.0,,69742.6,14.34,0.05,0.32,-0.98,21.3,3.3,5.1,34.0,,,,,,,,,,
16.20.19.197,-29.1,7.3,0,25.0,,72893.9,13.72,0.06,0.37,-0.92,12.7,13.2,3.6,34.0,,,,,,,,,,
16.20.19.210,-18.5,4.6,0,25.0,,70996.1,14.09,0.03,0.38,-0.91,9.7,8.5,3.0,34.0,,,,,,,,,,
16.20.19.219,-24.5,6.1,0,25.0,,72833.3,13.73,0.02,0.37,-0.9,2.3,2.0,1.6,34.0,,,,,,,,,,
16.20.19.230,-16.9,4.2,0,25.0,,71900.6,13.91,0.01,0.39,-0.9,-13.0,-2.1,-0.8,34.0,,,,,,,,,,
16.20.19.242,-53.1,13.3,0,25.0,,66432.5,15.05,0.04,0.35,-0.87,-26.1,-9.5,-1.4,34.0,,,,,,,,,,
16.20.19.255,-24.3,6.1,0,25.0,,69577.2,14.37,0.03,0.32,-0.93,-32.8,-19.0,1.3,34.0,,,,,,,,,,
16.20.19.263,-28.3,7.1,0,25.0,,71349.4,14.02,-0.02,0.24,-1.09,-37.1,-11.7,3.3,34.0,,,,,,,,,,
16.20.19.275,-73.1,18.3,0,25.0,,69638.9,14.36,0.04,0.37,-1.09,-15.9,-11.9,6.1,34.0,,,,,,,,,,
