timestamp,ppg,threshold,beat,beat_count,inst_bpm,gsr_resistance_ohm,gsr_conductance_us,accel_x,accel_y,accel_z,gyro_x,gyro_y,gyro_z,temp_c,window_bpm,window_temp_c,status_message,SpO2,bmi,age,height,weight,env_temp_c,env_humidity_pct
15.14.00.000,0.0,0.0,0,,,20387.4,49.05,-0.32,0.64,0.05,-4.8,1.2,-11.1,35.88,134.1,,,,30.2,26.0,167.64,85.0,31.44,45.0
15.14.00.008,78.7,19.7,0,,,20387.4,49.05,-0.45,0.95,0.16,-17.5,-3.1,11.9,35.02,,,,,,,,,,
15.14.00.018,163.7,40.9,0,,,20387.4,49.05,-0.44,1.1,0.62,-14.8,12.1,-20.8,35.17,,,,,,,,,,
15.14.00.029,241.3,60.3,0,,,20387.4,49.05,0.15,0.18,0.84,-17.3,26.0,-9.0,34.85,,,,,,,,,,
15.14.00.040,284.7,71.2,0,,,20387.4,49.05,-0.33,0.23,-0.16,-13.5,1.9,-5.8,35.38,,,,,,,,,,
15.14.00.049,376.1,94.0,0,,,20387.4,49.05,0.12,0.31,0.08,13.1,7.4,-5.9,35.68,,,,,,,,,,
15.14.00.056,502.8,125.7,0,,,20387.4,49.05,-0.57,0.82,0.58,6.8,-7.6,6.1,34.59,,,,,,,,,,
15.14.00.065,513.1,128.3,0,,,20387.4,49.05,-0.37,0.41,0.81,50.2,10.7,-2.3,34.58,,,,,,,,,,
15.14.00.075,511.3,127.8,0,,,20387.4,49.05,-0.31,0.47,0.8,9.1,13.8,18.7,34.92,,,,,,,,,,
15.14.00.085,416.3,104.1,0,,,20387.4,49.05,-0.18,0.78,0.83,-6.5,8.2,-13.3,34.86,,,,,,,,,,
15.14.00.095,468.2,117.0,0,,,20387.4,49.05,-0.51,0.07,0.84,-19.5,13.6,-17.8,34.43,,,,,,,,,,
15.14.00.104,394.0,98.5,0,,,20387.4,49.05,-0.61,0.68,0.51,-15.9,9.9,0.6,35.11,,,,,,,,,,
15.14.00.114,387.6,96.9,0,,,20387.4,49.05,-0.2,0.32,-0.33,-14.6,18.8,14.1,34.81,,,,,,,,,,
15.14.00.123,251.4,62.8,0,,,20387.4,49.05,-0.38,0.48,1.09,4.5,-15.6,6.0,35.36,,,,,,,,,,
15.14.00.135,312.2,78.0,0,,,20387.4,49.05,-0.66,-0.09,0.63,-9.9,0.8,-6.2,35.52,,,,,,,,,,
15.14.00.144,59.4,14.8,0,,,20387.4,49.05,-0.65,-0.26,0.2,4.5,1.1,5.9,35.31,,,,,,,,,,
15.14.00.151,26.5,6.6,0,,,20387.4,49.05,-0.14,0.02,-0.02,16.0,29.3,-18.0,35.2,,,,,,,,,,
15.14.00.161,-44.5,11.1,0,,,20387.4,49.05,-0.13,0.17,-0.17,5.9,2.3,-21.3,34.4,,,,,,,,,,
15.14.00.171,-0.3,0.1,0,,,20387.4,49.05,-0.59,0.63,-0.07,-6.9,1.4,-28.2,35.45,,,,,,,,,,
15.14.00.181,75.9,19.0,0,,,20387.4,49.05,-0.81,-0.16,0.2,-53.9,1.9,5.4,34.73,,,,,,,,,,
15.14.00.192,110.0,27.5,0,,,20387.4,49.05,-0.52,0.26,0.04,-29.5,27.3,-14.3,34.85,,,,,,,,,,
15.14.00.200,85.5,21.4,0,,,20387.4,49.05,-0.35,-0.62,-0.29,34.9,-22.0,-19.9,35.19,,,,,,,,,,
15.14.00.211,51.8,13.0,0,,,20391.5,49.04,-0.72,0.42,0.22,-10.3,3.1,9.4,34.94,,,,,,,,,,
15.14.00.221,29.6,7.4,0,,,20391.5,49.04,-0.42,-0.6,-0.66,-10.7,6.3,-20.9,34.79,,,,,,,,,,
15.14.00.229,-17.6,4.4,0,,,20391.5,49.04,-0.88,0.47,-0.34,-3.5,16.6,2.3,34.9,,,,,,,,,,
15.14.00.239,58.2,14.6,0,,,20391.5,49.04,-0.62,0.46,0.19,10.4,5.2,21.7,35.0,,,,,,,,,,
15.14.00.248,-59.0,14.8,0,,,20391.5,49.04,-1.19,0.55,1.11,47.8,13.1,-13.2,34.83,,,,,,,,,,
15.14.00.258,35.5,8.9,0,,,20391.5,49.04,-0.74,0.65,-0.05,-26.2,15.0,1.8,35.36,,,,,,,,,,
15.14.00.271,-44.7,11.2,0,,,20391.5,49.04,-0.73,1.01,-0.44,6.3,-6.6,-0.1,35.21,,,,,,,,,,
15.14.00.280,28.0,7.0,0,,,20391.5,49.04,-0.36,0.69,-0.91,40.0,38.4,-2.6,35.42,,,,,,,,,,
15.14.00.291,-90.1,22.5,0,,,20391.5,49.04,-0.9,0.95,-0.18,17.9,16.6,4.6,35.03,,,,,,,,,,
15.14.00.300,-72.3,18.1,0,,,20391.5,49.04,-1.04,0.89,0.8,15.9,19.4,8.8,35.21,,,,,,,,,,
15.14.00.310,-68.6,17.2,0,,,20391.5,49.04,-0.45,0.95,0.56,14.9,12.4,7.3,34.83,,,,,,,,,,
15.14.00.321,-72.2,18.0,0,,,20391.5,49.04,-0.46,1.06,0.73,0.6,-11.9,-6.2,34.86,,,,,,,,,,
15.14.00.331,-92.3,23.1,0,,,20391.5,49.04,-0.32,0.86,0.16,-7.2,15.5,-6.9,35.29,,,,,,,,,,
15.14.00.341,-95.7,23.9,0,,,20391.5,49.04,-0.36,0.19,-0.3,-16.7,9.0,10.1,34.88,,,,,,,,,,
15.14.00.350,-79.3,19.8,0,,,20391.5,49.04,-0.38,0.2,0.1,6.8,11.5,-3.2,35.09,,,,,,,,,,
15.14.00.359,-33.0,8.2,0,,,20391.5,49.04,-0.57,0.54,0.32,-11.4,19.5,-10.1,34.99,,,,,,,,,,
15.14.00.368,-94.2,23.6,0,,,20391.5,49.04,-0.21,0.72,0.17,5.1,5.3,-28.3,34.94,,,,,,,,,,
15.14.00.379,-110.6,27.6,0,,,20391.5,49.04,-0.62,0.91,1.05,25.3,15.4,-25.5,34.95,,,,,,,,,,
15.14.00.390,-180.5,45.1,0,,,20391.5,49.04,-0.24,0.3,1.28,10.2,0.8,3.6,35.32,,,,,,,,,,
15.14.00.401,-161.9,40.5,0,,,20391.5,49.04,-0.6,0.9,0.38,-13.4,12.9,1.8,34.87,,,,,,,,,,
15.14.00.412,-114.4,28.6,0,,,20391.5,49.04,-0.29,1.2,0.37,8.7,-9.8,7.8,34.69,,,,,,,,,,
15.14.00.422,-194.4,48.6,0,,,20391.5,49.04,-0.11,0.08,-0.01,-42.5,-4.3,-16.1,34.72,,,,,,,,,,
15.14.00.431,-234.6,58.6,0,,,20395.7,49.03,-0.48,0.18,0.69,0.4,18.7,-8.4,34.66,,,,,,,,,,
15.14.00.442,-164.1,41.0,0,,,20395.7,49.03,-0.1,0.5,1.06,27.2,-2.3,1.9,34.79,,,,,,,,,,
15.14.00.452,54.0,13.5,1,1.0,,20395.7,49.03,-0.01,0.65,1.24,24.6,26.9,9.8,34.79,,,,,,,,,,
15.14.00.463,170.7,42.7,0,,,20395.7,49.03,-0.22,0.24,0.27,14.9,15.1,-5.9,34.34,,,,,,,,,,
15.14.00.472,284.7,71.2,0,,,20395.7,49.03,-0.22,0.13,-0.47,-5.9,-11.9,-4.8,35.11,,,,,,,,,,
15.14.00.481,242.5,60.6,0,,,20395.7,49.03,-0.26,0.43,0.47,-12.7,-7.8,11.8,34.85,,,,,,,,,,
15.14.00.491,398.1,99.5,0,,,20395.7,49.03,-0.09,0.12,0.68,-6.1,15.0,-0.3,34.85,,,,,,,,,,
15.14.00.499,400.1,100.0,0,,,20395.7,49.03,-0.3,-0.33,0.75,-4.0,-18.7,-3.2,34.86,,,,,,,,,,
15.14.00.510,482.4,120.6,0,,,20395.7,49.03,-0.72,0.07,0.04,-18.2,1.2,-7.2,34.93,,,,,,,,,,
15.14.00.523,534.9,133.7,0,,,20395.7,49.03,-0.14,-0.24,0.33,27.1,4.0,-6.4,34.82,,,,,,,,,,
15.14.00.534,496.7,124.2,0,,,20395.7,49.03,-0.31,0.01,0.85,7.6,-0.8,9.5,34.56,,,,,,,,,,
15.14.00.545,400.8,100.2,0,,,20395.7,49.03,-0.76,0.01,0.25,-27.5,1.1,14.5,35.12,,,,,,,,,,
15.14.00.554,435.2,108.8,0,,,20395.7,49.03,-0.68,0.09,0.34,25.6,30.3,-3.3,34.91,,,,,,,,,,
15.14.00.561,338.1,84.5,0,,,20395.7,49.03,-0.03,0.2,-0.7,-13.8,6.8,-6.7,34.29,,,,,,,,,,
15.14.00.570,294.3,73.6,0,,,20395.7,49.03,-0.65,0.63,-0.39,7.9,1.0,-9.3,35.11,,,,,,,,,,
15.14.00.578,203.0,50.8,0,,,20395.7,49.03,-0.81,0.66,0.66,33.7,-14.5,4.9,34.72,,,,,,,,,,
15.14.00.587,129.2,32.3,0,,,20395.7,49.03,-0.51,0.09,-0.3,-26.4,-8.8,-5.1,35.26,,,,,,,,,,
15.14.00.595,79.4,19.8,0,,,20395.7,49.03,-0.8,0.45,-0.18,6.4,31.4,-1.3,34.74,,,,,,,,,,
15.14.00.606,44.7,11.2,0,,,20395.7,49.03,-0.68,0.89,0.96,-28.1,23.0,24.3,35.0,,,,,,,,,,
15.14.00.618,46.1,11.5,0,,,20395.7,49.03,-0.7,0.62,-0.35,23.3,8.0,27.5,35.19,,,,,,,,,,
15.14.00.629,75.6,18.9,0,,,20395.7,49.03,-0.56,0.35,0.13,-15.3,8.2,-17.3,35.15,,,,,,,,,,
15.14.00.640,109.1,27.3,0,,,20395.7,49.03,-0.67,0.38,-0.05,8.3,27.2,-5.9,34.74,,,,,,,,,,
15.14.00.649,109.2,27.3,0,,,20395.7,49.03,-0.36,0.41,-0.17,51.7,15.7,-14.7,35.19,,,,,,,,,,
15.14.00.659,82.5,20.6,0,,,20399.8,49.02,-0.2,0.69,-0.86,7.1,4.8,-12.0,35.45,,,,,,,,,,
15.14.00.670,15.1,3.8,0,,,20399.8,49.02,-0.41,0.81,-0.77,-0.5,-8.5,-1.4,35.19,,,,,,,,,,
15.14.00.680,-8.7,2.2,0,,,20399.8,49.02,-0.59,0.53,0.33,-16.8,-11.1,15.9,34.78,,,,,,,,,,
15.14.00.690,-6.9,1.7,0,,,20399.8,49.02,-0.71,0.71,0.76,-12.4,2.4,-6.7,34.8,,,,,,,,,,
15.14.00.699,12.0,3.0,0,,,20399.8,49.02,-0.62,0.54,-0.02,-13.9,-1.1,16.3,34.9,,,,,,,,,,
15.14.00.710,6.6,1.6,0,,,20399.8,49.02,-0.01,0.64,0.77,-31.0,-13.9,-6.3,35.15,,,,,,,,,,
15.14.00.717,-53.0,13.2,0,,,20399.8,49.02,-0.27,0.53,-0.09,13.1,52.3,1.4,34.56,,,,,,,,,,
15.14.00.727,-76.2,19.0,0,,,20399.8,49.02,-0.22,0.6,0.34,-30.0,-3.2,-13.1,35.0,,,,,,,,,,
15.14.00.738,-87.1,21.8,0,,,20399.8,49.02,-0.69,0.83,0.86,35.3,-9.8,6.4,35.1,,,,,,,,,,
15.14.00.748,-24.4,6.1,0,,,20399.8,49.02,-0.32,0.93,0.18,-19.7,-25.7,1.2,35.13,,,,,,,,,,
15.14.00.755,-46.5,11.6,0,,,20399.8,49.02,-0.22,0.62,0.24,-2.0,6.4,-18.0,34.74,,,,,,,,,,
15.14.00.764,-29.3,7.3,0,,,20399.8,49.02,-0.26,0.95,0.37,10.1,13.6,14.0,34.96,,,,,,,,,,
15.14.00.771,-114.4,28.6,0,,,20399.8,49.02,-0.3,0.69,1.14,12.0,14.8,-15.1,34.67,,,,,,,,,,
15.14.00.781,-90.3,22.6,0,,,20399.8,49.02,-0.35,0.42,-0.21,25.8,34.7,-8.7,34.63,,,,,,,,,,
15.14.00.791,-99.0,24.8,0,,,20399.8,49.02,-0.15,0.24,0.4,-10.4,-8.1,0.4,34.57,,,,,,,,,,
15.14.00.800,-161.8,40.4,0,,,20399.8,49.02,-0.5,-0.16,0.93,-2.0,8.0,-14.2,34.96,,,,,,,,,,
15.14.00.809,-142.8,35.7,1,2.0,168.1,20399.8,49.02,-0.06,0.17,0.68,-6.0,17.0,-3.9,34.79,,,,,,,,,,
15.14.00.819,-146.5,36.6,0,,,20399.8,49.02,-0.1,0.07,0.52,-16.4,33.0,6.2,34.93,,,,,,,,,,
15.14.00.830,-98.7,24.7,0,,,20399.8,49.02,-0.35,0.51,-0.39,-23.4,10.7,2.1,34.5,,,,,,,,,,
15.14.00.839,-108.6,27.2,0,,,20399.8,49.02,-0.12,-0.04,0.27,6.5,-0.4,6.6,34.88,,,,,,,,,,
15.14.00.849,-150.4,37.6,0,,,20399.8,49.02,-0.79,-0.49,0.06,13.8,30.8,2.3,35.07,,,,,,,,,,
15.14.00.859,-184.2,46.0,0,,,20399.8,49.02,-0.35,0.34,0.0,-23.7,28.5,-8.0,35.06,,,,,,,,,,
15.14.00.869,-153.3,38.3,0,,,20399.8,49.02,-0.69,0.67,-0.61,-5.9,-2.3,-13.6,35.01,,,,,,,,,,
15.14.00.878,-142.7,35.7,0,,,20404.0,49.01,-0.69,-0.68,-1.09,11.7,-7.2,-11.2,34.94,,,,,,,,,,
15.14.00.887,-233.6,58.4,0,,,20404.0,49.01,-0.51,-0.27,0.47,3.7,45.4,2.0,35.15,,,,,,,,,,
15.14.00.898,95.5,23.9,0,,,20404.0,49.01,-0.26,-0.09,-0.55,-24.9,21.1,11.5,34.8,,,,,,,,,,
15.14.00.906,199.0,49.8,0,,,20404.0,49.01,-0.63,-0.07,0.59,-25.4,-13.5,-7.2,35.01,,,,,,,,,,
15.14.00.916,292.3,73.1,0,,,20404.0,49.01,-0.77,0.54,0.26,15.9,-9.7,-9.8,35.1,,,,,,,,,,
15.14.00.926,344.1,86.0,0,,,20404.0,49.01,-0.64,-0.39,-0.36,19.5,13.4,2.3,34.85,,,,,,,,,,
15.14.00.938,393.5,98.4,0,,,20404.0,49.01,-0.78,-0.1,0.58,-5.4,25.0,7.5,34.41,,,,,,,,,,
15.14.00.948,350.3,87.6,0,,,20404.0,49.01,-0.54,0.03,-0.67,-25.5,-3.4,-7.6,34.95,,,,,,,,,,
15.14.00.959,493.6,123.4,0,,,20404.0,49.01,-0.41,0.55,-0.29,28.7,15.2,5.4,35.32,,,,,,,,,,
15.14.00.969,506.8,126.7,0,,,20404.0,49.01,-0.4,-0.16,-0.28,-23.7,13.6,18.5,35.04,,,,,,,,,,
15.14.00.976,515.1,128.8,0,,,20404.0,49.01,-0.55,0.74,0.07,15.0,31.0,25.6,35.4,,,,,,,,,,
15.14.00.986,381.9,95.5,0,,,20404.0,49.01,-1.25,0.89,0.06,4.8,7.8,-18.5,34.87,,,,,,,,,,
15.14.00.996,349.2,87.3,0,,,20404.0,49.01,-0.87,0.41,-0.53,19.1,7.5,18.6,35.23,,,,,,,,,,
15.14.01.007,259.4,64.8,0,,,20404.0,49.01,-1.16,0.67,-0.08,3.1,4.9,-0.6,35.01,,,,,,,,,,
15.14.01.018,286.9,71.7,0,,,20404.0,49.01,-0.65,1.36,-0.79,0.4,29.3,27.0,34.96,,,,,,,,,,
15.14.01.028,161.0,40.2,0,,,20404.0,49.01,-0.45,0.59,0.01,-9.1,15.3,-2.3,35.18,,,,,,,,,,
15.14.01.036,58.1,14.5,0,,,20404.0,49.01,-0.22,1.06,0.38,-4.2,20.0,-11.6,35.43,,,,,,,,,,
15.14.01.046,22.6,5.6,0,,,20404.0,49.01,-0.52,1.12,-0.21,4.6,20.8,8.8,34.81,,,,,,,,,,
15.14.01.056,19.0,4.8,0,,,20404.0,49.01,-0.52,0.45,-0.17,45.9,20.7,-2.3,35.18,,,,,,,,,,
15.14.01.066,46.2,11.6,0,,,20404.0,49.01,-0.41,0.52,0.77,29.3,32.1,-1.7,34.78,,,,,,,,,,
15.14.01.076,89.3,22.3,0,,,20404.0,49.01,-0.02,0.6,-0.61,1.1,4.6,1.4,35.38,,,,,,,,,,
15.14.01.085,103.5,25.9,0,,,20404.0,49.01,-0.67,0.77,0.49,23.3,-9.3,8.2,35.15,,,,,,,,,,
15.14.01.095,123.3,30.8,0,,,20404.0,49.01,-0.95,1.13,0.38,15.3,34.1,-13.7,34.95,,,,,,,,,,
15.14.01.104,64.2,16.0,0,,,20404.0,49.01,-0.32,0.02,0.94,-2.9,16.8,5.8,34.92,,,,,,,,,,
15.14.01.113,17.5,4.4,0,,,20404.0,49.01,0.39,0.94,1.0,10.4,11.0,17.6,35.03,,,,,,,,,,
15.14.01.121,55.5,13.9,0,,,20404.0,49.01,-0.22,0.58,0.82,-1.5,14.7,5.3,35.37,,,,,,,,,,
15.14.01.131,2.6,0.6,0,,,20404.0,49.01,-0.24,0.69,0.86,-21.5,20.2,-5.3,35.03,,,,,,,,,,
15.14.01.140,-39.9,10.0,0,,,20404.0,49.01,-0.34,0.35,1.1,-1.1,5.5,5.1,35.22,,,,,,,,,,
15.14.01.148,30.4,7.6,0,,,20404.0,49.01,-0.23,0.15,1.01,4.0,-2.2,0.9,35.05,,,,,,,,,,
15.14.01.156,10.4,2.6,0,,,20404.0,49.01,-0.44,0.62,1.25,-22.2,16.9,6.4,35.27,,,,,,,,,,
15.14.01.167,-101.7,25.4,0,,,20404.0,49.01,-0.31,0.26,0.38,26.7,3.0,0.2,34.95,,,,,,,,,,
15.14.01.180,-48.6,12.2,0,,,20404.0,49.01,-0.46,0.12,-0.33,5.5,6.2,11.9,34.97,,,,,,,,,,
15.14.01.190,-75.4,18.8,0,,,20404.0,49.01,-0.31,-0.2,0.15,-1.5,7.7,4.2,35.46,,,,,,,,,,
15.14.01.198,-39.4,9.8,0,,,20404.0,49.01,-0.2,0.42,-0.11,-37.9,-18.8,0.2,35.06,,,,,,,,,,
15.14.01.209,-115.4,28.8,0,,,20404.0,49.01,-0.53,0.07,0.66,-13.5,8.1,23.6,34.89,,,,,,,,,,
15.14.01.218,-1.0,0.2,1,3.0,146.7,20404.0,49.01,-1.05,0.38,-0.3,21.4,11.8,-0.9,34.55,,,,,,,,,,
15.14.01.228,-128.9,32.2,0,,,20404.0,49.01,-0.26,-0.28,0.8,3.6,-17.6,-10.2,34.69,,,,,,,,,,
15.14.01.239,-78.1,19.5,0,,,20399.8,49.02,-0.53,0.27,-0.5,12.7,16.5,15.8,35.14,,,,,,,,,,
15.14.01.248,-121.9,30.5,0,,,20399.8,49.02,-0.77,0.49,0.02,1.5,12.3,7.1,34.97,,,,,,,,,,
15.14.01.258,-145.6,36.4,0,,,20399.8,49.02,-0.96,-0.01,-0.59,16.7,-10.6,-8.7,34.89,,,,,,,,,,
15.14.01.269,-148.2,37.0,0,,,20399.8,49.02,-0.75,-0.17,-1.18,-12.2,-26.1,-3.6,35.38,,,,,,,,,,
15.14.01.280,-179.6,44.9,0,,,20399.8,49.02,-0.72,0.18,-0.35,14.7,3.1,2.0,34.85,,,,,,,,,,
15.14.01.289,-154.0,38.5,0,,,20399.8,49.02,-0.72,0.29,-0.55,-3.4,0.7,-2.1,35.18,,,,,,,,,,
15.14.01.300,-189.9,47.5,0,,,20399.8,49.02,-0.55,0.31,0.53,-24.3,9.7,36.8,35.34,,,,,,,,,,
15.14.01.311,-108.5,27.1,0,,,20399.8,49.02,-0.58,0.64,0.23,14.3,6.6,-2.3,35.01,,,,,,,,,,
15.14.01.320,-198.9,49.7,0,,,20399.8,49.02,-0.85,0.41,-0.18,-11.9,-9.1,2.3,35.24,,,,,,,,,,
15.14.01.333,37.2,9.3,0,,,20399.8,49.02,-0.78,0.93,-0.02,22.4,18.4,-5.4,34.89,,,,,,,,,,
15.14.01.345,144.0,36.0,0,,,20399.8,49.02,-0.84,1.0,-0.71,-7.9,21.0,-1.0,35.09,,,,,,,,,,
15.14.01.356,282.8,70.7,0,,,20399.8,49.02,-0.67,0.09,-1.0,19.9,-19.0,-11.2,34.88,,,,,,,,,,
15.14.01.362,327.1,81.8,0,,,20399.8,49.02,-0.34,0.28,-0.09,-1.6,11.7,-23.9,35.56,,,,,,,,,,
15.14.01.372,369.4,92.4,0,,,20399.8,49.02,-0.49,0.93,0.26,-7.5,8.6,-12.8,34.53,,,,,,,,,,
15.14.01.382,417.0,104.2,0,,,20399.8,49.02,-0.46,0.84,-0.57,12.7,-10.9,-3.2,34.89,,,,,,,,,,
15.14.01.392,440.2,110.0,0,,,20399.8,49.02,-0.79,0.57,0.54,15.6,6.2,-19.6,34.9,,,,,,,,,,
15.14.01.403,471.1,117.8,0,,,20399.8,49.02,-0.22,1.27,0.27,44.2,-5.7,-1.9,35.24,,,,,,,,,,
15.14.01.414,495.8,124.0,0,,,20399.8,49.02,-0.44,1.06,-0.56,-15.4,45.7,4.1,35.09,,,,,,,,,,
15.14.01.422,403.4,100.8,0,,,20399.8,49.02,-0.22,1.26,-0.03,-40.4,-0.7,27.2,35.3,,,,,,,,,,
15.14.01.432,462.6,115.6,0,,,20399.8,49.02,-0.23,0.79,0.44,3.0,-0.8,9.2,35.04,,,,,,,,,,
15.14.01.444,372.0,93.0,0,,,20399.8,49.02,-0.28,0.93,-0.16,23.1,8.6,7.8,35.23,,,,,,,,,,
15.14.01.454,256.7,64.2,0,,,20399.8,49.02,-0.8,0.8,1.18,4.9,39.8,4.3,35.39,,,,,,,,,,
15.14.01.462,177.0,44.2,0,,,20399.8,49.02,-0.25,0.79,1.13,2.7,4.7,-6.4,34.55,,,,,,,,,,
15.14.01.472,115.8,29.0,0,,,20399.8,49.02,-0.25,0.79,0.13,-10.7,14.7,-24.2,35.28,,,,,,,,,,
15.14.01.481,57.5,14.4,0,,,20399.8,49.02,-0.05,0.31,0.9,4.4,22.4,4.8,34.91,,,,,,,,,,
15.14.01.492,56.9,14.2,0,,,20399.8,49.02,-0.23,-0.04,1.4,9.5,15.7,15.7,34.71,,,,,,,,,,
15.14.01.502,80.4,20.1,0,,,20399.8,49.02,0.06,0.43,0.65,5.0,6.4,-9.1,35.07,,,,,,,,,,
15.14.01.512,37.6,9.4,0,,,20399.8,49.02,0.06,0.36,1.48,-1.0,2.8,9.2,34.81,,,,,,,,,,
15.14.01.518,110.1,27.5,0,,,20399.8,49.02,-0.11,0.51,0.08,-39.9,21.0,10.3,35.37,,,,,,,,,,
15.14.01.529,87.9,22.0,0,,,20399.8,49.02,-0.6,-0.28,0.95,-15.6,-0.2,-16.5,34.57,,,,,,,,,,
15.14.01.538,120.6,30.2,0,,,20399.8,49.02,-0.02,0.52,0.11,-50.9,18.9,9.6,34.92,,,,,,,,,,
15.14.01.546,104.7,26.2,0,,,20399.8,49.02,-0.37,-0.07,0.57,5.1,23.6,15.1,35.19,,,,,,,,,,
15.14.01.555,51.2,12.8,0,,,20399.8,49.02,-0.27,0.92,0.21,-10.6,-10.6,-4.6,34.58,,,,,,,,,,
15.14.01.564,35.2,8.8,0,,,20399.8,49.02,-0.24,-0.21,0.05,-3.0,1.5,-10.6,35.04,,,,,,,,,,
15.14.01.573,11.7,2.9,0,,,20399.8,49.02,-0.04,-0.36,0.16,16.3,13.6,15.6,34.87,,,,,,,,,,
15.14.01.582,-19.3,4.8,0,,,20399.8,49.02,-0.52,0.05,-0.38,-31.0,-4.1,-7.0,35.19,,,,,,,,,,
15.14.01.590,-68.0,17.0,1,4.0,161.3,20399.8,49.02,-0.47,-0.03,-0.23,29.6,0.2,-5.9,35.3,,,,,,,,,,
15.14.01.601,33.5,8.4,0,,,20399.8,49.02,-0.3,-0.73,-0.68,-10.5,5.1,-16.3,35.01,,,,,,,,,,
15.14.01.610,-59.4,14.8,0,,,20399.8,49.02,-0.43,0.35,0.07,7.1,-3.1,-4.0,35.03,,,,,,,,,,
15.14.01.619,-14.6,3.6,0,,,20399.8,49.02,-0.98,0.86,0.21,-5.6,-5.2,12.1,34.81,,,,,,,,,,
15.14.01.628,-103.9,26.0,0,,,20399.8,49.02,-0.82,0.69,-0.35,-8.1,18.9,10.8,34.7,,,,,,,,,,
15.14.01.638,-15.2,3.8,0,,,20399.8,49.02,-0.08,0.33,-0.33,3.0,20.6,-8.0,34.93,,,,,,,,,,
15.14.01.649,-71.9,18.0,0,,,20399.8,49.02,-0.01,0.47,-0.62,16.8,4.5,-5.5,34.76,,,,,,,,,,
15.14.01.656,-112.5,28.1,0,,,20399.8,49.02,-0.39,0.72,-0.63,-32.1,-25.2,-17.8,34.97,,,,,,,,,,
15.14.01.666,-86.4,21.6,0,,,20399.8,49.02,-0.77,0.49,-0.34,14.6,-6.6,0.7,35.51,,,,,,,,,,
15.14.01.676,-136.5,34.1,0,,,20395.7,49.03,-0.93,-0.38,-0.42,-23.6,17.1,13.9,34.59,,,,,,,,,,
15.14.01.687,-83.3,20.8,0,,,20395.7,49.03,-0.45,0.45,0.43,9.4,27.3,-5.4,35.15,,,,,,,,,,
15.14.01.697,-193.5,48.4,0,,,20395.7,49.03,-0.65,0.61,-0.67,3.5,20.6,7.0,34.69,,,,,,,,,,
15.14.01.707,-133.1,33.3,0,,,20395.7,49.03,-0.34,0.31,0.32,-27.4,-19.3,1.0,34.98,,,,,,,,,,
15.14.01.714,-189.8,47.4,0,,,20395.7,49.03,-0.53,0.05,-0.66,-32.5,-5.2,-10.2,35.13,,,,,,,,,,
15.14.01.724,-206.4,51.6,0,,,20395.7,49.03,-0.08,0.79,0.34,-8.7,-7.1,-4.2,35.05,,,,,,,,,,
15.14.01.731,-140.1,35.0,0,,,20395.7,49.03,-0.56,1.29,0.02,14.6,16.5,11.5,34.75,,,,,,,,,,
15.14.01.741,-198.1,49.5,0,,,20395.7,49.03,-0.61,1.25,0.02,18.5,-0.5,2.3,35.11,,,,,,,,,,
15.14.01.754,-156.7,39.2,0,,,20395.7,49.03,-0.42,1.18,0.8,-4.0,5.0,4.3,34.87,,,,,,,,,,
15.14.01.763,-138.3,34.6,0,,,20395.7,49.03,-0.25,0.5,-0.03,-9.0,24.0,1.4,34.88,,,,,,,,,,
15.14.01.771,-228.9,57.2,0,,,20395.7,49.03,0.08,0.68,0.46,-18.9,18.8,3.0,34.77,,,,,,,,,,
15.14.01.783,57.2,14.3,0,,,20395.7,49.03,-0.43,0.31,1.06,2.2,19.7,-7.3,35.07,,,,,,,,,,
15.14.01.793,201.0,50.2,0,,,20395.7,49.03,-0.5,0.51,-0.28,8.2,-5.9,14.9,35.02,,,,,,,,,,
15.14.01.803,323.2,80.8,0,,,20395.7,49.03,-0.32,0.44,0.79,-43.3,16.4,-4.9,34.75,,,,,,,,,,
15.14.01.814,433.0,108.2,0,,,20395.7,49.03,-0.07,0.59,0.94,-19.6,4.9,-10.3,35.06,,,,,,,,,,
15.14.01.822,432.8,108.2,0,,,20395.7,49.03,0.03,0.15,0.88,21.7,44.3,0.8,35.22,,,,,,,,,,
15.14.01.833,371.9,93.0,0,,,20395.7,49.03,-0.24,0.25,0.59,23.5,4.6,7.7,34.91,,,,,,,,,,
15.14.01.843,450.0,112.5,0,,,20395.7,49.03,-0.09,0.4,0.73,-17.6,-25.1,-4.6,34.88,,,,,,,,,,
15.14.01.853,522.2,130.6,0,,,20395.7,49.03,-0.22,1.11,0.62,7.5,1.7,-11.5,34.94,,,,,,,,,,
15.14.01.864,542.3,135.6,0,,,20395.7,49.03,0.1,0.16,0.56,9.0,4.3,-1.6,34.8,,,,,,,,,,
15.14.01.874,413.9,103.5,0,,,20395.7,49.03,-0.34,0.37,1.34,9.1,2.5,-4.1,34.34,,,,,,,,,,
15.14.01.883,383.8,96.0,0,,,20395.7,49.03,-0.66,0.45,1.14,-5.9,5.7,-8.4,35.0,,,,,,,,,,
15.14.01.894,222.4,55.6,0,,,20395.7,49.03,-0.45,0.03,0.41,33.3,33.5,17.9,34.62,,,,,,,,,,
15.14.01.905,157.4,39.4,0,,,20395.7,49.03,-0.12,-0.38,0.42,-0.6,-27.4,-13.8,35.0,,,,,,,,,,
15.14.01.915,99.9,25.0,0,,,20395.7,49.03,-0.75,-0.12,-0.89,0.6,-6.5,9.2,35.63,,,,,,,,,,
15.14.01.922,39.0,9.8,0,,,20395.7,49.03,0.07,0.27,-0.34,10.2,22.1,-12.4,35.03,,,,,,,,,,
15.14.01.930,27.7,6.9,0,,,20395.7,49.03,-0.71,-0.72,-0.29,-10.8,11.0,-2.7,35.22,,,,,,,,,,
15.14.01.939,-1.9,0.5,0,,,20395.7,49.03,-0.48,-0.29,0.78,9.2,-10.6,-14.0,34.5,,,,,,,,,,
15.14.01.950,59.0,14.8,0,,,20395.7,49.03,-0.75,0.19,-0.68,-17.5,-8.1,-16.6,35.38,,,,,,,,,,
15.14.01.962,76.9,19.2,0,,,20395.7,49.03,-0.66,0.19,-0.18,13.4,-45.9,15.5,34.92,,,,,,,,,,
15.14.01.972,120.0,30.0,0,,,20395.7,49.03,-0.82,-0.3,0.04,-35.8,-4.0,-4.8,34.53,,,,,,,,,,
15.14.01.983,123.5,30.9,0,,,20395.7,49.03,-0.73,-0.43,-0.53,-0.5,15.4,-15.8,35.36,,,,,,,,,,
15.14.01.991,69.2,17.3,0,,,20395.7,49.03,-1.15,0.55,-0.49,-17.1,-14.9,-33.7,34.77,,,,,,,,,,
15.14.02.000,-19.0,4.8,0,,,20395.7,49.03,-0.96,1.03,-1.01,10.0,-7.2,21.7,34.76,,,,,,,,,,
15.14.02.009,-16.7,4.2,1,5.0,143.2,20395.7,49.03,-1.15,0.27,0.67,6.7,-8.3,-29.5,34.87,,,,,,,,,,
15.14.02.018,-18.5,4.6,0,,,20395.7,49.03,-0.44,0.1,-0.02,-11.1,5.4,1.2,34.96,,,,,,,,,,
15.14.02.027,-48.5,12.1,0,,,20399.8,49.02,-0.74,0.35,-0.85,6.4,-5.2,0.7,34.96,,,,,,,,,,
15.14.02.035,-76.5,19.1,0,,,20399.8,49.02,-0.54,0.49,-0.07,-28.7,33.4,-9.9,35.4,,,,,,,,,,
15.14.02.045,-20.6,5.2,0,,,20399.8,49.02,-0.64,0.96,-0.3,-2.2,-3.5,-6.8,34.61,,,,,,,,,,
15.14.02.055,-94.4,23.6,0,,,20404.0,49.01,-0.9,0.77,0.06,-11.5,8.1,3.9,35.16,,,,,,,,,,
15.14.02.066,-77.6,19.4,0,,,20404.0,49.01,-0.96,0.96,-1.06,3.5,-10.5,32.9,35.1,,,,,,,,,,
15.14.02.078,-48.7,12.2,0,,,20404.0,49.01,-0.11,0.8,0.15,0.4,8.6,6.3,35.1,,,,,,,,,,
15.14.02.090,-101.4,25.4,0,,,20408.2,49.0,-0.25,0.91,-0.07,23.7,8.6,-6.4,34.71,,,,,,,,,,
15.14.02.099,-90.2,22.6,0,,,20408.2,49.0,-0.33,0.33,0.79,14.3,7.7,-11.5,35.31,,,,,,,,,,
15.14.02.110,-76.6,19.2,0,,,20412.3,48.99,-0.47,0.31,-0.1,18.4,25.4,-7.4,34.99,,,,,,,,,,
15.14.02.121,-127.7,31.9,0,,,20412.3,48.99,-0.19,0.98,-0.02,3.6,-14.0,-9.8,35.12,,,,,,,,,,
15.14.02.132,-112.4,28.1,0,,,20412.3,48.99,-0.22,0.34,-0.01,-16.0,11.0,5.1,35.06,,,,,,,,,,
15.14.02.143,-140.8,35.2,0,,,20416.5,48.98,-0.2,0.87,1.09,-3.8,6.8,-7.1,35.41,,,,,,,,,,
15.14.02.153,-96.6,24.2,0,,,20416.5,48.98,0.01,0.59,1.64,-15.5,15.4,-16.8,35.11,,,,,,,,,,
15.14.02.161,-169.1,42.3,0,,,20416.5,48.98,-0.28,0.59,1.3,-12.9,4.0,-6.9,34.78,,,,,,,,,,
15.14.02.169,-207.3,51.8,0,,,20420.7,48.97,-0.26,-0.34,-0.06,-19.7,5.8,-0.6,35.13,,,,,,,,,,
15.14.02.179,-133.5,33.4,0,,,20420.7,48.97,0.03,0.46,1.39,-14.9,28.3,19.0,35.12,,,,,,,,,,
15.14.02.189,-225.8,56.4,0,,,20420.7,48.97,-0.18,0.63,1.44,14.4,7.8,-10.2,34.67,,,,,,,,,,
15.14.02.199,-172.8,43.2,0,,,20424.8,48.96,0.07,0.41,-0.02,-13.5,0.5,21.5,34.75,,,,,,,,,,
15.14.02.209,-192.4,48.1,0,,,20424.8,48.96,-0.0,0.06,1.17,22.3,-6.0,5.4,34.63,,,,,,,,,,
15.14.02.217,98.1,24.5,0,,,20424.8,48.96,0.04,0.01,1.27,-25.4,-24.3,-10.4,35.2,,,,,,,,,,
15.14.02.225,129.5,32.4,0,,,20429.0,48.95,-0.51,-0.67,0.21,19.5,34.0,6.5,35.08,,,,,,,,,,
15.14.02.236,244.9,61.2,0,,,20429.0,48.95,-0.41,0.82,-0.13,6.1,-7.1,-5.2,35.09,,,,,,,,,,
15.14.02.244,299.7,74.9,0,,,20429.0,48.95,0.0,0.53,0.33,-1.9,10.0,-12.5,35.4,,,,,,,,,,
15.14.02.254,351.5,87.9,0,,,20433.2,48.94,-0.97,0.04,-0.23,-0.5,19.4,-6.3,34.71,,,,,,,,,,
15.14.02.264,447.6,111.9,0,,,20433.2,48.94,-0.51,-0.08,-0.46,23.2,-1.8,-0.7,34.55,,,,,,,,,,
15.14.02.275,545.4,136.4,0,,,20433.2,48.94,-0.38,-0.05,-0.07,-0.8,10.8,-4.1,35.33,,,,,,,,,,
15.14.02.286,506.8,126.7,0,,,20437.4,48.93,-0.48,0.05,0.37,13.5,13.4,15.6,34.72,,,,,,,,,,
15.14.02.293,466.9,116.7,0,,,20437.4,48.93,-0.56,-0.28,-0.23,-7.2,17.4,-0.7,35.12,,,,,,,,,,
15.14.02.303,382.6,95.6,0,,,20437.4,48.93,-0.8,0.29,-0.71,-9.4,18.5,16.7,35.1,,,,,,,,,,
15.14.02.313,387.3,96.8,0,,,20441.5,48.92,0.04,0.45,-0.18,27.3,3.3,-6.7,35.12,,,,,,,,,,
15.14.02.323,369.2,92.3,0,,,20441.5,48.92,-0.53,0.71,1.23,-6.0,41.4,5.7,35.17,,,,,,,,,,
15.14.02.333,334.4,83.6,0,,,20441.5,48.92,-1.06,0.43,0.46,17.8,4.4,-7.9,35.09,,,,,,,,,,
15.14.02.343,195.7,48.9,0,,,20445.7,48.91,-0.86,0.27,-0.52,27.9,3.6,-15.8,35.0,,,,,,,,,,
15.14.02.353,154.7,38.7,0,,,20445.7,48.91,-0.7,0.46,0.07,10.6,0.1,0.4,35.35,,,,,,,,,,
15.14.02.363,5.2,1.3,0,,,20445.7,48.91,-0.51,0.29,-0.92,10.3,6.6,1.3,35.25,,,,,,,,,,
15.14.02.372,41.7,10.4,0,,,20449.9,48.9,-0.82,0.82,0.56,6.7,11.0,11.5,34.91,,,,,,,,,,
15.14.02.381,51.7,12.9,0,,,20449.9,48.9,-0.71,0.8,-0.03,-32.3,-7.8,10.6,34.68,,,,,,,,,,
15.14.02.392,68.8,17.2,0,,,20449.9,48.9,-0.73,0.48,0.4,7.3,19.8,-23.5,34.94,,,,,,,,,,
15.14.02.403,80.9,20.2,0,,,20454.1,48.89,-0.52,1.49,0.73,2.7,8.6,-15.0,35.23,,,,,,,,,,
15.14.02.412,74.6,18.6,0,,,20454.1,48.89,-0.15,0.75,0.21,-6.0,-5.2,-9.8,34.55,,,,,,,,,,
15.14.02.422,94.8,23.7,0,,,20454.1,48.89,-0.78,0.48,-0.04,-6.5,18.1,-7.7,34.75,,,,,,,,,,
15.14.02.430,72.5,18.1,0,,,20458.3,48.88,-0.26,0.6,0.21,-7.7,0.6,-8.3,34.51,,,,,,,,,,
15.14.02.441,2.4,0.6,0,,,20458.3,48.88,0.12,0.82,0.25,25.3,0.7,1.0,35.24,,,,,,,,,,
15.14.02.449,75.9,19.0,0,,,20458.3,48.88,-0.29,1.15,0.52,7.2,17.0,-5.9,34.57,,,,,,,,,,
15.14.02.458,18.9,4.7,1,6.0,133.6,20462.5,48.87,-0.42,0.99,0.6,-9.2,15.2,-1.4,35.25,,,,,,,,,,
15.14.02.466,-19.2,4.8,0,,,20462.5,48.87,-0.45,1.16,0.55,22.2,-8.4,4.8,34.93,,,,,,,,,,
15.14.02.478,-17.7,4.4,0,,,20462.5,48.87,-0.2,0.36,0.66,-10.5,-0.9,-7.7,35.17,,,,,,,,,,
15.14.02.488,-35.3,8.8,0,,,20466.6,48.86,-0.65,0.67,-0.26,-4.0,7.5,-13.2,35.26,,,,,,,,,,
15.14.02.498,-54.9,13.7,0,,,20466.6,48.86,-0.5,0.42,0.32,-17.1,8.9,9.5,35.03,,,,,,,,,,
15.14.02.506,-113.1,28.3,0,,,20466.6,48.86,-0.48,1.2,0.37,-16.8,10.7,5.5,34.88,,,,,,,,,,
15.14.02.515,-57.9,14.5,0,,,20470.8,48.85,-0.42,0.17,0.78,4.4,-19.4,5.2,34.7,,,,,,,,,,
15.14.02.526,-87.6,21.9,0,,,20470.8,48.85,0.06,0.01,0.07,32.6,6.2,-11.3,34.9,,,,,,,,,,
15.14.02.535,-70.9,17.7,0,,,20470.8,48.85,0.09,-0.07,0.86,24.7,-9.5,-0.9,35.7,,,,,,,,,,
15.14.02.546,-122.9,30.7,0,,,20475.0,48.84,0.08,0.55,1.0,-7.3,27.6,3.1,35.1,,,,,,,,,,
15.14.02.557,-101.1,25.3,0,,,20475.0,48.84,-0.53,0.82,1.61,0.8,-7.4,10.4,35.26,,,,,,,,,,
15.14.02.568,-136.1,34.0,0,,,20475.0,48.84,-0.11,0.03,0.98,-18.9,-15.6,11.0,34.9,,,,,,,,,,
15.14.02.577,-116.8,29.2,0,,,20479.2,48.83,-0.29,-0.21,0.55,-14.7,-8.4,9.2,35.06,,,,,,,,,,
15.14.02.586,-146.7,36.7,0,,,20479.2,48.83,-1.1,0.77,0.03,-17.1,13.4,-2.4,35.01,,,,,,,,,,
15.14.02.595,-106.6,26.6,0,,,20479.2,48.83,-0.4,0.93,0.27,2.5,-2.4,16.2,34.93,,,,,,,,,,
15.14.02.604,-136.2,34.0,0,,,20483.4,48.82,-0.46,-0.39,0.46,1.7,-21.3,2.5,34.82,,,,,,,,,,
15.14.02.615,-177.6,44.4,0,,,20483.4,48.82,-0.35,-0.08,0.34,-19.2,-4.8,-3.7,34.93,,,,,,,,,,
15.14.02.625,-117.8,29.4,0,,,20483.4,48.82,-0.43,0.39,0.17,-7.3,-6.1,12.5,34.96,,,,,,,,,,
15.14.02.636,-156.6,39.2,0,,,20487.6,48.81,-0.28,0.33,0.17,-17.9,11.8,-22.5,34.63,,,,,,,,,,
15.14.02.645,-205.1,51.3,0,,,20487.6,48.81,-0.37,-0.06,0.03,-8.9,11.7,-6.8,35.01,,,,,,,,,,
15.14.02.654,31.5,7.9,0,,,20487.6,48.81,-0.41,-0.2,-0.22,-26.5,12.7,2.3,34.91,,,,,,,,,,
15.14.02.664,,,0,,,,,,,,,,,,,,,,,,,,,
15.14.02.672,167.2,41.8,0,,,20491.8,48.8,-0.71,0.56,-0.37,-11.4,12.8,4.6,34.54,,,,,,,,,,
15.14.02.680,259.9,65.0,0,,,20491.8,48.8,-0.91,0.3,-0.59,27.4,4.8,-5.7,34.98,,,,,,,,,,
15.14.02.690,362.4,90.6,0,,,20496.0,48.79,-0.69,0.14,-0.46,-26.7,-13.8,26.7,34.77,,,,,,,,,,
15.14.02.700,397.2,99.3,0,,,20496.0,48.79,-0.51,0.78,0.26,-19.8,19.3,-12.0,34.76,,,,,,,,,,
15.14.02.710,441.8,110.4,0,,,20496.0,48.79,-0.55,0.4,-0.14,2.5,5.4,-6.2,35.3,,,,,,,,,,
15.14.02.719,426.5,106.6,0,,,20500.2,48.78,-0.74,0.5,-0.14,0.7,22.7,31.3,35.06,,,,,,,,,,
15.14.02.729,524.6,131.2,0,,,20500.2,48.78,-0.13,0.3,-0.05,-20.2,6.8,-7.2,34.95,,,,,,,,,,
15.14.02.738,528.3,132.1,0,,,20500.2,48.78,-0.2,0.72,0.15,-3.5,7.7,17.3,34.94,,,,,,,,,,
15.14.02.750,464.1,116.0,0,,,20504.4,48.77,-0.9,1.05,0.09,-15.5,21.4,10.9,34.98,,,,,,,,,,
15.14.02.761,438.3,109.6,0,,,20504.4,48.77,-0.49,0.49,1.01,-59.8,6.7,0.5,35.53,,,,,,,,,,
15.14.02.773,300.1,75.0,1,7.0,190.5,20508.6,48.76,-0.55,0.76,-0.31,4.1,-4.8,-31.6,34.67,,,,,,,,,,
15.14.02.782,265.7,66.4,0,,,20508.6,48.76,-0.28,0.61,-0.46,-17.8,13.3,-5.5,35.02,,,,,,,,,,
15.14.02.791,179.6,44.9,0,,,20508.6,48.76,-0.17,0.67,-0.46,16.1,16.0,3.9,34.66,,,,,,,,,,
15.14.02.801,154.4,38.6,0,,,20512.8,48.75,-0.23,0.11,0.73,25.3,9.4,-4.7,34.4,,,,,,,,,,
15.14.02.810,27.5,6.9,0,,,20512.8,48.75,-0.44,0.96,0.53,16.4,-3.5,2.8,35.05,,,,,,,,,,
15.14.02.819,-21.6,5.4,0,,,20512.8,48.75,-0.24,1.22,1.08,-1.8,33.4,-2.6,35.26,,,,,,,,,,
15.14.02.827,81.9,20.5,0,,,20512.8,48.75,-0.45,0.14,0.16,40.0,26.2,-20.0,34.92,,,,,,,,,,
15.14.02.836,94.7,23.7,0,,,20517.0,48.74,-0.62,0.71,-0.44,13.0,27.6,4.1,35.14,,,,,,,,,,
15.14.02.846,133.0,33.2,0,,,20517.0,48.74,-0.23,0.83,0.71,-14.5,1.3,-1.1,35.15,,,,,,,,,,
15.14.02.856,72.6,18.2,0,,,20517.0,48.74,-0.47,0.26,1.43,1.6,3.6,-20.4,34.82,,,,,,,,,,
15.14.02.863,80.4,20.1,0,,,20521.2,48.73,-0.02,0.47,0.63,48.6,-3.0,-8.5,35.08,,,,,,,,,,
15.14.02.873,67.9,17.0,0,,,20521.2,48.73,-0.45,0.15,0.83,-9.1,13.1,3.7,35.11,,,,,,,,,,
15.14.02.883,60.8,15.2,0,,,20521.2,48.73,-0.24,0.76,0.49,21.6,10.0,-2.9,35.42,,,,,,,,,,
15.14.02.892,65.1,16.3,0,,,20525.5,48.72,-0.06,0.34,0.84,30.0,20.3,1.2,35.13,,,,,,,,,,
15.14.02.903,-10.2,2.6,0,,,20525.5,48.72,-0.46,0.65,-0.15,14.9,14.8,8.8,35.64,,,,,,,,,,
15.14.02.911,3.1,0.8,0,,,20525.5,48.72,0.03,-0.2,0.53,-37.0,-3.2,17.2,35.6,,,,,,,,,,
15.14.02.921,-41.7,10.4,0,,,20529.7,48.71,-0.02,0.28,-0.22,-3.6,12.8,27.3,34.92,,,,,,,,,,
15.14.02.933,21.2,5.3,0,,,20529.7,48.71,-0.4,0.58,0.25,26.8,11.8,-17.5,34.71,,,,,,,,,,
15.14.02.943,-93.2,23.3,0,,,20529.7,48.71,-0.64,0.56,0.9,2.0,8.9,-10.0,35.06,,,,,,,,,,
15.14.02.954,-99.6,24.9,0,,,20533.9,48.7,-0.99,-0.41,-0.29,-10.2,12.8,4.6,34.82,,,,,,,,,,
15.14.02.964,-75.5,18.9,0,,,20533.9,48.7,-0.54,-0.01,0.14,-6.2,16.7,-9.4,34.95,,,,,,,,,,
15.14.02.976,-132.5,33.1,0,,,20538.1,48.69,-0.3,0.72,-1.04,8.8,14.9,7.1,34.68,,,,,,,,,,
15.14.02.983,-111.5,27.9,0,,,20538.1,48.69,-0.11,-0.41,0.7,3.1,11.3,-1.9,35.42,,,,,,,,,,
15.14.02.993,-71.4,17.8,0,,,20538.1,48.69,-0.84,0.55,-0.02,-23.9,14.2,-1.2,34.65,,,,,,,,,,
15.14.03.003,-100.4,25.1,0,,,20538.1,48.69,-0.68,-0.11,-0.55,-0.3,0.4,-8.6,35.05,,,,,,,,,,
15.14.03.012,-90.3,22.6,0,,,20542.3,48.68,-0.76,0.12,0.48,20.7,41.2,-6.1,34.94,,,,,,,,,,
15.14.03.022,-98.9,24.7,0,,,20542.3,48.68,-0.52,0.25,-0.53,-13.7,14.8,-8.2,35.16,,,,,,,,,,
15.14.03.031,-109.8,27.4,0,,,20542.3,48.68,-0.99,0.9,0.3,-16.3,4.9,-11.2,35.02,,,,,,,,,,
15.14.03.041,-131.7,32.9,0,,,20542.3,48.68,-0.41,1.46,-0.15,14.8,-26.7,25.6,34.78,,,,,,,,,,
15.14.03.052,-179.7,44.9,0,,,20542.3,48.68,-0.62,0.29,0.64,-23.3,-11.3,-11.4,35.01,,,,,,,,,,
15.14.03.060,-184.3,46.1,0,,,20542.3,48.68,-0.81,0.53,-0.14,5.6,13.3,-10.8,34.96,,,,,,,,,,
15.14.03.071,-230.4,57.6,1,8.0,201.3,20546.5,48.67,-0.35,0.61,0.2,-1.4,7.3,-10.3,35.02,,,,,,,,,,
15.14.03.082,-135.4,33.8,0,,,20546.5,48.67,-0.58,0.35,-0.2,-25.0,13.3,9.2,34.53,,,,,,,,,,
15.14.03.092,58.0,14.5,0,,,20546.5,48.67,-0.64,1.58,-0.69,-17.3,-1.8,-25.0,35.3,,,,,,,,,,
15.14.03.101,99.1,24.8,0,,,20546.5,48.67,-0.66,1.1,-0.77,-8.7,24.6,9.8,34.91,,,,,,,,,,
15.14.03.111,184.8,46.2,0,,,20546.5,48.67,-0.85,0.77,-0.43,-14.3,0.8,2.1,35.33,,,,,,,,,,
15.14.03.122,272.3,68.1,0,,,20550.8,48.66,-0.56,0.84,0.14,-5.2,14.9,-0.6,35.31,,,,,,,,,,
15.14.03.133,368.7,92.2,0,,,20550.8,48.66,-0.15,0.98,0.4,0.6,17.3,-10.9,35.11,,,,,,,,,,
15.14.03.144,524.2,131.0,0,,,20550.8,48.66,-0.55,0.43,1.18,-11.6,4.9,16.4,35.37,,,,,,,,,,
15.14.03.154,472.0,118.0,0,,,20550.8,48.66,-0.49,0.64,-0.44,-14.8,-4.4,-2.2,35.07,,,,,,,,,,
15.14.03.164,498.6,124.6,0,,,20550.8,48.66,-0.31,0.03,-0.19,-2.2,23.6,4.9,34.76,,,,,,,,,,
15.14.03.174,447.7,111.9,0,,,20550.8,48.66,-0.07,0.15,1.09,-12.7,10.4,-7.2,35.37,,,,,,,,,,
15.14.03.185,487.3,121.8,0,,,20555.0,48.65,-0.22,0.67,-0.07,-10.3,15.1,-22.9,35.2,,,,,,,,,,
15.14.03.195,438.9,109.7,0,,,20555.0,48.65,0.0,0.4,2.0,-16.3,3.8,30.2,35.53,,,,,,,,,,
15.14.03.206,383.1,95.8,0,,,20555.0,48.65,0.01,0.05,1.35,-1.8,10.8,-11.0,35.28,,,,,,,,,,
15.14.03.216,232.6,58.2,0,,,20555.0,48.65,-0.25,1.54,0.46,-2.4,7.6,2.5,34.85,,,,,,,,,,
15.14.03.226,240.9,60.2,0,,,20555.0,48.65,-0.49,0.55,1.62,48.1,22.8,-11.2,35.06,,,,,,,,,,
15.14.03.235,106.3,26.6,0,,,20559.2,48.64,-0.41,0.29,0.43,-6.8,-10.4,20.8,35.47,,,,,,,,,,
15.14.03.246,-11.3,2.8,0,,,20559.2,48.64,-0.39,0.0,0.8,13.6,26.8,7.8,35.14,,,,,,,,,,
15.14.03.256,48.1,12.0,0,,,20559.2,48.64,0.03,-0.05,1.66,-11.7,7.2,5.0,35.0,,,,,,,,,,
15.14.03.263,-57.4,14.4,0,,,20559.2,48.64,-0.39,-0.5,0.6,-2.9,20.5,4.2,35.5,,,,,,,,,,
15.14.03.272,24.9,6.2,0,,,20559.2,48.64,0.13,0.53,0.21,-20.4,13.8,-3.8,34.82,,,,,,,,,,
15.14.03.283,81.0,20.2,0,,,20559.2,48.64,-0.39,-0.21,1.5,-15.3,-6.0,-14.5,35.59,,,,,,,,,,
15.14.03.292,107.6,26.9,0,,,20563.4,48.63,-0.14,0.3,-0.11,-0.3,19.7,3.1,35.09,,,,,,,,,,
15.14.03.303,93.8,23.4,0,,,20563.4,48.63,-0.56,0.06,0.13,25.7,5.5,-0.9,34.6,,,,,,,,,,
15.14.03.313,35.1,8.8,0,,,20563.4,48.63,-0.82,-0.18,-0.65,39.4,18.6,-2.9,34.8,,,,,,,,,,
15.14.03.322,73.7,18.4,0,,,20563.4,48.63,-0.27,0.24,0.24,22.0,1.1,-8.0,34.39,,,,,,,,,,
15.14.03.331,27.2,6.8,0,,,20563.4,48.63,-0.59,-0.88,0.95,27.9,27.0,17.1,34.66,,,,,,,,,,
15.14.03.341,24.3,6.1,0,,,20563.4,48.63,-0.65,0.79,0.55,4.1,16.6,26.6,34.76,,,,,,,,,,
15.14.03.352,27.9,7.0,0,,,20567.7,48.62,-0.78,0.45,-0.38,-1.4,26.1,-5.3,35.13,,,,,,,,,,
15.14.03.359,31.8,8.0,0,,,20567.7,48.62,-0.93,0.26,-1.07,2.0,5.2,-12.0,35.21,,,,,,,,,,
15.14.03.369,-69.7,17.4,0,,,20567.7,48.62,-0.63,0.49,0.2,-2.4,1.3,-20.7,35.14,,,,,,,,,,
15.14.03.380,-66.0,16.5,0,,,20567.7,48.62,-0.71,0.21,-0.72,-0.7,-3.4,5.5,34.78,,,,,,,,,,
15.14.03.390,-57.7,14.4,0,,,20567.7,48.62,-0.26,0.56,-0.45,-25.1,25.7,4.8,34.85,,,,,,,,,,
15.14.03.401,-73.9,18.5,0,,,20567.7,48.62,-0.72,1.03,0.03,-16.0,6.9,-0.9,35.11,,,,,,,,,,
15.14.03.411,-38.1,9.5,1,9.0,176.5,20571.9,48.61,-0.61,0.9,0.36,21.5,-1.9,6.7,35.24,,,,,,,,,,
15.14.03.421,-64.2,16.0,0,,,20571.9,48.61,-1.08,0.69,0.34,29.8,1.7,-2.9,34.71,,,,,,,,,,
15.14.03.431,-70.8,17.7,0,,,20571.9,48.61,-0.84,0.94,-0.46,4.1,10.0,5.6,34.98,,,,,,,,,,
15.14.03.441,-68.5,17.1,0,,,20571.9,48.61,-0.57,0.5,-0.17,1.6,-7.8,15.4,34.97,,,,,,,,,,
15.14.03.452,-111.6,27.9,0,,,20571.9,48.61,-0.85,-0.06,-0.63,-15.1,8.2,-5.3,35.25,,,,,,,,,,
15.14.03.462,-82.0,20.5,0,,,20571.9,48.61,-0.53,0.9,-0.35,-3.4,-0.5,0.9,34.82,,,,,,,,,,
15.14.03.470,-104.5,26.1,0,,,20576.1,48.6,-1.05,0.3,-0.09,15.0,24.6,15.6,34.39,,,,,,,,,,
15.14.03.479,-129.8,32.4,0,,,20576.1,48.6,-0.5,0.8,0.42,-0.7,33.8,-19.2,34.31,,,,,,,,,,
15.14.03.488,-167.0,41.8,0,,,20576.1,48.6,-0.54,0.65,-0.56,-14.8,-3.4,-3.4,35.02,,,,,,,,,,
15.14.03.495,-149.6,37.4,0,,,20576.1,48.6,-0.12,0.84,-0.36,-9.0,15.2,-6.4,34.96,,,,,,,,,,
15.14.03.506,-173.3,43.3,0,,,20576.1,48.6,-0.11,0.11,0.04,-29.9,-2.1,3.4,34.86,,,,,,,,,,
15.14.03.516,-159.4,39.8,0,,,20576.1,48.6,-0.13,0.83,0.99,20.7,0.8,-3.2,34.59,,,,,,,,,,
15.14.03.526,-182.4,45.6,0,,,20580.4,48.59,-0.18,-0.04,1.29,-14.9,17.5,0.1,35.05,,,,,,,,,,
15.14.03.536,75.1,18.8,0,,,20580.4,48.59,-0.35,0.81,0.68,26.7,17.8,0.4,34.97,,,,,,,,,,
15.14.03.547,190.0,47.5,0,,,20580.4,48.59,-0.09,1.19,0.79,16.6,-13.0,20.5,35.15,,,,,,,,,,
15.14.03.556,174.7,43.7,0,,,20580.4,48.59,0.21,0.7,0.86,17.0,7.8,-11.6,35.36,,,,,,,,,,
15.14.03.567,375.1,93.8,0,,,20580.4,48.59,-0.23,0.54,0.72,15.9,10.6,3.0,35.3,,,,,,,,,,
15.14.03.574,375.5,93.9,0,,,20580.4,48.59,-0.13,0.02,0.52,-15.7,15.1,3.7,35.31,,,,,,,,,,
15.14.03.583,408.1,102.0,0,,,20584.6,48.58,0.11,0.74,1.51,10.4,12.3,6.4,34.83,,,,,,,,,,
15.14.03.593,532.4,133.1,0,,,20584.6,48.58,-0.57,0.37,0.69,-28.0,25.4,-3.7,35.28,,,,,,,,,,
15.14.03.603,443.0,110.8,0,,,20584.6,48.58,-0.15,-0.0,0.58,-33.0,13.8,20.9,35.21,,,,,,,,,,
15.14.03.614,488.1,122.0,0,,,20584.6,48.58,-0.24,0.1,0.1,-3.3,7.6,37.4,34.87,,,,,,,,,,
15.14.03.624,508.5,127.1,0,,,20584.6,48.58,-0.19,0.09,1.06,-3.2,-0.4,-5.1,35.25,,,,,,,,,,
15.14.03.634,438.3,109.6,0,,,20584.6,48.58,0.03,-0.16,-0.48,-15.2,4.3,-9.1,34.36,,,,,,,,,,
15.14.03.646,343.3,85.8,0,,,20588.8,48.57,-0.62,0.41,0.01,-5.1,22.9,-10.3,35.26,,,,,,,,,,
15.14.03.656,279.5,69.9,0,,,20588.8,48.57,-0.38,0.13,-0.12,-8.1,6.4,2.7,35.07,,,,,,,,,,
15.14.03.667,160.3,40.1,0,,,20588.8,48.57,-0.51,-0.06,0.13,19.6,7.1,20.3,35.58,,,,,,,,,,
15.14.03.676,106.6,26.6,0,,,20588.8,48.57,-0.25,0.31,-0.02,-0.3,0.7,-2.2,34.45,,,,,,,,,,
15.14.03.685,-16.9,4.2,0,,,20588.8,48.57,-0.8,-0.39,0.71,8.4,8.9,1.7,34.62,,,,,,,,,,
15.14.03.694,6.5,1.6,0,,,20593.1,48.56,-0.84,0.01,-0.59,13.8,26.6,28.3,35.3,,,,,,,,,,
15.14.03.703,44.5,11.1,0,,,20593.1,48.56,-0.42,0.55,-0.47,2.9,7.5,1.0,34.94,,,,,,,,,,
15.14.03.713,129.3,32.3,0,,,20593.1,48.56,-0.71,0.1,-0.09,9.6,21.5,-3.1,35.09,,,,,,,,,,
15.14.03.722,127.1,31.8,0,,,20593.1,48.56,-0.56,0.19,-0.63,-3.3,21.3,-7.9,34.53,,,,,,,,,,
15.14.03.730,124.7,31.2,0,,,20593.1,48.56,-0.52,0.43,-0.07,10.3,-31.7,2.6,34.76,,,,,,,,,,
15.14.03.740,72.2,18.0,0,,,20593.1,48.56,-0.78,0.49,-0.09,10.1,-4.8,-2.1,34.58,,,,,,,,,,
15.14.03.751,28.9,7.2,0,,,20597.3,48.55,-0.36,0.69,-0.21,-2.3,6.8,3.4,34.51,,,,,,,,,,
15.14.03.760,-31.4,7.8,0,,,20597.3,48.55,-0.69,0.75,0.01,-6.8,-16.4,-14.9,35.0,,,,,,,,,,
15.14.03.769,0.5,0.1,0,,,20597.3,48.55,-0.86,0.34,-0.51,23.7,7.8,-6.5,34.89,,,,,,,,,,
15.14.03.779,21.8,5.4,0,,,20597.3,48.55,-0.46,0.99,0.69,-12.3,-7.6,-17.7,35.34,,,,,,,,,,
15.14.03.790,-72.5,18.1,0,,,20597.3,48.55,-0.75,0.53,0.22,-6.8,-6.4,16.4,34.79,,,,,,,,,,
15.14.03.800,-36.5,9.1,0,,,20597.3,48.55,-0.75,0.07,-0.41,-17.2,20.0,21.4,35.33,,,,,,,,,,
15.14.03.812,-47.1,11.8,1,10.0,149.6,20601.6,48.54,-0.32,0.57,0.18,6.5,8.4,14.9,35.48,,,,,,,,,,
15.14.03.821,-38.3,9.6,0,,,20601.6,48.54,-0.55,0.93,-0.36,-16.5,18.7,2.0,35.08,,,,,,,,,,
15.14.03.829,-49.4,12.4,0,,,20601.6,48.54,-0.9,0.55,0.02,36.3,-3.9,-4.1,35.11,,,,,,,,,,
15.14.03.840,-55.1,13.8,0,,,20601.6,48.54,-0.87,0.7,-0.11,18.3,15.2,2.8,34.95,,,,,,,,,,
15.14.03.851,,,0,,,,,,,,,,,,,,,,,,,,,
15.14.03.860,-86.4,21.6,0,,,20601.6,48.54,-0.24,0.68,0.23,8.8,6.1,-25.8,34.85,,,,,,,,,,
15.14.03.870,-78.7,19.7,0,,,20605.8,48.53,-0.29,0.41,1.35,8.8,22.9,-16.2,35.43,,,,,,,,,,
15.14.03.878,-74.0,18.5,0,,,20605.8,48.53,-0.3,0.77,0.03,3.6,-31.5,-3.2,34.72,,,,,,,,,,
15.14.03.888,-125.5,31.4,0,,,20605.8,48.53,-0.36,0.46,-0.18,-31.8,20.4,10.5,35.34,,,,,,,,,,
15.14.03.897,-116.9,29.2,0,,,20605.8,48.53,-0.71,0.52,0.01,24.8,0.7,-16.2,34.7,,,,,,,,,,
15.14.03.907,-97.3,24.3,0,,,20605.8,48.53,-0.35,0.83,0.87,-36.3,9.8,-14.5,34.83,,,,,,,,,,
15.14.03.918,-159.7,39.9,0,,,20605.8,48.53,-0.03,0.77,0.33,8.7,6.5,6.8,34.81,,,,,,,,,,
15.14.03.927,-211.1,52.8,0,,,20610.1,48.52,-0.64,-0.38,0.54,-26.4,9.7,-5.4,34.74,,,,,,,,,,
15.14.03.938,,,0,,,,,,,,,,,,,,,,,,,,,
15.14.03.947,-150.3,37.6,0,,,20610.1,48.52,-0.51,0.22,0.52,-38.5,4.2,8.3,35.47,,,,,,,,,,
15.14.03.957,-210.9,52.7,0,,,20610.1,48.52,0.09,0.08,1.07,-10.6,-11.7,-7.8,35.33,,,,,,,,,,
15.14.03.967,-245.7,61.4,0,,,20610.1,48.52,-0.48,-0.46,0.81,3.4,13.6,-10.9,34.79,,,,,,,,,,
15.14.03.977,101.0,25.2,0,,,20610.1,48.52,-0.39,0.78,-0.13,10.5,-12.0,8.3,35.33,,,,,,,,,,
15.14.03.987,265.1,66.3,0,,,20614.3,48.51,-0.37,-0.0,1.16,-21.3,27.8,0.9,35.15,,,,,,,,,,
15.14.03.999,269.2,67.3,0,,,20614.3,48.51,-0.22,-0.16,-0.1,45.2,-18.2,-6.0,34.65,,,,,,,,,,
15.14.04.009,315.6,78.9,0,,,20614.3,48.51,-0.32,0.39,-0.06,-7.7,24.5,-7.5,35.3,,,,,,,,,,
15.14.04.021,385.9,96.5,0,,,20614.3,48.51,-0.69,-0.33,0.52,-18.2,24.4,14.6,35.71,,,,,,,,,,
15.14.04.031,524.1,131.0,0,,,20614.3,48.51,-0.67,0.53,0.01,-18.4,-8.9,-11.2,34.5,,,,,,,,,,
15.14.04.041,519.4,129.8,0,,,20614.3,48.51,-0.69,-0.3,-0.03,-21.0,28.4,17.9,35.28,,,,,,,,,,
15.14.04.050,537.4,134.4,0,,,20614.3,48.51,-0.97,0.47,-0.06,39.5,21.7,3.9,35.09,,,,,,,,,,
15.14.04.059,427.3,106.8,0,,,20614.3,48.51,-0.78,-0.34,-0.72,-16.8,0.7,11.4,34.48,,,,,,,,,,
15.14.04.068,412.6,103.2,0,,,20614.3,48.51,-0.34,0.04,-0.52,-4.7,6.1,-15.0,34.94,,,,,,,,,,
15.14.04.077,382.6,95.6,0,,,20614.3,48.51,-0.93,0.89,1.02,-0.4,3.8,7.9,35.18,,,,,,,,,,
15.14.04.089,380.2,95.0,0,,,20614.3,48.51,-0.54,0.29,-0.21,-6.6,-12.3,-4.9,34.85,,,,,,,,,,
15.14.04.100,235.0,58.8,0,,,20614.3,48.51,-0.88,0.8,-1.3,13.9,6.9,1.0,34.72,,,,,,,,,,
15.14.04.111,124.7,31.2,0,,,20614.3,48.51,-0.72,0.97,0.01,-6.6,20.6,0.8,35.29,,,,,,,,,,
15.14.04.122,6.9,1.7,0,,,20614.3,48.51,-0.74,1.57,-0.06,-35.8,2.6,3.2,34.75,,,,,,,,,,
15.14.04.130,35.2,8.8,0,,,20618.6,48.5,-0.68,-0.12,-0.9,-14.6,2.8,-15.7,34.67,,,,,,,,,,
15.14.04.138,82.9,20.7,0,,,20618.6,48.5,-0.9,1.06,0.21,-4.8,23.5,5.5,35.32,,,,,,,,,,
15.14.04.146,28.8,7.2,1,11.0,179.6,20618.6,48.5,-0.89,0.58,0.76,8.4,9.1,-9.9,34.97,,,,,,,,,,
15.14.04.156,47.8,12.0,0,,,20618.6,48.5,-0.7,0.44,0.36,33.4,-7.9,-0.7,35.56,,,,,,,,,,
15.14.04.164,95.7,23.9,0,,,20618.6,48.5,-0.32,0.96,0.68,-10.7,15.9,-1.6,35.28,,,,,,,,,,
15.14.04.175,72.1,18.0,0,,,20618.6,48.5,-0.54,1.18,-0.21,-5.6,29.8,23.2,35.16,,,,,,,,,,
15.14.04.186,81.9,20.5,0,,,20618.6,48.5,-0.6,1.18,0.03,-0.1,5.1,-1.5,34.51,,,,,,,,,,
15.14.04.197,78.8,19.7,0,,,20618.6,48.5,-0.81,1.19,0.5,6.2,-3.0,3.7,35.18,,,,,,,,,,
15.14.04.206,30.2,7.6,0,,,20618.6,48.5,-0.77,0.31,0.22,17.6,-13.6,7.0,35.26,,,,,,,,,,
15.14.04.215,-7.1,1.8,0,,,20618.6,48.5,-0.25,0.69,0.52,7.9,-1.7,7.1,34.69,,,,,,,,,,
15.14.04.225,22.5,5.6,0,,,20618.6,48.5,-0.33,0.77,1.22,-17.4,9.4,4.2,35.56,,,,,,,,,,
15.14.04.235,-39.8,10.0,0,,,20618.6,48.5,-0.26,0.59,0.77,20.8,19.8,5.2,35.01,,,,,,,,,,
15.14.04.245,-45.9,11.5,0,,,20618.6,48.5,0.07,0.73,1.11,40.7,-7.2,-8.4,35.15,,,,,,,,,,
15.14.04.256,-82.0,20.5,0,,,20618.6,48.5,-0.01,0.69,0.79,31.3,12.6,-3.0,34.5,,,,,,,,,,
15.14.04.263,-82.2,20.6,0,,,20618.6,48.5,-0.32,-0.15,1.28,-2.4,-9.8,-14.4,35.16,,,,,,,,,,
15.14.04.273,-65.0,16.2,0,,,20618.6,48.5,-0.31,0.99,0.84,-17.7,21.2,5.3,35.06,,,,,,,,,,
15.14.04.284,-125.1,31.3,0,,,20618.6,48.5,-0.5,0.81,1.52,-31.1,-0.7,-7.0,35.32,,,,,,,,,,
15.14.04.293,-123.2,30.8,0,,,20618.6,48.5,-0.34,0.19,0.85,-10.4,17.0,1.4,35.21,,,,,,,,,,
15.14.04.303,-86.2,21.6,0,,,20618.6,48.5,-0.22,-0.31,0.55,1.6,-16.1,5.9,35.01,,,,,,,,,,
15.14.04.311,-58.8,14.7,0,,,20618.6,48.5,-0.63,-0.28,0.77,14.8,7.0,-20.8,35.06,,,,,,,,,,
15.14.04.322,-109.9,27.5,0,,,20618.6,48.5,-0.07,-0.45,0.47,38.9,22.7,-17.8,34.98,,,,,,,,,,
15.14.04.331,-125.0,31.2,0,,,20618.6,48.5,-0.37,0.2,1.37,-15.0,23.0,9.8,34.81,,,,,,,,,,
15.14.04.340,-178.4,44.6,0,,,20622.8,48.49,-0.89,0.07,1.39,-16.5,-31.0,-10.5,34.83,,,,,,,,,,
15.14.04.351,-167.1,41.8,0,,,20622.8,48.49,-0.43,0.51,0.57,3.8,8.8,-11.9,34.88,,,,,,,,,,
15.14.04.360,-151.6,37.9,0,,,20622.8,48.49,-0.49,-0.37,-0.07,15.6,-6.8,-14.5,34.95,,,,,,,,,,
15.14.04.370,-152.9,38.2,0,,,20622.8,48.49,-0.55,-0.25,-0.37,-43.1,31.4,-9.3,34.95,,,,,,,,,,
15.14.04.378,-182.1,45.5,0,,,20622.8,48.49,-0.44,-0.33,-0.42,-17.4,13.8,-1.8,34.73,,,,,,,,,,
15.14.04.391,-204.2,51.0,0,,,20622.8,48.49,-0.75,0.57,0.15,15.3,-10.8,-13.6,34.91,,,,,,,,,,
15.14.04.403,-270.5,67.6,0,,,20622.8,48.49,-0.68,0.51,0.42,20.3,25.4,4.9,34.75,,,,,,,,,,
15.14.04.413,142.2,35.6,0,,,20622.8,48.49,-0.55,-0.27,-1.47,-6.4,-5.3,10.3,34.96,,,,,,,,,,
15.14.04.423,136.6,34.2,0,,,20622.8,48.49,-0.72,0.04,0.17,23.5,13.0,12.4,34.77,,,,,,,,,,
15.14.04.433,234.2,58.6,0,,,20622.8,48.49,-0.5,-0.18,-0.03,7.2,-8.3,-14.3,34.73,,,,,,,,,,
15.14.04.441,381.7,95.4,0,,,20622.8,48.49,-0.68,0.61,-0.07,-11.9,12.0,-15.0,34.68,,,,,,,,,,
15.14.04.449,386.6,96.6,0,,,20622.8,48.49,-0.81,0.9,-0.12,18.2,17.5,-0.9,34.55,,,,,,,,,,
15.14.04.458,492.4,123.1,0,,,20622.8,48.49,-0.56,0.55,-0.91,3.2,24.3,6.9,34.54,,,,,,,,,,
15.14.04.466,529.7,132.4,0,,,20622.8,48.49,-0.67,0.34,-0.55,13.1,-3.5,-5.6,34.65,,,,,,,,,,
15.14.04.475,411.1,102.8,0,,,20622.8,48.49,-0.66,0.98,-0.68,-15.9,2.9,6.9,34.84,,,,,,,,,,
15.14.04.485,510.0,127.5,1,12.0,177.0,20622.8,48.49,-0.49,0.52,0.28,3.9,-1.8,10.9,35.29,,,,,,,,,,
15.14.04.497,461.0,115.2,0,,,20622.8,48.49,-0.64,1.05,0.02,39.5,20.7,3.7,34.69,,,,,,,,,,
15.14.04.504,397.5,99.4,0,,,20622.8,48.49,-0.76,0.6,-0.54,-9.0,1.4,-11.1,35.15,,,,,,,,,,
15.14.04.513,383.4,95.8,0,,,20622.8,48.49,-0.69,0.51,-0.74,4.0,16.6,-23.2,34.91,,,,,,,,,,
15.14.04.523,355.2,88.8,0,,,20622.8,48.49,-0.23,0.46,-0.13,4.6,12.4,-9.7,34.75,,,,,,,,,,
15.14.04.533,181.5,45.4,0,,,20622.8,48.49,-0.88,0.55,0.56,-0.4,-22.5,-6.5,35.1,,,,,,,,,,
15.14.04.543,120.1,30.0,0,,,20622.8,48.49,-0.49,1.81,0.17,5.9,27.2,-15.6,35.0,,,,,,,,,,
15.14.04.550,42.6,10.6,0,,,20627.1,48.48,-0.55,1.13,-0.19,-27.6,7.7,-13.1,34.59,,,,,,,,,,
15.14.04.561,-35.9,9.0,0,,,20627.1,48.48,-0.58,0.95,0.72,15.6,6.3,2.9,35.09,,,,,,,,,,
15.14.04.572,14.5,3.6,0,,,20627.1,48.48,-0.19,0.64,0.8,3.2,-10.9,-5.4,34.2,,,,,,,,,,
15.14.04.581,62.4,15.6,0,,,20627.1,48.48,-0.49,0.19,0.45,9.6,17.0,9.4,35.32,,,,,,,,,,
15.14.04.591,60.9,15.2,0,,,20627.1,48.48,-0.84,0.52,0.33,-23.6,2.0,-12.7,34.82,,,,,,,,,,
15.14.04.601,74.8,18.7,0,,,20627.1,48.48,-0.21,0.73,0.55,-4.1,21.0,2.6,35.24,,,,,,,,,,
15.14.04.611,37.7,9.4,0,,,20627.1,48.48,-0.09,0.64,0.32,20.0,24.0,-12.8,34.95,,,,,,,,,,
15.14.04.621,97.2,24.3,0,,,20627.1,48.48,-0.42,0.57,1.47,1.2,7.3,-14.1,35.5,,,,,,,,,,
15.14.04.633,12.4,3.1,0,,,20627.1,48.48,-0.35,0.42,0.76,-11.7,6.3,-18.0,35.53,,,,,,,,,,
15.14.04.643,-70.6,17.6,0,,,20627.1,48.48,-0.06,-0.01,0.34,26.5,-10.7,-26.2,35.13,,,,,,,,,,
15.14.04.651,4.9,1.2,0,,,20627.1,48.48,-0.49,0.38,0.78,-15.9,19.6,2.3,34.84,,,,,,,,,,
15.14.04.660,-39.5,9.9,0,,,20627.1,48.48,-0.49,-0.14,0.18,6.9,6.3,-31.2,34.97,,,,,,,,,,
15.14.04.670,-114.3,28.6,0,,,20627.1,48.48,-0.32,-0.35,0.83,-27.8,7.4,-10.2,35.03,,,,,,,,,,
15.14.04.680,-60.6,15.2,0,,,20627.1,48.48,-0.4,0.38,0.56,-54.6,-13.0,-11.5,35.31,,,,,,,,,,
15.14.04.689,-90.4,22.6,0,,,20627.1,48.48,-0.42,-0.26,0.06,7.7,3.5,-5.4,35.16,,,,,,,,,,
15.14.04.701,-89.4,22.4,0,,,20627.1,48.48,-0.5,0.24,0.64,12.5,3.4,4.0,34.68,,,,,,,,,,
15.14.04.710,-96.8,24.2,0,,,20627.1,48.48,-0.34,0.08,0.53,44.3,-13.1,-3.4,34.87,,,,,,,,,,
15.14.04.720,-10.2,2.6,0,,,20627.1,48.48,-0.81,-0.55,-0.03,15.9,-18.9,13.2,35.05,,,,,,,,,,
15.14.04.728,-152.1,38.0,0,,,20627.1,48.48,-0.69,0.12,-0.65,23.6,4.1,-11.5,35.48,,,,,,,,,,
15.14.04.740,-106.5,26.6,0,,,20627.1,48.48,-0.5,0.54,0.31,-17.3,21.1,2.2,35.5,,,,,,,,,,
15.14.04.751,-121.0,30.2,0,,,20627.1,48.48,-0.5,0.05,0.38,20.8,20.0,17.9,34.89,,,,,,,,,,
15.14.04.762,-133.9,33.5,0,,,20631.3,48.47,-0.76,0.18,-0.41,-17.6,-1.7,3.5,34.88,,,,,,,,,,
15.14.04.773,-176.6,44.2,0,,,20631.3,48.47,-0.69,0.55,-0.92,-31.9,19.2,3.7,35.26,,,,,,,,,,
15.14.04.782,-146.6,36.6,0,,,20631.3,48.47,-0.95,0.3,-0.33,-0.3,2.1,1.7,34.73,,,,,,,,,,
15.14.04.793,-150.1,37.5,0,,,20631.3,48.47,-1.05,0.56,0.44,23.5,28.3,-18.3,35.18,,,,,,,,,,
15.14.04.800,-165.4,41.4,0,,,20631.3,48.47,-0.99,-0.11,-0.31,-14.7,4.1,16.7,34.83,,,,,,,,,,
15.14.04.810,-209.4,52.4,0,,,20631.3,48.47,-0.55,0.39,0.41,-3.2,-16.6,3.3,34.66,,,,,,,,,,
15.14.04.819,-219.6,54.9,1,13.0,179.6,20631.3,48.47,-0.46,1.35,-0.08,26.0,21.5,19.3,35.21,,,,,,,,,,
15.14.04.829,-114.7,28.7,0,,,20631.3,48.47,-1.07,1.1,0.52,13.6,-7.9,9.9,35.73,,,,,,,,,,
15.14.04.839,-160.5,40.1,0,,,20631.3,48.47,-0.61,0.6,-0.55,23.9,21.1,18.6,35.69,,,,,,,,,,
15.14.04.847,82.1,20.5,0,,,20631.3,48.47,-0.19,0.45,-0.36,-16.4,17.0,0.6,35.02,,,,,,,,,,
15.14.04.856,190.4,47.6,0,,,20631.3,48.47,-0.46,0.5,0.7,-16.1,-4.6,-9.9,34.41,,,,,,,,,,
15.14.04.867,231.5,57.9,0,,,20631.3,48.47,-0.41,0.65,0.2,0.2,36.0,14.6,35.25,,,,,,,,,,
15.14.04.879,344.9,86.2,0,,,20631.3,48.47,-0.82,0.87,-0.36,5.1,1.6,-9.7,34.44,,,,,,,,,,
15.14.04.887,376.6,94.2,0,,,20631.3,48.47,-0.46,0.71,0.77,15.1,-13.3,-12.6,35.16,,,,,,,,,,
15.14.04.896,433.7,108.4,0,,,20631.3,48.47,-0.7,1.17,0.96,-21.6,-2.6,22.5,35.01,,,,,,,,,,
15.14.04.904,446.5,111.6,0,,,20631.3,48.47,-0.03,0.5,0.64,13.7,0.7,1.3,34.87,,,,,,,,,,
15.14.04.915,497.6,124.4,0,,,20631.3,48.47,-0.14,0.59,0.08,30.4,38.4,-5.7,35.57,,,,,,,,,,
15.14.04.925,452.5,113.1,0,,,20631.3,48.47,-0.47,0.95,0.0,-15.5,27.5,-4.2,35.06,,,,,,,,,,
15.14.04.933,477.6,119.4,0,,,20631.3,48.47,0.02,0.96,0.16,-15.4,11.7,4.2,35.16,,,,,,,,,,
15.14.04.943,440.7,110.2,0,,,20631.3,48.47,-0.36,0.91,0.55,9.4,18.7,5.0,34.93,,,,,,,,,,
15.14.04.954,395.9,99.0,0,,,20631.3,48.47,0.01,0.16,1.83,-28.5,-5.3,1.6,34.75,,,,,,,,,,
15.14.04.963,,,0,,,,,,,,,,,,,,,,,,,,,
15.14.04.972,214.5,53.6,0,,,20635.6,48.46,-0.5,0.65,-0.26,-4.7,26.4,-9.1,35.18,,,,,,,,,,
15.14.04.981,156.2,39.0,0,,,20635.6,48.46,-0.67,0.63,0.77,18.0,21.2,-5.2,34.75,,,,,,,,,,
15.14.04.990,18.4,4.6,0,,,20635.6,48.46,-0.58,0.29,0.16,-4.9,29.9,22.7,35.23,,,,,,,,,,
15.14.04.997,19.2,4.8,0,,,20635.6,48.46,-0.57,-1.0,0.75,-11.9,14.0,-3.9,35.09,,,,,,,,,,
15.14.05.009,38.6,9.6,0,,,20635.6,48.46,-0.03,-0.43,1.19,8.6,-30.5,6.0,34.82,139.5,,,,,,,,,
15.14.05.018,26.2,6.6,0,,,20635.6,48.46,-0.29,0.54,0.07,0.1,-16.6,8.5,35.21,,,,,,,,,,
15.14.05.026,72.6,18.2,0,,,20635.6,48.46,-0.06,0.1,0.37,-9.3,26.6,3.4,34.73,,,,,,,,,,
15.14.05.035,125.2,31.3,0,,,20635.6,48.46,-0.39,-0.69,1.13,-23.4,22.1,-4.4,34.4,,,,,,,,,,
15.14.05.046,101.6,25.4,0,,,20635.6,48.46,-0.59,0.34,0.04,8.1,17.9,2.5,35.24,,,,,,,,,,
15.14.05.057,105.1,26.3,0,,,20635.6,48.46,-0.54,-0.12,-0.16,-29.8,21.5,-3.1,34.55,,,,,,,,,,
15.14.05.066,20.9,5.2,0,,,20635.6,48.46,-0.75,0.35,0.02,25.9,34.2,0.8,35.29,,,,,,,,,,
15.14.05.076,-27.7,6.9,0,,,20635.6,48.46,-0.21,0.46,0.96,28.9,5.6,12.1,34.87,,,,,,,,,,
15.14.05.087,-25.6,6.4,0,,,20635.6,48.46,-0.57,0.58,0.59,7.1,17.1,4.8,34.77,,,,,,,,,,
15.14.05.097,-38.9,9.7,0,,,20635.6,48.46,-0.21,-0.2,-0.14,9.9,-3.8,9.2,34.99,,,,,,,,,,
15.14.05.105,-22.4,5.6,0,,,20635.6,48.46,-0.53,0.36,0.39,32.7,1.3,7.1,35.13,,,,,,,,,,
15.14.05.116,-27.6,6.9,0,,,20635.6,48.46,-0.34,-0.24,0.2,20.0,-13.3,1.7,35.12,,,,,,,,,,
15.14.05.125,-39.0,9.8,0,,,20635.6,48.46,-1.03,0.6,-0.01,7.5,-8.5,-16.5,35.21,,,,,,,,,,
15.14.05.134,-80.4,20.1,0,,,20639.8,48.45,-0.65,0.32,-0.27,18.0,6.1,-1.4,34.74,,,,,,,,,,
15.14.05.144,-64.9,16.2,0,,,20639.8,48.45,-1.24,0.42,-0.37,8.8,9.8,-0.3,34.78,,,,,,,,,,
15.14.05.154,-140.2,35.0,0,,,20639.8,48.45,-0.88,0.48,0.19,4.0,34.1,-5.0,35.14,,,,,,,,,,
15.14.05.162,-96.7,24.2,0,,,20639.8,48.45,-0.87,0.29,-0.15,-16.3,1.7,-13.5,35.17,,,,,,,,,,
15.14.05.172,-93.9,23.5,0,,,20639.8,48.45,-0.78,1.11,-1.57,18.8,-10.5,8.2,34.79,,,,,,,,,,
15.14.05.181,-61.6,15.4,0,,,20639.8,48.45,-0.72,-0.02,0.26,-24.2,-10.6,-4.8,35.03,,,,,,,,,,
15.14.05.191,-131.0,32.8,0,,,20639.8,48.45,-0.85,1.01,-0.79,-5.9,36.8,-11.4,34.9,,,,,,,,,,
15.14.05.201,-74.2,18.6,0,,,20639.8,48.45,-0.71,0.86,-0.62,-23.6,22.4,-25.9,34.85,,,,,,,,,,
15.14.05.213,-112.6,28.2,0,,,20639.8,48.45,-0.61,1.13,0.53,21.7,0.0,-14.5,34.47,,,,,,,,,,
15.14.05.223,-135.2,33.8,1,14.0,148.5,20639.8,48.45,-0.28,0.74,-0.39,13.3,13.9,-8.1,35.07,,,,,,,,,,
15.14.05.234,-133.8,33.4,0,,,20639.8,48.45,-0.45,0.92,0.42,-26.2,21.7,-28.6,35.25,,,,,,,,,,
15.14.05.244,-194.8,48.7,0,,,20639.8,48.45,-0.43,0.79,0.58,6.2,17.2,3.8,35.15,,,,,,,,,,
15.14.05.253,-142.9,35.7,0,,,20639.8,48.45,-0.84,0.69,0.39,-5.1,7.9,5.4,34.96,,,,,,,,,,
15.14.05.263,-201.0,50.2,0,,,20639.8,48.45,-0.4,0.87,0.24,36.7,25.1,15.8,35.44,,,,,,,,,,
15.14.05.271,-183.6,45.9,0,,,20639.8,48.45,-0.03,-0.09,1.13,-11.9,-4.8,-1.9,35.0,,,,,,,,,,
15.14.05.280,32.3,8.1,0,,,20639.8,48.45,-0.19,0.67,0.56,-9.4,-2.2,8.9,34.83,,,,,,,,,,
15.14.05.287,125.8,31.4,0,,,20644.1,48.44,-0.5,0.94,0.07,17.6,0.2,4.1,35.07,,,,,,,,,,
15.14.05.295,166.3,41.6,0,,,20644.1,48.44,0.13,0.58,0.52,-11.5,-18.5,-10.9,35.04,,,,,,,,,,
15.14.05.305,273.4,68.4,0,,,20644.1,48.44,-0.18,0.64,1.31,3.1,-7.6,9.8,34.61,,,,,,,,,,
15.14.05.316,397.3,99.3,0,,,20644.1,48.44,-0.33,1.03,0.11,-11.5,10.5,-18.1,35.03,,,,,,,,,,
15.14.05.326,405.8,101.4,0,,,20644.1,48.44,-0.09,-0.05,0.23,-21.9,19.2,17.1,34.88,,,,,,,,,,
15.14.05.336,475.6,118.9,0,,,20644.1,48.44,0.01,0.5,1.2,-6.8,11.1,-14.6,34.91,,,,,,,,,,
15.14.05.345,435.3,108.8,0,,,20644.1,48.44,-0.29,-0.44,0.12,6.7,24.6,-4.5,34.84,,,,,,,,,,
15.14.05.357,522.0,130.5,0,,,20644.1,48.44,-0.29,0.79,0.62,8.7,1.1,-4.2,35.04,,,,,,,,,,
15.14.05.368,447.9,112.0,0,,,20644.1,48.44,-0.31,0.25,0.67,-16.3,15.5,-1.5,35.54,,,,,,,,,,
15.14.05.377,463.3,115.8,0,,,20644.1,48.44,-0.37,0.16,0.4,-7.6,6.0,-2.1,35.22,,,,,,,,,,
15.14.05.388,418.0,104.5,0,,,20644.1,48.44,-0.29,0.3,-0.26,6.0,-6.7,-22.2,34.7,,,,,,,,,,
15.14.05.397,311.9,78.0,0,,,20644.1,48.44,-0.47,0.29,0.56,-10.4,16.3,22.0,35.26,,,,,,,,,,
15.14.05.407,230.0,57.5,0,,,20644.1,48.44,0.03,-0.32,0.75,11.0,37.8,-5.2,34.98,,,,,,,,,,
15.14.05.417,134.5,33.6,0,,,20644.1,48.44,-0.9,0.32,0.24,21.3,-18.0,-0.5,34.64,,,,,,,,,,
15.14.05.427,25.3,6.3,0,,,20644.1,48.44,-0.32,0.05,0.44,23.2,-1.0,1.2,35.24,,,,,,,,,,
15.14.05.438,39.1,9.8,0,,,20644.1,48.44,-0.37,-0.08,0.65,2.4,5.5,-18.4,34.93,,,,,,,,,,
15.14.05.444,66.1,16.5,0,,,20648.4,48.43,-0.34,-0.09,-0.05,11.8,-20.4,10.9,35.19,,,,,,,,,,
15.14.05.454,42.1,10.5,0,,,20648.4,48.43,-0.99,0.05,-0.66,28.4,-20.6,-5.2,35.12,,,,,,,,,,
15.14.05.464,160.4,40.1,0,,,20648.4,48.43,-0.54,-0.34,-0.79,7.1,-4.2,24.9,34.78,,,,,,,,,,
15.14.05.472,99.4,24.8,0,,,20648.4,48.43,-0.63,0.47,0.18,-20.2,-12.1,-32.7,35.34,,,,,,,,,,
15.14.05.479,93.3,23.3,0,,,20648.4,48.43,-0.73,0.72,-0.48,15.2,24.5,-5.3,34.98,,,,,,,,,,
15.14.05.490,79.3,19.8,0,,,20648.4,48.43,-0.15,0.85,-0.76,-16.7,29.3,-12.3,35.47,,,,,,,,,,
15.14.05.500,37.1,9.3,0,,,20648.4,48.43,-1.14,0.92,-1.56,27.5,-26.8,-24.9,35.21,,,,,,,,,,
15.14.05.510,33.4,8.4,0,,,20648.4,48.43,-0.86,0.22,-0.31,-11.2,-4.4,-3.8,34.92,,,,,,,,,,
15.14.05.520,-2.6,0.6,0,,,20648.4,48.43,-0.74,1.18,-1.15,-17.4,5.7,-6.7,35.32,,,,,,,,,,
15.14.05.530,-33.3,8.3,0,,,20648.4,48.43,-0.14,0.56,0.01,-37.4,8.5,15.8,35.1,,,,,,,,,,
15.14.05.537,-12.3,3.1,0,,,20648.4,48.43,-0.65,0.87,0.59,-35.4,-22.2,-11.2,34.87,,,,,,,,,,
15.14.05.547,-35.3,8.8,0,,,20648.4,48.43,-0.24,0.08,0.95,19.1,11.4,-8.6,35.11,,,,,,,,,,
15.14.05.557,-47.7,11.9,0,,,20648.4,48.43,-0.59,0.51,1.07,18.8,-3.2,-7.7,34.73,,,,,,,,,,
15.14.05.566,-9.4,2.4,0,,,20648.4,48.43,-0.79,0.63,-0.16,-28.9,11.0,-15.3,34.67,,,,,,,,,,
15.14.05.577,-19.5,4.9,0,,,20648.4,48.43,-0.44,1.11,-0.04,-8.6,6.4,7.8,35.24,,,,,,,,,,
15.14.05.586,-26.7,6.7,0,,,20648.4,48.43,-0.31,1.3,0.54,-0.7,9.5,13.3,34.9,,,,,,,,,,
15.14.05.595,-33.9,8.5,0,,,20652.6,48.42,-0.26,0.64,0.19,4.3,-17.3,-6.2,35.11,,,,,,,,,,
15.14.05.603,-59.2,14.8,1,15.0,157.9,20652.6,48.42,-0.43,1.51,0.99,-0.9,-14.9,-3.4,35.29,,,,,,,,,,
15.14.05.613,-95.5,23.9,0,,,20652.6,48.42,-0.24,0.62,1.07,13.4,-0.5,20.6,34.98,,,,,,,,,,
15.14.05.623,-137.6,34.4,0,,,20652.6,48.42,0.3,0.69,0.71,-1.8,15.4,-9.6,34.61,,,,,,,,,,
15.14.05.633,-86.6,21.6,0,,,20652.6,48.42,-0.68,-0.18,0.12,-13.7,-0.8,-2.4,35.0,,,,,,,,,,
15.14.05.641,-104.5,26.1,0,,,20652.6,48.42,-0.51,0.79,1.3,9.0,7.2,4.3,34.95,,,,,,,,,,
15.14.05.651,-185.4,46.4,0,,,20652.6,48.42,0.33,0.58,0.51,-10.5,9.5,4.4,34.9,,,,,,,,,,
15.14.05.662,-141.5,35.4,0,,,20652.6,48.42,-0.09,-0.14,0.46,12.5,2.8,0.5,34.96,,,,,,,,,,
15.14.05.673,-153.6,38.4,0,,,20652.6,48.42,-0.03,0.02,0.68,-26.5,28.7,12.1,35.45,,,,,,,,,,
15.14.05.684,-190.3,47.6,0,,,20652.6,48.42,-0.06,-0.3,0.55,9.4,1.8,10.0,35.32,,,,,,,,,,
15.14.05.691,-165.7,41.4,0,,,20652.6,48.42,-0.49,-0.11,1.3,2.3,-7.4,-12.7,35.0,,,,,,,,,,
15.14.05.703,-183.4,45.8,0,,,20652.6,48.42,-0.47,0.4,0.51,-4.0,-15.0,-4.2,34.85,,,,,,,,,,
15.14.05.712,-12.2,3.0,0,,,20652.6,48.42,-0.02,-0.16,1.0,15.2,-7.1,-21.7,34.83,,,,,,,,,,
15.14.05.722,93.1,23.3,0,,,20652.6,48.42,-0.53,0.45,-0.3,5.2,-1.2,-1.2,34.88,,,,,,,,,,
15.14.05.731,219.4,54.8,0,,,20652.6,48.42,-0.38,-0.19,0.7,5.3,-6.2,1.2,34.69,,,,,,,,,,
15.14.05.740,272.7,68.2,0,,,20652.6,48.42,-0.51,0.36,0.46,14.9,7.1,18.4,35.08,,,,,,,,,,
15.14.05.749,313.6,78.4,0,,,20652.6,48.42,-0.57,0.4,0.5,-18.0,18.3,6.3,34.99,,,,,,,,,,
15.14.05.759,431.7,107.9,0,,,20656.9,48.41,-0.27,0.46,-0.92,15.7,-8.8,-15.6,35.26,,,,,,,,,,
15.14.05.769,427.2,106.8,0,,,20656.9,48.41,-0.74,-0.55,-0.78,-6.4,18.6,-6.3,34.97,,,,,,,,,,
15.14.05.779,412.8,103.2,0,,,20656.9,48.41,-1.24,0.47,-0.2,4.2,46.2,-5.2,35.03,,,,,,,,,,
15.14.05.787,536.3,134.1,0,,,20656.9,48.41,-0.84,0.37,0.71,-9.6,10.1,13.8,35.06,,,,,,,,,,
15.14.05.797,431.7,107.9,0,,,20656.9,48.41,-0.9,0.83,0.02,-24.1,15.9,-6.7,35.49,,,,,,,,,,
15.14.05.808,382.5,95.6,0,,,20656.9,48.41,-0.69,0.3,-1.62,3.5,2.4,0.8,35.68,,,,,,,,,,
15.14.05.818,433.8,108.4,0,,,20656.9,48.41,-0.67,0.75,0.46,-13.6,9.4,-4.7,35.89,,,,,,,,,,
15.14.05.828,346.7,86.7,0,,,20656.9,48.41,-0.61,0.45,-0.15,-6.3,-22.4,-17.6,35.44,,,,,,,,,,
15.14.05.838,241.7,60.4,0,,,20656.9,48.41,-0.83,0.89,-0.98,-11.1,-9.8,7.5,34.52,,,,,,,,,,
15.14.05.847,178.7,44.7,0,,,20656.9,48.41,-0.64,0.94,0.39,42.5,-17.0,8.3,35.04,,,,,,,,,,
15.14.05.857,64.7,16.2,0,,,20656.9,48.41,-0.77,0.78,-0.48,-5.8,-7.7,4.2,35.27,,,,,,,,,,
15.14.05.868,-11.2,2.8,0,,,20656.9,48.41,-0.65,0.79,-0.13,6.7,23.3,-15.6,35.09,,,,,,,,,,
15.14.05.878,30.0,7.5,0,,,20656.9,48.41,-0.28,0.93,-0.03,-2.2,-2.7,-11.4,35.13,,,,,,,,,,
15.14.05.891,130.5,32.6,0,,,20656.9,48.41,-0.81,0.46,-0.45,-18.7,14.3,-5.0,34.71,,,,,,,,,,
15.14.05.899,113.4,28.4,0,,,20656.9,48.41,-0.32,0.75,0.48,0.4,-10.5,-11.1,35.0,,,,,,,,,,
15.14.05.909,107.4,26.8,0,,,20661.2,48.4,-0.25,0.51,0.33,14.1,9.8,-9.7,34.74,,,,,,,,,,
15.14.05.920,53.2,13.3,0,,,20661.2,48.4,-0.26,0.77,0.61,-19.7,-17.9,-18.2,34.3,,,,,,,,,,
15.14.05.931,66.6,16.6,0,,,20661.2,48.4,-0.56,1.03,-0.29,12.3,23.7,-39.8,35.25,,,,,,,,,,
15.14.05.941,31.4,7.8,0,,,20661.2,48.4,-0.08,1.42,0.21,5.9,-2.9,-8.2,35.09,,,,,,,,,,
15.14.05.951,21.4,5.4,0,,,20661.2,48.4,-0.56,0.84,0.09,-7.9,22.4,11.4,35.05,,,,,,,,,,
15.14.05.959,-27.0,6.8,0,,,20661.2,48.4,-0.16,0.69,-0.03,-15.0,8.9,-1.9,34.86,,,,,,,,,,
15.14.05.970,-65.7,16.4,0,,,20661.2,48.4,-0.01,0.55,1.11,-15.6,-1.8,-18.1,34.85,,,,,,,,,,
15.14.05.979,-0.6,0.2,1,16.0,159.6,20661.2,48.4,-0.09,0.29,0.57,23.3,1.7,-12.8,34.5,,,,,,,,,,
15.14.05.988,-44.0,11.0,0,,,20661.2,48.4,-0.21,0.31,0.33,0.6,20.1,4.1,34.75,,,,,,,,,,
15.14.05.997,-45.3,11.3,0,,,20661.2,48.4,-0.37,0.02,0.65,-1.4,13.6,-10.1,34.9,,,,,,,,,,
15.14.06.006,-40.1,10.0,0,,,20661.2,48.4,-0.13,0.13,1.33,1.0,15.7,-18.2,35.23,,,,,,,,,,
15.14.06.015,-127.1,31.8,0,,,20661.2,48.4,-0.24,0.09,-0.08,27.3,-3.2,0.6,34.75,,,,,,,,,,
15.14.06.023,-97.0,24.2,0,,,20661.2,48.4,-0.33,0.3,0.31,15.6,-7.5,-23.2,35.36,,,,,,,,,,
15.14.06.031,-118.6,29.6,0,,,20665.4,48.39,-0.49,-0.02,0.93,-25.8,-1.0,27.8,35.14,,,,,,,,,,
15.14.06.041,-68.3,17.1,0,,,20665.4,48.39,-0.45,0.21,0.6,48.5,-20.1,-4.3,35.01,,,,,,,,,,
15.14.06.052,-46.4,11.6,0,,,20665.4,48.39,-0.09,0.32,-0.06,-28.2,2.4,18.9,35.4,,,,,,,,,,
15.14.06.061,-131.2,32.8,0,,,20665.4,48.39,0.05,0.06,-0.21,18.4,19.8,17.1,35.33,,,,,,,,,,
15.14.06.068,-84.1,21.0,0,,,20665.4,48.39,-0.14,0.05,0.2,-17.5,1.0,-2.4,35.31,,,,,,,,,,
15.14.06.078,-102.9,25.7,0,,,20665.4,48.39,0.11,-0.12,-0.14,-1.4,29.9,2.5,34.43,,,,,,,,,,
15.14.06.088,-162.3,40.6,0,,,20669.7,48.38,-0.26,0.62,0.04,49.7,-26.0,-3.5,34.84,,,,,,,,,,
15.14.06.096,-108.3,27.1,0,,,20669.7,48.38,-0.27,-0.17,-0.49,13.4,0.3,-13.4,34.84,,,,,,,,,,
15.14.06.106,-160.5,40.1,0,,,20669.7,48.38,-0.49,-0.23,-0.26,31.1,7.6,12.4,35.37,,,,,,,,,,
15.14.06.116,-186.7,46.7,0,,,20669.7,48.38,-0.5,-0.24,-0.14,-4.9,2.5,-11.2,35.03,,,,,,,,,,
15.14.06.127,-173.5,43.4,0,,,20669.7,48.38,-0.93,-0.18,0.31,27.0,-3.6,-10.3,34.99,,,,,,,,,,
15.14.06.138,-206.2,51.6,0,,,20669.7,48.38,-0.81,-0.19,-0.66,-42.4,5.9,-11.1,35.05,,,,,,,,,,
15.14.06.147,14.8,3.7,0,,,20674.0,48.37,-0.86,0.19,-0.72,9.3,2.1,0.7,34.78,,,,,,,,,,
15.14.06.157,113.4,28.4,0,,,20674.0,48.37,-0.7,0.09,-0.19,4.2,2.6,-6.0,34.99,,,,,,,,,,
15.14.06.166,258.2,64.6,0,,,20674.0,48.37,-0.35,0.36,-0.86,-20.5,-4.3,7.1,35.5,,,,,,,,,,
15.14.06.176,235.6,58.9,0,,,20674.0,48.37,-0.37,0.53,-0.8,7.7,-19.2,3.9,35.66,,,,,,,,,,
15.14.06.187,385.4,96.4,0,,,20674.0,48.37,-0.64,0.5,-0.14,-23.4,3.0,-6.9,34.85,,,,,,,,,,
15.14.06.196,345.0,86.2,0,,,20674.0,48.37,-1.02,0.47,-0.05,-17.2,4.9,-4.4,35.32,,,,,,,,,,
15.14.06.204,410.0,102.5,0,,,20678.2,48.36,-0.71,0.3,-0.19,2.0,-2.6,11.6,35.05,,,,,,,,,,
15.14.06.212,465.9,116.5,0,,,20678.2,48.36,-0.53,0.55,-0.36,6.0,3.1,-7.6,34.7,,,,,,,,,,
15.14.06.223,552.4,138.1,0,,,20678.2,48.36,-0.69,0.47,-1.34,-39.3,3.6,-17.7,35.48,,,,,,,,,,
15.14.06.232,415.3,103.8,0,,,20678.2,48.36,-0.71,1.09,-0.05,-23.8,11.0,13.2,35.18,,,,,,,,,,
15.14.06.241,527.9,132.0,0,,,20678.2,48.36,-0.3,1.2,-0.4,-10.6,-0.9,-16.0,35.02,,,,,,,,,,
15.14.06.249,436.1,109.0,0,,,20678.2,48.36,-0.61,0.13,-0.52,5.0,25.3,-4.6,35.39,,,,,,,,,,
15.14.06.258,336.5,84.1,0,,,20678.2,48.36,-0.45,1.05,0.14,23.8,-15.6,-10.2,35.31,,,,,,,,,,
15.14.06.269,264.3,66.1,0,,,20682.5,48.35,-0.04,0.74,-0.19,5.5,-13.5,-9.5,35.2,,,,,,,,,,
15.14.06.279,173.9,43.5,0,,,20682.5,48.35,-0.08,0.42,1.28,33.0,-9.6,-13.8,35.14,,,,,,,,,,
15.14.06.290,70.6,17.6,0,,,20682.5,48.35,-0.82,0.4,0.55,-19.9,2.2,6.9,35.22,,,,,,,,,,
15.14.06.299,4.2,1.0,0,,,20682.5,48.35,0.05,0.57,0.16,-12.6,0.9,-8.8,35.41,,,,,,,,,,
15.14.06.309,30.6,7.6,0,,,20682.5,48.35,-0.01,0.66,1.22,-27.5,2.7,-25.1,34.72,,,,,,,,,,
15.14.06.319,32.6,8.2,0,,,20682.5,48.35,-0.26,0.51,1.38,-13.5,17.5,5.8,34.86,,,,,,,,,,
15.14.06.329,-9.6,2.4,0,,,20686.8,48.34,-0.28,0.32,0.04,3.4,1.7,19.0,35.52,,,,,,,,,,
15.14.06.340,100.9,25.2,0,,,20686.8,48.34,-0.63,0.26,1.33,0.4,12.1,-28.9,34.72,,,,,,,,,,
15.14.06.351,77.6,19.4,0,,,20686.8,48.34,-0.26,-0.13,0.32,3.3,12.8,-14.5,34.99,,,,,,,,,,
15.14.06.359,65.7,16.4,0,,,20686.8,48.34,-0.48,-0.21,1.33,30.6,4.5,6.2,35.09,,,,,,,,,,
15.14.06.368,59.0,14.8,0,,,20686.8,48.34,-0.43,0.01,0.44,12.5,12.6,0.9,35.06,,,,,,,,,,
15.14.06.377,29.6,7.4,0,,,20686.8,48.34,0.15,0.17,0.71,31.3,1.1,-0.0,34.74,,,,,,,,,,
15.14.06.386,13.5,3.4,0,,,20691.1,48.33,-0.51,0.54,-0.07,40.2,0.7,-13.9,34.5,,,,,,,,,,
15.14.06.398,-30.6,7.6,1,17.0,143.2,20691.1,48.33,-0.19,-0.54,0.72,-18.6,6.5,-31.4,35.55,,,,,,,,,,
15.14.06.408,-51.6,12.9,0,,,20691.1,48.33,-0.36,0.81,0.19,15.2,3.3,8.8,35.33,,,,,,,,,,
15.14.06.417,3.4,0.8,0,,,20691.1,48.33,-0.37,-0.25,-0.02,-9.3,-10.5,19.4,35.06,,,,,,,,,,
15.14.06.426,-41.8,10.4,0,,,20691.1,48.33,-0.41,-0.24,-0.16,-12.8,19.1,-11.3,35.07,,,,,,,,,,
15.14.06.435,-55.2,13.8,0,,,20691.1,48.33,-0.57,-0.25,0.13,-44.9,-8.5,5.4,35.21,,,,,,,,,,
15.14.06.445,-109.3,27.3,0,,,20695.4,48.32,-0.57,-0.01,-0.28,9.1,18.7,-2.3,34.76,,,,,,,,,,
15.14.06.454,-89.9,22.5,0,,,20695.4,48.32,-0.04,0.26,0.95,-15.2,4.9,4.4,34.91,,,,,,,,,,
15.14.06.462,-94.6,23.6,0,,,20695.4,48.32,-0.68,-0.13,0.17,-20.6,-3.6,2.6,34.78,,,,,,,,,,
15.14.06.471,-44.7,11.2,0,,,20695.4,48.32,-0.63,0.23,-0.34,-12.0,-13.3,-7.3,34.53,,,,,,,,,,
15.14.06.480,-77.3,19.3,0,,,20695.4,48.32,-1.11,-0.03,0.26,33.8,18.8,2.3,35.25,,,,,,,,,,
15.14.06.490,-146.8,36.7,0,,,20695.4,48.32,-0.37,0.63,-0.01,-18.6,-8.5,-17.5,35.03,,,,,,,,,,
15.14.06.500,-130.6,32.6,0,,,20699.6,48.31,-0.74,-0.16,0.58,-14.6,3.4,-10.2,34.72,,,,,,,,,,
15.14.06.511,-133.6,33.4,0,,,20699.6,48.31,-0.57,0.1,-0.64,-29.8,17.5,-2.5,35.69,,,,,,,,,,
15.14.06.522,-160.1,40.0,0,,,20699.6,48.31,-0.63,0.73,-0.69,-38.4,-13.4,-4.8,34.92,,,,,,,,,,
15.14.06.531,-141.3,35.3,0,,,20699.6,48.31,-0.46,0.32,-0.36,21.5,2.8,-4.7,34.53,,,,,,,,,,
15.14.06.541,-160.1,40.0,0,,,20699.6,48.31,-1.01,0.32,-0.25,-0.6,0.9,3.3,35.2,,,,,,,,,,
15.14.06.549,-140.6,35.2,0,,,20699.6,48.31,-0.58,0.91,0.23,50.9,23.8,-7.6,34.89,,,,,,,,,,
15.14.06.556,-165.9,41.5,0,,,20699.6,48.31,-0.28,0.81,-0.15,-1.3,17.9,8.2,35.29,,,,,,,,,,
15.14.06.565,-164.3,41.1,0,,,20703.9,48.3,-0.75,0.66,0.28,4.7,-0.9,-13.6,34.78,,,,,,,,,,
15.14.06.575,-207.2,51.8,0,,,20703.9,48.3,-0.21,0.11,-1.22,-2.5,-4.7,5.5,34.52,,,,,,,,,,
15.14.06.583,51.8,13.0,0,,,20703.9,48.3,-0.34,0.73,0.96,6.9,13.0,3.7,34.71,,,,,,,,,,
15.14.06.593,118.3,29.6,0,,,20703.9,48.3,-0.66,0.71,0.37,1.2,13.7,-18.6,35.65,,,,,,,,,,
15.14.06.603,282.0,70.5,0,,,20703.9,48.3,-0.66,0.01,-0.19,5.8,5.1,22.8,34.58,,,,,,,,,,
15.14.06.612,324.5,81.1,0,,,20703.9,48.3,-0.63,0.85,0.79,21.1,-27.9,-0.9,35.27,,,,,,,,,,
15.14.06.622,375.3,93.8,0,,,20708.2,48.29,-0.16,1.11,1.11,6.6,12.9,-23.8,35.16,,,,,,,,,,
15.14.06.633,496.3,124.1,0,,,20708.2,48.29,-0.28,-0.27,0.32,9.1,7.5,11.6,35.52,,,,,,,,,,
15.14.06.641,488.4,122.1,0,,,20708.2,48.29,-0.12,0.56,0.6,-0.6,-2.9,-4.7,35.7,,,,,,,,,,
15.14.06.651,459.5,114.9,0,,,20708.2,48.29,-0.11,0.48,0.85,-3.1,18.3,-15.3,34.78,,,,,,,,,,
15.14.06.659,463.2,115.8,0,,,20708.2,48.29,-0.35,0.66,0.29,-27.2,16.9,5.0,35.03,,,,,,,,,,
15.14.06.671,470.4,117.6,0,,,20708.2,48.29,-0.09,0.69,0.21,-23.4,-0.4,-0.0,35.41,,,,,,,,,,
15.14.06.679,470.5,117.6,0,,,20712.5,48.28,0.36,0.65,0.53,7.7,12.8,0.4,34.84,,,,,,,,,,
15.14.06.688,467.4,116.8,0,,,20712.5,48.28,-0.17,0.1,1.07,17.3,-7.9,-5.1,35.48,,,,,,,,,,
15.14.06.699,251.1,62.8,0,,,20712.5,48.28,-0.27,0.14,0.97,3.9,22.1,-18.6,35.13,,,,,,,,,,
15.14.06.708,172.1,43.0,0,,,20712.5,48.28,0.22,0.05,1.27,-12.0,15.2,-7.6,34.27,,,,,,,,,,
15.14.06.717,135.7,33.9,0,,,20712.5,48.28,-0.24,0.78,1.22,54.4,1.9,4.4,35.08,,,,,,,,,,
15.14.06.726,63.6,15.9,0,,,20712.5,48.28,-0.08,-0.41,0.75,-11.2,-2.4,-5.0,35.51,,,,,,,,,,
15.14.06.734,-49.4,12.4,0,,,20712.5,48.28,-0.17,0.38,0.1,12.0,14.2,9.6,35.1,,,,,,,,,,
15.14.06.743,46.4,11.6,1,18.0,173.9,20716.8,48.27,-0.87,0.19,0.31,10.5,-2.5,-21.0,34.86,,,,,,,,,,
15.14.06.754,80.2,20.0,0,,,20716.8,48.27,-0.25,0.13,0.06,0.3,-5.9,7.1,34.92,,,,,,,,,,
15.14.06.764,91.1,22.8,0,,,20716.8,48.27,-0.69,0.24,0.36,-17.4,21.8,15.0,34.82,,,,,,,,,,
15.14.06.774,101.6,25.4,0,,,20716.8,48.27,-0.74,-0.34,0.22,-3.7,3.8,-37.8,34.57,,,,,,,,,,
15.14.06.781,66.2,16.6,0,,,20716.8,48.27,-0.53,0.44,-0.07,-10.6,5.2,-19.6,34.69,,,,,,,,,,
15.14.06.788,93.7,23.4,0,,,20716.8,48.27,-0.71,0.34,0.17,-7.5,7.2,-5.7,35.17,,,,,,,,,,
15.14.06.799,,,0,,,,,,,,,,,,,,,,,,,,,
15.14.06.811,46.5,11.6,0,,,20721.1,48.26,-0.66,0.8,0.3,10.8,24.2,-10.3,35.23,,,,,,,,,,
15.14.06.821,-50.6,12.6,0,,,20721.1,48.26,-0.77,0.65,0.66,-7.0,19.4,-8.1,35.22,,,,,,,,,,
15.14.06.832,-53.4,13.4,0,,,20721.1,48.26,-0.61,0.56,-0.64,-15.6,31.7,-4.2,35.14,,,,,,,,,,
15.14.06.841,-5.8,1.4,0,,,20721.1,48.26,-0.14,0.14,-0.4,2.1,16.8,0.6,34.55,,,,,,,,,,
15.14.06.851,-30.7,7.7,0,,,20721.1,48.26,-0.64,0.48,0.05,-34.3,-18.4,5.2,35.09,,,,,,,,,,
15.14.06.861,-97.7,24.4,0,,,20725.4,48.25,-0.73,0.72,-0.42,-15.8,-7.9,19.7,34.99,,,,,,,,,,
15.14.06.871,-99.1,24.8,0,,,20725.4,48.25,-0.74,0.18,0.29,-7.2,20.1,13.6,35.44,,,,,,,,,,
15.14.06.883,-116.1,29.0,0,,,20725.4,48.25,-0.06,1.16,-1.26,5.6,-2.6,-4.5,35.0,,,,,,,,,,
15.14.06.894,-41.3,10.3,0,,,20725.4,48.25,-0.33,0.72,0.68,6.4,19.1,-8.8,34.74,,,,,,,,,,
15.14.06.904,-104.8,26.2,0,,,20725.4,48.25,-0.46,0.29,-0.8,1.8,6.4,3.2,35.58,,,,,,,,,,
15.14.06.912,-128.6,32.2,0,,,20725.4,48.25,-0.76,0.53,0.12,24.5,11.6,7.9,35.26,,,,,,,,,,
15.14.06.924,-107.0,26.8,0,,,20729.7,48.24,-0.73,0.97,-0.19,19.2,3.3,-3.3,34.97,,,,,,,,,,
15.14.06.933,-99.9,25.0,0,,,20729.7,48.24,-0.53,1.13,0.35,-19.2,8.1,4.5,35.4,,,,,,,,,,
15.14.06.941,-147.4,36.8,0,,,20729.7,48.24,-0.32,1.15,0.43,-8.0,16.9,23.0,35.07,,,,,,,,,,
15.14.06.951,-117.3,29.3,0,,,20729.7,48.24,-0.23,0.55,0.09,-14.2,-1.2,-7.2,35.06,,,,,,,,,,
15.14.06.961,-136.3,34.1,0,,,20729.7,48.24,-0.21,1.33,0.35,-12.4,16.5,-6.1,34.78,,,,,,,,,,
15.14.06.970,-177.2,44.3,0,,,20729.7,48.24,-0.02,0.72,0.94,-18.3,9.3,-3.4,34.63,,,,,,,,,,
15.14.06.980,-162.8,40.7,0,,,20734.0,48.23,-0.16,0.85,0.33,-14.5,13.5,10.1,35.02,,,,,,,,,,
15.14.06.990,-182.5,45.6,0,,,20734.0,48.23,-0.32,1.01,0.33,-12.1,4.0,-1.6,35.41,,,,,,,,,,
15.14.06.999,-162.4,40.6,0,,,20734.0,48.23,-0.11,0.21,0.39,1.7,29.1,-25.6,35.52,,,,,,,,,,
15.14.07.006,-160.3,40.1,0,,,20734.0,48.23,0.04,1.04,1.12,27.7,13.7,-1.4,35.1,,,,,,,,,,
15.14.07.017,96.2,24.0,0,,,20734.0,48.23,-0.23,0.93,1.07,28.3,4.4,1.0,34.79,,,,,,,,,,
15.14.07.027,190.8,47.7,0,,,20738.3,48.22,0.04,0.08,1.04,28.7,2.4,0.4,34.86,,,,,,,,,,
15.14.07.038,259.7,64.9,0,,,20738.3,48.22,-0.51,0.46,0.2,0.5,9.5,-11.9,35.02,,,,,,,,,,
15.14.07.045,320.5,80.1,0,,,20738.3,48.22,0.13,0.32,0.14,-22.3,-16.2,19.9,34.51,,,,,,,,,,
15.14.07.056,397.4,99.4,1,19.0,191.7,20738.3,48.22,-0.07,0.5,1.3,9.1,7.1,9.4,34.91,,,,,,,,,,
15.14.07.067,435.3,108.8,0,,,20742.6,48.21,-0.28,-0.1,0.81,-0.5,22.3,-18.2,35.18,,,,,,,,,,
15.14.07.077,477.3,119.3,0,,,20742.6,48.21,-0.27,0.63,0.42,-5.7,12.6,-4.3,35.01,,,,,,,,,,
15.14.07.088,465.6,116.4,0,,,20742.6,48.21,-0.35,0.33,0.56,-25.3,1.6,-9.6,35.22,,,,,,,,,,
15.14.07.100,485.5,121.4,0,,,20746.9,48.2,-0.08,0.07,0.04,-4.1,25.1,-3.9,34.51,,,,,,,,,,
15.14.07.108,522.7,130.7,0,,,20746.9,48.2,-0.29,0.3,0.24,3.2,-1.0,-3.8,34.87,,,,,,,,,,
15.14.07.119,393.9,98.5,0,,,20746.9,48.2,-0.5,0.14,0.16,-3.4,5.6,-17.3,34.64,,,,,,,,,,
15.14.07.129,356.7,89.2,0,,,20746.9,48.2,-0.72,-0.03,0.1,-21.7,12.7,6.6,35.27,,,,,,,,,,
15.14.07.140,263.1,65.8,0,,,20751.2,48.19,-0.82,0.05,0.15,-7.7,13.5,-6.1,34.73,,,,,,,,,,
15.14.07.152,102.9,25.7,0,,,20751.2,48.19,-0.93,-0.17,0.26,0.1,33.9,17.3,35.05,,,,,,,,,,
15.14.07.159,56.2,14.0,0,,,20751.2,48.19,-0.68,0.23,-0.25,-13.1,26.8,-2.8,34.9,,,,,,,,,,
15.14.07.170,,,0,,,,,,,,,,,,,,,,,,,,,
15.14.07.182,29.3,7.3,0,,,20755.5,48.18,-0.92,0.07,-0.59,-16.3,18.5,16.8,34.82,,,,,,,,,,
15.14.07.192,114.9,28.7,0,,,20755.5,48.18,-0.55,0.27,-0.48,-13.7,18.9,17.9,34.73,,,,,,,,,,
15.14.07.202,98.3,24.6,0,,,20755.5,48.18,-0.63,0.21,-0.17,9.4,3.1,7.5,34.62,,,,,,,,,,
15.14.07.209,66.8,16.7,0,,,20759.8,48.17,-0.67,0.91,-0.15,-7.9,51.3,7.3,34.68,,,,,,,,,,
15.14.07.220,68.1,17.0,0,,,20759.8,48.17,-0.85,0.69,-0.89,23.9,8.8,-21.8,35.07,,,,,,,,,,
15.14.07.230,41.1,10.3,0,,,20759.8,48.17,-1.13,0.24,-1.19,23.6,14.3,15.1,35.21,,,,,,,,,,
15.14.07.239,10.3,2.6,0,,,20759.8,48.17,-0.56,0.82,-0.3,23.1,-2.4,-1.2,34.94,,,,,,,,,,
15.14.07.249,-41.0,10.2,0,,,20764.1,48.16,-0.56,0.91,0.22,-7.1,-23.2,-8.2,34.71,,,,,,,,,,
15.14.07.259,-23.5,5.9,0,,,20764.1,48.16,-0.55,0.92,0.16,30.5,10.3,-8.4,35.04,,,,,,,,,,
15.14.07.270,-5.3,1.3,0,,,20764.1,48.16,-0.61,0.58,-0.5,-12.3,-2.6,5.7,35.04,,,,,,,,,,
15.14.07.280,16.5,4.1,0,,,20768.4,48.15,-0.49,0.26,0.24,-16.1,-0.3,8.1,34.81,,,,,,,,,,
15.14.07.289,-65.4,16.4,0,,,20768.4,48.15,-0.36,0.64,-0.08,28.9,36.1,15.5,35.0,,,,,,,,,,
15.14.07.297,-45.7,11.4,0,,,20768.4,48.15,-0.9,0.44,0.44,-23.9,10.8,5.7,34.86,,,,,,,,,,
15.14.07.308,-33.5,8.4,0,,,20768.4,48.15,-0.36,0.5,1.0,5.5,-5.3,0.6,35.41,,,,,,,,,,
15.14.07.318,-88.8,22.2,0,,,20772.7,48.14,-0.3,1.02,0.13,-1.7,-11.2,7.5,34.62,,,,,,,,,,
15.14.07.328,-62.8,15.7,0,,,20772.7,48.14,-0.7,1.05,-0.24,2.0,9.6,-10.5,35.2,,,,,,,,,,
15.14.07.337,-79.0,19.8,0,,,20772.7,48.14,-0.52,0.65,0.63,5.2,6.3,-5.1,35.05,,,,,,,,,,
15.14.07.346,-142.1,35.5,0,,,20772.7,48.14,0.09,0.5,0.16,-0.2,11.5,-38.3,35.33,,,,,,,,,,
15.14.07.357,-97.5,24.4,0,,,20777.1,48.13,-0.49,0.54,0.59,-3.0,35.0,2.9,35.35,,,,,,,,,,
15.14.07.368,-168.1,42.0,1,20.0,192.3,20777.1,48.13,-0.22,0.44,1.04,-26.1,-1.3,0.0,34.93,,,,,,,,,,
15.14.07.378,-149.5,37.4,0,,,20777.1,48.13,-0.59,0.63,0.82,-19.5,-6.5,-4.6,34.99,,,,,,,,,,
15.14.07.389,-129.1,32.3,0,,,20777.1,48.13,-0.15,-0.04,0.38,-35.6,20.5,-1.0,34.96,,,,,,,,,,
15.14.07.401,-146.9,36.7,0,,,20781.4,48.12,-0.02,0.41,0.79,-2.6,4.1,4.5,34.73,,,,,,,,,,
15.14.07.411,-186.1,46.5,0,,,20781.4,48.12,-0.71,0.25,0.47,-4.2,18.5,11.9,34.83,,,,,,,,,,
15.14.07.419,-171.0,42.8,0,,,20781.4,48.12,-0.31,0.56,1.26,-1.0,10.4,4.5,34.62,,,,,,,,,,
15.14.07.431,-195.5,48.9,0,,,20785.7,48.11,-0.23,0.31,1.02,15.4,6.6,-10.6,35.08,,,,,,,,,,
15.14.07.441,-240.8,60.2,0,,,20785.7,48.11,-0.13,0.08,0.14,-21.2,17.4,-6.8,35.37,,,,,,,,,,
15.14.07.451,153.2,38.3,0,,,20785.7,48.11,-0.2,0.68,0.56,22.0,17.7,10.4,34.56,,,,,,,,,,
15.14.07.461,122.0,30.5,0,,,20785.7,48.11,-0.19,0.11,-0.16,-4.7,0.7,-2.7,34.89,,,,,,,,,,
15.14.07.470,121.4,30.4,0,,,20790.0,48.1,-0.54,0.29,0.42,9.0,13.1,-0.7,34.31,,,,,,,,,,
15.14.07.479,398.8,99.7,0,,,20790.0,48.1,-0.34,-0.21,-0.01,0.3,10.5,-0.8,34.9,,,,,,,,,,
15.14.07.492,414.6,103.6,0,,,20790.0,48.1,-1.22,0.7,-0.15,18.1,20.1,-6.7,34.96,,,,,,,,,,
15.14.07.503,452.7,113.2,0,,,20794.3,48.09,-0.91,-0.46,0.22,-18.1,-16.1,2.5,35.39,,,,,,,,,,
15.14.07.513,,,0,,,,,,,,,,,,,,,,,,,,,
15.14.07.525,452.7,113.2,0,,,20794.3,48.09,-0.78,0.46,-0.87,4.4,-19.9,-5.0,35.12,,,,,,,,,,
15.14.07.535,381.1,95.3,0,,,20794.3,48.09,-1.12,0.21,0.48,29.0,6.7,-0.7,35.07,,,,,,,,,,
15.14.07.546,396.4,99.1,0,,,20798.7,48.08,-0.87,0.37,0.24,6.3,-2.8,4.4,34.55,,,,,,,,,,
15.14.07.555,355.2,88.8,0,,,20798.7,48.08,-0.92,0.63,-0.46,-56.9,-6.3,11.8,34.92,,,,,,,,,,
15.14.07.565,179.5,44.9,0,,,20798.7,48.08,-0.59,-0.0,-0.04,2.5,-2.9,3.2,35.0,,,,,,,,,,
15.14.07.575,187.5,46.9,0,,,20803.0,48.07,-0.71,0.79,-0.53,23.5,-5.0,-24.6,34.75,,,,,,,,,,
15.14.07.585,56.0,14.0,0,,,20803.0,48.07,-0.77,0.88,0.13,-9.8,4.2,-14.1,35.69,,,,,,,,,,
15.14.07.595,-16.3,4.1,0,,,20803.0,48.07,-0.72,0.49,0.09,-26.8,1.7,-8.5,35.16,,,,,,,,,,
15.14.07.606,58.9,14.7,0,,,20803.0,48.07,-0.79,0.53,-0.09,4.2,-8.5,20.4,34.98,,,,,,,,,,
15.14.07.614,42.0,10.5,0,,,20807.3,48.06,-0.73,0.87,-0.77,-1.1,7.7,7.0,35.07,,,,,,,,,,
15.14.07.625,145.8,36.4,0,,,20807.3,48.06,-0.72,0.8,0.32,43.9,12.2,3.7,35.04,,,,,,,,,,
15.14.07.633,85.8,21.4,0,,,20807.3,48.06,-0.28,1.03,-0.51,-19.9,4.6,-10.6,34.98,,,,,,,,,,
15.14.07.640,162.1,40.5,0,,,20807.3,48.06,-0.27,0.19,0.81,19.9,14.0,-11.4,35.08,,,,,,,,,,
15.14.07.651,91.7,22.9,0,,,20811.7,48.05,-0.63,1.07,0.29,15.8,5.8,-7.7,35.18,,,,,,,,,,
15.14.07.662,60.1,15.0,0,,,20811.7,48.05,-0.7,0.57,0.23,4.0,37.4,-22.3,35.29,,,,,,,,,,
15.14.07.671,56.9,14.2,0,,,20811.7,48.05,-0.66,0.78,-0.46,29.6,2.8,4.7,35.02,,,,,,,,,,
15.14.07.681,-6.2,1.6,0,,,20811.7,48.05,-0.48,0.79,0.55,-8.0,34.5,-14.5,35.25,,,,,,,,,,
15.14.07.690,-12.1,3.0,0,,,20816.0,48.04,-0.51,0.58,0.29,31.5,18.3,-21.3,34.94,,,,,,,,,,
15.14.07.700,20.4,5.1,0,,,20816.0,48.04,-0.16,0.97,-0.03,45.3,-4.9,-9.9,34.82,,,,,,,,,,
15.14.07.710,-25.7,6.4,0,,,20816.0,48.04,-0.62,1.1,0.62,20.9,15.0,-15.1,35.2,,,,,,,,,,
15.14.07.719,-69.9,17.5,0,,,20816.0,48.04,0.16,1.0,-0.06,39.0,-11.3,-7.6,34.95,,,,,,,,,,
15.14.07.731,-70.4,17.6,0,,,20820.3,48.03,-0.54,0.09,0.65,22.1,-19.0,-8.8,35.2,,,,,,,,,,
15.14.07.739,47.1,11.8,0,,,20820.3,48.03,-0.39,0.45,0.47,27.5,26.7,2.1,34.8,,,,,,,,,,
15.14.07.749,-70.0,17.5,0,,,20820.3,48.03,-0.41,0.45,1.14,21.7,-15.1,0.4,35.29,,,,,,,,,,
15.14.07.757,7.7,1.9,0,,,20820.3,48.03,0.08,-0.09,1.02,11.4,0.7,13.3,35.29,,,,,,,,,,
15.14.07.768,-113.3,28.3,0,,,20824.7,48.02,-0.29,0.18,1.48,29.5,3.3,-7.9,34.88,,,,,,,,,,
15.14.07.778,-50.7,12.7,0,,,20824.7,48.02,0.08,0.17,0.84,12.6,-2.1,-30.4,34.8,,,,,,,,,,
15.14.07.786,-144.3,36.1,0,,,20824.7,48.02,0.08,-0.01,0.79,11.1,24.4,-8.4,35.75,,,,,,,,,,
15.14.07.794,-135.2,33.8,0,,,20829.0,48.01,0.04,-0.42,0.5,0.0,7.5,1.5,35.01,,,,,,,,,,
15.14.07.805,-146.4,36.6,1,21.0,137.3,20829.0,48.01,-0.1,0.93,-0.09,16.9,-5.0,-2.2,35.37,,,,,,,,,,
15.14.07.813,-113.3,28.3,0,,,20829.0,48.01,-0.27,0.16,0.23,-14.0,19.1,-2.9,35.21,,,,,,,,,,
15.14.07.823,-74.8,18.7,0,,,20829.0,48.01,-0.11,0.3,-0.25,24.4,-7.2,-4.2,35.67,,,,,,,,,,
15.14.07.832,-126.6,31.6,0,,,20833.3,48.0,-0.73,0.03,0.42,-26.4,-10.4,-4.8,34.95,,,,,,,,,,
15.14.07.843,-159.1,39.8,0,,,20833.3,48.0,-0.66,0.31,0.01,-27.8,-1.3,3.8,34.77,,,,,,,,,,
15.14.07.851,-112.4,28.1,0,,,20833.3,48.0,-0.14,0.54,0.11,11.7,-2.7,-29.2,34.77,,,,,,,,,,
15.14.07.860,-233.0,58.2,0,,,20833.3,48.0,-0.52,0.09,0.75,3.9,13.8,-7.6,35.12,,,,,,,,,,
15.14.07.871,-210.8,52.7,0,,,20837.7,47.99,-0.7,0.5,0.61,-44.1,-2.3,-12.0,35.13,,,,,,,,,,
15.14.07.881,82.0,20.5,0,,,20837.7,47.99,-0.84,0.42,0.47,-46.8,1.2,-8.0,35.14,,,,,,,,,,
15.14.07.891,155.3,38.8,0,,,20837.7,47.99,-1.27,0.44,0.7,2.0,13.1,3.4,35.36,,,,,,,,,,
15.14.07.900,268.2,67.0,0,,,20837.7,47.99,-1.21,-0.06,0.55,19.0,6.8,-0.8,35.09,,,,,,,,,,
15.14.07.908,314.8,78.7,0,,,20842.0,47.98,-0.74,0.71,-0.88,33.3,28.8,-1.3,34.49,,,,,,,,,,
15.14.07.916,378.8,94.7,0,,,20842.0,47.98,-0.88,0.79,-0.39,-3.1,6.9,-13.9,35.12,,,,,,,,,,
15.14.07.926,489.7,122.4,0,,,20842.0,47.98,-1.12,0.21,-0.41,-38.5,12.3,-26.8,35.3,,,,,,,,,,
15.14.07.934,471.5,117.9,0,,,20842.0,47.98,-0.35,1.16,0.23,5.1,32.7,-4.1,35.01,,,,,,,,,,
15.14.07.942,476.0,119.0,0,,,20846.4,47.97,-0.46,0.85,-0.48,12.4,23.1,-8.6,35.19,,,,,,,,,,
15.14.07.952,524.7,131.2,0,,,20846.4,47.97,-1.02,-0.0,0.25,-5.2,-5.2,-10.9,35.24,,,,,,,,,,
15.14.07.961,431.3,107.8,0,,,20846.4,47.97,-0.7,0.77,0.17,40.3,-18.2,14.8,34.56,,,,,,,,,,
15.14.07.970,410.2,102.6,0,,,20846.4,47.97,-0.63,0.95,-0.7,13.5,-9.3,-6.0,35.18,,,,,,,,,,
15.14.07.978,428.1,107.0,0,,,20850.7,47.96,-0.4,0.22,0.33,29.8,27.1,11.0,35.48,,,,,,,,,,
15.14.07.988,335.5,83.9,0,,,20850.7,47.96,-0.59,1.05,-0.16,-22.1,-2.6,-11.9,34.62,,,,,,,,,,
15.14.07.998,267.4,66.8,0,,,20850.7,47.96,-0.52,1.14,0.55,-4.0,34.6,-3.9,35.04,,,,,,,,,,
15.14.08.008,188.1,47.0,0,,,20850.7,47.96,-0.4,0.35,0.49,-27.0,24.5,3.5,34.75,,,,,,,,,,
15.14.08.019,66.9,16.7,0,,,20855.1,47.95,-1.02,0.82,-0.06,-13.1,24.2,-29.6,34.85,,,,,,,,,,
15.14.08.029,0.2,0.0,0,,,20855.1,47.95,0.27,0.76,0.6,25.8,34.4,-1.5,34.71,,,,,,,,,,
15.14.08.039,48.5,12.1,0,,,20855.1,47.95,-0.5,-0.18,-0.18,-0.2,7.4,-17.0,35.08,,,,,,,,,,
15.14.08.047,63.1,15.8,0,,,20855.1,47.95,-0.64,0.68,0.89,4.8,-18.4,15.8,35.47,,,,,,,,,,
15.14.08.058,130.4,32.6,0,,,20855.1,47.95,-0.24,0.52,0.9,-28.2,11.7,-1.4,34.98,,,,,,,,,,
15.14.08.067,107.9,27.0,0,,,20859.4,47.94,-0.04,0.55,0.24,1.1,-4.1,7.3,34.53,,,,,,,,,,
15.14.08.077,42.6,10.6,0,,,20859.4,47.94,-0.32,0.61,0.65,11.4,-6.2,-4.6,35.09,,,,,,,,,,
15.14.08.086,76.5,19.1,0,,,20859.4,47.94,-0.73,-0.16,0.49,-17.7,20.8,-17.5,35.41,,,,,,,,,,
15.14.08.097,59.4,14.8,0,,,20859.4,47.94,-0.29,-0.03,0.34,10.2,17.2,3.6,35.09,,,,,,,,,,
15.14.08.107,28.8,7.2,0,,,20859.4,47.94,-0.33,0.52,1.32,-18.4,18.9,-7.8,35.25,,,,,,,,,,
15.14.08.116,-57.7,14.4,0,,,20863.8,47.93,-0.45,-0.0,0.68,51.4,2.8,7.6,34.82,,,,,,,,,,
15.14.08.126,-27.7,6.9,0,,,20863.8,47.93,-0.64,0.28,0.9,35.5,14.7,6.8,34.8,,,,,,,,,,
15.14.08.139,-97.4,24.4,0,,,20863.8,47.93,-0.45,-0.24,-0.21,-6.3,-5.7,-0.6,35.07,,,,,,,,,,
15.14.08.149,-85.0,21.2,0,,,20863.8,47.93,-0.05,0.31,0.09,41.2,4.5,-18.1,35.54,,,,,,,,,,
15.14.08.157,-42.8,10.7,0,,,20868.1,47.92,-0.36,-0.64,-0.7,-14.3,-1.2,2.9,34.64,,,,,,,,,,
15.14.08.166,-63.8,16.0,0,,,20868.1,47.92,-0.64,0.58,0.81,7.7,2.0,14.8,34.98,,,,,,,,,,
15.14.08.177,-89.8,22.4,0,,,20868.1,47.92,-0.6,0.61,-0.73,-12.9,19.9,21.4,34.86,,,,,,,,,,
15.14.08.184,-53.4,13.4,0,,,20868.1,47.92,-0.6,0.31,1.09,24.1,-6.9,1.7,35.02,,,,,,,,,,
15.14.08.193,-50.3,12.6,0,,,20868.1,47.92,-0.57,0.4,-0.37,-20.5,0.7,-0.6,35.32,,,,,,,,,,
15.14.08.202,-100.6,25.2,1,22.0,151.1,20872.5,47.91,-0.79,0.12,0.3,-5.8,2.6,-4.8,35.11,,,,,,,,,,
15.14.08.211,-184.0,46.0,0,,,20872.5,47.91,-0.65,0.43,0.46,5.2,12.2,-12.2,35.2,,,,,,,,,,
15.14.08.220,-104.7,26.2,0,,,20872.5,47.91,-0.89,0.61,-0.88,-19.4,10.4,13.4,35.19,,,,,,,,,,
15.14.08.230,-146.5,36.6,0,,,20872.5,47.91,-0.77,0.54,0.18,16.5,-11.8,0.7,34.88,,,,,,,,,,
15.14.08.239,-93.4,23.4,0,,,20872.5,47.91,-0.59,0.26,0.17,2.2,18.3,-4.9,34.76,,,,,,,,,,
15.14.08.249,-166.1,41.5,0,,,20876.8,47.9,-0.6,0.45,-0.68,-21.7,-2.2,5.0,35.08,,,,,,,,,,
15.14.08.257,-145.0,36.2,0,,,20876.8,47.9,-0.75,0.46,-0.11,-22.3,7.6,-2.5,34.85,,,,,,,,,,
15.14.08.268,-174.3,43.6,0,,,20876.8,47.9,-0.37,0.65,-0.12,10.8,13.4,-5.8,35.55,,,,,,,,,,
15.14.08.276,-166.9,41.7,0,,,20876.8,47.9,-0.58,0.55,-0.39,5.2,14.4,-2.5,34.81,,,,,,,,,,
15.14.08.285,-184.6,46.2,0,,,20876.8,47.9,-0.53,0.65,-0.56,5.0,-0.3,2.0,35.65,,,,,,,,,,
15.14.08.295,-130.3,32.6,0,,,20881.2,47.89,-0.97,0.75,-0.52,-18.4,22.2,17.5,35.42,,,,,,,,,,
15.14.08.306,13.0,3.2,0,,,20881.2,47.89,-0.36,0.97,0.59,-2.7,35.0,4.6,35.48,,,,,,,,,,
15.14.08.315,86.8,21.7,0,,,20881.2,47.89,-0.86,0.34,-0.16,-24.6,-1.9,11.3,35.29,,,,,,,,,,
15.14.08.326,269.6,67.4,0,,,20881.2,47.89,-0.55,0.96,0.38,10.4,28.3,4.9,34.88,,,,,,,,,,
15.14.08.337,340.6,85.2,0,,,20881.2,47.89,-0.24,0.52,0.94,26.0,27.6,-12.3,34.73,,,,,,,,,,
15.14.08.345,405.4,101.4,0,,,20885.5,47.88,-0.03,0.66,0.4,3.5,-17.0,-5.9,34.7,,,,,,,,,,
15.14.08.353,393.3,98.3,0,,,20885.5,47.88,-0.68,0.79,-0.14,-0.3,10.6,-22.0,35.32,,,,,,,,,,
15.14.08.360,518.2,129.6,0,,,20885.5,47.88,-0.05,0.37,0.19,-13.7,-0.1,-7.1,35.07,,,,,,,,,,
15.14.08.371,539.7,134.9,0,,,20885.5,47.88,-0.69,0.69,0.32,-8.6,12.3,1.8,35.5,,,,,,,,,,
15.14.08.382,507.9,127.0,0,,,20885.5,47.88,-0.29,0.52,0.62,-9.1,15.6,-8.3,35.45,,,,,,,,,,
15.14.08.393,448.6,112.2,0,,,20889.9,47.87,-0.16,0.58,1.31,11.0,7.2,11.4,35.05,,,,,,,,,,
15.14.08.402,388.6,97.2,0,,,20889.9,47.87,-0.1,0.07,-0.08,26.7,-5.6,-3.4,35.14,,,,,,,,,,
15.14.08.410,412.5,103.1,0,,,20889.9,47.87,-0.04,0.04,1.1,-5.5,12.0,-6.4,35.02,,,,,,,,,,
15.14.08.420,323.2,80.8,0,,,20889.9,47.87,0.05,0.84,0.23,-29.5,-15.0,-8.6,34.83,,,,,,,,,,
15.14.08.429,274.7,68.7,0,,,20889.9,47.87,-0.26,0.27,0.75,-11.4,-4.3,8.4,35.48,,,,,,,,,,
15.14.08.441,132.0,33.0,0,,,20894.3,47.86,-0.18,0.09,1.65,17.7,15.4,0.1,34.53,,,,,,,,,,
15.14.08.452,4.9,1.2,0,,,20894.3,47.86,-0.34,0.69,0.9,-1.6,-12.0,-4.9,35.39,,,,,,,,,,
15.14.08.464,31.0,7.8,0,,,20894.3,47.86,-0.11,0.63,0.99,22.5,17.6,9.6,34.88,,,,,,,,,,
15.14.08.473,79.2,19.8,0,,,20894.3,47.86,-0.0,0.07,1.05,1.4,-11.4,18.3,35.08,,,,,,,,,,
15.14.08.483,,,0,,,,,,,,,,,,,,,,,,,,,
15.14.08.494,68.9,17.2,0,,,20898.6,47.85,-0.15,-0.55,-0.01,-5.7,14.0,-10.4,35.02,,,,,,,,,,
15.14.08.504,49.7,12.4,0,,,20898.6,47.85,-0.25,0.3,-0.17,-7.4,24.8,10.9,35.36,,,,,,,,,,
15.14.08.513,52.2,13.0,0,,,20898.6,47.85,-0.29,-0.42,0.68,-8.7,-17.4,17.5,34.79,,,,,,,,,,
15.14.08.522,80.5,20.1,0,,,20903.0,47.84,-0.65,-0.34,-0.18,-6.5,5.4,6.5,34.8,,,,,,,,,,
15.14.08.531,70.1,17.5,0,,,20903.0,47.84,-0.63,-0.16,0.48,0.3,-6.3,-5.4,34.96,,,,,,,,,,
15.14.08.540,-41.8,10.4,0,,,20903.0,47.84,-0.63,0.35,0.35,-12.0,15.5,-7.2,35.02,,,,,,,,,,
15.14.08.548,48.3,12.1,1,23.0,173.4,20903.0,47.84,-0.76,-0.43,-0.0,25.3,-10.5,-2.0,34.83,,,,,,,,,,
15.14.08.556,-45.1,11.3,0,,,20903.0,47.84,-0.92,-0.23,0.03,13.1,29.5,3.8,35.02,,,,,,,,,,
15.14.08.567,,,0,,,,,,,,,,,,,,,,,,,,,
15.14.08.577,-47.6,11.9,0,,,20907.4,47.83,-0.96,0.8,0.83,5.6,1.0,1.4,35.2,,,,,,,,,,
15.14.08.588,-96.5,24.1,0,,,20907.4,47.83,-1.16,0.94,0.03,11.0,23.3,-6.2,34.89,,,,,,,,,,
15.14.08.596,-19.8,5.0,0,,,20907.4,47.83,-0.87,-0.15,-0.22,9.5,12.5,-5.1,35.11,,,,,,,,,,
15.14.08.606,1.2,0.3,0,,,20907.4,47.83,-0.76,0.14,-0.86,8.0,11.5,-7.3,34.85,,,,,,,,,,
15.14.08.616,-26.7,6.7,0,,,20911.8,47.82,-0.83,0.9,0.8,-20.5,-10.2,-5.8,34.77,,,,,,,,,,
15.14.08.625,-85.2,21.3,0,,,20911.8,47.82,-0.78,0.56,-0.15,-33.5,11.9,25.9,34.57,,,,,,,,,,
15.14.08.636,-97.4,24.4,0,,,20911.8,47.82,-0.54,0.36,-0.15,-35.1,-17.4,6.6,35.23,,,,,,,,,,
15.14.08.644,-123.1,30.8,0,,,20911.8,47.82,-0.59,0.57,-0.26,-20.5,-15.4,-9.2,34.8,,,,,,,,,,
15.14.08.655,-121.2,30.3,0,,,20911.8,47.82,-0.63,1.09,-0.16,-11.1,-6.9,-7.2,35.19,,,,,,,,,,
15.14.08.666,-108.5,27.1,0,,,20916.1,47.81,-0.53,1.17,0.28,27.6,8.5,-15.1,35.2,,,,,,,,,,
15.14.08.675,-108.4,27.1,0,,,20916.1,47.81,-0.42,1.0,-0.02,13.5,0.6,-18.7,34.81,,,,,,,,,,
15.14.08.684,-146.6,36.6,0,,,20916.1,47.81,-0.29,0.59,0.09,-13.3,31.2,10.2,34.78,,,,,,,,,,
15.14.08.692,-175.5,43.9,0,,,20916.1,47.81,-0.38,1.36,0.86,-23.4,43.5,11.1,34.68,,,,,,,,,,
15.14.08.703,-177.1,44.3,0,,,20916.1,47.81,-0.47,0.81,0.11,-5.5,-3.6,-7.1,35.51,,,,,,,,,,
15.14.08.713,-214.2,53.6,0,,,20920.5,47.8,-0.42,0.66,-0.06,-13.9,22.5,2.7,34.97,,,,,,,,,,
15.14.08.724,-231.6,57.9,0,,,20920.5,47.8,-0.12,0.4,0.77,9.1,-0.8,3.0,35.65,,,,,,,,,,
15.14.08.733,-213.7,53.4,0,,,20920.5,47.8,0.1,1.2,0.49,0.6,-9.0,3.1,34.85,,,,,,,,,,
15.14.08.740,93.9,23.5,0,,,20920.5,47.8,0.0,0.83,0.44,-26.0,6.8,2.5,34.81,,,,,,,,,,
15.14.08.750,224.0,56.0,0,,,20924.9,47.79,-0.15,-0.05,1.52,-22.5,13.0,6.7,34.93,,,,,,,,,,
15.14.08.761,253.5,63.4,0,,,20924.9,47.79,-0.5,0.76,1.27,1.5,28.9,-3.1,35.38,,,,,,,,,,
15.14.08.772,316.4,79.1,0,,,20924.9,47.79,-0.26,0.13,0.4,-12.3,-9.4,-14.1,34.95,,,,,,,,,,
15.14.08.779,351.2,87.8,0,,,20924.9,47.79,0.1,0.29,0.14,-22.7,-18.3,-6.8,34.74,,,,,,,,,,
15.14.08.789,460.2,115.0,0,,,20924.9,47.79,-0.11,0.62,1.26,1.3,25.7,-8.5,35.5,,,,,,,,,,
15.14.08.800,530.7,132.7,0,,,20929.3,47.78,-0.19,0.69,-0.0,-6.2,-6.0,6.3,35.43,,,,,,,,,,
15.14.08.810,469.9,117.5,0,,,20929.3,47.78,-0.48,0.65,0.82,-38.3,19.7,-10.2,35.6,,,,,,,,,,
15.14.08.818,511.6,127.9,0,,,20929.3,47.78,-0.59,0.83,0.26,-29.9,4.6,10.2,35.16,,,,,,,,,,
15.14.08.827,440.2,110.0,0,,,20929.3,47.78,-0.15,0.38,0.79,-6.3,19.8,-2.5,35.26,,,,,,,,,,
15.14.08.839,451.3,112.8,0,,,20929.3,47.78,0.3,-0.11,0.16,9.0,-10.3,23.2,34.58,,,,,,,,,,
15.14.08.849,352.7,88.2,0,,,20933.6,47.77,-0.1,0.46,0.19,-9.8,33.8,5.1,35.15,,,,,,,,,,
15.14.08.859,175.2,43.8,0,,,20933.6,47.77,-0.93,-0.17,-0.06,-1.1,12.6,15.8,34.37,,,,,,,,,,
15.14.08.868,140.4,35.1,1,24.0,187.5,20933.6,47.77,-0.35,0.06,0.2,8.9,-14.6,12.9,35.48,,,,,,,,,,
15.14.08.875,88.1,22.0,0,,,20933.6,47.77,-1.2,-0.79,-0.95,-28.2,8.6,-12.1,34.97,,,,,,,,,,
15.14.08.886,42.8,10.7,0,,,20938.0,47.76,-0.04,0.63,-1.16,-6.8,18.8,-14.2,35.18,,,,,,,,,,
15.14.08.897,15.3,3.8,0,,,20938.0,47.76,-0.57,-0.06,0.26,-15.8,19.0,2.8,35.18,,,,,,,,,,
15.14.08.905,39.3,9.8,0,,,20938.0,47.76,-0.4,0.21,0.22,0.3,-7.3,-7.5,34.98,,,,,,,,,,
15.14.08.913,32.3,8.1,0,,,20938.0,47.76,-0.31,-0.05,-0.03,34.3,-28.0,-2.3,35.25,,,,,,,,,,
15.14.08.921,63.1,15.8,0,,,20938.0,47.76,-0.53,0.49,-0.28,-10.8,24.2,-2.9,35.05,,,,,,,,,,
15.14.08.932,88.8,22.2,0,,,20942.4,47.75,-0.38,0.31,0.14,-29.0,29.4,-6.9,35.1,,,,,,,,,,
15.14.08.943,38.2,9.6,0,,,20942.4,47.75,-0.89,0.94,0.09,-19.0,-10.9,7.5,35.2,,35.01,,,,,,,,
15.14.08.953,122.4,30.6,0,,,20942.4,47.75,-1.03,0.04,-0.36,8.1,-17.0,0.6,35.63,,,,,,,,,,
15.14.08.961,66.3,16.6,0,,,20942.4,47.75,-0.66,0.44,-0.28,18.9,4.8,-4.1,34.71,,,,,,,,,,
15.14.08.971,-0.4,0.1,0,,,20942.4,47.75,-0.44,0.39,-0.22,25.0,-0.7,-5.8,35.52,,,,,,,,,,
15.14.08.981,-4.2,1.0,0,,,20946.8,47.74,-0.72,0.69,0.87,-17.4,18.8,-12.3,34.88,,,,,,,,,,
15.14.08.992,-11.2,2.8,0,,,20946.8,47.74,-0.51,0.84,0.56,-12.1,20.9,-3.9,34.45,,,,,,,,,,
15.14.09.001,-60.1,15.0,0,,,20946.8,47.74,-0.6,0.66,0.61,-20.5,11.4,17.4,34.95,,,,,,,,,,
15.14.09.012,-71.5,17.9,0,,,20946.8,47.74,-0.47,0.94,0.29,-3.1,17.3,-12.3,35.17,,,,,,,,,,
15.14.09.023,-26.1,6.5,0,,,20946.8,47.74,-0.64,1.09,0.22,-5.3,11.9,-5.8,35.36,,,,,,,,,,
15.14.09.032,-91.3,22.8,0,,,20946.8,47.74,-0.49,1.1,0.23,20.0,26.9,-8.8,35.37,,,,,,,,,,
15.14.09.042,-101.1,25.3,0,,,20946.8,47.74,-0.16,0.69,0.23,2.9,14.6,-6.4,34.76,,,,,,,,,,
15.14.09.053,-71.6,17.9,0,,,20946.8,47.74,-0.04,0.27,1.05,14.4,9.3,16.4,35.66,,,,,,,,,,
15.14.09.062,-99.6,24.9,0,,,20946.8,47.74,-0.56,1.12,0.27,-15.2,28.3,-1.5,34.32,,,,,,,,,,
15.14.09.071,-114.8,28.7,0,,,20946.8,47.74,0.04,0.73,0.49,-15.0,6.3,4.9,34.91,,,,,,,,,,
15.14.09.082,-118.1,29.5,0,,,20946.8,47.74,0.11,0.99,1.02,19.2,-13.5,27.7,34.85,,,,,,,,,,
15.14.09.091,-164.6,41.2,0,,,20946.8,47.74,-0.45,0.87,1.84,-8.0,2.4,-10.3,35.1,,,,,,,,,,
15.14.09.099,-165.9,41.5,0,,,20946.8,47.74,-0.33,0.71,1.62,-8.1,-0.9,-8.2,34.78,,,,,,,,,,
15.14.09.107,-229.3,57.3,0,,,20946.8,47.74,-0.56,0.37,0.49,33.7,-0.4,6.3,34.98,,,,,,,,,,
15.14.09.116,-138.8,34.7,0,,,20946.8,47.74,-0.29,0.36,0.83,11.0,-13.7,11.4,34.61,,,,,,,,,,
15.14.09.125,-153.4,38.4,0,,,20946.8,47.74,-0.18,1.2,1.02,8.2,-2.0,-4.8,35.46,,,,,,,,,,
15.14.09.134,-173.7,43.4,0,,,20946.8,47.74,-0.23,0.81,0.55,24.2,5.6,29.3,34.96,,,,,,,,,,
15.14.09.146,-201.4,50.4,0,,,20946.8,47.74,-0.18,0.61,0.85,-21.7,-13.0,3.9,35.16,,,,,,,,,,
15.14.09.156,-289.9,72.5,0,,,20946.8,47.74,-0.07,0.78,0.97,-0.8,-7.2,1.6,34.58,,,,,,,,,,
15.14.09.164,9.5,2.4,0,,,20946.8,47.74,-0.57,0.21,0.53,19.8,18.6,11.7,34.96,,,,,,,,,,
15.14.09.172,109.0,27.2,0,,,20946.8,47.74,-0.75,-0.31,-0.04,-26.8,23.0,-19.7,34.77,,,,,,,,,,
15.14.09.183,187.7,46.9,0,,,20946.8,47.74,-0.34,0.2,0.03,-13.4,2.0,12.3,35.4,,,,,,,,,,
15.14.09.193,255.1,63.8,0,,,20946.8,47.74,-0.64,-0.16,0.84,29.4,22.3,-2.9,35.25,,,,,,,,,,
15.14.09.202,363.6,90.9,0,,,20946.8,47.74,-0.75,0.13,0.3,1.3,-6.7,-2.1,34.3,,,,,,,,,,
15.14.09.212,489.8,122.4,0,,,20946.8,47.74,-0.67,0.28,-0.13,-4.3,39.7,7.6,34.66,,,,,,,,,,
15.14.09.224,450.4,112.6,0,,,20946.8,47.74,-0.91,-0.37,0.28,2.4,18.9,-11.3,34.85,,,,,,,,,,
15.14.09.233,535.9,134.0,0,,,20946.8,47.74,-0.75,0.81,-0.62,33.5,17.8,6.2,34.99,,,,,,,,,,
15.14.09.243,433.4,108.4,0,,,20946.8,47.74,-0.69,0.01,-0.19,-4.4,-2.7,-19.4,34.73,,,,,,,,,,
15.14.09.250,525.7,131.4,0,,,20946.8,47.74,-0.49,-0.22,0.36,15.9,3.9,-6.8,35.18,,,,,,,,,,
15.14.09.261,462.0,115.5,0,,,20946.8,47.74,-0.64,0.05,-0.45,3.0,19.3,-11.2,35.09,,,,,,,,,,
15.14.09.270,371.6,92.9,0,,,20946.8,47.74,-0.4,-0.11,-0.01,33.0,-5.7,0.4,34.98,,,,,,,,,,
15.14.09.281,257.7,64.4,0,,,20946.8,47.74,-0.49,0.31,-1.22,0.7,-1.2,6.8,35.46,,,,,,,,,,
15.14.09.292,180.1,45.0,0,,,20946.8,47.74,-0.9,0.82,-0.48,14.1,4.9,-7.6,34.77,,,,,,,,,,
15.14.09.303,145.4,36.4,0,,,20946.8,47.74,-0.41,0.65,-0.23,13.6,-0.4,-15.5,35.18,,,,,,,,,,
15.14.09.313,1.3,0.3,1,25.0,134.8,20946.8,47.74,-0.9,0.95,-0.43,31.6,-1.7,-4.7,34.44,,,,,,,,,,
15.14.09.321,43.5,10.9,0,,,20946.8,47.74,-0.54,0.68,-0.2,-15.9,14.2,-13.1,35.13,,,,,,,,,,
15.14.09.328,59.9,15.0,0,,,20946.8,47.74,-0.94,1.24,-0.28,-6.2,-11.7,5.7,34.26,,,,,,,,,,
15.14.09.339,91.4,22.8,0,,,20946.8,47.74,-0.66,0.83,1.29,7.6,-9.6,15.1,34.88,,,,,,,,,,
15.14.09.347,44.7,11.2,0,,,20946.8,47.74,-0.66,1.25,0.24,-50.6,-23.0,9.1,35.17,,,,,,,,,,
15.14.09.357,98.2,24.6,0,,,20946.8,47.74,-0.75,0.67,-0.06,31.3,-0.0,-3.8,35.17,,,,,,,,,,
15.14.09.366,69.3,17.3,0,,,20946.8,47.74,-0.42,0.52,-0.43,0.4,14.9,-11.0,35.4,,,,,,,,,,
15.14.09.376,70.7,17.7,0,,,20946.8,47.74,-0.17,0.97,-0.06,7.1,-15.0,-17.7,34.94,,,,,,,,,,
15.14.09.386,27.8,7.0,0,,,20946.8,47.74,-0.41,1.07,0.73,21.5,-16.1,9.3,34.54,,,,,,,,,,
15.14.09.395,38.5,9.6,0,,,20946.8,47.74,0.05,1.17,0.34,-24.5,10.8,38.6,35.19,,,,,,,,,,
15.14.09.406,15.4,3.8,0,,,20946.8,47.74,-0.29,0.47,0.41,44.7,14.6,-6.3,34.78,,,,,,,,,,
15.14.09.418,-27.0,6.8,0,,,20946.8,47.74,-0.06,0.27,0.13,-2.4,11.2,3.6,34.87,,,,,,,,,,
15.14.09.427,-26.0,6.5,0,,,20946.8,47.74,-0.2,0.58,0.24,-6.2,-4.7,4.7,34.87,,,,,,,,,,
15.14.09.438,-78.8,19.7,0,,,20946.8,47.74,0.01,0.52,0.41,25.3,-25.1,-8.5,34.68,,,,,,,,,,
15.14.09.448,-57.4,14.4,0,,,20946.8,47.74,0.03,0.38,1.44,-6.9,-11.9,8.0,35.31,,,,,,,,,,
15.14.09.457,-74.6,18.6,0,,,20946.8,47.74,-0.21,0.43,0.27,3.2,28.4,-2.6,34.47,,,,,,,,,,
15.14.09.466,-133.9,33.5,0,,,20946.8,47.74,0.33,0.44,0.42,-26.4,-0.9,-9.7,34.75,,,,,,,,,,
15.14.09.474,-74.0,18.5,0,,,20946.8,47.74,-0.33,0.2,0.53,-34.5,-2.8,-8.5,35.08,,,,,,,,,,
15.14.09.483,-49.6,12.4,0,,,20946.8,47.74,-0.37,0.19,0.49,-7.7,20.8,5.7,35.15,,,,,,,,,,
15.14.09.492,-34.2,8.6,0,,,20946.8,47.74,-0.5,0.16,1.6,-0.7,-8.7,15.6,35.19,,,,,,,,,,
15.14.09.501,-117.2,29.3,0,,,20946.8,47.74,-0.31,0.76,0.79,-6.8,27.4,3.0,35.19,,,,,,,,,,
15.14.09.512,-172.2,43.0,0,,,20946.8,47.74,-0.16,-0.68,0.01,-10.1,-9.5,-3.8,34.87,,,,,,,,,,
15.14.09.522,-93.3,23.3,0,,,20946.8,47.74,-0.17,0.06,0.42,13.7,-10.1,-5.2,35.34,,,,,,,,,,
15.14.09.533,-174.5,43.6,0,,,20946.8,47.74,-0.09,0.51,-0.28,-22.9,5.0,-10.5,35.16,,,,,,,,,,
15.14.09.541,-118.3,29.6,0,,,20946.8,47.74,-0.01,0.02,0.43,13.8,-10.1,10.9,34.49,,,,,,,,,,
15.14.09.551,-137.9,34.5,0,,,20946.8,47.74,-0.75,-0.12,0.04,7.4,19.8,4.9,35.83,,,,,,,,,,
15.14.09.561,-155.2,38.8,0,,,20946.8,47.74,-0.71,-0.16,0.43,15.0,18.4,-4.0,35.69,,,,,,,,,,
15.14.09.571,-147.4,36.8,0,,,20946.8,47.74,-0.24,0.85,0.08,21.2,9.9,-3.5,35.08,,,,,,,,,,
15.14.09.582,-165.7,41.4,0,,,20946.8,47.74,-0.96,0.28,-0.06,22.1,8.0,8.4,35.4,,,,,,,,,,
15.14.09.593,26.4,6.6,0,,,20946.8,47.74,-0.59,0.37,-0.2,-19.4,14.0,-21.3,34.91,,,,,,,,,,
15.14.09.603,124.5,31.1,0,,,20946.8,47.74,-0.95,0.12,-0.05,1.5,-12.5,14.3,35.03,,,,,,,,,,
15.14.09.612,238.5,59.6,0,,,20946.8,47.74,-0.81,-0.08,0.21,-19.5,18.8,-23.1,34.91,,,,,,,,,,
15.14.09.620,311.4,77.8,0,,,20946.8,47.74,-0.68,1.07,-0.02,12.4,22.8,-18.1,34.82,,,,,,,,,,
15.14.09.627,334.5,83.6,0,,,20946.8,47.74,-0.52,0.45,0.13,-15.7,-4.9,-6.0,34.52,,,,,,,,,,
15.14.09.637,443.5,110.9,0,,,20946.8,47.74,-0.93,-0.26,-0.03,-32.1,37.9,-23.1,34.85,,,,,,,,,,
15.14.09.647,455.7,113.9,0,,,20946.8,47.74,-0.6,0.53,-0.06,-17.7,-21.6,-16.5,34.8,,,,,,,,,,
15.14.09.657,491.0,122.8,0,,,20946.8,47.74,-0.72,0.21,-0.47,24.8,7.1,-9.5,35.14,,,,,,,,,,
15.14.09.668,462.6,115.6,0,,,20946.8,47.74,-0.6,0.77,1.24,-2.7,-10.9,3.9,34.85,,,,,,,,,,
15.14.09.676,460.5,115.1,0,,,20946.8,47.74,-0.48,0.97,1.06,3.6,-3.1,-2.8,34.99,,,,,,,,,,
15.14.09.686,465.1,116.3,1,26.0,160.9,20946.8,47.74,-0.11,0.67,-0.45,-24.6,0.9,-3.3,34.91,,,,,,,,,,
15.14.09.694,380.6,95.2,0,,,20946.8,47.74,-0.81,0.56,0.43,11.7,4.3,-3.9,35.06,,,,,,,,,,
15.14.09.705,333.9,83.5,0,,,20946.8,47.74,-0.71,0.38,0.42,43.5,-0.8,1.1,34.93,,,,,,,,,,
15.14.09.714,286.1,71.5,0,,,20946.8,47.74,-0.41,1.16,0.18,32.2,0.6,-9.9,35.88,,,,,,,,,,
15.14.09.722,216.4,54.1,0,,,20946.8,47.74,-0.46,1.0,0.66,33.6,1.5,-10.4,35.0,,,,,,,,,,
15.14.09.730,78.7,19.7,0,,,20946.8,47.74,-0.35,0.68,0.84,-2.6,23.2,-25.1,34.77,,,,,,,,,,
15.14.09.738,24.6,6.2,0,,,20946.8,47.74,-1.05,0.65,0.41,18.8,-30.4,25.8,34.82,,,,,,,,,,
15.14.09.748,67.7,16.9,0,,,20946.8,47.74,-0.64,0.49,0.91,-18.0,23.4,5.3,34.97,,,,,,,,,,
15.14.09.756,63.7,15.9,0,,,20946.8,47.74,-0.05,0.67,0.91,-1.8,32.3,-0.9,35.22,,,,,,,,,,
15.14.09.767,93.0,23.2,0,,,20946.8,47.74,-0.16,0.09,0.99,-34.7,18.6,6.2,34.91,,,,,,,,,,
15.14.09.776,123.1,30.8,0,,,20946.8,47.74,-0.48,0.41,0.62,25.5,1.8,-17.0,35.14,,,,,,,,,,
15.14.09.787,108.5,27.1,0,,,20946.8,47.74,-0.44,0.43,-0.06,15.1,6.8,-11.1,35.03,,,,,,,,,,
15.14.09.797,122.9,30.7,0,,,20946.8,47.74,-0.1,0.45,1.85,33.7,23.6,-11.4,34.97,,,,,,,,,,
15.14.09.808,82.5,20.6,0,,,20946.8,47.74,-0.25,0.5,0.99,-20.3,12.6,13.2,34.63,,,,,,,,,,
15.14.09.819,8.3,2.1,0,,,20946.8,47.74,-0.32,0.79,1.81,-6.2,-5.3,-27.4,34.2,,,,,,,,,,
15.14.09.830,18.2,4.6,0,,,20946.8,47.74,-0.12,0.04,1.11,10.6,4.1,6.9,35.37,,,,,,,,,,
15.14.09.841,-4.5,1.1,0,,,20946.8,47.74,-0.29,-0.15,-0.12,2.0,0.5,-1.8,35.37,,,,,,,,,,
15.14.09.851,-46.8,11.7,0,,,20946.8,47.74,-0.18,0.44,0.27,18.2,5.0,-16.3,35.29,,,,,,,,,,
15.14.09.859,-23.1,5.8,0,,,20946.8,47.74,-0.48,-0.27,0.93,19.0,6.7,11.9,34.7,,,,,,,,,,
15.14.09.869,-70.3,17.6,0,,,20946.8,47.74,-0.32,0.06,0.27,-13.8,3.2,5.0,34.93,,,,,,,,,,
15.14.09.880,-46.3,11.6,0,,,20946.8,47.74,-0.13,-0.31,0.18,18.4,3.6,-4.8,35.09,,,,,,,,,,
15.14.09.892,-81.9,20.5,0,,,20946.8,47.74,-0.38,-0.43,-0.42,40.4,16.4,-2.2,34.85,,,,,,,,,,
15.14.09.903,-130.3,32.6,0,,,20946.8,47.74,-0.71,-0.24,-0.03,7.5,11.4,-17.4,34.76,,,,,,,,,,
15.14.09.913,-90.2,22.6,0,,,20946.8,47.74,-0.42,-0.12,0.52,26.8,6.0,-11.6,35.13,,,,,,,,,,
15.14.09.924,-73.0,18.2,0,,,20946.8,47.74,-0.49,0.35,-0.37,3.6,-12.8,14.0,35.23,,,,,,,,,,
15.14.09.933,-107.4,26.8,0,,,20946.8,47.74,-0.08,0.83,-0.05,-24.8,-4.9,0.8,35.27,,,,,,,,,,
15.14.09.942,-89.3,22.3,0,,,20946.8,47.74,-0.53,0.67,0.02,-5.6,-13.8,7.8,35.73,,,,,,,,,,
15.14.09.949,-113.1,28.3,0,,,20946.8,47.74,-0.51,0.57,-0.99,5.6,19.2,15.6,35.03,,,,,,,,,,
15.14.09.960,-89.6,22.4,0,,,20946.8,47.74,-0.76,0.25,-0.42,-10.6,-12.8,0.6,35.04,,,,,,,,,,
15.14.09.970,-140.2,35.0,0,,,20946.8,47.74,-0.46,-0.33,-0.72,-11.5,43.2,8.7,35.51,,,,,,,,,,
15.14.09.979,-213.1,53.3,0,,,20946.8,47.74,-0.67,0.54,-0.6,-17.7,9.6,-16.9,35.13,,,,,,,,,,
15.14.09.988,-187.9,47.0,0,,,20946.8,47.74,-0.65,0.07,0.16,10.9,15.8,20.1,34.92,,,,,,,,,,
15.14.09.999,-167.6,41.9,0,,,20946.8,47.74,-0.53,0.9,-0.57,-0.3,20.3,-23.3,34.91,,,,,,,,,,
15.14.10.009,-147.5,36.9,0,,,20946.8,47.74,-1.07,-0.17,-0.76,5.2,24.8,-16.7,34.65,136.6,,,,,,,,,
15.14.10.020,-18.5,4.6,0,,,20946.8,47.74,-0.67,1.25,1.09,-15.4,-7.3,-2.7,35.33,,,,,,,,,,
15.14.10.029,139.9,35.0,0,,,20946.8,47.74,-0.25,0.62,-1.2,-2.1,-5.9,8.4,34.61,,,,,,,,,,
15.14.10.039,187.2,46.8,0,,,20946.8,47.74,-0.48,0.65,0.93,-16.8,26.4,11.4,34.67,,,,,,,,,,
15.14.10.048,368.1,92.0,1,27.0,165.7,20951.2,47.73,-0.46,1.11,-0.63,-15.6,19.0,-12.0,34.53,,,,,,,,,,
15.14.10.057,359.9,90.0,0,,,20951.2,47.73,-0.17,0.33,0.14,-19.2,-10.9,-12.2,34.78,,,,,,,,,,
15.14.10.067,469.4,117.4,0,,,20951.2,47.73,-0.63,0.6,-0.37,-29.0,22.6,22.7,34.99,,,,,,,,,,
15.14.10.078,518.1,129.5,0,,,20951.2,47.73,-0.35,0.75,0.07,-24.4,-4.0,7.0,35.53,,,,,,,,,,
15.14.10.087,516.8,129.2,0,,,20951.2,47.73,-0.22,0.55,-0.14,-13.0,20.9,8.6,35.3,,,,,,,,,,
15.14.10.097,456.8,114.2,0,,,20951.2,47.73,-0.2,1.14,0.02,9.6,1.6,-14.6,35.7,,,,,,,,,,
15.14.10.107,434.9,108.7,0,,,20951.2,47.73,-0.16,0.44,0.27,-20.5,6.4,-13.6,34.66,,,,,,,,,,
15.14.10.117,399.5,99.9,0,,,20955.6,47.72,-0.42,0.36,1.51,-3.6,-4.6,4.6,35.48,,,,,,,,,,
15.14.10.127,395.8,99.0,0,,,20955.6,47.72,-0.08,0.52,0.87,26.4,-10.8,2.0,35.28,,,,,,,,,,
15.14.10.136,342.0,85.5,0,,,20955.6,47.72,-0.11,0.13,0.56,20.1,-26.2,7.8,35.19,,,,,,,,,,
15.14.10.145,233.2,58.3,0,,,20955.6,47.72,-0.25,0.62,0.53,2.5,-12.2,14.2,35.08,,,,,,,,,,
15.14.10.156,125.1,31.3,0,,,20955.6,47.72,0.31,0.52,1.11,-38.0,0.4,-9.4,34.94,,,,,,,,,,
15.14.10.163,13.7,3.4,0,,,20955.6,47.72,-0.24,-0.09,0.17,32.4,15.5,0.9,35.06,,,,,,,,,,
15.14.10.172,53.5,13.4,0,,,20955.6,47.72,-0.03,-0.74,-0.06,-13.9,14.7,-3.0,35.29,,,,,,,,,,
15.14.10.181,63.2,15.8,0,,,20960.0,47.71,-0.29,0.19,1.22,-10.3,13.0,9.4,35.1,,,,,,,,,,
15.14.10.189,105.7,26.4,0,,,20960.0,47.71,-0.31,0.1,0.18,-6.4,19.3,2.1,35.21,,,,,,,,,,
15.14.10.199,125.6,31.4,0,,,20960.0,47.71,-0.77,-0.43,0.59,-18.8,-15.0,-15.8,35.26,,,,,,,,,,
15.14.10.208,74.9,18.7,0,,,20960.0,47.71,-0.18,0.5,0.81,-3.2,-4.2,-5.8,34.93,,,,,,,,,,
15.14.10.218,102.8,25.7,0,,,20960.0,47.71,-0.68,0.08,0.65,-28.5,-24.2,-15.4,35.76,,,,,,,,,,
15.14.10.227,-2.0,0.5,0,,,20960.0,47.71,-0.28,0.19,0.2,31.4,15.7,5.6,35.4,,,,,,,,,,
15.14.10.237,63.4,15.8,0,,,20960.0,47.71,-0.45,-0.03,0.62,1.0,7.7,-8.7,35.03,,,,,,,,,,
15.14.10.247,-20.3,5.1,0,,,20964.4,47.7,-0.29,0.03,0.63,-13.0,12.1,20.8,35.18,,,,,,,,,,
15.14.10.257,-26.9,6.7,0,,,20964.4,47.7,-0.41,0.34,0.01,-31.2,32.0,-16.1,34.84,,,,,,,,,,
15.14.10.267,-4.0,1.0,0,,,20964.4,47.7,-0.7,0.08,0.15,7.7,-10.3,-6.0,34.41,,,,,,,,,,
15.14.10.278,-25.5,6.4,0,,,20964.4,47.7,-0.31,0.31,-0.41,-20.8,38.3,11.7,34.77,,,,,,,,,,
15.14.10.289,-25.4,6.4,0,,,20964.4,47.7,-1.1,-0.08,0.55,-12.9,-1.0,-4.0,34.65,,,,,,,,,,
15.14.10.299,-27.3,6.8,0,,,20964.4,47.7,-0.43,0.19,0.29,-8.8,11.2,-8.0,34.74,,,,,,,,,,
15.14.10.308,-6.3,1.6,0,,,20964.4,47.7,-0.47,-0.15,-0.32,5.0,15.4,4.2,35.85,,,,,,,,,,
15.14.10.320,-49.5,12.4,0,,,20968.8,47.69,-0.79,0.39,-0.22,-2.8,-11.0,-4.0,35.41,,,,,,,,,,
15.14.10.330,-77.6,19.4,0,,,20968.8,47.69,-0.72,0.78,-0.16,17.3,5.1,-6.5,34.81,,,,,,,,,,
15.14.10.340,-82.9,20.7,0,,,20968.8,47.69,-0.56,0.52,-0.96,-11.9,-16.5,0.2,35.24,,,,,,,,,,
15.14.10.350,-113.0,28.2,0,,,20968.8,47.69,-0.55,0.37,-0.51,-24.7,10.3,2.3,34.72,,,,,,,,,,
15.14.10.360,-141.0,35.2,0,,,20968.8,47.69,-0.63,0.22,-0.89,-14.0,22.3,-9.2,35.15,,,,,,,,,,
15.14.10.370,-153.9,38.5,0,,,20968.8,47.69,-0.62,0.75,0.34,-37.6,9.0,2.1,34.97,,,,,,,,,,
15.14.10.381,-55.3,13.8,0,,,20973.2,47.68,-0.8,0.53,-0.64,-19.0,-6.7,-2.4,35.16,,,,,,,,,,
15.14.10.391,-142.4,35.6,0,,,20973.2,47.68,-0.56,1.22,0.56,-7.9,0.1,-8.3,34.99,,,,,,,,,,
15.14.10.402,-181.9,45.5,0,,,20973.2,47.68,-0.43,0.82,0.35,12.5,-7.2,7.9,35.24,,,,,,,,,,
15.14.10.410,-176.0,44.0,0,,,20973.2,47.68,-0.26,1.23,0.4,-23.9,-4.5,1.3,34.71,,,,,,,,,,
15.14.10.421,-195.8,49.0,0,,,20973.2,47.68,-0.09,0.58,0.62,6.9,-4.9,-9.6,35.45,,,,,,,,,,
15.14.10.432,-173.2,43.3,0,,,20973.2,47.68,-0.6,0.09,-0.46,2.9,28.8,-1.2,34.73,,,,,,,,,,
15.14.10.442,-232.6,58.2,0,,,20973.2,47.68,-0.76,0.45,0.53,-7.3,7.9,0.8,34.9,,,,,,,,,,
15.14.10.452,41.4,10.4,0,,,20977.6,47.67,0.02,1.13,-0.65,-4.4,11.4,6.2,34.92,,,,,,,,,,
15.14.10.461,133.2,33.3,0,,,20977.6,47.67,-0.48,0.6,-0.42,-3.9,10.5,-6.5,35.14,,,,,,,,,,
15.14.10.471,267.8,67.0,0,,,20977.6,47.67,0.24,0.53,0.99,-35.5,-26.7,-16.1,35.22,,,,,,,,,,
15.14.10.481,394.7,98.7,0,,,20977.6,47.67,-0.23,0.73,-0.03,6.6,-3.8,12.4,34.39,,,,,,,,,,
15.14.10.491,514.2,128.6,0,,,20977.6,47.67,-0.09,0.34,0.57,4.1,-4.3,-1.9,34.86,,,,,,,,,,
15.14.10.502,444.7,111.2,0,,,20977.6,47.67,-0.3,0.42,1.21,2.4,1.2,-11.0,34.91,,,,,,,,,,
15.14.10.512,465.3,116.3,0,,,20977.6,47.67,-0.09,-0.11,0.88,-48.8,9.2,11.9,34.84,,,,,,,,,,
15.14.10.521,446.7,111.7,1,28.0,126.8,20982.0,47.66,0.12,0.49,0.45,0.6,-8.5,-5.3,35.8,,,,,,,,,,
15.14.10.532,492.6,123.2,0,,,20982.0,47.66,-0.29,0.26,0.44,-18.8,10.1,-11.6,35.23,,,,,,,,,,
15.14.10.540,463.2,115.8,0,,,20982.0,47.66,-0.69,-0.21,1.38,-38.5,19.3,21.9,35.14,,,,,,,,,,
15.14.10.550,433.3,108.3,0,,,20982.0,47.66,-0.14,0.13,0.47,-22.6,-11.1,15.0,35.18,,,,,,,,,,
15.14.10.559,393.5,98.4,0,,,20982.0,47.66,0.21,-0.21,1.13,3.2,-11.2,8.9,34.82,,,,,,,,,,
15.14.10.569,211.3,52.8,0,,,20982.0,47.66,-0.08,-0.35,0.99,19.0,-4.4,21.9,35.63,,,,,,,,,,
15.14.10.578,170.3,42.6,0,,,20982.0,47.66,-0.58,-0.07,1.36,25.5,10.4,-9.0,34.75,,,,,,,,,,
15.14.10.589,6.0,1.5,0,,,20986.4,47.65,-0.82,0.75,-0.37,-25.5,22.1,5.9,35.18,,,,,,,,,,
15.14.10.598,29.0,7.2,0,,,20986.4,47.65,-0.26,0.37,-0.45,-11.3,-11.8,-7.6,34.54,,,,,,,,,,
15.14.10.609,48.9,12.2,0,,,20986.4,47.65,-0.56,-0.17,-0.32,3.5,9.3,-8.6,35.07,,,,,,,,,,
15.14.10.617,63.2,15.8,0,,,20986.4,47.65,-0.82,-0.23,-0.02,21.4,6.4,20.0,35.21,,,,,,,,,,
15.14.10.630,90.1,22.5,0,,,20986.4,47.65,-0.43,-0.23,-1.03,-14.1,14.0,-4.5,34.59,,,,,,,,,,
15.14.10.638,40.9,10.2,0,,,20986.4,47.65,-0.62,-0.15,-0.87,28.9,6.5,8.1,34.89,,,,,,,,,,
15.14.10.648,104.8,26.2,0,,,20990.8,47.64,-0.61,0.08,-0.2,-11.5,16.5,-23.5,35.02,,,,,,,,,,
15.14.10.657,95.8,24.0,0,,,20990.8,47.64,-0.63,0.74,-0.28,-11.3,-0.3,-19.2,35.09,,,,,,,,,,
15.14.10.665,10.1,2.5,0,,,20990.8,47.64,-1.42,0.05,-0.29,0.8,-18.0,4.7,35.07,,,,,,,,,,
15.14.10.673,38.3,9.6,0,,,20990.8,47.64,-0.66,-0.19,-1.39,-2.5,-10.1,-15.1,35.11,,,,,,,,,,
15.14.10.684,20.6,5.2,0,,,20990.8,47.64,-0.96,0.68,0.0,-6.1,-12.0,-1.6,35.19,,,,,,,,,,
15.14.10.694,-49.2,12.3,0,,,20990.8,47.64,-1.14,0.46,-0.48,-8.5,1.1,-5.0,34.91,,,,,,,,,,
15.14.10.706,29.3,7.3,0,,,20990.8,47.64,-0.72,0.96,-0.73,-11.3,1.8,-15.5,34.82,,,,,,,,,,
15.14.10.716,-96.8,24.2,0,,,20995.2,47.63,-1.1,0.31,-0.27,-18.6,-16.2,12.7,35.07,,,,,,,,,,
15.14.10.724,-109.8,27.4,0,,,20995.2,47.63,-1.24,0.8,-0.71,26.1,10.6,-1.9,34.8,,,,,,,,,,
15.14.10.735,-41.9,10.5,0,,,20995.2,47.63,-0.43,0.35,-0.26,-11.3,-2.3,-20.3,34.33,,,,,,,,,,
15.14.10.745,-76.1,19.0,0,,,20995.2,47.63,-0.33,0.46,0.38,-4.7,-16.1,17.4,35.17,,,,,,,,,,
15.14.10.754,-71.2,17.8,0,,,20995.2,47.63,-0.57,1.43,-0.31,13.9,2.9,-11.4,35.18,,,,,,,,,,
15.14.10.764,-22.6,5.6,0,,,20995.2,47.63,-0.28,0.78,0.04,-18.3,0.6,19.4,35.24,,,,,,,,,,
15.14.10.772,-102.1,25.5,0,,,20995.2,47.63,-0.29,0.55,-0.97,14.3,-9.3,-23.5,35.12,,,,,,,,,,
15.14.10.780,-151.0,37.8,0,,,20995.2,47.63,0.04,0.25,0.75,8.7,1.5,-18.6,34.7,,,,,,,,,,
15.14.10.791,-119.4,29.8,0,,,20999.6,47.62,0.12,1.27,1.03,-6.8,23.2,11.6,35.19,,,,,,,,,,
15.14.10.803,-73.1,18.3,0,,,20999.6,47.62,-0.5,1.25,1.31,-35.5,14.3,10.9,34.94,,,,,,,,,,
15.14.10.813,-153.9,38.5,0,,,20999.6,47.62,-0.49,0.35,-0.58,0.9,0.4,6.8,34.84,,,,,,,,,,
15.14.10.822,-164.2,41.0,0,,,20999.6,47.62,-0.66,0.37,0.78,-10.2,18.9,24.9,34.76,,,,,,,,,,
15.14.10.831,-130.5,32.6,0,,,20999.6,47.62,-0.1,0.22,0.69,2.6,-2.9,3.5,35.02,,,,,,,,,,
15.14.10.841,-130.9,32.7,0,,,20999.6,47.62,0.02,0.28,1.03,-42.1,-5.8,-12.4,35.09,,,,,,,,,,
15.14.10.851,-169.6,42.4,0,,,21004.0,47.61,-0.37,0.16,0.01,-26.0,22.2,-14.1,35.05,,,,,,,,,,
15.14.10.861,-259.5,64.9,0,,,21004.0,47.61,-0.31,0.15,0.53,31.7,13.6,-10.7,35.19,,,,,,,,,,
15.14.10.871,48.9,12.2,0,,,21004.0,47.61,-0.18,0.78,0.65,-17.3,10.0,-7.4,34.73,,,,,,,,,,
15.14.10.881,134.6,33.6,0,,,21004.0,47.61,-0.28,0.23,0.09,22.8,13.9,-32.1,34.76,,,,,,,,,,
15.14.10.890,213.1,53.3,1,29.0,162.6,21004.0,47.61,-0.48,0.68,0.02,-32.3,-6.2,16.6,35.0,,,,,,,,,,
15.14.10.900,285.1,71.3,0,,,21004.0,47.61,-0.31,0.31,1.19,-29.9,-8.6,-3.4,34.9,,,,,,,,,,
15.14.10.909,316.1,79.0,0,,,21004.0,47.61,-0.46,0.48,1.04,-5.4,4.2,-17.0,35.25,,,,,,,,,,
15.14.10.921,396.0,99.0,0,,,21008.4,47.6,-0.16,-0.08,0.11,2.8,27.0,-15.5,34.93,,,,,,,,,,
15.14.10.932,520.1,130.0,0,,,21008.4,47.6,-0.42,0.69,0.37,-13.1,-8.4,-9.2,34.51,,,,,,,,,,
15.14.10.942,584.8,146.2,0,,,21008.4,47.6,-0.5,0.2,0.31,40.7,15.9,-20.7,34.85,,,,,,,,,,
15.14.10.953,542.2,135.6,0,,,21008.4,47.6,-0.55,-0.33,0.31,8.7,26.7,-18.6,34.92,,,,,,,,,,
15.14.10.962,451.6,112.9,0,,,21008.4,47.6,-0.81,-0.08,0.11,-29.8,-6.0,-1.9,34.42,,,,,,,,,,
15.14.10.972,384.2,96.0,0,,,21008.4,47.6,-0.15,-0.03,0.26,-6.9,-11.1,-2.1,34.83,,,,,,,,,,
15.14.10.984,324.9,81.2,0,,,21008.4,47.6,-1.03,0.4,-0.01,26.6,3.8,-4.4,34.86,,,,,,,,,,
15.14.10.993,206.6,51.6,0,,,21012.8,47.59,-0.49,0.32,0.13,26.1,-40.1,5.2,35.02,,,,,,,,,,
15.14.11.002,144.1,36.0,0,,,21012.8,47.59,-0.74,0.61,-0.15,-10.2,8.3,-4.8,35.24,,,,,,,,,,
15.14.11.010,91.7,22.9,0,,,21012.8,47.59,-0.47,0.56,0.39,10.5,-2.9,2.0,34.99,,,,,,,,,,
15.14.11.021,-14.0,3.5,0,,,21012.8,47.59,-0.64,0.03,-0.3,11.6,-3.4,-6.3,34.98,,,,,,,,,,
15.14.11.031,27.1,6.8,0,,,21012.8,47.59,-0.39,1.12,0.16,3.2,-4.9,0.3,34.76,,,,,,,,,,
15.14.11.042,62.6,15.6,0,,,21012.8,47.59,-1.0,0.49,-0.32,3.1,13.2,1.4,35.43,,,,,,,,,,
15.14.11.052,63.6,15.9,0,,,21017.2,47.58,-0.38,0.64,0.23,-0.9,21.3,12.9,35.21,,,,,,,,,,
15.14.11.061,90.2,22.6,0,,,21017.2,47.58,-0.71,0.14,-0.18,-13.7,-13.1,-8.4,34.94,,,,,,,,,,
15.14.11.072,94.1,23.5,0,,,21017.2,47.58,-0.26,0.12,0.01,-22.9,11.0,18.1,34.66,,,,,,,,,,
15.14.11.082,76.4,19.1,0,,,21017.2,47.58,-0.45,1.08,0.43,-7.0,1.3,-3.9,35.16,,,,,,,,,,
15.14.11.091,4.7,1.2,0,,,21017.2,47.58,-0.81,1.01,0.1,-5.9,22.0,-22.8,35.51,,,,,,,,,,
15.14.11.098,27.8,7.0,0,,,21017.2,47.58,-0.41,0.4,-0.26,-21.7,22.1,2.3,35.3,,,,,,,,,,
15.14.11.107,-5.6,1.4,0,,,21021.7,47.57,-0.35,0.48,0.1,-13.5,22.3,-7.9,35.04,,,,,,,,,,
15.14.11.117,-63.3,15.8,0,,,21021.7,47.57,-0.35,1.24,0.77,-8.0,17.7,-2.5,35.25,,,,,,,,,,
15.14.11.126,8.2,2.0,0,,,21021.7,47.57,0.01,0.72,0.81,-10.9,15.2,37.0,35.36,,,,,,,,,,
15.14.11.134,-24.3,6.1,0,,,21021.7,47.57,-0.7,0.67,0.43,-10.5,-1.7,-13.8,34.8,,,,,,,,,,
15.14.11.144,-34.9,8.7,0,,,21021.7,47.57,-0.8,1.04,0.34,-27.7,1.5,4.6,34.89,,,,,,,,,,
15.14.11.156,-35.2,8.8,0,,,21026.1,47.56,-0.83,1.12,1.09,-11.0,1.7,7.4,34.99,,,,,,,,,,
15.14.11.167,-74.0,18.5,0,,,21026.1,47.56,-0.52,0.65,0.57,-26.4,-5.3,4.2,35.05,,,,,,,,,,
15.14.11.175,-71.1,17.8,0,,,21026.1,47.56,-0.27,0.89,0.74,-8.4,-5.8,4.2,35.04,,,,,,,,,,
15.14.11.184,-39.6,9.9,0,,,21026.1,47.56,-0.5,0.52,0.35,-4.6,-14.1,-1.6,35.18,,,,,,,,,,
15.14.11.193,-91.1,22.8,0,,,21026.1,47.56,-0.09,0.64,1.55,-15.6,26.2,12.5,35.33,,,,,,,,,,
15.14.11.201,-106.2,26.6,1,30.0,192.9,21026.1,47.56,-0.03,0.22,1.16,-23.9,9.2,-7.3,34.75,,,,,,,,,,
15.14.11.211,-121.8,30.4,0,,,21030.5,47.55,-0.11,0.3,0.12,6.9,-11.7,16.2,35.31,,,,,,,,,,
15.14.11.221,-87.5,21.9,0,,,21030.5,47.55,0.3,0.75,1.13,-3.9,-2.7,10.2,35.61,,,,,,,,,,
15.14.11.231,-154.2,38.6,0,,,21030.5,47.55,-0.11,1.1,0.3,-12.4,9.8,-13.4,35.04,,,,,,,,,,
15.14.11.240,-153.5,38.4,0,,,21030.5,47.55,-0.41,-0.75,0.47,-10.8,14.9,13.3,34.95,,,,,,,,,,
15.14.11.251,-175.1,43.8,0,,,21030.5,47.55,-0.03,0.5,-0.65,5.2,20.7,-6.3,34.67,,,,,,,,,,
15.14.11.262,-202.7,50.7,0,,,21030.5,47.55,0.04,-0.13,0.28,-6.3,-17.1,16.5,35.16,,,,,,,,,,
15.14.11.271,-98.7,24.7,0,,,21034.9,47.54,-0.66,0.24,0.85,-0.9,-9.7,20.5,34.94,,,,,,,,,,
15.14.11.280,-171.4,42.8,0,,,21034.9,47.54,-0.49,0.03,0.45,-14.3,-15.2,22.2,34.73,,,,,,,,,,
15.14.11.290,-191.6,47.9,0,,,21034.9,47.54,-0.43,-0.43,0.29,-7.1,27.1,14.3,34.98,,,,,,,,,,
15.14.11.301,54.5,13.6,0,,,21034.9,47.54,-0.62,-0.14,0.32,-5.9,32.9,5.9,35.25,,,,,,,,,,
15.14.11.309,111.5,27.9,0,,,21034.9,47.54,-0.54,0.05,0.26,-7.4,41.4,-17.6,35.05,,,,,,,,,,
15.14.11.319,148.4,37.1,0,,,21034.9,47.54,-0.8,0.27,0.59,-18.4,29.7,2.5,35.05,,,,,,,,,,
15.14.11.327,363.0,90.8,0,,,21039.3,47.53,-0.75,-0.15,0.91,6.7,1.6,3.8,34.64,,,,,,,,,,
15.14.11.336,399.6,99.9,0,,,21039.3,47.53,-0.74,0.52,-1.0,-0.7,-6.5,4.3,34.77,,,,,,,,,,
15.14.11.346,381.4,95.4,0,,,21039.3,47.53,-0.62,-0.36,-0.07,15.2,6.1,31.6,34.99,,,,,,,,,,
15.14.11.356,420.1,105.0,0,,,21039.3,47.53,-0.7,0.16,-0.14,16.4,2.1,-9.5,35.24,,,,,,,,,,
15.14.11.365,423.7,105.9,0,,,21039.3,47.53,-0.5,0.22,-0.42,8.4,15.1,4.5,34.89,,,,,,,,,,
15.14.11.377,432.3,108.1,0,,,21039.3,47.53,-1.23,0.76,-0.34,-42.1,3.2,-5.4,34.85,,,,,,,,,,
15.14.11.389,412.2,103.0,0,,,21043.8,47.52,-0.86,0.64,0.38,-17.9,19.1,-10.1,34.56,,,,,,,,,,
15.14.11.399,412.6,103.2,0,,,21043.8,47.52,-0.74,0.86,-0.06,-23.2,46.1,-7.0,35.06,,,,,,,,,,
15.14.11.408,350.8,87.7,0,,,21043.8,47.52,-0.27,0.5,0.31,-20.4,22.7,-5.8,35.16,,,,,,,,,,
15.14.11.417,228.9,57.2,0,,,21043.8,47.52,-0.61,0.7,-0.25,4.3,1.8,10.4,34.65,,,,,,,,,,
15.14.11.426,142.3,35.6,0,,,21043.8,47.52,-0.55,0.64,0.15,-1.2,-9.2,5.2,35.08,,,,,,,,,,
15.14.11.435,123.7,30.9,0,,,21048.2,47.51,-0.49,0.74,0.32,20.6,14.8,-7.4,34.69,,,,,,,,,,
15.14.11.447,23.6,5.9,0,,,21048.2,47.51,-0.58,1.01,-0.49,-13.2,15.5,-2.7,34.92,,,,,,,,,,
15.14.11.457,40.9,10.2,0,,,21048.2,47.51,-0.28,0.73,0.37,2.8,0.0,-17.5,35.11,,,,,,,,,,
15.14.11.468,0.3,0.1,0,,,21048.2,47.51,-0.24,0.96,1.42,-61.3,-7.5,4.2,35.26,,,,,,,,,,
15.14.11.477,15.7,3.9,0,,,21048.2,47.51,-0.49,0.78,0.32,15.1,7.4,0.4,35.3,,,,,,,,,,
15.14.11.487,62.4,15.6,0,,,21048.2,47.51,-0.57,0.47,-0.82,4.4,-2.5,-30.2,35.26,,,,,,,,,,
15.14.11.497,64.5,16.1,0,,,21052.6,47.5,-0.29,1.0,0.31,-2.5,11.0,-3.4,35.06,,,,,,,,,,
15.14.11.507,96.0,24.0,0,,,21052.6,47.5,-1.26,0.52,0.51,10.8,13.4,8.0,34.79,,,,,,,,,,
15.14.11.518,70.0,17.5,0,,,21052.6,47.5,-0.17,0.44,-0.21,45.9,2.7,7.7,34.24,,,,,,,,,,
15.14.11.526,37.0,9.2,0,,,21052.6,47.5,-0.44,0.7,0.25,1.6,20.0,4.0,35.0,,,,,,,,,,
15.14.11.535,-37.7,9.4,0,,,21052.6,47.5,-0.32,0.86,1.41,-9.7,-13.8,-4.6,34.73,,,,,,,,,,
15.14.11.546,-7.4,1.8,0,,,21052.6,47.5,-0.53,0.3,0.46,-5.0,-2.9,-12.9,35.34,,,,,,,,,,
15.14.11.556,-23.3,5.8,1,31.0,169.0,21057.1,47.49,-0.21,0.35,0.54,12.7,8.6,-8.0,34.94,,,,,,,,,,
15.14.11.565,-2.5,0.6,0,,,21057.1,47.49,-0.11,0.04,0.42,43.3,-14.6,0.7,35.18,,,,,,,,,,
15.14.11.574,-9.2,2.3,0,,,21057.1,47.49,-0.34,-0.08,1.57,-11.0,-3.8,11.5,34.97,,,,,,,,,,
15.14.11.583,-44.3,11.1,0,,,21057.1,47.49,-0.19,0.15,-0.32,-14.4,7.0,1.5,34.87,,,,,,,,,,
15.14.11.593,-117.4,29.4,0,,,21057.1,47.49,-0.36,0.14,0.29,12.2,-8.8,1.9,35.53,,,,,,,,,,
15.14.11.603,-16.8,4.2,0,,,21061.5,47.48,-0.76,0.53,-0.16,-21.8,-3.8,10.4,35.18,,,,,,,,,,
15.14.11.614,-106.5,26.6,0,,,21061.5,47.48,-0.31,-0.2,0.53,-2.9,-8.5,0.7,34.88,,,,,,,,,,
15.14.11.624,-118.4,29.6,0,,,21061.5,47.48,-0.31,-0.05,0.76,-20.0,-4.1,-0.5,34.7,,,,,,,,,,
15.14.11.635,-68.4,17.1,0,,,21061.5,47.48,-0.41,0.06,0.65,42.3,-14.9,-3.2,34.63,,,,,,,,,,
15.14.11.646,-72.9,18.2,0,,,21061.5,47.48,-0.67,-0.12,0.11,-3.3,-14.8,15.2,34.72,,,,,,,,,,
15.14.11.657,-128.6,32.2,0,,,21061.5,47.48,-0.84,-0.09,0.43,31.4,9.4,14.6,34.65,,,,,,,,,,
15.14.11.666,-168.5,42.1,0,,,21065.9,47.47,-0.43,0.14,0.08,5.1,7.9,-3.9,35.42,,,,,,,,,,
15.14.11.675,-133.6,33.4,0,,,21065.9,47.47,-0.81,-0.13,0.36,6.9,-7.8,-13.3,34.97,,,,,,,,,,
15.14.11.685,-180.3,45.1,0,,,21065.9,47.47,-0.64,-0.47,0.63,38.7,19.6,11.9,34.62,,,,,,,,,,
15.14.11.695,-257.8,64.4,0,,,21065.9,47.47,-0.69,0.41,0.6,-12.1,9.5,-2.3,35.0,,,,,,,,,,
15.14.11.704,-186.3,46.6,0,,,21065.9,47.47,-0.89,0.17,0.12,2.8,11.5,4.7,35.13,,,,,,,,,,
15.14.11.716,-135.0,33.8,0,,,21070.4,47.46,-0.32,0.66,-0.4,-24.4,-38.3,17.9,35.33,,,,,,,,,,
15.14.11.728,69.5,17.4,0,,,21070.4,47.46,-0.85,0.68,0.13,14.6,-36.5,11.1,34.99,,,,,,,,,,
15.14.11.736,113.2,28.3,0,,,21070.4,47.46,-0.73,0.25,0.09,-8.9,1.0,0.4,35.09,,,,,,,,,,
15.14.11.745,314.2,78.6,0,,,21070.4,47.46,-0.51,0.8,0.99,-20.1,17.2,-0.6,34.63,,,,,,,,,,
15.14.11.753,289.0,72.2,0,,,21070.4,47.46,-1.09,1.03,-0.18,-49.2,-23.5,-13.7,35.08,,,,,,,,,,
15.14.11.763,373.9,93.5,0,,,21070.4,47.46,-0.81,0.57,0.41,-22.8,-6.0,2.0,35.2,,,,,,,,,,
15.14.11.773,412.0,103.0,0,,,21074.8,47.45,-0.49,0.11,-0.4,-5.4,-7.5,11.0,34.95,,,,,,,,,,
15.14.11.782,479.6,119.9,0,,,21074.8,47.45,-0.57,0.68,-0.37,2.7,5.4,22.7,34.93,,,,,,,,,,
15.14.11.790,416.6,104.2,0,,,21074.8,47.45,-0.29,1.0,-0.53,19.5,-0.0,28.4,34.85,,,,,,,,,,
15.14.11.803,503.1,125.8,0,,,21074.8,47.45,-0.64,0.73,0.12,-2.1,7.3,-6.2,34.63,,,,,,,,,,
15.14.11.813,481.0,120.2,0,,,21074.8,47.45,-1.01,0.41,-0.12,7.3,-2.7,12.3,34.83,,,,,,,,,,
15.14.11.822,390.1,97.5,0,,,21074.8,47.45,-0.71,0.62,0.48,-7.0,7.2,-10.6,34.87,,,,,,,,,,
15.14.11.832,310.2,77.6,0,,,21079.3,47.44,-0.12,0.87,-0.86,-32.9,11.7,22.4,35.28,,,,,,,,,,
15.14.11.841,274.0,68.5,0,,,21079.3,47.44,-0.09,0.1,0.33,10.5,-1.1,-3.2,34.79,,,,,,,,,,
15.14.11.851,144.7,36.2,0,,,21079.3,47.44,-0.47,0.74,0.39,26.8,4.3,-3.1,35.38,,,,,,,,,,
15.14.11.860,105.8,26.4,0,,,21079.3,47.44,-0.14,0.96,0.28,-6.2,1.1,-9.9,34.86,,,,,,,,,,
15.14.11.870,39.2,9.8,1,32.0,191.1,21079.3,47.44,-0.41,0.75,1.09,-27.4,-3.3,-8.0,35.13,,,,,,,,,,
15.14.11.879,-18.6,4.6,0,,,21079.3,47.44,-0.12,0.85,1.38,5.4,3.7,24.4,35.29,,,,,,,,,,
15.14.11.889,106.1,26.5,0,,,21083.7,47.43,0.17,0.62,0.82,21.7,-29.3,7.1,34.42,,,,,,,,,,
15.14.11.898,119.3,29.8,0,,,21083.7,47.43,-0.4,0.48,1.17,-21.4,16.1,9.0,34.78,,,,,,,,,,
15.14.11.909,46.2,11.6,0,,,21083.7,47.43,-0.04,0.32,0.95,17.0,-1.0,7.5,34.83,,,,,,,,,,
15.14.11.920,81.8,20.4,0,,,21083.7,47.43,-0.2,0.01,1.46,0.0,11.5,-1.0,35.05,,,,,,,,,,
15.14.11.931,136.9,34.2,0,,,21083.7,47.43,-0.42,0.45,0.89,-6.4,14.0,7.3,35.14,,,,,,,,,,
15.14.11.941,86.9,21.7,0,,,21088.1,47.42,-0.08,-0.08,0.93,6.0,24.7,-23.6,34.87,,,,,,,,,,
15.14.11.951,-21.3,5.3,0,,,21088.1,47.42,-0.23,-0.03,0.8,-34.6,-14.0,15.3,35.42,,,,,,,,,,
15.14.11.963,-71.5,17.9,0,,,21088.1,47.42,-0.13,0.05,0.96,0.6,-8.4,-1.2,34.96,,,,,,,,,,
15.14.11.972,-31.0,7.8,0,,,21088.1,47.42,-0.56,-0.12,0.06,28.4,19.0,6.3,34.8,,,,,,,,,,
15.14.11.982,-68.7,17.2,0,,,21088.1,47.42,-0.21,0.24,0.5,9.8,2.6,-7.4,34.89,,,,,,,,,,
15.14.11.990,-38.6,9.6,0,,,21088.1,47.42,-0.07,-0.42,0.42,11.8,20.8,3.8,34.4,,,,,,,,,,
15.14.11.997,-88.7,22.2,0,,,21092.6,47.41,-0.58,0.14,0.15,-29.9,23.4,-3.7,34.85,,,,,,,,,,
15.14.12.008,-80.2,20.0,0,,,21092.6,47.41,-0.38,0.52,0.61,0.2,-4.2,-7.1,35.29,,,,,,,,,,
15.14.12.017,-61.6,15.4,0,,,21092.6,47.41,-0.63,0.15,-0.1,-20.0,10.7,-7.9,34.91,,,,,,,,,,
15.14.12.028,-42.3,10.6,0,,,21092.6,47.41,-0.13,0.46,-0.11,-3.5,20.3,-12.9,35.05,,,,,,,,,,
15.14.12.039,-85.3,21.3,0,,,21097.0,47.4,-0.68,-0.34,0.52,-8.3,19.2,-9.7,35.2,,,,,,,,,,
15.14.12.049,-67.5,16.9,0,,,21097.0,47.4,-0.8,0.21,-1.06,-28.0,-12.0,5.2,34.94,,,,,,,,,,
15.14.12.058,-105.6,26.4,0,,,21097.0,47.4,-0.9,0.71,-0.42,-3.5,10.1,2.9,34.87,,,,,,,,,,
15.14.12.066,-131.1,32.8,0,,,21101.5,47.39,-0.71,-0.35,0.46,-37.8,2.9,2.8,35.36,,,,,,,,,,
15.14.12.076,-92.6,23.2,0,,,21101.5,47.39,-0.6,0.31,-0.13,12.3,17.7,2.3,34.83,,,,,,,,,,
15.14.12.086,-171.3,42.8,0,,,21101.5,47.39,-1.16,0.43,0.6,-10.3,1.1,-1.5,35.16,,,,,,,,,,
15.14.12.095,-179.1,44.8,0,,,21101.5,47.39,-0.72,0.11,0.12,-11.3,-8.9,-6.2,35.1,,,,,,,,,,
15.14.12.103,-176.1,44.0,0,,,21106.0,47.38,-0.92,0.51,-1.24,-7.9,0.6,6.8,34.72,,,,,,,,,,
15.14.12.111,-192.8,48.2,0,,,21106.0,47.38,-0.98,1.01,-0.74,6.5,18.1,-3.7,35.38,,,,,,,,,,
15.14.12.121,-181.6,45.4,0,,,21106.0,47.38,-0.47,0.61,-0.44,-8.6,43.8,-18.0,34.99,,,,,,,,,,
15.14.12.131,-201.4,50.4,0,,,21106.0,47.38,-0.4,0.27,0.0,-8.6,19.1,-4.1,35.38,,,,,,,,,,
15.14.12.140,-242.8,60.7,0,,,21110.4,47.37,-0.32,1.15,-0.16,-6.3,6.7,-1.7,34.9,,,,,,,,,,
15.14.12.151,55.3,13.8,0,,,21110.4,47.37,-0.37,1.09,-0.7,-26.7,-6.6,8.4,35.46,,,,,,,,,,
15.14.12.161,160.1,40.0,0,,,21110.4,47.37,-0.68,0.62,0.63,-20.5,37.4,-8.8,35.09,,,,,,,,,,
15.14.12.169,261.2,65.3,0,,,21114.9,47.36,-0.78,1.33,0.29,-30.5,-9.4,-0.3,34.91,,,,,,,,,,
15.14.12.177,330.1,82.5,0,,,21114.9,47.36,-0.24,0.62,0.94,-16.6,-14.0,-8.3,34.64,,,,,,,,,,
15.14.12.186,320.8,80.2,1,33.0,189.9,21114.9,47.36,-0.79,0.8,-0.01,5.2,22.3,-2.0,35.14,,,,,,,,,,
15.14.12.196,452.3,113.1,0,,,21114.9,47.36,-0.16,0.76,0.3,26.9,19.0,-10.1,34.91,,,,,,,,,,
15.14.12.206,457.7,114.4,0,,,21119.3,47.35,-0.09,0.66,0.53,-8.2,25.5,1.4,35.18,,,,,,,,,,
15.14.12.216,513.8,128.4,0,,,21119.3,47.35,-0.23,0.04,1.03,5.7,29.6,22.7,35.19,,,,,,,,,,
15.14.12.225,521.3,130.3,0,,,21119.3,47.35,-0.4,1.32,0.2,-2.9,27.9,6.7,34.71,,,,,,,,,,
15.14.12.236,395.8,99.0,0,,,21119.3,47.35,-0.32,0.68,-0.05,-17.2,14.7,6.2,34.75,,,,,,,,,,
15.14.12.247,443.4,110.8,0,,,21123.8,47.34,-0.72,0.55,0.34,-16.1,3.6,-14.0,35.8,,,,,,,,,,
15.14.12.260,276.2,69.0,0,,,21123.8,47.34,-0.35,0.55,0.29,-27.7,33.3,16.5,35.02,,,,,,,,,,
15.14.12.268,263.8,66.0,0,,,21123.8,47.34,-0.33,0.01,0.37,-31.6,-5.6,-0.4,35.29,,,,,,,,,,
15.14.12.277,132.9,33.2,0,,,21128.2,47.33,-0.55,-0.3,0.09,4.2,0.6,0.8,34.84,,,,,,,,,,
15.14.12.286,89.0,22.2,0,,,21128.2,47.33,-0.73,0.75,0.95,3.3,18.7,-0.1,34.91,,,,,,,,,,
15.14.12.295,59.3,14.8,0,,,21128.2,47.33,-0.37,-0.14,0.42,-9.1,-13.1,3.9,35.04,,,,,,,,,,
15.14.12.302,36.8,9.2,0,,,21128.2,47.33,-0.31,0.09,-0.14,-3.2,18.9,-1.3,34.49,,,,,,,,,,
15.14.12.312,9.4,2.4,0,,,21132.7,47.32,-0.68,-0.13,0.28,25.4,16.3,-16.2,35.49,,,,,,,,,,
15.14.12.320,113.0,28.2,0,,,21132.7,47.32,-0.39,0.11,-0.08,-11.5,45.5,-14.1,35.02,,,,,,,,,,
15.14.12.329,140.2,35.0,0,,,21132.7,47.32,-0.08,0.55,0.63,26.4,17.7,1.4,34.81,,,,,,,,,,
15.14.12.338,112.1,28.0,0,,,21132.7,47.32,-0.18,0.03,0.17,-17.2,9.1,-13.0,35.32,,,,,,,,,,
15.14.12.347,86.7,21.7,0,,,21137.2,47.31,-0.25,-0.26,-0.14,28.8,1.2,5.9,34.88,,,,,,,,,,
15.14.12.357,14.4,3.6,0,,,21137.2,47.31,-0.59,0.63,0.07,-21.0,20.9,-12.4,35.25,,,,,,,,,,
15.14.12.363,57.9,14.5,0,,,21137.2,47.31,-0.74,0.02,0.41,-0.2,-6.0,7.8,35.3,,,,,,,,,,
15.14.12.373,-43.5,10.9,0,,,21137.2,47.31,-0.7,0.44,-0.17,-9.9,-18.8,-1.3,35.14,,,,,,,,,,
15.14.12.384,11.0,2.8,0,,,21141.6,47.3,-0.31,0.21,0.2,-8.3,9.0,6.1,34.87,,,,,,,,,,
15.14.12.392,-60.8,15.2,0,,,21141.6,47.3,-0.73,0.35,-0.19,-1.1,19.4,5.4,34.65,,,,,,,,,,
15.14.12.400,-19.0,4.8,0,,,21141.6,47.3,-0.66,0.21,0.07,-19.9,3.2,-5.6,34.68,,,,,,,,,,
15.14.12.410,13.4,3.4,0,,,21141.6,47.3,-0.7,0.66,-0.34,10.4,11.5,-31.7,34.85,,,,,,,,,,
15.14.12.422,-20.7,5.2,0,,,21146.1,47.29,-0.74,0.31,-0.02,-35.8,15.1,-1.0,34.42,,,,,,,,,,
15.14.12.432,-94.3,23.6,0,,,21146.1,47.29,-0.81,0.98,0.01,8.2,10.6,4.0,35.36,,,,,,,,,,
15.14.12.443,-64.4,16.1,0,,,21146.1,47.29,-0.61,-0.27,-0.2,-10.2,16.1,-7.1,35.07,,,,,,,,,,
15.14.12.452,-121.6,30.4,0,,,21150.6,47.28,-0.79,0.41,-0.35,-2.5,-8.4,-6.7,35.14,,,,,,,,,,
15.14.12.460,-72.3,18.1,0,,,21150.6,47.28,-0.49,0.21,0.16,-19.5,33.3,1.5,34.74,,,,,,,,,,
15.14.12.469,-158.8,39.7,0,,,21150.6,47.28,-0.62,0.74,0.2,30.8,-6.2,4.4,35.55,,,,,,,,,,
15.14.12.478,-111.9,28.0,0,,,21150.6,47.28,-0.02,1.03,0.58,-18.3,19.9,0.5,34.94,,,,,,,,,,
15.14.12.488,-53.9,13.5,0,,,21155.1,47.27,-0.69,0.64,0.92,20.4,17.6,-6.6,34.35,,,,,,,,,,
15.14.12.498,-115.7,28.9,1,34.0,192.3,21155.1,47.27,-0.28,1.09,0.1,-15.8,-12.0,-6.1,35.14,,,,,,,,,,
15.14.12.509,-173.9,43.5,0,,,21155.1,47.27,-0.27,0.06,1.21,-1.5,-0.3,-3.2,35.22,,,,,,,,,,
15.14.12.519,-153.8,38.4,0,,,21159.5,47.26,-0.27,1.4,0.71,8.3,0.3,-7.6,35.19,,,,,,,,,,
15.14.12.529,-152.2,38.0,0,,,21159.5,47.26,-0.83,0.64,0.49,-3.9,13.4,-12.3,35.19,,,,,,,,,,
15.14.12.540,-178.1,44.5,0,,,21159.5,47.26,-0.52,0.49,-0.04,-0.1,4.7,-13.4,34.84,,,,,,,,,,
15.14.12.551,-209.7,52.4,0,,,21164.0,47.25,-0.38,0.83,0.16,-3.1,-22.1,-17.3,35.42,,,,,,,,,,
15.14.12.561,-181.2,45.3,0,,,21164.0,47.25,-0.43,0.26,0.54,-29.5,21.0,19.9,34.61,,,,,,,,,,
15.14.12.569,24.7,6.2,0,,,21164.0,47.25,-0.36,0.7,1.1,1.1,25.3,23.9,35.32,,,,,,,,,,
15.14.12.577,53.7,13.4,0,,,21164.0,47.25,-0.55,0.99,0.09,14.0,0.1,11.2,35.37,,,,,,,,,,
15.14.12.587,153.5,38.4,0,,,21168.5,47.24,-0.36,0.62,0.2,-18.6,-0.9,-25.5,34.87,,,,,,,,,,
15.14.12.598,329.4,82.4,0,,,21168.5,47.24,-0.77,-0.14,1.28,-23.6,26.8,11.3,35.06,,,,,,,,,,
15.14.12.606,338.7,84.7,0,,,21168.5,47.24,-0.36,-0.09,0.63,-24.2,8.2,-0.6,34.86,,,,,,,,,,
15.14.12.616,486.1,121.5,0,,,21168.5,47.24,-0.63,0.18,0.49,-2.1,15.7,-34.0,35.31,,,,,,,,,,
15.14.12.626,496.1,124.0,0,,,21173.0,47.23,-0.01,-0.68,0.84,-23.3,10.9,23.2,35.51,,,,,,,,,,
15.14.12.637,457.0,114.2,0,,,21173.0,47.23,-0.15,-0.58,0.32,-15.7,9.9,8.7,34.73,,,,,,,,,,
15.14.12.646,511.7,127.9,0,,,21173.0,47.23,-0.37,0.65,0.25,6.0,2.1,2.0,35.98,,,,,,,,,,
15.14.12.656,451.1,112.8,0,,,21177.5,47.22,-0.79,0.48,-0.19,15.7,0.0,-17.5,35.01,,,,,,,,,,
15.14.12.665,442.6,110.6,0,,,21177.5,47.22,-0.33,0.01,0.49,-3.2,12.9,4.8,35.23,,,,,,,,,,
15.14.12.674,439.9,110.0,0,,,21177.5,47.22,-0.74,-0.6,-0.11,11.0,12.6,-5.4,35.18,,,,,,,,,,
15.14.12.685,295.8,74.0,0,,,21177.5,47.22,-0.54,0.17,0.26,-38.0,-30.8,6.8,35.39,,,,,,,,,,
15.14.12.697,198.9,49.7,0,,,21182.0,47.21,-0.59,-0.41,0.44,-15.0,18.9,-2.9,34.91,,,,,,,,,,
15.14.12.704,101.4,25.4,0,,,21182.0,47.21,-0.43,-0.08,-0.27,-15.4,-1.0,0.7,34.69,,,,,,,,,,
15.14.12.713,-1.2,0.3,0,,,21182.0,47.21,-0.37,0.2,0.53,15.2,24.7,-18.3,34.56,,,,,,,,,,
15.14.12.722,59.6,14.9,0,,,21182.0,47.21,-0.49,0.44,-0.24,31.1,1.3,-6.9,34.81,,,,,,,,,,
15.14.12.732,76.2,19.0,0,,,21186.4,47.2,-0.58,0.71,0.23,17.4,16.5,-2.5,35.0,,,,,,,,,,
15.14.12.742,81.5,20.4,0,,,21186.4,47.2,-0.61,-0.23,-0.31,-31.3,-7.9,-10.7,35.0,,,,,,,,,,
15.14.12.753,93.8,23.4,0,,,21186.4,47.2,-0.69,0.46,-0.78,-9.0,10.1,-6.8,34.85,,,,,,,,,,
15.14.12.763,94.3,23.6,0,,,21190.9,47.19,-0.94,0.39,-0.33,6.3,-9.2,0.3,34.96,,,,,,,,,,
15.14.12.771,74.8,18.7,0,,,21190.9,47.19,-0.9,0.8,-0.18,-21.2,12.8,12.2,34.86,,,,,,,,,,
15.14.12.780,54.0,13.5,0,,,21190.9,47.19,-0.44,0.35,-0.08,20.4,11.9,-13.8,35.51,,,,,,,,,,
15.14.12.790,4.8,1.2,0,,,21190.9,47.19,-1.25,0.15,-0.96,-8.5,30.4,-3.1,35.33,,,,,,,,,,
15.14.12.800,25.5,6.4,0,,,21195.4,47.18,-0.59,0.47,-0.23,-7.5,5.4,12.1,34.81,,,,,,,,,,
15.14.12.811,27.2,6.8,0,,,21195.4,47.18,-0.63,0.81,-0.25,0.8,15.0,-4.9,35.09,,,,,,,,,,
15.14.12.820,-13.7,3.4,0,,,21195.4,47.18,-0.46,0.39,0.23,-14.4,-2.0,5.5,35.3,,,,,,,,,,
15.14.12.830,-43.9,11.0,0,,,21199.9,47.17,-0.69,0.81,-0.27,-1.2,17.2,-6.2,35.04,,,,,,,,,,
15.14.12.837,42.7,10.7,0,,,21199.9,47.17,-0.68,0.29,1.3,7.1,22.0,-1.6,35.25,,,,,,,,,,
15.14.12.849,-51.9,13.0,0,,,21199.9,47.17,-0.89,0.15,-0.0,-11.9,-4.9,-5.5,34.8,,,,,,,,,,
15.14.12.858,-74.2,18.6,0,,,21199.9,47.17,-0.25,1.27,0.41,13.1,-7.5,-5.3,35.09,,,,,,,,,,
15.14.12.868,-27.1,6.8,1,35.0,162.2,21204.4,47.16,-0.33,1.52,0.27,41.9,30.7,-4.7,35.11,,,,,,,,,,
15.14.12.877,-104.1,26.0,0,,,21204.4,47.16,-0.61,0.67,1.24,-28.1,19.9,9.7,34.73,,,,,,,,,,
15.14.12.890,-97.7,24.4,0,,,21204.4,47.16,-0.24,0.79,0.93,-5.7,-8.7,2.5,35.28,,,,,,,,,,
15.14.12.899,-120.3,30.1,0,,,21208.9,47.15,-0.62,0.57,-0.25,8.7,-5.4,-18.2,34.54,,,,,,,,,,
15.14.12.906,-102.3,25.6,0,,,21208.9,47.15,0.0,0.43,0.71,13.8,0.8,21.5,35.16,,,,,,,,,,
15.14.12.916,-177.2,44.3,0,,,21208.9,47.15,-0.01,0.76,0.75,-46.6,14.1,9.0,34.61,,,,,,,,,,
15.14.12.928,-166.1,41.5,0,,,21208.9,47.15,-0.5,1.26,0.3,16.1,11.2,-0.3,35.58,,,,,,,,,,
15.14.12.937,-128.6,32.2,0,,,21213.4,47.14,-0.22,0.29,1.45,-20.5,-9.1,-15.4,35.31,,,,,,,,,,
15.14.12.946,-149.6,37.4,0,,,21213.4,47.14,0.2,0.24,0.88,-12.0,7.1,11.3,34.82,,,,,,,,,,
15.14.12.956,-196.4,49.1,0,,,21213.4,47.14,-0.4,0.59,0.57,-16.2,13.4,-18.9,34.9,,,,,,,,,,
15.14.12.967,-188.0,47.0,0,,,21217.9,47.13,-0.07,-0.28,1.32,9.2,-13.0,-16.0,34.91,,,,,,,,,,
15.14.12.977,-251.1,62.8,0,,,21217.9,47.13,-0.18,-0.17,-0.16,-11.2,40.0,-2.2,34.86,,,,,,,,,,
15.14.12.986,-233.0,58.2,0,,,21217.9,47.13,-0.2,0.23,-0.28,-3.9,27.9,-0.1,34.85,,,,,,,,,,
15.14.12.998,116.2,29.0,0,,,21217.9,47.13,-0.25,1.03,-0.22,5.5,11.0,6.4,35.32,,,,,,,,,,
15.14.13.008,178.6,44.6,0,,,21222.4,47.12,-0.07,0.17,0.4,-30.5,4.4,-6.9,35.33,,,,,,,,,,
15.14.13.018,250.3,62.6,0,,,21222.4,47.12,-0.59,0.65,0.89,-11.3,-16.8,-12.9,35.2,,,,,,,,,,
15.14.13.027,374.9,93.7,0,,,21222.4,47.12,-0.55,-0.31,0.78,0.8,-2.5,-17.9,35.72,,,,,,,,,,
15.14.13.038,434.5,108.6,0,,,21226.9,47.11,-0.66,0.22,-0.09,1.5,11.4,6.2,35.1,,,,,,,,,,
15.14.13.045,443.1,110.8,0,,,21226.9,47.11,-0.81,0.15,-1.0,18.4,0.3,6.2,35.03,,,,,,,,,,
15.14.13.056,468.6,117.2,0,,,21226.9,47.11,-1.1,-0.15,-0.29,27.5,12.5,-5.2,34.64,,,,,,,,,,
15.14.13.066,461.3,115.3,0,,,21226.9,47.11,-0.59,0.17,-0.41,-9.4,4.7,5.0,35.22,,,,,,,,,,
15.14.13.077,521.3,130.3,0,,,21231.4,47.1,-0.94,0.03,0.14,5.5,-0.4,5.7,34.95,,,,,,,,,,
15.14.13.086,426.1,106.5,0,,,21231.4,47.1,-0.36,-0.08,0.25,41.4,5.9,-1.8,35.07,,,,,,,,,,
15.14.13.098,348.7,87.2,0,,,21231.4,47.1,-0.79,1.02,-0.56,-26.1,-14.8,-15.9,34.55,,,,,,,,,,
