timestamp,ppg,threshold,beat,beat_count,inst_bpm,gsr_resistance_ohm,gsr_conductance_us,accel_x,accel_y,accel_z,gyro_x,gyro_y,gyro_z,temp_c,window_bpm,window_temp_c,status_message,SpO2,bmi,age,height,weight,env_temp_c,env_humidity_pct
13.48.00.000,0.0,0.0,0,,,61996.3,16.13,-0.62,0.22,-0.44,-7.2,-1.9,-13.1,34.88,118.8,,,,30.2,26.0,167.64,85.0,31.44,45.0
13.48.00.010,54.6,13.6,0,,,61996.3,16.13,-0.81,0.17,-0.21,-15.1,28.6,20.2,34.64,,,,,,,,,,
13.48.00.017,88.5,22.1,0,,,61996.3,16.13,-0.85,0.18,0.12,-12.1,9.0,7.6,35.29,,,,,,,,,,
13.48.00.028,210.1,52.5,0,,,61996.3,16.13,-0.96,0.29,-0.17,6.2,4.1,5.4,34.56,,,,,,,,,,
13.48.00.037,223.0,55.8,0,,,61996.3,16.13,-0.82,0.12,-0.23,39.8,-19.0,-6.5,34.58,,,,,,,,,,
13.48.00.047,315.7,78.9,0,,,61996.3,16.13,-0.64,0.17,-0.29,-33.8,5.8,-1.6,34.97,,,,,,,,,,
13.48.00.057,347.3,86.8,0,,,61996.3,16.13,-0.63,0.43,-0.24,-15.4,26.3,-27.1,35.03,,,,,,,,,,
13.48.00.068,341.0,85.2,0,,,61996.3,16.13,-0.82,-0.03,-0.09,-9.5,30.8,3.7,34.41,,,,,,,,,,
13.48.00.078,385.1,96.3,0,,,61996.3,16.13,-0.66,0.01,-0.27,-12.9,23.8,-14.0,35.52,,,,,,,,,,
13.48.00.090,374.1,93.5,0,,,61996.3,16.13,-1.08,0.18,0.2,7.2,20.1,1.7,35.57,,,,,,,,,,
13.48.00.100,393.0,98.2,0,,,61996.3,16.13,-0.46,-0.1,0.08,28.4,-14.8,0.1,35.09,,,,,,,,,,
13.48.00.110,335.5,83.9,0,,,61996.3,16.13,-0.34,0.26,-0.02,13.9,26.1,1.6,35.21,,,,,,,,,,
13.48.00.120,377.1,94.3,0,,,61996.3,16.13,-0.85,-0.17,-0.24,29.7,5.6,-12.1,35.05,,,,,,,,,,
13.48.00.130,316.3,79.1,0,,,61996.3,16.13,-1.18,-0.12,-0.32,10.5,1.2,6.2,34.7,,,,,,,,,,
13.48.00.140,255.3,63.8,0,,,61996.3,16.13,-0.55,-0.19,-0.56,19.8,31.7,8.0,35.62,,,,,,,,,,
13.48.00.150,233.2,58.3,0,,,61996.3,16.13,-1.05,-0.26,0.02,9.0,6.0,-12.7,34.49,,,,,,,,,,
13.48.00.160,173.5,43.4,0,,,61996.3,16.13,-0.71,-0.05,0.24,-3.5,6.2,-15.0,35.08,,,,,,,,,,
13.48.00.171,84.3,21.1,0,,,61996.3,16.13,-0.68,-0.74,-0.4,19.0,21.6,3.5,34.78,,,,,,,,,,
13.48.00.180,15.1,3.8,0,,,61996.3,16.13,-0.29,-0.01,0.27,-28.8,4.9,13.9,34.93,,,,,,,,,,
13.48.00.191,-5.8,1.4,0,,,61996.3,16.13,-0.33,0.09,-0.38,-6.4,24.1,-5.7,35.53,,,,,,,,,,
13.48.00.200,39.1,9.8,0,,,61996.3,16.13,-0.44,-0.07,-0.25,-6.1,11.6,-22.3,34.76,,,,,,,,,,
13.48.00.208,61.2,15.3,0,,,61996.3,16.13,-0.74,0.7,-0.57,3.8,1.0,-6.7,34.8,,,,,,,,,,
13.48.00.217,67.9,17.0,0,,,61996.3,16.13,-0.64,-0.56,-0.3,-6.5,18.4,17.1,35.17,,,,,,,,,,
13.48.00.227,76.0,19.0,0,,,61996.3,16.13,-0.77,-0.13,-0.61,-2.7,2.6,3.6,35.02,,,,,,,,,,
13.48.00.235,94.6,23.6,0,,,61996.3,16.13,-0.56,0.15,-0.67,2.8,-1.9,19.5,34.8,,,,,,,,,,
13.48.00.245,69.4,17.4,0,,,61996.3,16.13,-0.6,-0.32,-0.01,-3.9,27.4,-5.3,34.82,,,,,,,,,,
13.48.00.254,79.2,19.8,0,,,61996.3,16.13,-0.56,-0.2,-0.68,13.2,24.5,-3.3,34.76,,,,,,,,,,
13.48.00.262,41.9,10.5,0,,,61996.3,16.13,-0.97,0.23,-0.71,8.2,6.5,-28.3,35.0,,,,,,,,,,
13.48.00.273,38.8,9.7,0,,,62034.7,16.12,-0.57,0.02,-0.02,33.8,-4.1,-7.0,35.28,,,,,,,,,,
13.48.00.282,6.5,1.6,0,,,62034.7,16.12,-0.77,-0.09,0.12,3.4,0.2,-2.4,35.12,,,,,,,,,,
13.48.00.291,-42.8,10.7,0,,,62034.7,16.12,-0.66,-0.12,-0.69,9.4,33.7,26.9,35.03,,,,,,,,,,
13.48.00.301,-23.0,5.8,0,,,62034.7,16.12,-0.6,0.17,-0.24,-7.2,-3.0,-0.4,35.33,,,,,,,,,,
13.48.00.312,-12.1,3.0,0,,,62034.7,16.12,-0.61,-0.25,-0.45,-1.3,22.1,-14.4,35.67,,,,,,,,,,
13.48.00.325,-12.5,3.1,0,,,62034.7,16.12,-0.41,-0.44,-0.33,-3.5,17.6,-13.8,34.65,,,,,,,,,,
13.48.00.333,-18.5,4.6,0,,,62034.7,16.12,-0.78,-0.33,-0.03,-2.5,2.0,-6.5,35.4,,,,,,,,,,
13.48.00.345,-52.1,13.0,0,,,62034.7,16.12,-0.65,-0.32,-0.8,-22.4,-21.8,3.0,35.69,,,,,,,,,,
13.48.00.357,-30.9,7.7,0,,,62034.7,16.12,-0.94,0.11,-0.54,8.8,2.1,11.7,34.55,,,,,,,,,,
13.48.00.369,-28.7,7.2,0,,,62034.7,16.12,-0.61,0.23,-0.05,26.9,8.5,3.7,34.63,,,,,,,,,,
13.48.00.378,-53.8,13.4,0,,,62034.7,16.12,-0.56,0.32,-0.41,-11.6,-37.9,-0.6,34.81,,,,,,,,,,
13.48.00.389,-45.5,11.4,0,,,62034.7,16.12,-0.61,-0.23,-0.51,-14.6,-10.0,12.9,35.06,,,,,,,,,,
13.48.00.397,-94.3,23.6,0,,,62034.7,16.12,-0.65,-0.24,-0.47,27.0,8.2,13.2,35.08,,,,,,,,,,
13.48.00.408,-104.5,26.1,0,,,62034.7,16.12,-1.18,-0.47,-0.16,25.1,-27.6,17.2,34.74,,,,,,,,,,
13.48.00.418,-79.8,20.0,0,,,62034.7,16.12,-0.7,-0.46,-0.37,-19.4,18.7,-19.2,35.24,,,,,,,,,,
13.48.00.425,-88.3,22.1,0,,,62034.7,16.12,-0.53,0.06,-0.74,1.8,14.4,-0.8,34.91,,,,,,,,,,
13.48.00.436,-118.6,29.6,0,,,62034.7,16.12,-0.97,-0.47,-0.31,-17.5,11.4,2.3,35.41,,,,,,,,,,
13.48.00.445,-121.1,30.3,0,,,62034.7,16.12,-0.82,-0.23,-0.75,-24.5,-1.6,-6.6,35.09,,,,,,,,,,
13.48.00.453,-91.4,22.8,0,,,62034.7,16.12,-0.99,0.6,-0.3,1.3,-1.1,3.4,35.04,,,,,,,,,,
13.48.00.463,-120.9,30.2,0,,,62034.7,16.12,-0.99,-0.25,-0.33,-28.0,-11.2,8.0,34.87,,,,,,,,,,
13.48.00.473,-113.7,28.4,0,,,62034.7,16.12,-0.57,-0.18,0.05,-19.8,-19.0,-9.0,34.98,,,,,,,,,,
13.48.00.481,-107.7,26.9,0,,,62034.7,16.12,-0.79,-0.62,-0.19,-14.4,22.0,0.8,35.02,,,,,,,,,,
13.48.00.490,-161.4,40.4,0,,,62034.7,16.12,-0.66,-0.44,-0.27,-9.8,-14.0,15.8,35.16,,,,,,,,,,
13.48.00.501,-130.2,32.6,0,,,62034.7,16.12,-0.68,-0.5,-0.59,-50.1,18.3,-13.4,35.25,,,,,,,,,,
13.48.00.511,-171.6,42.9,0,,,62034.7,16.12,-0.72,0.03,-0.06,-6.4,17.0,0.7,35.07,,,,,,,,,,
13.48.00.520,-165.2,41.3,0,,,62034.7,16.12,-0.67,-0.63,0.07,-27.2,9.4,5.5,35.05,,,,,,,,,,
13.48.00.531,100.2,25.0,1,1.0,,62034.7,16.12,-0.92,-0.32,-0.62,-51.3,-6.2,9.6,35.42,,,,,,,,,,
13.48.00.540,152.8,38.2,0,,,62034.7,16.12,-0.9,0.22,0.22,-2.1,-6.2,-31.0,34.87,,,,,,,,,,
13.48.00.550,185.7,46.4,0,,,62034.7,16.12,-0.79,-0.25,-0.13,-7.0,-21.5,-22.8,35.15,,,,,,,,,,
13.48.00.560,260.2,65.0,0,,,62034.7,16.12,-0.96,-0.09,-0.28,10.5,15.9,1.0,34.74,,,,,,,,,,
13.48.00.569,273.3,68.3,0,,,62034.7,16.12,-0.86,-0.47,-0.06,18.4,-1.9,-6.2,35.19,,,,,,,,,,
13.48.00.581,333.5,83.4,0,,,62034.7,16.12,-0.64,-0.02,0.08,4.8,2.4,5.8,35.15,,,,,,,,,,
13.48.00.589,390.7,97.7,0,,,62034.7,16.12,-0.68,0.07,0.1,-26.9,-0.7,-9.4,35.0,,,,,,,,,,
13.48.00.599,370.0,92.5,0,,,62034.7,16.12,-0.48,0.02,-0.31,3.6,31.2,-2.4,34.56,,,,,,,,,,
13.48.00.608,421.6,105.4,0,,,62034.7,16.12,-1.02,0.22,0.09,-2.4,-2.1,-34.1,34.74,,,,,,,,,,
13.48.00.619,409.0,102.2,0,,,62034.7,16.12,-1.04,-0.31,0.09,27.6,9.1,-9.3,34.98,,,,,,,,,,
13.48.00.631,393.9,98.5,0,,,62034.7,16.12,-0.9,-0.26,-0.2,-8.5,0.7,-0.2,34.63,,,,,,,,,,
13.48.00.641,334.9,83.7,0,,,62034.7,16.12,-0.87,-0.27,-0.47,-10.9,6.0,52.1,34.89,,,,,,,,,,
13.48.00.652,326.0,81.5,0,,,62034.7,16.12,-0.81,-0.11,-0.63,15.9,7.0,4.8,35.44,,,,,,,,,,
13.48.00.663,268.6,67.2,0,,,62034.7,16.12,-0.85,-0.54,-0.01,30.0,19.6,5.4,35.15,,,,,,,,,,
13.48.00.671,213.2,53.3,0,,,62034.7,16.12,-1.28,-0.2,0.01,-37.0,33.8,-6.6,34.76,,,,,,,,,,
13.48.00.681,134.2,33.6,0,,,62034.7,16.12,-0.94,0.32,-0.13,23.4,33.5,-29.5,34.94,,,,,,,,,,
13.48.00.691,58.6,14.6,0,,,62034.7,16.12,-0.79,0.1,-0.8,-24.0,24.1,-5.1,34.65,,,,,,,,,,
13.48.00.701,7.6,1.9,0,,,62034.7,16.12,-0.8,-0.28,0.14,11.2,-24.0,0.4,35.1,,,,,,,,,,
13.48.00.708,12.8,3.2,0,,,62034.7,16.12,-0.93,0.15,-0.46,29.7,-1.2,-21.1,34.57,,,,,,,,,,
13.48.00.718,0.5,0.1,0,,,62034.7,16.12,-0.88,0.2,-0.54,9.1,-30.9,-19.7,34.86,,,,,,,,,,
13.48.00.727,36.1,9.0,0,,,62034.7,16.12,-0.82,0.2,-0.7,11.0,9.7,-16.3,35.04,,,,,,,,,,
13.48.00.737,42.7,10.7,0,,,62034.7,16.12,-1.03,0.4,-0.42,15.0,-3.9,-3.9,35.08,,,,,,,,,,
13.48.00.746,72.8,18.2,0,,,62034.7,16.12,-0.87,0.06,-0.58,9.5,15.5,4.4,35.15,,,,,,,,,,
13.48.00.757,106.5,26.6,0,,,62034.7,16.12,-0.55,0.08,-0.4,-9.5,-2.4,10.3,34.93,,,,,,,,,,
13.48.00.766,72.4,18.1,0,,,62034.7,16.12,-1.28,-0.47,-0.47,-7.1,18.8,-17.6,34.96,,,,,,,,,,
13.48.00.775,60.6,15.2,0,,,62034.7,16.12,-1.09,0.13,-0.68,22.3,15.2,7.7,35.03,,,,,,,,,,
13.48.00.786,54.4,13.6,0,,,62034.7,16.12,-0.82,-0.14,-0.35,10.5,2.8,-32.8,35.17,,,,,,,,,,
13.48.00.796,5.5,1.4,0,,,62034.7,16.12,-0.51,-0.12,-0.48,3.5,3.2,-9.5,35.28,,,,,,,,,,
13.48.00.806,30.3,7.6,0,,,62034.7,16.12,-1.04,0.3,-0.43,-0.5,-5.8,-8.0,35.15,,,,,,,,,,
13.48.00.815,-32.3,8.1,0,,,62034.7,16.12,-0.97,0.25,-0.59,-5.1,1.4,-8.2,35.27,,,,,,,,,,
13.48.00.825,-13.6,3.4,0,,,62034.7,16.12,-0.67,0.03,-0.69,19.1,-3.6,14.1,34.66,,,,,,,,,,
13.48.00.836,-23.0,5.8,0,,,62073.2,16.11,-0.94,-0.29,-0.54,-24.1,24.6,5.8,35.07,,,,,,,,,,
13.48.00.845,-42.2,10.6,0,,,62073.2,16.11,-0.66,0.2,-0.15,-11.3,-1.8,8.7,34.67,,,,,,,,,,
13.48.00.858,-41.5,10.4,0,,,62073.2,16.11,-0.4,-0.04,-0.51,-9.0,-6.8,31.1,35.12,,,,,,,,,,
13.48.00.867,-34.1,8.5,0,,,62073.2,16.11,-0.95,0.02,-0.63,6.9,37.0,3.4,34.81,,,,,,,,,,
13.48.00.877,-57.5,14.4,0,,,62073.2,16.11,-0.91,-0.05,-0.2,-12.3,11.4,-15.3,35.18,,,,,,,,,,
13.48.00.887,-40.9,10.2,0,,,62073.2,16.11,-0.39,-0.54,-0.26,5.6,0.6,-15.9,34.76,,,,,,,,,,
13.48.00.896,-25.1,6.3,0,,,62073.2,16.11,-1.04,-0.19,-0.28,-8.7,14.6,-5.4,34.98,,,,,,,,,,
13.48.00.907,-81.5,20.4,0,,,62073.2,16.11,-0.48,0.22,-0.1,22.6,3.4,-24.8,34.88,,,,,,,,,,
13.48.00.918,-88.1,22.0,0,,,62073.2,16.11,-0.68,0.28,-0.34,-3.0,-0.6,19.4,34.96,,,,,,,,,,
13.48.00.927,-78.7,19.7,0,,,62073.2,16.11,-1.11,0.1,-0.67,14.4,8.7,-4.6,34.94,,,,,,,,,,
13.48.00.940,-92.6,23.2,0,,,62073.2,16.11,-0.67,0.4,-0.07,2.2,-5.3,7.6,35.1,,,,,,,,,,
13.48.00.950,-83.9,21.0,0,,,62073.2,16.11,-0.79,0.04,-0.06,8.7,14.8,-17.4,34.53,,,,,,,,,,
13.48.00.959,-78.9,19.7,0,,,62073.2,16.11,-0.87,0.11,0.14,27.2,-7.9,-0.8,35.31,,,,,,,,,,
13.48.00.968,-160.0,40.0,0,,,62073.2,16.11,-0.7,0.16,-0.54,6.7,-6.3,-17.4,34.89,,,,,,,,,,
13.48.00.976,-108.5,27.1,0,,,62073.2,16.11,-0.64,0.09,-0.09,2.4,4.1,8.5,35.54,,,,,,,,,,
13.48.00.984,-132.4,33.1,0,,,62073.2,16.11,-0.84,0.08,-0.01,4.6,-9.4,-2.9,34.97,,,,,,,,,,
13.48.00.994,-136.1,34.0,0,,,62073.2,16.11,-0.67,-0.46,-0.19,-2.6,5.5,-23.5,35.03,,,,,,,,,,
13.48.01.005,-145.6,36.4,0,,,62073.2,16.11,-0.81,0.48,-0.12,-14.6,20.3,-15.3,34.83,,,,,,,,,,
13.48.01.013,-149.8,37.4,0,,,62073.2,16.11,-0.78,-0.06,-0.23,-20.5,-2.8,-2.7,35.35,,,,,,,,,,
13.48.01.023,-162.5,40.6,1,2.0,122.0,62073.2,16.11,-0.54,-0.38,0.21,-21.4,-19.6,-3.5,34.97,,,,,,,,,,
13.48.01.034,-128.4,32.1,0,,,62073.2,16.11,-0.68,-0.22,-0.65,33.6,-5.3,9.7,35.37,,,,,,,,,,
13.48.01.043,-21.7,5.4,0,,,62073.2,16.11,-0.31,-0.09,0.32,-13.6,22.7,8.1,35.17,,,,,,,,,,
13.48.01.052,53.8,13.4,0,,,62073.2,16.11,-0.89,-0.28,-0.14,3.2,19.0,-19.4,34.73,,,,,,,,,,
13.48.01.061,120.4,30.1,0,,,62073.2,16.11,-0.87,0.27,-0.13,0.6,-22.7,12.0,34.95,,,,,,,,,,
13.48.01.070,175.8,44.0,0,,,62073.2,16.11,-0.69,0.33,-0.15,-1.6,-4.3,11.4,34.96,,,,,,,,,,
13.48.01.081,249.1,62.3,0,,,62073.2,16.11,-0.8,-0.09,-0.29,9.5,24.8,4.9,34.97,,,,,,,,,,
13.48.01.091,302.9,75.7,0,,,62073.2,16.11,-0.75,-0.28,-0.3,-6.7,-14.4,24.0,35.09,,,,,,,,,,
13.48.01.100,378.2,94.6,0,,,62073.2,16.11,-0.81,0.22,-0.19,1.9,11.3,-11.8,35.33,,,,,,,,,,
13.48.01.111,376.0,94.0,0,,,62073.2,16.11,-0.38,0.05,0.1,35.0,4.8,6.3,34.87,,,,,,,,,,
13.48.01.121,434.3,108.6,0,,,62073.2,16.11,-0.67,-0.24,-0.29,24.6,20.8,4.1,34.85,,,,,,,,,,
13.48.01.130,377.6,94.4,0,,,62073.2,16.11,-0.95,0.13,-0.58,-12.7,-8.4,-17.3,35.43,,,,,,,,,,
13.48.01.141,393.3,98.3,0,,,62073.2,16.11,-0.45,-0.32,-0.51,-14.7,20.8,-7.8,34.91,,,,,,,,,,
13.48.01.150,406.9,101.7,0,,,62073.2,16.11,-0.41,-0.55,-0.98,29.0,-16.0,9.8,34.71,,,,,,,,,,
13.48.01.159,403.7,100.9,0,,,62073.2,16.11,-1.14,0.62,-0.55,8.0,-11.8,5.9,35.47,,,,,,,,,,
13.48.01.169,344.8,86.2,0,,,62073.2,16.11,-0.6,-0.16,-0.8,13.5,9.4,-1.6,34.93,,,,,,,,,,
13.48.01.179,322.7,80.7,0,,,62073.2,16.11,-0.77,0.17,-0.44,5.5,18.8,1.1,35.03,,,,,,,,,,
13.48.01.189,239.0,59.8,0,,,62073.2,16.11,-0.78,-0.6,-0.61,12.0,6.9,-8.5,35.01,,,,,,,,,,
13.48.01.198,209.9,52.5,0,,,62073.2,16.11,-0.46,-0.39,-0.51,-35.2,0.4,-21.0,34.77,,,,,,,,,,
13.48.01.208,148.3,37.1,0,,,62073.2,16.11,-0.51,-0.22,-1.0,-5.5,-2.3,16.8,34.9,,,,,,,,,,
13.48.01.217,70.9,17.7,0,,,62073.2,16.11,-0.07,0.16,-0.03,-26.7,-4.1,11.0,34.81,,,,,,,,,,
13.48.01.228,25.9,6.5,0,,,62073.2,16.11,-0.61,-0.53,-0.19,20.4,-2.6,-21.4,35.5,,,,,,,,,,
13.48.01.235,-32.9,8.2,0,,,62073.2,16.11,-0.83,-0.08,-0.57,24.0,1.5,13.1,35.13,,,,,,,,,,
13.48.01.243,46.1,11.5,0,,,62073.2,16.11,-0.25,-0.43,-1.02,-20.1,1.4,-12.6,35.16,,,,,,,,,,
13.48.01.254,53.4,13.4,0,,,62073.2,16.11,-0.36,-0.02,-0.91,7.1,27.1,-5.1,35.64,,,,,,,,,,
13.48.01.263,77.0,19.2,0,,,62073.2,16.11,-0.54,-0.31,-0.42,-8.7,4.9,7.2,34.97,,,,,,,,,,
13.48.01.272,45.9,11.5,0,,,62073.2,16.11,-0.53,-0.25,-0.5,24.0,12.6,-12.5,34.3,,,,,,,,,,
13.48.01.282,72.8,18.2,0,,,62073.2,16.11,-1.06,0.07,-1.04,-16.4,11.2,11.7,34.94,,,,,,,,,,
13.48.01.291,76.4,19.1,0,,,62073.2,16.11,-0.78,-0.61,-0.24,24.9,-2.0,2.4,34.8,,,,,,,,,,
13.48.01.299,45.1,11.3,0,,,62073.2,16.11,-0.34,-0.82,-0.27,6.9,7.7,2.0,34.93,,,,,,,,,,
13.48.01.309,41.5,10.4,0,,,62073.2,16.11,-1.01,-0.36,-0.81,34.4,-5.6,5.6,35.34,,,,,,,,,,
13.48.01.320,17.4,4.4,0,,,62073.2,16.11,-0.71,-0.62,-0.13,19.5,9.9,6.4,35.15,,,,,,,,,,
13.48.01.329,11.0,2.8,0,,,62073.2,16.11,-0.7,-0.36,-0.15,-8.9,24.8,-2.8,35.07,,,,,,,,,,
13.48.01.340,-12.6,3.2,0,,,62073.2,16.11,-0.85,-0.36,-0.84,5.1,-16.3,-7.6,35.24,,,,,,,,,,
13.48.01.350,-12.6,3.2,0,,,62073.2,16.11,-0.91,0.11,-0.48,35.4,22.4,-8.1,35.02,,,,,,,,,,
13.48.01.358,-41.4,10.4,0,,,62073.2,16.11,-0.89,0.16,0.22,-28.6,-20.0,-10.3,35.1,,,,,,,,,,
13.48.01.368,-23.4,5.8,0,,,62073.2,16.11,-0.92,0.06,-0.56,-17.6,-9.6,11.9,35.09,,,,,,,,,,
13.48.01.376,5.7,1.4,0,,,62073.2,16.11,-0.69,-0.38,-0.09,9.1,4.0,-9.7,34.93,,,,,,,,,,
13.48.01.386,-48.3,12.1,0,,,62073.2,16.11,-1.02,-0.2,-0.45,22.9,5.8,14.2,34.77,,,,,,,,,,
13.48.01.397,-32.0,8.0,0,,,62073.2,16.11,-0.99,-0.06,-0.23,-9.1,-3.4,12.0,34.86,,,,,,,,,,
13.48.01.406,-50.1,12.5,0,,,62073.2,16.11,-1.17,-0.4,-0.42,-9.7,8.7,6.8,34.95,,,,,,,,,,
13.48.01.415,,,0,,,,,,,,,,,,,,,,,,,,,
13.48.01.425,-24.3,6.1,0,,,62073.2,16.11,-0.63,0.27,-0.39,0.6,29.8,0.3,35.41,,,,,,,,,,
13.48.01.436,-103.4,25.8,0,,,62073.2,16.11,-0.72,-0.62,-0.48,-7.3,25.9,-17.7,35.33,,,,,,,,,,
13.48.01.446,-95.4,23.8,0,,,62073.2,16.11,-0.69,-0.04,-0.14,12.1,-23.2,4.5,35.05,,,,,,,,,,
13.48.01.454,-60.0,15.0,0,,,62073.2,16.11,-0.74,-0.21,-0.08,0.6,2.0,7.2,34.34,,,,,,,,,,
13.48.01.463,-83.2,20.8,0,,,62073.2,16.11,-0.75,-0.23,-0.14,5.3,2.1,-9.6,35.29,,,,,,,,,,
13.48.01.472,-104.0,26.0,0,,,62073.2,16.11,-0.97,0.02,-0.5,-31.9,-1.0,1.9,35.2,,,,,,,,,,
13.48.01.482,-121.9,30.5,0,,,62073.2,16.11,-0.7,0.3,-0.06,-22.1,-15.6,-8.8,35.29,,,,,,,,,,
13.48.01.493,-134.1,33.5,0,,,62073.2,16.11,-0.88,0.22,-0.97,4.7,27.2,8.4,35.12,,,,,,,,,,
13.48.01.504,-109.6,27.4,0,,,62073.2,16.11,-1.04,-0.4,0.04,11.7,9.0,-15.7,34.63,,,,,,,,,,
13.48.01.515,-115.8,29.0,0,,,62073.2,16.11,-0.77,-0.02,-0.83,16.6,9.6,-0.6,35.1,,,,,,,,,,
13.48.01.525,-140.8,35.2,0,,,62073.2,16.11,-0.97,-0.04,-0.09,5.0,-8.3,-26.4,34.79,,,,,,,,,,
13.48.01.534,-154.4,38.6,0,,,62073.2,16.11,-0.7,-0.11,-0.11,-1.8,-3.9,16.9,34.52,,,,,,,,,,
13.48.01.543,-136.0,34.0,0,,,62073.2,16.11,-1.15,0.0,-0.52,-12.4,-18.6,-13.9,35.22,,,,,,,,,,
13.48.01.552,-112.5,28.1,0,,,62073.2,16.11,-0.77,-0.1,-0.41,-27.7,16.8,8.2,34.62,,,,,,,,,,
13.48.01.562,-185.1,46.3,1,3.0,111.3,62073.2,16.11,-1.01,0.17,-0.27,8.8,14.0,17.6,34.95,,,,,,,,,,
13.48.01.572,47.9,12.0,0,,,62073.2,16.11,-0.87,-0.24,-0.93,21.8,31.3,3.1,35.11,,,,,,,,,,
13.48.01.581,120.8,30.2,0,,,62073.2,16.11,-1.34,0.04,-0.43,34.3,-8.0,-13.1,35.27,,,,,,,,,,
13.48.01.592,174.7,43.7,0,,,62073.2,16.11,-0.83,-0.43,-0.8,22.3,21.5,-8.8,35.11,,,,,,,,,,
13.48.01.603,269.1,67.3,0,,,62073.2,16.11,-0.88,0.01,-0.56,10.6,2.8,-6.6,35.42,,,,,,,,,,
13.48.01.613,311.5,77.9,0,,,62073.2,16.11,-0.85,0.14,-0.64,-12.0,8.8,-1.2,35.17,,,,,,,,,,
13.48.01.624,374.4,93.6,0,,,62073.2,16.11,-0.5,-0.23,-0.35,14.8,-24.3,17.7,34.92,,,,,,,,,,
13.48.01.633,393.3,98.3,0,,,62073.2,16.11,-1.03,-0.29,-0.69,5.3,-6.1,29.2,34.75,,,,,,,,,,
13.48.01.644,384.7,96.2,0,,,62073.2,16.11,-1.09,-0.19,0.03,11.1,5.7,3.0,34.58,,,,,,,,,,
13.48.01.654,406.8,101.7,0,,,62073.2,16.11,-1.4,0.3,-0.57,5.1,20.9,7.3,34.73,,,,,,,,,,
13.48.01.665,382.1,95.5,0,,,62073.2,16.11,-1.17,-0.11,-0.26,13.4,25.4,-2.0,34.94,,,,,,,,,,
13.48.01.675,384.8,96.2,0,,,62073.2,16.11,-0.44,0.38,-0.35,-22.1,-4.4,-20.7,34.94,,,,,,,,,,
13.48.01.684,362.8,90.7,0,,,62073.2,16.11,-0.57,0.47,-0.04,21.0,13.8,11.9,34.9,,,,,,,,,,
13.48.01.693,326.8,81.7,0,,,62073.2,16.11,-1.04,-0.38,-0.24,15.2,-2.2,23.2,34.66,,,,,,,,,,
13.48.01.703,289.2,72.3,0,,,62073.2,16.11,-0.81,-0.1,-0.61,-5.8,-8.8,15.0,34.93,,,,,,,,,,
13.48.01.713,194.4,48.6,0,,,62073.2,16.11,-1.01,0.07,-0.65,15.7,25.4,-21.4,34.41,,,,,,,,,,
13.48.01.723,177.2,44.3,0,,,62073.2,16.11,-0.89,-0.31,-0.61,-7.7,-16.0,7.8,34.77,,,,,,,,,,
13.48.01.734,85.0,21.2,0,,,62073.2,16.11,-0.91,0.05,-0.47,-20.8,19.9,-10.1,34.81,,,,,,,,,,
13.48.01.743,8.0,2.0,0,,,62073.2,16.11,-0.6,0.06,-0.59,-33.5,7.5,-22.6,35.11,,,,,,,,,,
13.48.01.752,8.6,2.2,0,,,62073.2,16.11,-0.76,0.02,-0.17,-33.5,0.8,-10.5,35.17,,,,,,,,,,
13.48.01.762,71.6,17.9,0,,,62073.2,16.11,-0.6,0.43,-0.37,-26.2,-10.1,8.4,35.39,,,,,,,,,,
13.48.01.772,38.2,9.6,0,,,62073.2,16.11,-1.11,0.21,-0.47,-5.8,-6.2,-6.2,35.09,,,,,,,,,,
13.48.01.781,93.3,23.3,0,,,62073.2,16.11,-0.48,0.6,-0.36,16.0,9.3,-8.7,35.22,,,,,,,,,,
13.48.01.789,68.2,17.0,0,,,62073.2,16.11,-0.89,0.21,-0.34,11.2,-0.1,11.4,35.3,,,,,,,,,,
13.48.01.798,90.9,22.7,0,,,62073.2,16.11,-0.87,0.1,-0.33,34.8,11.3,12.7,35.04,,,,,,,,,,
13.48.01.807,78.2,19.6,0,,,62073.2,16.11,-0.4,-0.18,0.02,-19.0,30.6,4.9,34.61,,,,,,,,,,
13.48.01.818,61.7,15.4,0,,,62073.2,16.11,-0.59,0.05,-0.09,-18.6,5.4,1.2,35.01,,,,,,,,,,
13.48.01.828,59.1,14.8,0,,,62073.2,16.11,-0.6,0.57,0.01,15.7,10.3,-34.7,35.38,,,,,,,,,,
13.48.01.837,44.2,11.0,0,,,62073.2,16.11,-0.94,0.52,-0.0,21.0,8.5,17.8,34.57,,,,,,,,,,
13.48.01.847,11.2,2.8,0,,,62073.2,16.11,-0.73,0.29,-0.21,52.1,17.5,-17.9,35.07,,,,,,,,,,
13.48.01.855,-9.5,2.4,0,,,62073.2,16.11,-0.77,0.02,-0.36,-11.2,14.5,11.8,34.94,,,,,,,,,,
13.48.01.866,18.5,4.6,0,,,62073.2,16.11,-0.81,0.44,-0.24,-16.8,-18.4,-3.2,34.88,,,,,,,,,,
13.48.01.876,-5.9,1.5,0,,,62073.2,16.11,-0.66,-0.09,-0.23,-39.2,12.0,-4.8,35.21,,,,,,,,,,
13.48.01.886,-24.5,6.1,0,,,62073.2,16.11,-0.46,0.51,-0.03,24.5,-10.3,6.8,34.67,,,,,,,,,,
13.48.01.894,-2.9,0.7,0,,,62073.2,16.11,-0.69,0.48,0.25,17.7,26.2,-3.0,34.87,,,,,,,,,,
13.48.01.904,-28.1,7.0,0,,,62073.2,16.11,-0.64,0.22,0.27,58.4,-7.7,12.1,34.86,,,,,,,,,,
13.48.01.915,-36.8,9.2,0,,,62073.2,16.11,-0.76,-0.2,0.34,-12.6,6.3,7.4,34.92,,,,,,,,,,
13.48.01.926,-58.7,14.7,0,,,62073.2,16.11,-0.55,-0.13,0.19,-21.8,-3.9,9.4,34.31,,,,,,,,,,
13.48.01.937,-65.2,16.3,0,,,62073.2,16.11,-0.63,0.19,-0.71,6.0,16.6,-8.3,34.36,,,,,,,,,,
13.48.01.946,-52.7,13.2,0,,,62073.2,16.11,-0.93,-0.27,0.22,-37.8,19.9,26.4,35.19,,,,,,,,,,
13.48.01.956,-77.2,19.3,0,,,62073.2,16.11,-0.85,-0.49,-0.18,1.9,26.3,5.4,35.78,,,,,,,,,,
13.48.01.965,-87.1,21.8,0,,,62073.2,16.11,-0.4,0.33,-0.15,3.2,-3.7,3.3,34.81,,,,,,,,,,
13.48.01.974,-106.3,26.6,0,,,62073.2,16.11,-0.66,-0.06,-0.11,-2.6,7.5,-13.7,35.2,,,,,,,,,,
13.48.01.985,-75.5,18.9,0,,,62073.2,16.11,-0.54,0.07,-0.35,0.6,-19.5,-17.4,35.29,,,,,,,,,,
13.48.01.994,-98.0,24.5,0,,,62073.2,16.11,-0.7,-0.11,-0.44,29.4,-6.5,-21.6,35.1,,,,,,,,,,
13.48.02.003,-90.8,22.7,0,,,62073.2,16.11,-0.7,0.02,-0.2,-10.5,-8.6,-2.5,34.5,,,,,,,,,,
13.48.02.013,-108.2,27.0,0,,,62073.2,16.11,-0.52,0.05,-0.34,4.9,6.1,-5.1,34.79,,,,,,,,,,
13.48.02.023,-126.7,31.7,0,,,62073.2,16.11,-0.74,0.03,-0.38,16.1,18.9,-20.4,34.94,,,,,,,,,,
13.48.02.033,-138.2,34.6,1,4.0,127.4,62073.2,16.11,-0.86,0.14,-0.1,-11.0,-8.0,23.7,34.46,,,,,,,,,,
13.48.02.041,-103.7,25.9,0,,,62073.2,16.11,-0.57,0.07,-0.22,-21.2,29.0,-12.3,34.85,,,,,,,,,,
13.48.02.050,-117.5,29.4,0,,,62073.2,16.11,-0.91,-0.43,-0.23,7.0,14.2,-5.3,35.37,,,,,,,,,,
13.48.02.062,-117.7,29.4,0,,,62073.2,16.11,-0.99,-0.26,0.01,13.2,7.8,-24.1,35.23,,,,,,,,,,
13.48.02.072,-142.3,35.6,0,,,62073.2,16.11,-0.72,-0.26,-0.14,-39.0,-12.3,14.4,35.15,,,,,,,,,,
13.48.02.081,-156.8,39.2,0,,,62073.2,16.11,-0.67,-0.13,-0.52,-15.7,-3.9,-13.3,35.02,,,,,,,,,,
13.48.02.091,60.7,15.2,0,,,62073.2,16.11,-1.14,-0.07,-0.67,0.8,-5.2,-18.0,34.82,,,,,,,,,,
13.48.02.099,86.9,21.7,0,,,62073.2,16.11,-0.88,-0.34,-0.63,-1.1,8.9,25.4,34.84,,,,,,,,,,
13.48.02.109,191.1,47.8,0,,,62073.2,16.11,-0.56,-0.21,-0.96,-10.8,16.2,-8.2,34.8,,,,,,,,,,
13.48.02.117,242.7,60.7,0,,,62073.2,16.11,-0.77,-0.57,-0.98,10.8,-15.2,-9.6,34.9,,,,,,,,,,
13.48.02.127,318.0,79.5,0,,,62073.2,16.11,-0.87,-0.35,-0.8,-10.5,-2.6,6.3,34.76,,,,,,,,,,
13.48.02.139,320.4,80.1,0,,,62073.2,16.11,-0.87,-0.07,-0.65,8.0,-12.1,-4.4,34.91,,,,,,,,,,
13.48.02.151,408.7,102.2,0,,,62073.2,16.11,-0.93,-0.67,-0.73,35.8,0.6,9.7,34.67,,,,,,,,,,
13.48.02.159,470.8,117.7,0,,,62073.2,16.11,-1.04,0.91,-0.63,-18.9,14.3,-17.7,34.56,,,,,,,,,,
13.48.02.167,385.5,96.4,0,,,62073.2,16.11,-0.87,-0.38,-0.64,19.0,5.1,5.0,34.88,,,,,,,,,,
13.48.02.178,402.6,100.6,0,,,62073.2,16.11,-0.73,0.24,-0.39,-45.6,3.4,8.0,34.44,,,,,,,,,,
13.48.02.189,444.4,111.1,0,,,62111.8,16.1,-0.54,-0.57,-0.27,-19.1,2.1,5.8,34.57,,,,,,,,,,
13.48.02.198,381.5,95.4,0,,,62111.8,16.1,-0.73,-0.13,-0.04,12.0,-12.7,-2.6,34.49,,,,,,,,,,
13.48.02.209,347.6,86.9,0,,,62111.8,16.1,-0.47,-0.49,-0.54,-13.0,-11.2,19.0,35.27,,,,,,,,,,
13.48.02.219,283.9,71.0,0,,,62111.8,16.1,-0.84,-0.09,-0.15,5.6,8.8,7.4,34.93,,,,,,,,,,
13.48.02.228,221.0,55.2,0,,,62111.8,16.1,-0.62,0.12,-0.66,-12.3,-20.7,-3.0,34.82,,,,,,,,,,
13.48.02.239,160.5,40.1,0,,,62111.8,16.1,-0.68,0.28,-0.15,-4.1,8.3,0.8,35.03,,,,,,,,,,
13.48.02.249,113.7,28.4,0,,,62111.8,16.1,-0.45,-0.1,-0.31,1.9,16.8,-5.8,35.37,,,,,,,,,,
13.48.02.258,58.5,14.6,0,,,62111.8,16.1,-0.51,-0.32,-0.23,34.3,14.6,-0.4,34.8,,,,,,,,,,
13.48.02.268,-1.8,0.4,0,,,62111.8,16.1,-0.79,-0.3,-0.24,-4.9,5.1,12.9,35.54,,,,,,,,,,
13.48.02.279,19.5,4.9,0,,,62111.8,16.1,-0.66,-0.55,-0.03,-15.7,-8.7,-16.9,35.43,,,,,,,,,,
13.48.02.287,54.6,13.6,0,,,62111.8,16.1,-0.71,0.48,0.19,34.9,16.8,-6.8,35.06,,,,,,,,,,
13.48.02.299,108.2,27.0,0,,,62111.8,16.1,-0.92,-0.21,-0.0,6.6,2.2,11.9,34.7,,,,,,,,,,
13.48.02.311,100.1,25.0,0,,,62111.8,16.1,-0.81,-0.18,-0.22,-29.2,43.2,-0.1,34.85,,,,,,,,,,
13.48.02.321,79.2,19.8,0,,,62111.8,16.1,-0.93,-0.27,-0.34,34.3,2.2,-6.2,34.78,,,,,,,,,,
13.48.02.331,79.7,19.9,0,,,62111.8,16.1,-1.2,-0.08,0.39,11.1,-4.3,-7.3,35.07,,,,,,,,,,
13.48.02.340,37.4,9.4,0,,,62111.8,16.1,-1.07,-0.22,-0.27,12.0,-12.4,7.9,34.84,,,,,,,,,,
13.48.02.349,12.7,3.2,0,,,62111.8,16.1,-0.96,0.07,-0.1,11.2,-23.6,-9.7,35.44,,,,,,,,,,
13.48.02.360,18.1,4.5,0,,,62111.8,16.1,-0.7,-0.31,0.27,-4.6,18.7,-2.1,34.91,,,,,,,,,,
13.48.02.370,-31.4,7.8,0,,,62111.8,16.1,-0.79,-0.54,-0.19,7.7,31.4,0.6,35.35,,,,,,,,,,
13.48.02.378,-9.2,2.3,0,,,62111.8,16.1,-0.87,0.23,-0.51,2.1,22.3,-4.5,34.6,,,,,,,,,,
13.48.02.386,-4.2,1.0,0,,,62111.8,16.1,-0.92,-0.02,0.07,-3.6,21.8,13.9,34.65,,,,,,,,,,
13.48.02.396,-10.2,2.6,0,,,62111.8,16.1,-0.9,-0.69,-0.14,0.4,12.1,-7.1,35.16,,,,,,,,,,
13.48.02.405,-27.4,6.8,0,,,62111.8,16.1,-0.89,-0.37,-0.07,-37.0,13.7,3.9,35.26,,,,,,,,,,
13.48.02.414,-7.5,1.9,0,,,62111.8,16.1,-0.99,-0.09,0.09,-19.6,-0.3,26.9,34.83,,,,,,,,,,
13.48.02.422,-21.1,5.3,0,,,62111.8,16.1,-0.76,0.18,-0.4,37.0,-19.4,-4.7,34.78,,,,,,,,,,
13.48.02.433,-49.8,12.4,0,,,62111.8,16.1,-0.67,0.05,0.01,28.1,11.9,21.2,34.79,,,,,,,,,,
13.48.02.444,-42.4,10.6,0,,,62111.8,16.1,-1.06,0.14,-0.4,-37.1,3.0,-3.8,35.29,,,,,,,,,,
13.48.02.454,-42.8,10.7,0,,,62111.8,16.1,-0.72,-0.09,-0.92,8.8,-9.8,-1.3,34.78,,,,,,,,,,
13.48.02.464,-37.3,9.3,0,,,62111.8,16.1,-1.03,0.5,-0.13,-12.7,8.7,-10.8,34.42,,,,,,,,,,
13.48.02.477,-43.6,10.9,0,,,62111.8,16.1,-1.3,-0.15,-0.23,18.6,4.2,-6.6,35.54,,,,,,,,,,
13.48.02.488,-118.7,29.7,0,,,62111.8,16.1,-0.58,0.22,-0.61,11.7,-20.4,4.0,35.18,,,,,,,,,,
13.48.02.498,-126.9,31.7,0,,,62111.8,16.1,-0.73,0.18,-0.35,-11.2,0.4,-23.4,35.05,,,,,,,,,,
13.48.02.509,-117.1,29.3,0,,,62111.8,16.1,-0.78,0.28,-0.47,-2.4,-18.6,6.2,35.09,,,,,,,,,,
13.48.02.518,-105.3,26.3,0,,,62111.8,16.1,-0.97,-0.02,-0.24,0.4,0.8,-20.6,35.06,,,,,,,,,,
13.48.02.528,-121.1,30.3,0,,,62111.8,16.1,-0.91,0.04,-0.11,-12.2,23.3,7.5,34.91,,,,,,,,,,
13.48.02.535,-131.4,32.8,0,,,62111.8,16.1,-0.75,0.17,-0.76,-2.5,15.7,-9.5,35.29,,,,,,,,,,
13.48.02.543,-118.8,29.7,0,,,62111.8,16.1,-0.87,0.21,-0.55,-3.9,2.9,17.1,35.64,,,,,,,,,,
13.48.02.553,-102.6,25.6,1,5.0,115.4,62111.8,16.1,-0.83,0.2,-0.74,12.1,-2.6,3.4,34.95,,,,,,,,,,
13.48.02.560,-153.5,38.4,0,,,62111.8,16.1,-1.0,0.05,-0.85,0.9,10.0,-1.1,34.47,,,,,,,,,,
13.48.02.570,-147.5,36.9,0,,,62111.8,16.1,-1.0,-0.55,-0.51,-15.6,14.9,-18.0,35.18,,,,,,,,,,
13.48.02.580,-173.9,43.5,0,,,62111.8,16.1,-1.15,0.27,-0.57,9.6,-5.6,27.2,35.16,,,,,,,,,,
13.48.02.589,-176.2,44.0,0,,,62111.8,16.1,-0.37,0.29,0.06,-0.5,4.9,-3.1,35.17,,,,,,,,,,
13.48.02.598,-158.7,39.7,0,,,62111.8,16.1,-0.68,0.58,-0.2,-3.0,11.7,-13.5,34.89,,,,,,,,,,
13.48.02.607,40.9,10.2,0,,,62111.8,16.1,-0.6,0.34,-0.59,6.8,-22.5,-5.3,35.15,,,,,,,,,,
13.48.02.617,127.1,31.8,0,,,62111.8,16.1,-0.16,-0.21,-0.44,38.8,-11.9,14.9,35.15,,,,,,,,,,
13.48.02.627,140.3,35.1,0,,,62111.8,16.1,-0.76,0.21,-0.86,19.5,11.7,-27.5,34.97,,,,,,,,,,
13.48.02.634,229.1,57.3,0,,,62111.8,16.1,-0.67,-0.26,-0.41,-1.6,6.2,-5.8,35.34,,,,,,,,,,
13.48.02.645,260.5,65.1,0,,,62111.8,16.1,-0.9,0.19,-0.35,27.3,-3.4,4.5,35.26,,,,,,,,,,
13.48.02.655,340.8,85.2,0,,,62111.8,16.1,-0.97,0.21,0.21,-9.7,-9.9,-2.0,34.65,,,,,,,,,,
13.48.02.665,346.5,86.6,0,,,62111.8,16.1,-0.85,0.1,-0.24,-21.4,20.5,-14.4,34.35,,,,,,,,,,
13.48.02.673,419.0,104.8,0,,,62111.8,16.1,-0.74,0.12,-0.26,-24.1,6.5,0.6,34.99,,,,,,,,,,
13.48.02.683,405.4,101.4,0,,,62111.8,16.1,-0.72,-0.0,-0.17,5.0,5.7,24.6,35.32,,,,,,,,,,
13.48.02.692,422.0,105.5,0,,,62111.8,16.1,-0.97,0.22,0.2,34.3,-18.0,3.1,34.73,,,,,,,,,,
13.48.02.702,409.3,102.3,0,,,62111.8,16.1,-0.69,0.02,-0.21,40.8,3.0,-14.4,35.02,,,,,,,,,,
13.48.02.712,371.7,92.9,0,,,62111.8,16.1,-0.62,0.35,-0.41,33.5,-3.9,11.0,35.06,,,,,,,,,,
13.48.02.722,376.3,94.1,0,,,62111.8,16.1,-0.91,0.31,0.34,-38.6,22.2,2.5,34.81,,,,,,,,,,
13.48.02.729,323.3,80.8,0,,,62111.8,16.1,-0.97,0.08,-0.29,13.5,6.9,24.8,35.28,,,,,,,,,,
13.48.02.740,282.1,70.5,0,,,62111.8,16.1,-0.92,-0.37,-0.06,-10.6,23.5,10.4,34.82,,,,,,,,,,
13.48.02.753,198.6,49.6,0,,,62111.8,16.1,-0.67,-0.73,-0.28,39.8,34.8,-27.2,34.26,,,,,,,,,,
13.48.02.762,147.7,36.9,0,,,62111.8,16.1,-0.81,-0.17,-0.53,-15.2,-19.5,-19.4,35.36,,,,,,,,,,
13.48.02.770,73.5,18.4,0,,,62111.8,16.1,-0.96,0.56,-0.18,-10.1,19.1,-4.3,34.96,,,,,,,,,,
13.48.02.780,-24.6,6.2,0,,,62111.8,16.1,-0.64,0.22,0.05,4.6,-8.0,-1.3,35.69,,,,,,,,,,
13.48.02.791,30.6,7.6,0,,,62111.8,16.1,-0.6,-0.18,0.09,17.8,27.1,-21.2,34.99,,,,,,,,,,
13.48.02.801,2.3,0.6,0,,,62150.4,16.09,-0.64,0.1,-0.21,-1.3,11.5,-1.7,34.84,,,,,,,,,,
13.48.02.808,28.3,7.1,0,,,62150.4,16.09,-0.77,0.3,0.19,-12.8,9.8,13.8,35.72,,,,,,,,,,
13.48.02.818,47.7,11.9,0,,,62150.4,16.09,-0.73,-0.14,-0.14,1.4,6.4,-19.9,35.18,,,,,,,,,,
13.48.02.829,66.2,16.6,0,,,62150.4,16.09,-0.64,-0.05,-0.81,4.3,2.4,-6.3,35.03,,,,,,,,,,
13.48.02.837,46.3,11.6,0,,,62150.4,16.09,-0.82,-0.16,-0.11,-13.2,-1.4,11.1,35.13,,,,,,,,,,
13.48.02.846,34.8,8.7,0,,,62150.4,16.09,-0.69,-0.02,-0.2,-0.0,7.4,3.4,35.82,,,,,,,,,,
13.48.02.856,35.5,8.9,0,,,62150.4,16.09,-0.84,0.18,-0.39,-13.0,19.4,8.0,35.28,,,,,,,,,,
13.48.02.865,11.9,3.0,0,,,62150.4,16.09,-0.48,-0.29,-0.5,41.0,20.3,-3.4,35.64,,,,,,,,,,
13.48.02.876,18.2,4.6,0,,,62150.4,16.09,-0.67,-0.54,0.1,16.2,9.8,13.9,34.55,,,,,,,,,,
13.48.02.884,8.5,2.1,0,,,62150.4,16.09,-0.49,-0.0,-0.43,-18.0,20.9,-30.9,34.83,,,,,,,,,,
13.48.02.894,4.9,1.2,0,,,62150.4,16.09,-0.59,0.07,-0.29,6.8,-11.8,-3.1,35.38,,,,,,,,,,
13.48.02.904,-1.1,0.3,0,,,62150.4,16.09,-0.88,-0.18,0.08,43.7,4.4,-10.0,34.76,,,,,,,,,,
13.48.02.914,-29.5,7.4,0,,,62150.4,16.09,-0.31,-0.37,-0.19,-18.8,-7.9,-23.4,34.62,,,,,,,,,,
13.48.02.926,-20.4,5.1,0,,,62150.4,16.09,-0.51,0.15,0.07,38.5,-23.3,-0.0,34.86,,,,,,,,,,
13.48.02.934,-66.2,16.6,0,,,62150.4,16.09,-0.88,-0.16,-0.68,-32.7,9.9,-7.4,34.46,,,,,,,,,,
13.48.02.944,-38.9,9.7,0,,,62150.4,16.09,-0.41,-0.09,-0.41,2.5,2.6,21.6,34.71,,,,,,,,,,
13.48.02.952,-20.5,5.1,0,,,62150.4,16.09,-0.45,-0.24,-0.35,10.0,27.3,3.0,35.13,,,,,,,,,,
13.48.02.962,-20.5,5.1,0,,,62150.4,16.09,-0.71,-0.12,-0.01,6.0,6.0,-2.0,35.19,,,,,,,,,,
13.48.02.973,-56.1,14.0,0,,,62150.4,16.09,-0.78,-0.57,-0.76,24.1,-3.5,-7.8,35.14,,,,,,,,,,
13.48.02.983,-62.2,15.6,0,,,62150.4,16.09,-0.48,-0.24,-0.45,-44.1,7.5,0.9,34.44,,,,,,,,,,
13.48.02.990,-94.8,23.7,0,,,62150.4,16.09,-0.86,0.18,-0.27,-34.9,32.7,-11.6,34.32,,,,,,,,,,
13.48.02.999,-71.9,18.0,0,,,62150.4,16.09,-1.02,-0.17,-0.48,3.0,10.9,-15.5,34.92,,,,,,,,,,
13.48.03.010,-114.1,28.5,0,,,62150.4,16.09,-1.09,-0.13,-1.0,-4.7,6.4,15.3,35.01,,,,,,,,,,
13.48.03.022,-88.6,22.2,0,,,62150.4,16.09,-1.06,0.18,-0.1,13.0,3.6,-15.9,34.88,,,,,,,,,,
13.48.03.033,-73.1,18.3,0,,,62150.4,16.09,-0.64,-0.64,-0.57,-12.3,20.4,-10.2,35.14,,,,,,,,,,
13.48.03.042,-77.6,19.4,0,,,62150.4,16.09,-0.73,-0.18,-0.59,-5.9,23.8,-7.2,34.92,,,,,,,,,,
13.48.03.049,-121.3,30.3,0,,,62150.4,16.09,-0.73,-0.49,-0.23,34.4,-11.9,5.2,35.19,,,,,,,,,,
13.48.03.059,-153.1,38.3,0,,,62150.4,16.09,-0.95,-0.47,-0.78,3.6,8.2,4.9,35.35,,,,,,,,,,
13.48.03.070,-130.1,32.5,0,,,62150.4,16.09,-0.82,-0.38,-0.35,-21.2,10.7,2.0,35.75,,,,,,,,,,
13.48.03.078,-123.7,30.9,0,,,62150.4,16.09,-0.78,0.0,-0.48,-29.2,19.7,6.6,35.16,,,,,,,,,,
13.48.03.086,-108.4,27.1,0,,,62150.4,16.09,-0.96,-0.08,-0.43,-1.2,6.0,-5.5,35.36,,,,,,,,,,
13.48.03.096,-165.5,41.4,0,,,62150.4,16.09,-0.79,-0.21,-0.28,-30.8,10.9,-25.3,34.75,,,,,,,,,,
13.48.03.106,-173.3,43.3,0,,,62150.4,16.09,-1.22,-0.05,-0.44,-34.9,-3.1,-7.4,35.47,,,,,,,,,,
13.48.03.119,-135.3,33.8,0,,,62150.4,16.09,-0.63,-0.09,-0.46,13.4,15.9,10.4,35.07,,,,,,,,,,
13.48.03.131,113.6,28.4,0,,,62150.4,16.09,-0.88,-0.55,-0.72,10.0,26.3,6.0,34.87,,,,,,,,,,
13.48.03.140,111.4,27.8,1,6.0,102.2,62150.4,16.09,-1.13,0.09,-0.73,-9.8,-14.9,11.0,35.34,,,,,,,,,,
13.48.03.147,204.6,51.2,0,,,62150.4,16.09,-0.84,-0.28,-0.49,-13.3,-37.6,9.8,34.7,,,,,,,,,,
13.48.03.157,223.8,56.0,0,,,62150.4,16.09,-0.6,-0.48,-0.21,-14.5,-7.1,23.5,35.01,,,,,,,,,,
13.48.03.166,268.3,67.1,0,,,62150.4,16.09,-1.13,-0.27,-0.05,0.6,17.5,-12.3,35.29,,,,,,,,,,
13.48.03.172,343.0,85.8,0,,,62150.4,16.09,-0.62,-0.06,-0.06,-0.2,5.6,-7.0,35.24,,,,,,,,,,
13.48.03.181,408.6,102.2,0,,,62150.4,16.09,-0.89,0.14,-0.52,-21.2,-20.8,17.1,34.86,,,,,,,,,,
13.48.03.192,354.6,88.6,0,,,62150.4,16.09,-0.77,0.03,-0.56,-3.0,-10.3,-16.8,35.4,,,,,,,,,,
13.48.03.201,456.5,114.1,0,,,62150.4,16.09,-0.9,-0.1,0.01,-4.6,-3.4,8.9,34.69,,,,,,,,,,
13.48.03.211,411.3,102.8,0,,,62150.4,16.09,-0.71,-0.36,0.01,12.1,7.4,8.8,35.19,,,,,,,,,,
13.48.03.220,420.2,105.0,0,,,62150.4,16.09,-0.73,-0.57,-0.5,16.3,22.8,0.1,34.92,,,,,,,,,,
13.48.03.229,354.5,88.6,0,,,62150.4,16.09,-0.93,-0.49,-0.44,7.6,-14.6,13.5,35.09,,,,,,,,,,
13.48.03.238,388.6,97.2,0,,,62150.4,16.09,-0.81,0.02,-0.23,-1.5,-21.6,-14.9,34.29,,,,,,,,,,
13.48.03.248,333.9,83.5,0,,,62150.4,16.09,-0.97,-0.24,0.24,-23.3,5.8,3.6,34.76,,,,,,,,,,
13.48.03.260,240.2,60.0,0,,,62150.4,16.09,-1.02,0.11,-0.31,-22.2,17.8,-18.2,35.73,,,,,,,,,,
13.48.03.271,218.1,54.5,0,,,62150.4,16.09,-0.54,0.08,-0.06,9.9,-0.9,-4.0,34.49,,,,,,,,,,
13.48.03.280,121.4,30.4,0,,,62150.4,16.09,-1.08,-0.01,0.3,-29.9,-15.9,1.4,35.68,,,,,,,,,,
13.48.03.287,150.1,37.5,0,,,62150.4,16.09,-1.22,-0.24,0.15,17.7,0.5,-2.6,35.25,,,,,,,,,,
13.48.03.296,52.2,13.0,0,,,62150.4,16.09,-0.81,-0.14,0.02,22.8,-21.9,2.9,35.68,,,,,,,,,,
13.48.03.308,2.6,0.6,0,,,62150.4,16.09,-1.07,-0.26,-0.66,10.8,11.0,-17.9,35.58,,,,,,,,,,
13.48.03.320,33.8,8.4,0,,,62150.4,16.09,-1.03,-0.61,-0.36,-30.2,34.0,-1.6,34.63,,,,,,,,,,
13.48.03.328,56.4,14.1,0,,,62150.4,16.09,-0.75,-0.0,-1.03,-12.8,32.0,13.1,34.62,,,,,,,,,,
13.48.03.339,114.2,28.6,0,,,62150.4,16.09,-1.0,-0.19,-0.47,25.5,-10.0,24.3,34.6,,,,,,,,,,
13.48.03.349,82.9,20.7,0,,,62150.4,16.09,-1.31,-0.16,-0.2,10.8,10.6,-6.2,34.92,,,,,,,,,,
13.48.03.358,80.3,20.1,0,,,62150.4,16.09,-0.85,0.51,-0.28,41.8,-14.5,-11.6,35.01,,,,,,,,,,
13.48.03.366,109.5,27.4,0,,,62150.4,16.09,-1.07,-0.05,0.08,21.7,-5.4,1.1,35.06,,,,,,,,,,
13.48.03.376,71.6,17.9,0,,,62150.4,16.09,-1.04,-0.38,-0.18,7.4,-3.6,-12.6,35.42,,,,,,,,,,
13.48.03.384,41.5,10.4,0,,,62150.4,16.09,-1.23,0.17,-0.8,-2.8,-23.2,-0.8,35.4,,,,,,,,,,
13.48.03.392,7.0,1.8,0,,,62150.4,16.09,-0.91,-0.17,-0.62,-24.9,-0.2,-1.5,34.58,,,,,,,,,,
13.48.03.402,-7.7,1.9,0,,,62150.4,16.09,-0.74,0.36,-0.7,-19.7,9.0,-11.7,35.02,,,,,,,,,,
13.48.03.413,-19.0,4.8,0,,,62150.4,16.09,-0.7,0.01,-0.44,-22.2,4.0,-11.4,34.55,,,,,,,,,,
13.48.03.422,-6.8,1.7,0,,,62150.4,16.09,-0.84,0.2,-0.69,30.8,20.9,-2.2,34.82,,,,,,,,,,
13.48.03.433,-20.5,5.1,0,,,62150.4,16.09,-0.76,-0.03,-0.87,6.5,-27.2,-1.7,34.77,,,,,,,,,,
13.48.03.442,-26.1,6.5,0,,,62150.4,16.09,-0.71,0.17,-0.73,-3.4,8.9,-2.6,34.81,,,,,,,,,,
13.48.03.451,-26.5,6.6,0,,,62150.4,16.09,-0.73,0.45,-1.12,-18.4,3.0,-8.7,34.47,,,,,,,,,,
13.48.03.460,-62.9,15.7,0,,,62150.4,16.09,-0.85,-0.01,-0.43,28.2,-0.5,-19.7,34.97,,,,,,,,,,
13.48.03.468,-28.2,7.0,0,,,62150.4,16.09,-1.08,0.01,-0.42,-3.8,-9.5,13.1,35.24,,,,,,,,,,
13.48.03.477,-47.1,11.8,0,,,62150.4,16.09,-0.68,0.6,-0.68,-14.8,-4.8,-16.4,35.23,,,,,,,,,,
13.48.03.487,-57.0,14.2,0,,,62150.4,16.09,-0.52,0.56,-0.07,7.0,-0.8,20.5,34.71,,,,,,,,,,
13.48.03.497,-47.8,12.0,0,,,62150.4,16.09,-0.64,0.17,-0.5,-16.7,11.9,10.0,34.92,,,,,,,,,,
13.48.03.507,-101.2,25.3,0,,,62150.4,16.09,-0.98,0.28,-0.66,-10.9,-19.5,-5.0,34.73,,,,,,,,,,
13.48.03.516,-81.3,20.3,0,,,62189.1,16.08,-0.91,-0.15,0.09,36.5,-6.8,4.6,35.2,,,,,,,,,,
13.48.03.526,-100.7,25.2,0,,,62189.1,16.08,-0.62,0.26,-0.85,-7.4,-8.6,-8.1,34.93,,,,,,,,,,
13.48.03.535,-115.7,28.9,0,,,62189.1,16.08,-0.61,0.07,-0.29,1.0,23.4,-1.7,35.28,,,,,,,,,,
13.48.03.546,-79.5,19.9,0,,,62189.1,16.08,-0.69,0.33,-0.48,24.1,2.1,21.6,35.23,,,,,,,,,,
13.48.03.556,-95.6,23.9,0,,,62189.1,16.08,-0.46,-0.06,-0.45,28.3,16.7,35.6,35.15,,,,,,,,,,
13.48.03.564,-131.8,33.0,0,,,62189.1,16.08,-0.53,0.27,0.24,28.0,38.6,-8.0,35.2,,,,,,,,,,
13.48.03.573,-136.0,34.0,0,,,62189.1,16.08,-0.51,0.06,-0.54,-10.2,12.9,4.4,35.56,,,,,,,,,,
13.48.03.581,-135.1,33.8,0,,,62189.1,16.08,-0.56,0.32,-0.34,-23.9,14.5,-2.4,34.66,,,,,,,,,,
13.48.03.593,-130.5,32.6,0,,,62189.1,16.08,-0.82,-0.16,0.27,4.7,-21.1,-1.7,35.14,,,,,,,,,,
13.48.03.603,-142.7,35.7,0,,,62189.1,16.08,-0.71,0.38,-0.05,-2.8,2.4,-17.5,35.0,,,,,,,,,,
13.48.03.612,-137.2,34.3,0,,,62189.1,16.08,-0.5,0.21,-0.37,12.5,13.4,7.8,35.02,,,,,,,,,,
13.48.03.622,-134.5,33.6,0,,,62189.1,16.08,-0.41,0.01,-0.32,18.2,26.2,-25.9,35.18,,,,,,,,,,
13.48.03.632,-155.2,38.8,0,,,62189.1,16.08,-0.46,-0.09,-0.53,-3.1,12.7,-7.3,35.24,,,,,,,,,,
13.48.03.640,10.0,2.5,0,,,62189.1,16.08,-0.75,-0.1,0.07,-15.3,-36.7,-3.1,34.74,,,,,,,,,,
13.48.03.650,62.0,15.5,0,,,62189.1,16.08,-0.77,0.34,0.72,-15.0,-4.5,0.3,34.96,,,,,,,,,,
13.48.03.659,138.6,34.6,0,,,62189.1,16.08,-0.99,-0.05,0.35,-10.6,9.6,-2.5,35.47,,,,,,,,,,
13.48.03.669,206.7,51.7,0,,,62189.1,16.08,-0.81,0.64,-0.11,-0.3,4.6,-1.4,34.68,,,,,,,,,,
13.48.03.678,222.3,55.6,0,,,62189.1,16.08,-0.84,0.46,-0.37,-6.3,10.7,-13.3,34.68,,,,,,,,,,
13.48.03.690,309.2,77.3,0,,,62189.1,16.08,-0.58,-0.01,-0.29,19.1,31.5,14.2,34.33,,,,,,,,,,
13.48.03.699,352.3,88.1,0,,,62189.1,16.08,-0.33,-0.09,-0.03,-11.1,-8.8,-26.7,34.99,,,,,,,,,,
13.48.03.709,387.1,96.8,0,,,62189.1,16.08,-0.44,0.06,-0.47,9.7,-3.4,-17.0,35.02,,,,,,,,,,
13.48.03.719,388.8,97.2,1,7.0,103.6,62189.1,16.08,-0.38,-0.14,0.05,-65.2,6.3,17.0,35.14,,,,,,,,,,
13.48.03.728,425.8,106.4,0,,,62189.1,16.08,-1.03,-0.02,-0.17,42.3,-5.1,-8.2,34.99,,,,,,,,,,
13.48.03.738,385.8,96.4,0,,,62189.1,16.08,-0.8,-0.23,-0.24,-0.1,8.4,-13.6,35.01,,,,,,,,,,
13.48.03.747,411.2,102.8,0,,,62189.1,16.08,-0.45,-0.22,-0.43,-31.3,8.6,-5.5,35.49,,,,,,,,,,
13.48.03.759,347.4,86.8,0,,,62189.1,16.08,-0.77,0.03,0.13,-3.3,20.0,0.1,34.98,,,,,,,,,,
13.48.03.769,271.0,67.8,0,,,62189.1,16.08,-0.56,-0.29,-0.69,-17.2,37.5,-23.3,35.24,,,,,,,,,,
13.48.03.778,284.5,71.1,0,,,62189.1,16.08,-0.69,-0.04,-0.28,-16.1,-30.5,6.9,34.91,,,,,,,,,,
13.48.03.789,205.5,51.4,0,,,62189.1,16.08,-0.46,0.24,-0.72,-1.8,2.3,-20.9,34.83,,,,,,,,,,
13.48.03.798,200.9,50.2,0,,,62189.1,16.08,-0.55,-0.13,-0.54,22.8,18.4,-31.5,35.11,,,,,,,,,,
13.48.03.808,73.7,18.4,0,,,62189.1,16.08,-0.44,0.01,-0.67,0.9,15.0,18.6,34.59,,,,,,,,,,
13.48.03.819,-7.6,1.9,0,,,62189.1,16.08,-0.63,-0.22,-0.68,32.6,3.7,21.3,35.01,,,,,,,,,,
13.48.03.830,-10.8,2.7,0,,,62189.1,16.08,-0.53,-0.4,-0.32,-0.6,26.0,-0.1,35.22,,,,,,,,,,
13.48.03.840,25.7,6.4,0,,,62189.1,16.08,-0.7,-0.11,-0.61,49.9,17.6,3.5,34.66,,,,,,,,,,
13.48.03.848,31.6,7.9,0,,,62189.1,16.08,-0.77,-0.01,-0.55,-30.9,2.3,-11.3,34.82,,,,,,,,,,
13.48.03.859,60.1,15.0,0,,,62189.1,16.08,-0.73,-0.31,-0.45,-50.9,19.2,4.1,35.31,,,,,,,,,,
13.48.03.867,69.8,17.4,0,,,62189.1,16.08,-0.82,-0.27,-0.73,-4.4,8.7,-17.5,34.94,,,,,,,,,,
13.48.03.878,66.3,16.6,0,,,62189.1,16.08,-0.57,-0.18,-0.85,44.7,17.4,-19.2,34.7,,,,,,,,,,
13.48.03.888,63.2,15.8,0,,,62189.1,16.08,-0.89,-0.18,-0.56,-22.4,4.4,-19.9,35.42,,,,,,,,,,
13.48.03.899,13.1,3.3,0,,,62189.1,16.08,-0.85,-0.26,-0.8,29.8,7.9,-0.7,35.23,,,,,,,,,,
13.48.03.908,83.1,20.8,0,,,62189.1,16.08,-0.7,-0.36,-0.45,-37.2,19.2,-1.4,34.33,,,,,,,,,,
13.48.03.918,18.7,4.7,0,,,62189.1,16.08,-0.99,-0.37,-0.58,-22.0,-11.0,-29.3,34.93,,,,,,,,,,
13.48.03.929,16.1,4.0,0,,,62189.1,16.08,-0.73,0.22,-0.5,-12.8,-16.9,-4.2,34.43,,,,,,,,,,
13.48.03.938,-23.0,5.8,0,,,62189.1,16.08,-0.81,0.2,-0.55,-4.2,-11.0,-4.0,35.26,,,,,,,,,,
13.48.03.947,-20.1,5.0,0,,,62189.1,16.08,-0.77,-0.01,-0.69,19.5,11.5,-9.1,35.3,,,,,,,,,,
13.48.03.956,-22.8,5.7,0,,,62189.1,16.08,-0.51,0.16,-0.52,-21.5,11.4,9.6,34.59,,,,,,,,,,
13.48.03.966,-9.9,2.5,0,,,62189.1,16.08,-0.81,0.01,-0.56,10.1,30.6,29.8,34.87,,,,,,,,,,
13.48.03.974,-36.7,9.2,0,,,62189.1,16.08,-1.07,-0.23,-0.26,18.4,4.8,13.9,35.42,,,,,,,,,,
13.48.03.982,-59.2,14.8,0,,,62189.1,16.08,-1.11,0.2,-0.35,27.3,3.9,15.8,35.14,,,,,,,,,,
13.48.03.992,-68.2,17.0,0,,,62189.1,16.08,-0.5,-0.02,-0.34,-9.2,18.4,0.5,34.96,,,,,,,,,,
13.48.04.001,-65.0,16.2,0,,,62189.1,16.08,-1.02,-0.3,-0.61,-37.0,-12.9,2.7,35.11,,,,,,,,,,
13.48.04.011,-88.5,22.1,0,,,62189.1,16.08,-0.81,-0.06,0.08,45.3,1.1,8.3,35.43,,,,,,,,,,
13.48.04.022,-71.0,17.8,0,,,62189.1,16.08,-1.0,-0.15,-0.47,10.0,5.5,-6.8,35.46,,,,,,,,,,
13.48.04.033,-74.0,18.5,0,,,62189.1,16.08,-1.02,0.14,-0.14,-16.0,-0.3,-5.1,35.03,,,,,,,,,,
13.48.04.044,-95.4,23.8,0,,,62189.1,16.08,-0.99,-0.56,-0.06,24.4,22.6,7.2,35.51,,,,,,,,,,
13.48.04.053,-80.6,20.2,0,,,62189.1,16.08,-1.12,-0.33,-0.09,-11.7,24.9,8.9,34.81,,,,,,,,,,
13.48.04.063,-64.7,16.2,0,,,62189.1,16.08,-1.02,0.22,-0.47,-37.1,11.5,5.9,34.99,,,,,,,,,,
13.48.04.073,-87.3,21.8,0,,,62189.1,16.08,-1.03,-0.36,-0.41,18.7,17.7,-9.0,35.3,,,,,,,,,,
13.48.04.085,-119.9,30.0,0,,,62189.1,16.08,-1.15,-0.45,-0.42,50.8,-8.5,9.1,35.14,,,,,,,,,,
13.48.04.095,-140.8,35.2,0,,,62189.1,16.08,-1.24,0.18,-0.17,-24.7,-1.9,0.5,35.23,,,,,,,,,,
13.48.04.106,-137.6,34.4,0,,,62189.1,16.08,-1.15,-0.66,-0.29,-22.1,-4.0,-20.0,34.59,,,,,,,,,,
13.48.04.116,-122.8,30.7,0,,,62189.1,16.08,-0.82,-0.23,-0.03,0.3,2.0,-30.9,34.68,,,,,,,,,,
13.48.04.126,-147.4,36.8,0,,,62189.1,16.08,-0.92,-0.01,-0.05,1.0,-2.9,3.5,34.98,,,,,,,,,,
13.48.04.136,-156.8,39.2,0,,,62189.1,16.08,-1.17,-0.24,-0.13,22.5,5.7,-9.8,35.07,,,,,,,,,,
13.48.04.145,-161.7,40.4,0,,,62189.1,16.08,-1.07,-0.02,-0.02,-5.9,15.3,6.0,35.36,,,,,,,,,,
13.48.04.155,-141.3,35.3,0,,,62189.1,16.08,-1.03,-0.16,-0.44,11.3,-12.0,-11.1,34.72,,,,,,,,,,
13.48.04.166,59.2,14.8,0,,,62189.1,16.08,-0.49,0.11,-0.42,-28.3,24.5,-10.3,35.56,,,,,,,,,,
13.48.04.177,138.3,34.6,0,,,62189.1,16.08,-1.15,0.04,-0.25,2.4,-8.6,-5.9,34.6,,,,,,,,,,
13.48.04.188,223.1,55.8,0,,,62189.1,16.08,-0.83,-0.98,-0.55,-15.6,15.5,-6.4,34.97,,,,,,,,,,
13.48.04.196,255.8,64.0,0,,,62227.8,16.07,-1.11,-0.27,-0.0,2.0,-8.3,-16.2,34.77,,,,,,,,,,
13.48.04.207,386.2,96.6,0,,,62227.8,16.07,-0.78,0.12,-0.16,33.4,5.2,24.9,35.53,,,,,,,,,,
13.48.04.215,338.3,84.6,1,8.0,121.0,62227.8,16.07,-1.1,0.15,-0.8,-2.5,9.0,2.9,35.12,,,,,,,,,,
13.48.04.225,376.8,94.2,0,,,62227.8,16.07,-0.78,-0.14,-0.26,22.0,-6.0,6.6,35.18,,,,,,,,,,
13.48.04.236,442.6,110.6,0,,,62227.8,16.07,-0.91,-0.15,-0.37,-21.1,-13.9,-16.8,34.46,,,,,,,,,,
13.48.04.246,397.1,99.3,0,,,62227.8,16.07,-0.82,-0.32,-0.05,-22.0,14.3,-21.2,34.25,,,,,,,,,,
13.48.04.255,437.2,109.3,0,,,62227.8,16.07,-0.84,0.59,-0.63,-9.7,-12.2,-18.4,35.11,,,,,,,,,,
13.48.04.263,458.7,114.7,0,,,62227.8,16.07,-0.47,-0.14,-0.68,-2.0,9.2,1.9,35.25,,,,,,,,,,
13.48.04.273,345.7,86.4,0,,,62227.8,16.07,-0.71,0.4,-0.39,-36.8,5.6,-12.6,35.03,,,,,,,,,,
13.48.04.285,342.2,85.6,0,,,62227.8,16.07,-0.97,-0.36,-0.97,4.2,-2.2,18.7,34.94,,,,,,,,,,
13.48.04.297,306.5,76.6,0,,,62227.8,16.07,-0.98,-0.1,-0.61,13.0,21.9,-15.6,35.48,,,,,,,,,,
13.48.04.307,194.0,48.5,0,,,62227.8,16.07,-1.22,0.31,-0.41,-2.9,24.7,8.0,35.1,,,,,,,,,,
13.48.04.317,139.4,34.8,0,,,62227.8,16.07,-0.86,0.13,-0.03,8.6,16.7,10.8,34.71,,,,,,,,,,
13.48.04.326,78.7,19.7,0,,,62227.8,16.07,-0.83,-0.01,-0.29,13.4,17.3,-13.0,34.91,,,,,,,,,,
13.48.04.337,35.3,8.8,0,,,62227.8,16.07,-0.95,0.5,-0.98,12.4,-37.6,-1.7,35.39,,,,,,,,,,
13.48.04.347,35.5,8.9,0,,,62227.8,16.07,-0.74,0.11,-1.21,-27.7,3.5,1.0,34.45,,,,,,,,,,
13.48.04.358,40.3,10.1,0,,,62227.8,16.07,-0.9,-0.02,-0.57,9.2,12.5,-1.6,34.85,,,,,,,,,,
13.48.04.368,38.1,9.5,0,,,62227.8,16.07,-0.74,-0.35,-0.58,16.9,-11.8,-15.7,35.24,,,,,,,,,,
13.48.04.378,82.9,20.7,0,,,62227.8,16.07,-0.74,0.47,-0.8,-13.3,5.4,-26.0,35.24,,,,,,,,,,
13.48.04.388,65.4,16.4,0,,,62227.8,16.07,-0.87,-0.26,-0.04,-15.9,41.5,-10.1,34.99,,,,,,,,,,
13.48.04.398,85.8,21.4,0,,,62227.8,16.07,-0.9,0.26,-0.3,31.6,16.1,-19.3,34.9,,,,,,,,,,
13.48.04.408,76.1,19.0,0,,,62227.8,16.07,-1.12,0.02,-0.61,5.4,-7.6,-5.5,34.94,,,,,,,,,,
13.48.04.418,18.1,4.5,0,,,62227.8,16.07,-1.05,0.86,-0.2,-9.3,5.2,-8.8,34.91,,,,,,,,,,
13.48.04.430,-4.7,1.2,0,,,62227.8,16.07,-0.66,0.38,-0.28,-9.5,-3.8,19.7,34.72,,,,,,,,,,
13.48.04.440,-27.2,6.8,0,,,62227.8,16.07,-0.37,0.54,-0.36,-13.0,27.7,-13.6,35.36,,,,,,,,,,
13.48.04.449,-15.9,4.0,0,,,62227.8,16.07,-0.93,0.35,0.01,-1.9,25.9,-1.8,34.68,,,,,,,,,,
13.48.04.456,-9.3,2.3,0,,,62227.8,16.07,-0.58,0.33,-0.08,1.0,-9.8,-5.1,35.08,,,,,,,,,,
13.48.04.465,-12.3,3.1,0,,,62227.8,16.07,-0.85,0.16,-0.43,9.7,11.2,21.8,34.91,,,,,,,,,,
13.48.04.477,-24.4,6.1,0,,,62227.8,16.07,-0.64,0.61,-0.51,-17.3,10.2,-4.6,34.92,,,,,,,,,,
13.48.04.487,-57.0,14.2,0,,,62227.8,16.07,-0.47,0.1,-0.12,2.0,29.5,-3.1,35.46,,,,,,,,,,
13.48.04.498,-48.5,12.1,0,,,62227.8,16.07,-0.53,-0.2,0.12,-13.8,50.1,-12.7,34.95,,,,,,,,,,
13.48.04.509,-31.0,7.8,0,,,62227.8,16.07,-0.72,-0.06,-0.31,18.1,-11.3,27.9,34.72,,,,,,,,,,
13.48.04.519,-50.2,12.6,0,,,62227.8,16.07,-0.91,0.48,0.09,-15.4,19.6,3.0,35.08,,,,,,,,,,
13.48.04.527,-12.1,3.0,0,,,62227.8,16.07,-0.89,-0.01,-0.14,39.9,-22.5,0.1,35.43,,,,,,,,,,
13.48.04.534,-33.0,8.2,0,,,62227.8,16.07,-0.79,0.1,-0.2,0.1,5.3,-11.8,35.31,,,,,,,,,,
13.48.04.543,-64.5,16.1,0,,,62227.8,16.07,-0.78,-0.12,-0.26,-9.5,26.6,4.9,35.28,,,,,,,,,,
13.48.04.551,-71.5,17.9,0,,,62227.8,16.07,-0.83,0.84,0.04,6.7,13.6,-1.2,35.2,,,,,,,,,,
13.48.04.563,-96.2,24.0,0,,,62227.8,16.07,-0.96,-0.08,-0.62,-2.2,11.3,-13.1,35.11,,,,,,,,,,
13.48.04.574,-124.7,31.2,0,,,62227.8,16.07,-0.58,-0.15,-0.45,28.0,44.2,-11.9,35.31,,,,,,,,,,
13.48.04.583,-86.0,21.5,0,,,62227.8,16.07,-0.98,0.18,-0.33,6.9,23.8,30.8,34.6,,,,,,,,,,
13.48.04.595,-73.0,18.2,0,,,62227.8,16.07,-0.94,0.02,-0.45,7.9,22.1,-26.8,35.21,,,,,,,,,,
13.48.04.605,-115.1,28.8,0,,,62227.8,16.07,-1.11,0.3,-0.67,39.9,29.9,1.7,34.79,,,,,,,,,,
13.48.04.615,-127.5,31.9,0,,,62227.8,16.07,-0.85,0.57,0.06,10.6,15.1,-12.4,35.19,,,,,,,,,,
13.48.04.622,-127.6,31.9,0,,,62227.8,16.07,-0.71,0.2,-0.32,-13.1,-5.0,8.1,35.02,,,,,,,,,,
13.48.04.629,-150.2,37.6,0,,,62227.8,16.07,-0.87,-0.12,-0.82,-18.2,33.4,-8.7,35.17,,,,,,,,,,
13.48.04.639,-147.3,36.8,0,,,62227.8,16.07,-0.61,-0.27,-0.43,-34.5,30.1,-17.2,35.62,,,,,,,,,,
13.48.04.648,-147.8,37.0,0,,,62227.8,16.07,-0.51,0.06,-0.57,7.9,-0.2,-2.5,35.43,,,,,,,,,,
13.48.04.659,-164.7,41.2,0,,,62227.8,16.07,-0.78,-0.2,-0.6,2.8,13.2,5.2,34.9,,,,,,,,,,
13.48.04.667,-149.4,37.4,0,,,62227.8,16.07,-0.82,0.16,-0.26,-8.2,33.3,10.0,34.89,,,,,,,,,,
13.48.04.678,23.5,5.9,0,,,62227.8,16.07,-0.59,0.21,-0.55,-34.1,16.6,12.4,35.08,,,,,,,,,,
13.48.04.688,86.0,21.5,0,,,62227.8,16.07,-0.55,0.06,-0.56,6.4,-12.4,15.0,35.44,,,,,,,,,,
13.48.04.698,151.8,38.0,0,,,62227.8,16.07,-0.54,0.14,-0.57,15.1,-6.6,-13.3,34.78,,,,,,,,,,
13.48.04.709,202.2,50.6,0,,,62227.8,16.07,-0.61,-0.27,-0.5,5.4,-0.5,17.8,35.04,,,,,,,,,,
13.48.04.720,274.2,68.6,0,,,62266.5,16.06,-1.03,-0.19,-0.51,-13.7,-32.0,-0.5,35.34,,,,,,,,,,
13.48.04.728,367.5,91.9,0,,,62266.5,16.06,-0.92,-0.26,-0.51,18.9,9.6,5.3,35.02,,,,,,,,,,
13.48.04.739,355.9,89.0,1,9.0,114.5,62266.5,16.06,-0.73,-0.53,-0.4,35.3,-0.4,-1.7,34.91,,,,,,,,,,
13.48.04.747,395.7,98.9,0,,,62266.5,16.06,-0.85,-0.21,-1.08,-4.4,-9.7,-26.9,34.72,,,,,,,,,,
13.48.04.758,365.1,91.3,0,,,62266.5,16.06,-0.68,0.12,-0.48,-1.4,19.5,-17.4,34.56,,,,,,,,,,
13.48.04.768,432.3,108.1,0,,,62266.5,16.06,-0.87,0.4,-0.43,-12.1,20.9,-6.2,35.17,,,,,,,,,,
13.48.04.778,408.6,102.2,0,,,62266.5,16.06,-0.67,-0.56,-0.52,-16.0,15.0,20.6,35.21,,,,,,,,,,
13.48.04.786,401.7,100.4,0,,,62266.5,16.06,-0.93,-0.64,-0.65,-22.6,-6.9,-14.0,35.0,,,,,,,,,,
13.48.04.795,307.3,76.8,0,,,62266.5,16.06,-0.79,-0.45,-0.59,18.1,17.2,-2.0,34.86,,,,,,,,,,
13.48.04.805,314.8,78.7,0,,,62266.5,16.06,-0.91,-0.64,-0.29,-0.0,8.0,17.4,35.3,,,,,,,,,,
13.48.04.814,256.9,64.2,0,,,62266.5,16.06,-0.55,-0.61,-0.27,4.3,-0.5,12.2,35.69,,,,,,,,,,
13.48.04.824,215.2,53.8,0,,,62266.5,16.06,-0.54,-0.53,-0.89,-8.6,-1.6,-21.2,34.65,,,,,,,,,,
13.48.04.835,125.5,31.4,0,,,62266.5,16.06,-0.77,0.07,0.03,44.2,-7.8,9.1,34.84,,,,,,,,,,
13.48.04.844,68.7,17.2,0,,,62266.5,16.06,-0.98,-0.7,0.28,27.5,13.2,11.7,35.59,,,,,,,,,,
13.48.04.854,8.6,2.2,0,,,62266.5,16.06,-1.02,-0.68,-0.65,-28.3,-22.2,13.3,35.39,,,,,,,,,,
13.48.04.863,30.8,7.7,0,,,62266.5,16.06,-0.64,-0.3,-0.67,2.1,9.4,11.4,34.76,,,,,,,,,,
13.48.04.872,22.2,5.6,0,,,62266.5,16.06,-0.78,-0.19,-0.71,0.2,-13.3,-29.2,34.47,,,,,,,,,,
13.48.04.882,63.9,16.0,0,,,62266.5,16.06,-0.65,0.04,0.04,25.1,23.0,-26.5,34.59,,,,,,,,,,
13.48.04.895,50.1,12.5,0,,,62266.5,16.06,-0.47,0.67,-0.06,11.7,-1.7,-5.6,34.77,,,,,,,,,,
13.48.04.902,61.0,15.2,0,,,62266.5,16.06,-1.03,-0.44,-0.03,10.8,8.3,-9.3,35.14,,,,,,,,,,
13.48.04.912,63.5,15.9,0,,,62266.5,16.06,-1.04,0.04,-0.3,43.0,-3.2,10.8,35.34,,,,,,,,,,
13.48.04.922,78.9,19.7,0,,,62266.5,16.06,-0.59,-0.42,-0.35,-18.1,36.3,6.5,35.07,,,,,,,,,,
13.48.04.932,58.1,14.5,0,,,62266.5,16.06,-1.04,-0.19,-0.32,-5.2,-0.7,-12.9,35.07,,,,,,,,,,
13.48.04.943,19.3,4.8,0,,,62266.5,16.06,-0.53,-1.01,0.27,-6.3,11.1,35.2,34.95,,,,,,,,,,
13.48.04.952,24.5,6.1,0,,,62266.5,16.06,-1.18,-0.17,0.12,15.6,1.5,1.9,35.7,,,,,,,,,,
13.48.04.963,6.0,1.5,0,,,62266.5,16.06,-0.88,-0.33,0.03,29.6,11.4,10.1,35.34,,,,,,,,,,
13.48.04.973,-31.5,7.9,0,,,62266.5,16.06,-1.03,-0.71,-0.29,8.7,-1.5,1.7,34.73,,,,,,,,,,
13.48.04.982,-32.0,8.0,0,,,62266.5,16.06,-0.88,0.12,-0.1,32.2,4.4,9.1,35.24,,,,,,,,,,
13.48.04.992,-15.4,3.8,0,,,62266.5,16.06,-1.05,-0.35,-0.3,-0.5,30.4,-9.9,34.79,,,,,,,,,,
13.48.05.000,-38.2,9.6,0,,,62266.5,16.06,-1.21,-0.52,-0.49,12.0,10.0,-0.3,34.96,117.6,,,,,,,,,
13.48.05.008,-40.7,10.2,0,,,62266.5,16.06,-1.13,-0.08,-0.29,13.7,-1.0,6.9,34.74,,,,,,,,,,
13.48.05.017,-2.2,0.6,0,,,62266.5,16.06,-1.27,0.06,-0.15,-30.3,9.4,5.1,34.97,,,,,,,,,,
13.48.05.026,-39.6,9.9,0,,,62266.5,16.06,-1.17,-0.43,0.25,-6.9,-17.4,-5.9,35.53,,,,,,,,,,
13.48.05.036,-52.4,13.1,0,,,62266.5,16.06,-0.92,-0.36,-0.41,-31.5,18.6,6.6,34.54,,,,,,,,,,
13.48.05.047,-96.5,24.1,0,,,62266.5,16.06,-0.54,-0.52,-0.33,6.8,18.1,25.2,35.32,,,,,,,,,,
13.48.05.056,-79.8,20.0,0,,,62266.5,16.06,-0.95,-0.12,-0.09,-3.2,7.9,8.0,34.74,,,,,,,,,,
13.48.05.063,-73.2,18.3,0,,,62266.5,16.06,-0.99,0.1,-0.1,-43.0,-17.5,14.5,35.44,,,,,,,,,,
13.48.05.073,-30.7,7.7,0,,,62266.5,16.06,-0.67,0.01,-0.41,3.2,8.1,-18.2,35.15,,,,,,,,,,
13.48.05.083,-90.4,22.6,0,,,62266.5,16.06,-1.16,0.46,-0.45,37.3,-9.4,11.0,35.33,,,,,,,,,,
13.48.05.092,-102.2,25.6,0,,,62266.5,16.06,-0.89,0.09,-0.35,16.8,39.5,-2.4,34.96,,,,,,,,,,
13.48.05.104,-89.0,22.2,0,,,62266.5,16.06,-0.98,-0.22,-0.39,-7.3,22.0,-33.5,35.01,,,,,,,,,,
13.48.05.114,-73.4,18.4,0,,,62266.5,16.06,-1.24,-0.24,-0.27,-11.6,3.3,-8.0,35.2,,,,,,,,,,
13.48.05.122,-114.3,28.6,0,,,62266.5,16.06,-0.89,-0.18,-0.1,7.6,36.4,-2.6,34.95,,,,,,,,,,
13.48.05.132,-72.8,18.2,0,,,62266.5,16.06,-1.02,0.37,-0.7,-9.1,-4.2,-24.2,35.03,,,,,,,,,,
13.48.05.140,-117.6,29.4,0,,,62266.5,16.06,-1.06,0.49,-0.61,3.0,6.8,12.4,35.44,,,,,,,,,,
13.48.05.150,-155.1,38.8,0,,,62266.5,16.06,-0.77,-0.05,-1.11,18.9,8.3,6.7,35.42,,,,,,,,,,
13.48.05.160,-157.6,39.4,0,,,62266.5,16.06,-1.23,0.18,-0.79,6.2,0.2,10.4,34.62,,,,,,,,,,
13.48.05.169,-112.2,28.0,0,,,62266.5,16.06,-0.6,-0.12,-0.33,-45.2,11.2,8.2,34.89,,,,,,,,,,
13.48.05.179,-152.7,38.2,0,,,62266.5,16.06,-0.66,-0.42,-0.64,6.6,-9.2,1.4,35.1,,,,,,,,,,
13.48.05.188,-140.8,35.2,0,,,62266.5,16.06,-1.35,-0.08,-0.5,15.4,31.8,-8.9,34.92,,,,,,,,,,
13.48.05.196,31.9,8.0,0,,,62266.5,16.06,-0.59,0.39,-0.01,4.6,14.1,-13.6,35.19,,,,,,,,,,
13.48.05.207,105.8,26.4,0,,,62266.5,16.06,-0.86,0.17,-0.73,16.3,-42.9,12.1,34.79,,,,,,,,,,
13.48.05.215,155.0,38.8,0,,,62266.5,16.06,-0.82,0.08,-0.51,4.3,3.7,-6.3,35.39,,,,,,,,,,
13.48.05.227,237.9,59.5,0,,,62266.5,16.06,-0.62,0.52,-0.48,-3.8,5.9,-3.5,34.7,,,,,,,,,,
13.48.05.237,277.7,69.4,0,,,62266.5,16.06,-0.94,0.14,-0.2,10.2,2.0,4.2,34.41,,,,,,,,,,
13.48.05.246,318.2,79.6,1,10.0,118.3,62266.5,16.06,-1.0,-0.17,-0.61,22.9,-23.9,5.1,34.71,,,,,,,,,,
13.48.05.255,355.1,88.8,0,,,62266.5,16.06,-1.29,0.18,-0.31,-25.6,17.5,-32.7,35.23,,,,,,,,,,
13.48.05.265,391.2,97.8,0,,,62266.5,16.06,-0.89,0.18,-0.55,-39.2,-28.4,1.9,35.2,,,,,,,,,,
13.48.05.274,433.3,108.3,0,,,62266.5,16.06,-1.14,0.26,-0.51,-2.9,-2.5,11.2,35.08,,,,,,,,,,
13.48.05.283,378.6,94.6,0,,,62266.5,16.06,-0.83,0.06,-0.27,-7.1,-42.6,2.5,35.02,,,,,,,,,,
13.48.05.294,408.1,102.0,0,,,62266.5,16.06,-0.78,0.44,-0.63,10.1,-0.1,-13.6,34.84,,,,,,,,,,
13.48.05.302,364.8,91.2,0,,,62266.5,16.06,-0.7,0.31,0.06,2.9,7.4,11.0,35.22,,,,,,,,,,
13.48.05.310,352.4,88.1,0,,,62266.5,16.06,-1.03,0.57,-0.54,25.9,-5.9,-15.0,34.92,,,,,,,,,,
13.48.05.320,357.8,89.4,0,,,62266.5,16.06,-1.08,0.19,-0.46,-50.3,8.5,1.5,34.82,,,,,,,,,,
13.48.05.329,283.3,70.8,0,,,62266.5,16.06,-0.68,0.07,0.05,-6.4,-16.2,-13.9,34.99,,,,,,,,,,
13.48.05.340,243.4,60.8,0,,,62266.5,16.06,-0.7,0.35,-0.5,32.5,-25.4,-14.2,34.82,,,,,,,,,,
13.48.05.348,163.8,41.0,0,,,62266.5,16.06,-0.39,0.03,-0.01,-10.8,-23.6,-17.7,34.16,,,,,,,,,,
13.48.05.361,81.0,20.2,0,,,62266.5,16.06,-0.78,-0.14,-0.61,0.2,-16.6,-4.6,35.17,,,,,,,,,,
13.48.05.374,-32.7,8.2,0,,,62266.5,16.06,-0.52,-0.01,0.24,-14.0,-8.9,-11.4,34.6,,,,,,,,,,
13.48.05.382,19.2,4.8,0,,,62266.5,16.06,-0.9,0.19,-0.73,15.5,4.1,-13.5,34.88,,,,,,,,,,
13.48.05.392,40.7,10.2,0,,,62266.5,16.06,-0.72,0.32,-0.4,-3.5,-20.5,-10.4,34.95,,,,,,,,,,
13.48.05.402,46.2,11.6,0,,,62266.5,16.06,-0.83,0.03,0.02,-8.9,21.6,-4.5,34.74,,,,,,,,,,
13.48.05.412,49.1,12.3,0,,,62266.5,16.06,-0.71,0.15,0.03,24.3,-16.2,19.5,35.01,,,,,,,,,,
13.48.05.421,69.9,17.5,0,,,62266.5,16.06,-0.92,-0.07,-0.18,-36.8,0.0,-11.8,34.93,,,,,,,,,,
13.48.05.434,86.9,21.7,0,,,62266.5,16.06,-0.51,-0.44,-0.57,9.8,-17.2,-12.9,34.82,,,,,,,,,,
13.48.05.442,54.4,13.6,0,,,62266.5,16.06,-0.67,0.04,-0.27,16.1,-6.8,-3.3,34.52,,,,,,,,,,
13.48.05.452,53.1,13.3,0,,,62266.5,16.06,-0.54,0.27,-0.17,-14.1,7.5,-0.8,35.39,,,,,,,,,,
13.48.05.461,15.1,3.8,0,,,62305.3,16.05,-0.61,0.39,-0.29,-10.4,-1.0,10.5,34.9,,,,,,,,,,
13.48.05.469,24.9,6.2,0,,,62305.3,16.05,-0.8,0.16,-0.15,-10.9,-5.0,18.5,35.31,,,,,,,,,,
13.48.05.479,11.8,3.0,0,,,62305.3,16.05,-0.35,0.65,-0.42,15.8,2.0,7.8,34.46,,,,,,,,,,
13.48.05.489,-31.5,7.9,0,,,62305.3,16.05,-0.45,0.0,-0.14,1.2,-9.0,0.9,35.42,,,,,,,,,,
13.48.05.500,-38.2,9.6,0,,,62305.3,16.05,-0.62,-0.29,-0.06,-5.4,-9.1,10.9,34.97,,,,,,,,,,
13.48.05.510,-41.2,10.3,0,,,62305.3,16.05,-0.52,-0.19,-0.03,-0.5,-17.7,5.7,35.5,,,,,,,,,,
13.48.05.520,-36.7,9.2,0,,,62305.3,16.05,-0.81,-0.1,-0.31,-30.1,21.3,-3.5,35.48,,,,,,,,,,
13.48.05.528,-17.6,4.4,0,,,62305.3,16.05,-0.81,-0.06,-0.49,8.1,-4.0,-3.5,34.98,,,,,,,,,,
13.48.05.539,-49.1,12.3,0,,,62305.3,16.05,-0.81,-0.09,-0.55,-6.7,5.2,9.8,35.43,,,,,,,,,,
13.48.05.548,-59.7,14.9,0,,,62305.3,16.05,-0.82,0.2,-0.36,21.9,-7.5,-29.9,34.94,,,,,,,,,,
13.48.05.557,-46.3,11.6,0,,,62305.3,16.05,-0.57,-0.78,-0.84,-7.5,-6.8,-2.9,34.65,,,,,,,,,,
13.48.05.566,-76.6,19.2,0,,,62305.3,16.05,-0.85,-0.11,-0.42,-12.6,3.8,-4.2,34.77,,,,,,,,,,
13.48.05.574,-42.0,10.5,0,,,62305.3,16.05,-0.66,0.32,-0.19,-21.7,-7.3,17.9,35.05,,,,,,,,,,
13.48.05.583,-75.2,18.8,0,,,62305.3,16.05,-0.7,0.2,-0.51,6.7,-2.8,-11.5,34.85,,,,,,,,,,
13.48.05.593,-82.9,20.7,0,,,62305.3,16.05,-0.7,-0.19,-0.12,-15.4,-2.0,33.7,34.77,,,,,,,,,,
13.48.05.602,-83.3,20.8,0,,,62305.3,16.05,-1.07,-0.28,-0.41,-12.8,8.8,11.2,35.13,,,,,,,,,,
13.48.05.613,-98.7,24.7,0,,,62305.3,16.05,-0.77,0.07,-0.92,-18.2,16.1,-15.8,35.25,,,,,,,,,,
13.48.05.622,-125.2,31.3,0,,,62305.3,16.05,-0.99,0.0,-0.85,-2.5,-11.1,6.7,35.3,,,,,,,,,,
13.48.05.632,-110.2,27.6,0,,,62305.3,16.05,-0.57,0.04,0.4,17.6,18.4,-11.6,35.36,,,,,,,,,,
13.48.05.643,-139.7,34.9,0,,,62305.3,16.05,-0.7,-0.72,-0.65,-5.4,10.4,-2.2,35.29,,,,,,,,,,
13.48.05.651,-92.8,23.2,0,,,62305.3,16.05,-0.83,-0.47,-0.47,6.8,8.7,-9.6,34.83,,,,,,,,,,
13.48.05.660,-125.9,31.5,0,,,62305.3,16.05,-0.7,-0.42,-0.36,-40.2,25.0,-5.6,34.99,,,,,,,,,,
13.48.05.668,-126.0,31.5,0,,,62305.3,16.05,-0.66,-0.17,-0.86,-26.1,39.9,-16.0,35.05,,,,,,,,,,
13.48.05.676,-145.6,36.4,0,,,62305.3,16.05,-0.81,-0.43,-0.68,-2.8,13.2,11.7,35.01,,,,,,,,,,
13.48.05.687,-160.8,40.2,0,,,62305.3,16.05,-0.66,-0.19,-0.22,25.2,4.9,-24.3,34.66,,,,,,,,,,
13.48.05.696,-151.0,37.8,0,,,62305.3,16.05,-0.96,-0.91,-0.65,41.0,-20.1,19.5,35.26,,,,,,,,,,
13.48.05.705,-184.6,46.2,0,,,62305.3,16.05,-0.59,-0.54,-0.71,-3.2,-14.3,2.8,34.92,,,,,,,,,,
13.48.05.716,82.8,20.7,0,,,62305.3,16.05,-0.85,-0.21,-0.52,-10.5,-2.0,1.2,34.88,,,,,,,,,,
13.48.05.727,136.7,34.2,0,,,62305.3,16.05,-0.81,-0.36,-0.17,-1.7,19.3,20.6,35.05,,,,,,,,,,
13.48.05.737,191.5,47.9,1,11.0,122.2,62305.3,16.05,-0.78,-0.33,-0.52,9.7,-16.8,-13.5,35.27,,,,,,,,,,
13.48.05.747,267.7,66.9,0,,,62305.3,16.05,-0.73,-0.46,-0.38,18.0,-5.2,-8.3,34.5,,,,,,,,,,
13.48.05.755,290.1,72.5,0,,,62305.3,16.05,-0.63,-0.57,-0.49,-20.5,5.1,7.5,34.35,,,,,,,,,,
13.48.05.765,354.3,88.6,0,,,62305.3,16.05,-0.55,0.09,-0.66,4.8,-20.4,-10.4,35.2,,,,,,,,,,
13.48.05.773,387.3,96.8,0,,,62305.3,16.05,-0.4,-0.43,-0.23,33.1,-15.4,9.5,34.57,,,,,,,,,,
13.48.05.780,396.4,99.1,0,,,62305.3,16.05,-0.78,-0.4,-0.25,12.7,3.9,2.2,35.04,,,,,,,,,,
13.48.05.791,380.8,95.2,0,,,62305.3,16.05,-0.61,0.15,-0.73,-10.0,-51.1,-13.7,34.56,,,,,,,,,,
13.48.05.798,400.9,100.2,0,,,62305.3,16.05,-0.67,-0.42,-0.51,-7.8,11.7,-8.8,35.26,,,,,,,,,,
13.48.05.807,416.8,104.2,0,,,62305.3,16.05,-1.28,-0.52,-0.5,1.4,-12.7,-1.6,34.86,,,,,,,,,,
13.48.05.813,373.0,93.2,0,,,62305.3,16.05,-1.0,0.3,0.17,28.9,6.9,2.1,35.35,,,,,,,,,,
13.48.05.823,390.1,97.5,0,,,62305.3,16.05,-0.88,-0.35,0.04,13.3,-18.0,15.5,34.76,,,,,,,,,,
13.48.05.834,336.3,84.1,0,,,62305.3,16.05,-0.99,-0.47,-0.21,26.6,-12.3,2.1,34.92,,,,,,,,,,
13.48.05.844,291.8,73.0,0,,,62305.3,16.05,-0.96,-0.2,-0.12,24.7,2.2,-8.6,34.69,,,,,,,,,,
13.48.05.852,212.0,53.0,0,,,62305.3,16.05,-0.87,0.28,0.14,-17.4,21.0,-2.8,34.75,,,,,,,,,,
13.48.05.862,221.1,55.3,0,,,62305.3,16.05,-0.66,-0.25,-0.23,-25.2,-0.7,-17.8,35.1,,,,,,,,,,
13.48.05.872,114.1,28.5,0,,,62305.3,16.05,-0.49,-0.21,-0.4,9.6,5.0,-0.2,35.22,,,,,,,,,,
13.48.05.882,83.6,20.9,0,,,62305.3,16.05,-0.65,-0.69,-0.71,-11.3,7.7,0.7,34.97,,,,,,,,,,
13.48.05.893,27.3,6.8,0,,,62305.3,16.05,-0.79,0.02,0.03,1.4,15.8,-25.0,34.7,,,,,,,,,,
13.48.05.904,11.7,2.9,0,,,62305.3,16.05,-0.46,0.0,-0.37,11.2,20.3,24.0,35.23,,,,,,,,,,
13.48.05.913,42.5,10.6,0,,,62305.3,16.05,-0.78,-0.32,0.28,-29.8,12.3,-25.4,34.95,,,,,,,,,,
13.48.05.921,112.0,28.0,0,,,62305.3,16.05,-0.81,-0.28,-0.35,24.2,-10.8,4.8,35.05,,,,,,,,,,
13.48.05.928,68.0,17.0,0,,,62305.3,16.05,-0.33,0.48,-0.11,-17.8,20.2,-1.0,35.19,,,,,,,,,,
13.48.05.937,85.4,21.4,0,,,62305.3,16.05,-1.15,-0.09,-0.56,-1.1,11.5,19.3,35.06,,,,,,,,,,
13.48.05.946,50.3,12.6,0,,,62305.3,16.05,-0.98,0.18,-0.05,-35.9,15.0,-11.4,34.8,,,,,,,,,,
13.48.05.955,100.3,25.1,0,,,62305.3,16.05,-1.35,0.02,0.33,19.7,5.4,6.7,35.22,,,,,,,,,,
13.48.05.964,86.4,21.6,0,,,62305.3,16.05,-1.2,-0.06,-0.01,7.3,13.6,-19.6,34.78,,,,,,,,,,
13.48.05.973,58.9,14.7,0,,,62305.3,16.05,-0.59,0.23,-0.27,-32.7,-14.7,4.8,35.06,,,,,,,,,,
13.48.05.982,48.2,12.0,0,,,62305.3,16.05,-0.96,-0.08,-1.01,-10.7,23.3,-15.3,34.29,,,,,,,,,,
13.48.05.990,-4.2,1.0,0,,,62305.3,16.05,-1.18,0.11,-0.39,-12.3,15.8,-8.6,34.75,,,,,,,,,,
13.48.06.001,16.1,4.0,0,,,62305.3,16.05,-0.83,0.32,-0.27,-6.6,20.2,9.5,35.37,,,,,,,,,,
13.48.06.011,-10.7,2.7,0,,,62305.3,16.05,-1.1,-0.22,-0.77,-18.2,0.8,-13.1,35.61,,,,,,,,,,
13.48.06.019,-31.8,8.0,0,,,62305.3,16.05,-0.85,0.53,-0.49,10.6,-7.4,14.1,35.41,,,,,,,,,,
13.48.06.031,-28.9,7.2,0,,,62305.3,16.05,-0.72,0.02,-0.36,3.7,-9.9,1.5,34.69,,,,,,,,,,
13.48.06.040,-32.8,8.2,0,,,62305.3,16.05,-0.83,0.04,-0.19,4.0,6.5,17.6,34.91,,,,,,,,,,
13.48.06.049,-42.0,10.5,0,,,62305.3,16.05,-0.98,0.19,-0.52,20.4,-18.4,-11.0,35.16,,,,,,,,,,
13.48.06.060,-61.9,15.5,0,,,62305.3,16.05,-0.72,-0.03,-0.45,-7.7,-1.4,-13.1,35.25,,,,,,,,,,
13.48.06.070,-45.5,11.4,0,,,62305.3,16.05,-0.72,0.31,-0.7,-4.2,10.7,18.8,34.75,,,,,,,,,,
13.48.06.080,-80.2,20.0,0,,,62305.3,16.05,-1.13,0.39,-0.8,9.2,4.6,-6.4,35.0,,,,,,,,,,
13.48.06.089,-45.5,11.4,0,,,62305.3,16.05,-1.15,-0.18,-0.18,-9.2,-4.3,-1.3,34.72,,,,,,,,,,
13.48.06.098,-80.6,20.2,0,,,62305.3,16.05,-1.21,0.6,-0.71,19.1,19.3,16.2,35.27,,,,,,,,,,
13.48.06.107,-80.4,20.1,0,,,62305.3,16.05,-0.78,0.03,-0.75,41.1,-18.8,0.3,34.58,,,,,,,,,,
13.48.06.116,-85.7,21.4,0,,,62305.3,16.05,-0.8,0.26,-0.46,23.7,-9.4,-2.2,35.2,,,,,,,,,,
13.48.06.126,-126.5,31.6,0,,,62305.3,16.05,-0.68,0.19,-0.1,-10.5,15.0,9.0,35.07,,,,,,,,,,
13.48.06.136,-110.0,27.5,0,,,62305.3,16.05,-0.99,0.36,0.02,-22.8,1.5,21.7,34.53,,,,,,,,,,
13.48.06.145,-130.6,32.6,0,,,62305.3,16.05,-0.87,0.02,0.12,5.9,17.2,3.1,34.76,,,,,,,,,,
13.48.06.156,-113.8,28.4,0,,,62305.3,16.05,-1.13,0.31,-0.52,-4.2,17.3,1.6,35.01,,,,,,,,,,
13.48.06.164,-132.9,33.2,0,,,62305.3,16.05,-0.94,0.0,-0.48,-7.8,16.0,3.5,35.67,,,,,,,,,,
13.48.06.174,-142.6,35.6,0,,,62305.3,16.05,-0.48,-0.19,0.18,53.8,5.5,-7.4,35.08,,,,,,,,,,
13.48.06.183,-165.2,41.3,0,,,62305.3,16.05,-0.32,0.32,-0.46,12.4,13.0,-20.8,35.23,,,,,,,,,,
13.48.06.193,-119.2,29.8,0,,,62305.3,16.05,-0.97,0.12,-0.39,5.2,-11.6,19.6,35.09,,,,,,,,,,
13.48.06.202,-147.0,36.8,0,,,62305.3,16.05,-1.1,-0.14,-0.17,-7.6,-9.1,11.7,35.3,,,,,,,,,,
13.48.06.212,-145.4,36.4,0,,,62305.3,16.05,-0.86,-0.06,-0.4,12.2,-14.9,13.6,35.38,,,,,,,,,,
13.48.06.222,-168.6,42.2,0,,,62305.3,16.05,-1.03,-0.13,-0.19,5.7,10.0,4.3,34.76,,,,,,,,,,
13.48.06.232,43.5,10.9,0,,,62305.3,16.05,-0.56,0.71,0.01,-41.6,-3.7,-17.7,34.89,,,,,,,,,,
13.48.06.241,113.2,28.3,0,,,62305.3,16.05,-1.02,-0.23,-0.37,16.6,30.3,-1.3,35.11,,,,,,,,,,
13.48.06.251,163.8,41.0,0,,,62305.3,16.05,-0.65,0.22,-0.19,-0.2,33.0,-15.2,35.26,,,,,,,,,,
13.48.06.260,234.3,58.6,0,,,62305.3,16.05,-0.76,-0.02,0.1,-6.4,14.6,-7.3,35.05,,,,,,,,,,
13.48.06.270,313.2,78.3,0,,,62305.3,16.05,-0.63,0.14,-0.42,8.7,35.8,1.2,34.92,,,,,,,,,,
13.48.06.278,354.0,88.5,0,,,62305.3,16.05,-0.16,-0.01,-0.13,-4.9,8.7,4.1,35.3,,,,,,,,,,
13.48.06.287,370.0,92.5,0,,,62305.3,16.05,-0.62,0.14,0.1,7.8,-18.6,12.2,35.03,,,,,,,,,,
13.48.06.299,415.3,103.8,0,,,62305.3,16.05,-0.3,-0.32,-0.04,-12.2,39.2,-11.8,34.79,,,,,,,,,,
13.48.06.313,425.9,106.5,0,,,62305.3,16.05,-0.81,-0.37,-0.53,1.7,1.1,6.1,35.25,,,,,,,,,,
13.48.06.322,403.2,100.8,0,,,62305.3,16.05,-0.41,0.19,-0.79,-7.3,12.0,6.2,34.95,,,,,,,,,,
13.48.06.332,388.7,97.2,0,,,62344.1,16.04,-0.64,-0.07,-0.25,-34.8,14.9,9.1,35.28,,,,,,,,,,
13.48.06.342,331.3,82.8,0,,,62344.1,16.04,-0.53,0.08,-0.22,25.5,18.6,41.9,35.19,,,,,,,,,,
13.48.06.351,353.1,88.3,0,,,62344.1,16.04,-0.49,-0.42,-0.76,9.4,1.8,20.7,34.39,,,,,,,,,,
13.48.06.360,318.2,79.6,1,12.0,96.3,62344.1,16.04,-0.62,0.25,0.0,42.7,31.5,-25.4,34.73,,,,,,,,,,
13.48.06.370,271.0,67.8,0,,,62344.1,16.04,-0.53,-0.52,0.09,12.4,-12.8,-4.5,35.39,,,,,,,,,,
13.48.06.378,191.3,47.8,0,,,62344.1,16.04,-0.41,0.1,-0.24,-15.9,-17.6,-8.3,34.98,,,,,,,,,,
13.48.06.387,99.9,25.0,0,,,62344.1,16.04,-0.39,0.27,-0.37,-44.5,12.2,5.9,34.83,,,,,,,,,,
13.48.06.395,105.1,26.3,0,,,62344.1,16.04,-0.6,0.42,-0.07,22.5,-2.8,-0.7,34.96,,,,,,,,,,
13.48.06.406,-4.1,1.0,0,,,62344.1,16.04,-0.91,-0.25,-0.26,-22.7,6.2,0.5,35.1,,,,,,,,,,
13.48.06.416,57.1,14.3,0,,,62344.1,16.04,-1.02,0.18,-0.07,-18.8,7.6,0.9,35.27,,,,,,,,,,
13.48.06.424,52.5,13.1,0,,,62344.1,16.04,-0.75,0.23,-0.5,-7.5,17.4,-16.7,34.79,,,,,,,,,,
13.48.06.435,75.3,18.8,0,,,62344.1,16.04,-0.55,0.08,-0.25,-29.2,-0.1,-43.3,34.69,,,,,,,,,,
13.48.06.446,76.0,19.0,0,,,62344.1,16.04,-0.82,-0.09,-0.17,40.1,-5.7,1.0,35.38,,,,,,,,,,
13.48.06.455,54.1,13.5,0,,,62344.1,16.04,-0.72,-0.21,-0.42,-1.3,-18.5,-6.1,35.02,,,,,,,,,,
13.48.06.466,71.7,17.9,0,,,62344.1,16.04,-0.57,-0.71,-0.87,-29.3,2.7,4.7,35.29,,,,,,,,,,
13.48.06.475,66.4,16.6,0,,,62344.1,16.04,-0.73,0.09,-0.42,14.8,9.4,1.9,35.22,,,,,,,,,,
13.48.06.488,45.3,11.3,0,,,62344.1,16.04,-0.49,-0.06,-0.44,-1.3,2.5,14.6,34.86,,,,,,,,,,
13.48.06.496,23.3,5.8,0,,,62344.1,16.04,-0.58,-0.36,-0.21,-21.3,4.4,0.5,35.41,,,,,,,,,,
13.48.06.506,13.1,3.3,0,,,62344.1,16.04,-0.6,-0.04,-0.64,-7.1,26.0,8.6,34.72,,,,,,,,,,
13.48.06.518,-9.3,2.3,0,,,62344.1,16.04,-0.8,-0.18,-0.39,-38.1,20.6,12.8,35.32,,,,,,,,,,
13.48.06.528,-19.6,4.9,0,,,62344.1,16.04,-0.81,-0.06,-0.75,-6.6,-1.6,6.9,35.22,,,,,,,,,,
13.48.06.536,-53.5,13.4,0,,,62344.1,16.04,-0.57,-0.98,-0.4,41.6,6.9,-16.6,34.58,,,,,,,,,,
13.48.06.545,-48.6,12.2,0,,,62344.1,16.04,-0.72,-0.12,-0.73,-17.9,-2.3,-4.0,34.86,,,,,,,,,,
13.48.06.555,-31.0,7.8,0,,,62344.1,16.04,-1.0,-0.21,-0.4,22.0,12.5,23.5,35.08,,,,,,,,,,
13.48.06.565,-20.1,5.0,0,,,62344.1,16.04,-0.7,-0.61,-0.4,-24.0,20.2,7.1,35.41,,,,,,,,,,
13.48.06.576,-55.9,14.0,0,,,62344.1,16.04,-0.95,0.02,-0.08,14.9,-24.8,-31.4,34.73,,,,,,,,,,
13.48.06.587,-45.9,11.5,0,,,62344.1,16.04,-1.06,-0.71,-0.39,-34.6,7.0,-7.4,34.93,,,,,,,,,,
13.48.06.595,-23.0,5.8,0,,,62344.1,16.04,-0.43,-0.51,-0.61,19.0,36.8,1.8,35.15,,,,,,,,,,
13.48.06.606,-46.5,11.6,0,,,62344.1,16.04,-0.6,0.18,-0.63,0.3,17.1,-2.8,35.39,,,,,,,,,,
13.48.06.616,-67.4,16.8,0,,,62344.1,16.04,-0.47,0.33,0.08,16.1,-7.1,-32.5,34.96,,,,,,,,,,
13.48.06.623,-64.0,16.0,0,,,62344.1,16.04,-0.99,-0.24,0.16,-20.7,-3.7,-5.2,34.61,,,,,,,,,,
13.48.06.632,-98.5,24.6,0,,,62344.1,16.04,-0.49,-0.51,-0.16,-2.4,25.6,27.6,34.92,,,,,,,,,,
13.48.06.641,-95.9,24.0,0,,,62344.1,16.04,-1.13,-0.83,-0.4,-17.3,-2.7,-7.0,35.26,,,,,,,,,,
13.48.06.651,-111.9,28.0,0,,,62344.1,16.04,-0.72,-0.75,-0.21,20.7,-8.8,12.0,35.11,,,,,,,,,,
13.48.06.658,-96.6,24.2,0,,,62344.1,16.04,-0.94,0.33,-0.34,-32.4,-14.7,-1.9,35.14,,,,,,,,,,
13.48.06.666,-118.6,29.6,0,,,62344.1,16.04,-0.85,-0.68,0.05,4.1,0.5,-27.6,35.0,,,,,,,,,,
13.48.06.677,-117.1,29.3,0,,,62344.1,16.04,-0.48,-0.22,-0.42,-14.1,-0.1,-0.4,35.2,,,,,,,,,,
13.48.06.684,-126.7,31.7,0,,,62344.1,16.04,-0.67,-0.17,0.27,5.8,28.5,33.4,35.16,,,,,,,,,,
13.48.06.693,-128.4,32.1,0,,,62344.1,16.04,-1.0,-0.53,0.06,-12.7,-1.2,-29.1,35.25,,,,,,,,,,
13.48.06.703,-124.8,31.2,0,,,62344.1,16.04,-0.82,-0.51,0.2,-18.1,-8.8,-7.8,35.53,,,,,,,,,,
13.48.06.714,-143.0,35.8,0,,,62344.1,16.04,-0.66,0.19,-0.1,-16.6,8.7,5.4,34.88,,,,,,,,,,
13.48.06.727,-124.6,31.2,0,,,62344.1,16.04,-0.69,0.05,-0.34,-24.4,2.5,2.9,34.44,,,,,,,,,,
13.48.06.738,-200.4,50.1,0,,,62344.1,16.04,-1.12,-0.16,-0.2,-3.8,-5.8,-4.9,34.94,,,,,,,,,,
13.48.06.747,53.8,13.4,0,,,62344.1,16.04,-0.94,-0.06,-0.28,28.9,8.9,-23.2,34.73,,,,,,,,,,
13.48.06.755,127.7,31.9,0,,,62344.1,16.04,-1.11,-0.33,-0.06,-5.1,-0.2,23.5,35.62,,,,,,,,,,
13.48.06.764,181.7,45.4,0,,,62344.1,16.04,-0.78,-0.06,-0.12,-20.1,-10.9,-9.1,34.9,,,,,,,,,,
13.48.06.773,189.9,47.5,0,,,62344.1,16.04,-0.65,-0.3,-0.07,-28.4,14.6,-1.6,35.64,,,,,,,,,,
13.48.06.783,282.6,70.6,0,,,62344.1,16.04,-1.21,-0.2,-0.21,4.3,-6.7,-10.8,34.87,,,,,,,,,,
13.48.06.795,358.5,89.6,0,,,62344.1,16.04,-0.97,-0.1,-0.01,6.3,-9.1,33.0,35.28,,,,,,,,,,
13.48.06.807,403.8,101.0,0,,,62344.1,16.04,-0.85,-0.19,-0.49,15.4,6.0,17.0,34.61,,,,,,,,,,
13.48.06.818,412.5,103.1,0,,,62344.1,16.04,-1.13,-0.12,-0.47,-23.9,18.7,-11.3,35.64,,,,,,,,,,
13.48.06.827,375.5,93.9,0,,,62344.1,16.04,-0.99,0.52,-0.71,-19.4,10.8,-7.0,35.12,,,,,,,,,,
13.48.06.838,396.1,99.0,0,,,62344.1,16.04,-0.79,0.54,-0.57,-2.9,-8.3,-18.1,35.28,,,,,,,,,,
13.48.06.848,364.2,91.0,0,,,62344.1,16.04,-1.15,0.05,-0.3,41.8,16.5,-3.2,35.82,,,,,,,,,,
13.48.06.856,357.6,89.4,0,,,62344.1,16.04,-1.22,-0.41,-0.24,-1.4,7.2,-14.8,35.37,,,,,,,,,,
13.48.06.865,303.2,75.8,0,,,62344.1,16.04,-0.78,0.06,-0.1,50.3,17.3,23.5,35.01,,,,,,,,,,
13.48.06.874,333.5,83.4,0,,,62344.1,16.04,-1.05,-0.29,0.21,-1.3,33.0,-6.2,35.19,,,,,,,,,,
13.48.06.882,254.9,63.7,0,,,62344.1,16.04,-0.92,-0.43,-1.1,5.5,23.7,14.5,34.71,,,,,,,,,,
13.48.06.893,178.7,44.7,1,13.0,112.6,62344.1,16.04,-0.74,-0.19,-0.19,12.7,18.3,-6.9,34.8,,,,,,,,,,
13.48.06.904,110.3,27.6,0,,,62344.1,16.04,-0.84,-0.22,-0.65,5.1,-3.8,1.6,35.25,,,,,,,,,,
13.48.06.915,15.5,3.9,0,,,62344.1,16.04,-0.77,0.13,-0.9,-46.2,17.1,2.6,34.88,,,,,,,,,,
13.48.06.924,42.5,10.6,0,,,62344.1,16.04,-1.06,-0.63,0.13,17.4,30.4,-2.8,35.2,,,,,,,,,,
13.48.06.933,44.0,11.0,0,,,62344.1,16.04,-1.12,0.3,-1.12,26.2,5.7,-12.3,35.6,,,,,,,,,,
13.48.06.944,87.2,21.8,0,,,62344.1,16.04,-0.63,-0.36,-0.54,-5.2,7.9,-0.5,34.86,,,,,,,,,,
13.48.06.956,54.0,13.5,0,,,62344.1,16.04,-0.67,0.15,-0.55,3.4,13.0,2.1,34.75,,,,,,,,,,
13.48.06.964,37.3,9.3,0,,,62344.1,16.04,-1.11,0.32,-0.39,31.1,-22.6,-4.9,35.15,,,,,,,,,,
13.48.06.972,57.2,14.3,0,,,62344.1,16.04,-1.07,0.15,-0.44,-9.4,-24.5,5.3,35.33,,,,,,,,,,
13.48.06.982,50.4,12.6,0,,,62344.1,16.04,-1.01,0.16,-0.17,9.3,3.8,1.7,34.64,,,,,,,,,,
13.48.06.994,74.9,18.7,0,,,62344.1,16.04,-0.65,-0.04,-0.34,-6.5,25.4,-15.7,34.73,,,,,,,,,,
13.48.07.006,52.9,13.2,0,,,62344.1,16.04,-1.11,0.2,0.0,-28.2,27.1,-4.2,35.03,,,,,,,,,,
13.48.07.016,26.3,6.6,0,,,62344.1,16.04,-0.77,0.16,0.02,-14.1,14.0,28.2,34.89,,,,,,,,,,
13.48.07.026,-25.3,6.3,0,,,62344.1,16.04,-0.86,0.17,-0.43,16.0,8.0,0.5,34.87,,,,,,,,,,
13.48.07.036,-6.8,1.7,0,,,62383.0,16.03,-1.24,0.1,-0.64,-24.2,27.0,-17.9,35.07,,,,,,,,,,
13.48.07.046,-10.2,2.6,0,,,62383.0,16.03,-0.41,-0.16,0.07,49.0,9.7,4.0,35.01,,,,,,,,,,
13.48.07.055,-5.3,1.3,0,,,62383.0,16.03,-0.71,-0.34,-0.69,18.6,17.8,-21.1,35.46,,,,,,,,,,
13.48.07.063,-5.5,1.4,0,,,62383.0,16.03,-0.58,0.21,-0.5,-13.5,27.9,7.0,34.78,,,,,,,,,,
13.48.07.073,-27.6,6.9,0,,,62383.0,16.03,-0.67,0.45,0.06,-24.2,-0.3,10.1,34.75,,,,,,,,,,
13.48.07.080,-81.5,20.4,0,,,62383.0,16.03,-0.31,0.31,-0.17,-4.0,-9.5,19.8,35.12,,,,,,,,,,
13.48.07.090,-23.6,5.9,0,,,62383.0,16.03,-0.93,0.44,-0.23,5.2,12.3,-9.1,34.87,,,,,,,,,,
13.48.07.101,-74.8,18.7,0,,,62383.0,16.03,-0.51,-0.18,-0.47,-12.2,27.4,-3.2,34.94,,,,,,,,,,
13.48.07.110,-82.7,20.7,0,,,62383.0,16.03,-1.11,0.42,-0.38,-34.1,19.6,-8.8,34.42,,,,,,,,,,
13.48.07.122,-80.4,20.1,0,,,62383.0,16.03,-0.71,-0.19,-0.04,30.7,11.3,2.6,34.9,,,,,,,,,,
13.48.07.132,-104.3,26.1,0,,,62383.0,16.03,-0.83,0.25,-0.6,10.2,40.4,3.0,35.01,,,,,,,,,,
13.48.07.141,-57.6,14.4,0,,,62383.0,16.03,-0.91,-0.26,0.38,8.8,28.9,2.8,35.04,,,,,,,,,,
13.48.07.151,-62.9,15.7,0,,,62383.0,16.03,-0.61,-0.12,-0.05,-17.0,13.1,14.6,35.3,,,,,,,,,,
13.48.07.162,-97.8,24.4,0,,,62383.0,16.03,-0.72,0.39,-0.43,16.9,20.5,10.8,34.85,,,,,,,,,,
13.48.07.171,-110.2,27.6,0,,,62383.0,16.03,-0.84,-0.1,-0.15,4.4,-18.7,25.8,35.27,,,,,,,,,,
13.48.07.180,-113.7,28.4,0,,,62383.0,16.03,-0.86,-0.52,0.22,17.5,5.0,10.9,35.19,,,,,,,,,,
13.48.07.190,-114.7,28.7,0,,,62383.0,16.03,-0.58,0.08,-0.42,-3.7,1.2,-8.9,35.25,,,,,,,,,,
13.48.07.200,-90.7,22.7,0,,,62383.0,16.03,-0.59,0.11,-0.05,-10.5,-29.9,2.8,34.79,,,,,,,,,,
13.48.07.209,-123.8,31.0,0,,,62383.0,16.03,-0.75,-0.35,-0.5,39.0,-6.1,-25.2,35.18,,,,,,,,,,
13.48.07.219,-122.5,30.6,0,,,62383.0,16.03,-0.42,0.15,0.09,-10.0,14.7,-14.0,34.64,,,,,,,,,,
13.48.07.231,-146.9,36.7,0,,,62383.0,16.03,-0.74,-0.06,0.03,1.8,19.6,-20.4,35.13,,,,,,,,,,
13.48.07.241,-169.4,42.4,0,,,62383.0,16.03,-0.93,-0.18,-0.14,-9.2,10.6,-29.9,34.99,,,,,,,,,,
13.48.07.253,-188.7,47.2,0,,,62383.0,16.03,-0.77,0.32,0.15,-6.6,11.4,-5.9,35.31,,,,,,,,,,
13.48.07.264,93.5,23.4,0,,,62383.0,16.03,-0.62,-0.16,-0.27,25.8,14.9,-1.4,35.48,,,,,,,,,,
13.48.07.276,168.9,42.2,0,,,62383.0,16.03,-0.8,-0.11,0.05,19.1,25.4,-9.8,34.73,,,,,,,,,,
13.48.07.286,230.3,57.6,0,,,62383.0,16.03,-0.86,-0.22,-0.52,-7.5,-4.2,13.2,35.47,,,,,,,,,,
13.48.07.295,269.0,67.2,0,,,62383.0,16.03,-0.63,0.12,-0.07,-14.6,6.6,24.4,34.91,,,,,,,,,,
13.48.07.303,374.8,93.7,0,,,62383.0,16.03,-0.78,-0.34,-0.23,-12.5,9.7,-3.1,35.26,,,,,,,,,,
13.48.07.312,383.4,95.8,0,,,62383.0,16.03,-0.37,-0.24,-0.56,27.0,14.2,5.2,35.22,,,,,,,,,,
13.48.07.323,368.4,92.1,0,,,62383.0,16.03,-0.7,-0.63,-0.18,-32.1,17.5,6.0,34.54,,,,,,,,,,
13.48.07.332,389.2,97.3,0,,,62383.0,16.03,-0.8,-0.08,0.13,2.9,2.0,14.9,34.95,,,,,,,,,,
13.48.07.341,382.6,95.6,0,,,62383.0,16.03,-0.67,-0.26,-0.46,-19.7,3.3,26.3,34.97,,,,,,,,,,
13.48.07.352,402.8,100.7,0,,,62383.0,16.03,-1.07,-0.26,-0.33,-0.6,-6.3,-18.8,34.92,,,,,,,,,,
13.48.07.361,399.2,99.8,0,,,62383.0,16.03,-1.07,-0.13,-0.24,18.3,16.6,-2.9,35.01,,,,,,,,,,
13.48.07.371,365.3,91.3,0,,,62383.0,16.03,-0.65,0.03,-0.55,-8.5,4.0,5.4,34.81,,,,,,,,,,
13.48.07.383,305.4,76.4,0,,,62383.0,16.03,-0.98,-0.16,-0.4,-25.3,6.9,7.7,35.07,,,,,,,,,,
13.48.07.392,258.0,64.5,0,,,62383.0,16.03,-1.09,-0.18,-0.93,-3.1,11.7,-11.0,34.72,,,,,,,,,,
13.48.07.401,197.2,49.3,0,,,62383.0,16.03,-1.29,-0.28,-0.31,-17.5,20.4,-19.0,35.1,,,,,,,,,,
13.48.07.412,181.9,45.5,0,,,62383.0,16.03,-0.69,-0.36,-0.5,-9.6,18.0,30.6,34.37,,,,,,,,,,
13.48.07.422,107.0,26.8,0,,,62383.0,16.03,-0.92,0.08,-0.06,8.9,10.9,-1.2,35.24,,,,,,,,,,
13.48.07.432,15.1,3.8,0,,,62383.0,16.03,-0.69,-0.3,-0.25,-13.5,-0.7,12.0,35.36,,,,,,,,,,
13.48.07.440,1.3,0.3,0,,,62383.0,16.03,-0.67,-0.74,-0.46,-29.3,50.0,18.6,34.68,,,,,,,,,,
13.48.07.450,29.4,7.4,0,,,62383.0,16.03,-0.55,-0.63,-1.1,7.9,20.0,-23.2,34.82,,,,,,,,,,
13.48.07.460,24.1,6.0,0,,,62383.0,16.03,-0.77,-0.38,-0.08,-12.1,25.1,-6.4,35.17,,,,,,,,,,
13.48.07.469,49.2,12.3,0,,,62422.0,16.02,-0.44,-0.56,0.05,-8.7,-21.6,33.1,34.88,,,,,,,,,,
13.48.07.477,55.3,13.8,0,,,62422.0,16.02,-0.89,-0.37,-0.8,-6.7,-6.8,-3.5,34.88,,,,,,,,,,
13.48.07.486,89.4,22.4,1,14.0,101.2,62422.0,16.02,-0.74,-0.38,-0.35,5.3,17.1,-11.9,34.55,,,,,,,,,,
13.48.07.495,50.9,12.7,0,,,62422.0,16.02,-0.34,0.06,-0.61,-2.0,21.3,-13.6,34.87,,,,,,,,,,
13.48.07.504,80.2,20.0,0,,,62422.0,16.02,-0.37,-0.73,-0.64,-2.0,-35.0,-12.1,35.07,,,,,,,,,,
13.48.07.515,74.3,18.6,0,,,62422.0,16.02,-0.83,0.35,-0.17,8.8,-8.1,1.9,35.55,,,,,,,,,,
13.48.07.523,31.3,7.8,0,,,62422.0,16.02,-0.97,-0.04,-0.28,-15.0,-5.6,-7.9,34.86,,,,,,,,,,
13.48.07.535,19.9,5.0,0,,,62422.0,16.02,-0.63,-0.17,-0.37,-43.8,-12.9,0.2,34.84,,,,,,,,,,
13.48.07.544,-26.2,6.6,0,,,62422.0,16.02,-1.08,-0.4,-0.52,-7.3,14.7,5.5,35.19,,,,,,,,,,
13.48.07.553,-1.0,0.2,0,,,62422.0,16.02,-0.76,-0.25,-0.68,-4.2,5.2,32.4,35.32,,,,,,,,,,
13.48.07.563,40.6,10.2,0,,,62422.0,16.02,-0.72,-0.15,-0.44,-16.9,2.8,-11.9,34.69,,,,,,,,,,
13.48.07.573,-27.4,6.8,0,,,62422.0,16.02,-0.8,0.01,-0.52,21.5,17.0,10.6,35.5,,,,,,,,,,
13.48.07.584,-49.1,12.3,0,,,62422.0,16.02,-1.02,-0.18,-0.09,1.1,10.2,11.2,35.33,,,,,,,,,,
13.48.07.595,-55.7,13.9,0,,,62422.0,16.02,-1.07,-0.56,-0.2,10.2,1.7,-7.7,34.97,,,,,,,,,,
13.48.07.604,-36.4,9.1,0,,,62422.0,16.02,-1.02,-0.52,0.29,-36.1,-5.1,27.6,34.84,,,,,,,,,,
13.48.07.614,-52.4,13.1,0,,,62422.0,16.02,-0.94,0.21,0.26,35.6,-0.4,2.0,34.94,,,,,,,,,,
13.48.07.623,-38.6,9.6,0,,,62422.0,16.02,-0.82,-0.44,-0.43,-1.5,1.8,-26.2,35.07,,,,,,,,,,
13.48.07.630,-54.4,13.6,0,,,62422.0,16.02,-0.68,-0.43,0.16,-46.9,2.1,-3.1,34.63,,,,,,,,,,
13.48.07.640,-74.6,18.6,0,,,62422.0,16.02,-0.92,-0.56,-0.45,-1.0,17.4,3.3,34.73,,,,,,,,,,
13.48.07.651,-67.7,16.9,0,,,62422.0,16.02,-0.9,-0.39,-0.12,-11.8,-8.6,-15.6,35.44,,,,,,,,,,
13.48.07.661,-96.5,24.1,0,,,62422.0,16.02,-0.95,-0.46,-0.65,15.2,16.7,-8.3,35.06,,,,,,,,,,
13.48.07.671,-82.0,20.5,0,,,62422.0,16.02,-0.98,-0.17,-0.63,-13.9,4.8,-1.7,35.26,,,,,,,,,,
13.48.07.682,-103.6,25.9,0,,,62422.0,16.02,-0.61,-0.11,-0.3,1.3,9.0,5.7,34.59,,,,,,,,,,
13.48.07.690,-136.0,34.0,0,,,62422.0,16.02,-0.96,0.01,-0.21,0.6,-3.3,-9.9,34.86,,,,,,,,,,
13.48.07.700,-125.1,31.3,0,,,62422.0,16.02,-1.06,-0.04,-0.11,-13.2,-26.1,-1.6,34.93,,,,,,,,,,
13.48.07.709,-78.5,19.6,0,,,62422.0,16.02,-1.28,-0.15,-0.39,-50.1,13.6,1.0,34.97,,,,,,,,,,
13.48.07.720,-163.0,40.8,0,,,62422.0,16.02,-1.15,-0.26,-0.45,-1.4,-12.8,15.2,34.97,,,,,,,,,,
13.48.07.731,-135.6,33.9,0,,,62422.0,16.02,-0.68,-0.24,-0.1,7.6,-1.7,-6.2,35.11,,,,,,,,,,
13.48.07.740,-136.9,34.2,0,,,62422.0,16.02,-0.73,0.45,-0.14,19.2,-13.7,11.9,35.2,,,,,,,,,,
13.48.07.751,-171.0,42.8,0,,,62422.0,16.02,-0.9,0.18,-0.58,9.8,-3.5,-7.6,35.01,,,,,,,,,,
13.48.07.759,-144.2,36.0,0,,,62422.0,16.02,-0.77,0.07,-0.07,-5.2,-4.0,-3.8,34.69,,,,,,,,,,
13.48.07.768,-190.3,47.6,0,,,62422.0,16.02,-0.82,-0.02,-0.74,6.3,-15.3,-20.5,34.96,,,,,,,,,,
13.48.07.778,80.9,20.2,0,,,62422.0,16.02,-1.09,0.01,-0.14,-9.5,5.5,-7.6,35.15,,,,,,,,,,
13.48.07.788,128.7,32.2,0,,,62422.0,16.02,-0.95,0.12,-0.26,17.1,22.7,-8.4,34.78,,,,,,,,,,
13.48.07.799,198.4,49.6,0,,,62422.0,16.02,-0.99,-0.23,-0.67,-17.0,-1.6,4.7,34.95,,,,,,,,,,
13.48.07.810,280.2,70.0,0,,,62422.0,16.02,-0.93,0.34,-0.34,6.9,11.6,-9.7,35.04,,,,,,,,,,
13.48.07.819,318.9,79.7,0,,,62422.0,16.02,-0.9,0.17,-0.62,-24.8,20.9,-4.2,35.28,,,,,,,,,,
13.48.07.829,353.0,88.2,0,,,62422.0,16.02,-0.75,-0.31,-0.56,-42.0,9.6,-22.3,35.2,,,,,,,,,,
13.48.07.838,420.4,105.1,0,,,62422.0,16.02,-0.89,0.09,-0.34,-10.7,-3.5,-19.4,34.67,,,,,,,,,,
13.48.07.851,393.5,98.4,0,,,62422.0,16.02,-0.65,0.24,-0.45,-10.3,3.3,-8.8,35.37,,,,,,,,,,
13.48.07.860,436.1,109.0,0,,,62422.0,16.02,-0.8,-0.23,-0.68,-1.4,13.5,-23.9,34.33,,,,,,,,,,
13.48.07.871,396.6,99.2,0,,,62422.0,16.02,-0.48,-0.02,-0.47,15.7,5.9,16.4,35.49,,,,,,,,,,
13.48.07.882,383.1,95.8,0,,,62422.0,16.02,-0.6,0.04,-0.03,14.4,7.0,4.9,35.6,,,,,,,,,,
13.48.07.892,320.4,80.1,0,,,62422.0,16.02,-0.98,-0.52,-0.57,9.5,0.7,11.8,34.57,,,,,,,,,,
13.48.07.903,279.7,69.9,0,,,62461.0,16.01,-1.32,-0.13,-0.7,0.8,8.3,11.0,34.91,,,,,,,,,,
13.48.07.916,188.8,47.2,0,,,62461.0,16.01,-0.71,-0.69,-0.19,25.5,-9.6,-6.6,35.32,,,,,,,,,,
13.48.07.924,137.0,34.2,0,,,62461.0,16.01,-1.11,0.07,-0.23,-9.5,-16.5,-7.6,35.42,,,,,,,,,,
13.48.07.933,115.3,28.8,0,,,62461.0,16.01,-0.77,0.73,-0.23,32.8,-8.6,-8.6,35.08,,,,,,,,,,
13.48.07.944,28.3,7.1,0,,,62461.0,16.01,-0.83,-0.21,-0.28,-25.7,-16.1,-16.2,35.67,,,,,,,,,,
13.48.07.953,-10.7,2.7,0,,,62461.0,16.01,-1.18,-0.08,-0.26,9.9,1.3,-18.6,35.32,,,,,,,,,,
13.48.07.966,46.0,11.5,0,,,62461.0,16.01,-0.72,0.02,0.03,-16.0,4.3,-30.0,35.85,,,,,,,,,,
13.48.07.975,66.7,16.7,0,,,62461.0,16.01,-0.56,0.45,-0.71,-24.8,3.8,19.0,34.75,,,,,,,,,,
13.48.07.985,86.7,21.7,0,,,62461.0,16.01,-0.75,0.07,-0.15,2.1,13.8,-24.8,34.84,,,,,,,,,,
13.48.07.995,88.3,22.1,0,,,62461.0,16.01,-0.16,0.09,-0.42,-18.3,0.8,2.4,34.64,,,,,,,,,,
13.48.08.005,65.2,16.3,0,,,62461.0,16.01,-0.7,0.13,0.06,-8.4,-11.6,-0.8,34.96,,,,,,,,,,
13.48.08.016,73.3,18.3,0,,,62461.0,16.01,-0.64,0.44,0.03,1.2,12.1,-26.1,35.14,,,,,,,,,,
13.48.08.027,9.6,2.4,0,,,62461.0,16.01,-0.97,0.27,0.18,11.6,28.9,-13.2,35.01,,,,,,,,,,
13.48.08.036,33.5,8.4,0,,,62461.0,16.01,-0.84,-0.07,-0.68,-1.0,26.8,0.9,34.95,,,,,,,,,,
13.48.08.044,23.2,5.8,1,15.0,107.5,62461.0,16.01,-0.78,-0.06,-0.84,29.8,-1.3,-19.3,34.95,,,,,,,,,,
13.48.08.053,-10.6,2.6,0,,,62461.0,16.01,-0.75,-0.16,-0.3,26.4,-14.2,-10.1,34.57,,,,,,,,,,
13.48.08.061,-19.4,4.8,0,,,62461.0,16.01,-0.26,0.22,-0.52,-34.6,10.0,-25.9,34.86,,,,,,,,,,
13.48.08.072,-43.4,10.8,0,,,62461.0,16.01,-0.59,-0.52,-0.55,-6.7,9.3,-3.6,35.13,,,,,,,,,,
13.48.08.080,-22.5,5.6,0,,,62461.0,16.01,-0.47,0.15,0.36,59.6,7.3,14.6,34.89,,,,,,,,,,
13.48.08.091,4.0,1.0,0,,,62461.0,16.01,-0.57,0.28,-0.06,42.7,20.4,-8.5,34.78,,,,,,,,,,
13.48.08.102,-42.6,10.6,0,,,62461.0,16.01,-0.98,0.46,0.27,28.2,9.8,-13.4,34.58,,,,,,,,,,
13.48.08.111,-61.6,15.4,0,,,62461.0,16.01,-0.73,0.1,-0.27,-44.5,-3.4,-28.3,34.94,,,,,,,,,,
13.48.08.120,-40.1,10.0,0,,,62461.0,16.01,-0.72,0.12,-0.41,-0.0,10.0,-4.4,34.89,,,,,,,,,,
13.48.08.130,-31.0,7.8,0,,,62461.0,16.01,-0.72,-0.3,-0.22,-13.3,-2.9,-2.3,34.86,,,,,,,,,,
13.48.08.139,-87.4,21.8,0,,,62461.0,16.01,-0.7,0.36,-0.85,-11.5,-15.9,3.4,34.86,,,,,,,,,,
13.48.08.147,-55.7,13.9,0,,,62461.0,16.01,-0.71,0.36,-0.24,18.3,-11.0,-17.4,34.65,,,,,,,,,,
13.48.08.158,-95.4,23.8,0,,,62461.0,16.01,-0.88,-0.5,-0.52,26.8,3.1,3.8,35.11,,,,,,,,,,
13.48.08.165,-75.2,18.8,0,,,62461.0,16.01,-1.04,0.49,-0.08,-28.4,10.9,-3.3,34.37,,,,,,,,,,
13.48.08.176,-91.3,22.8,0,,,62461.0,16.01,-0.75,-0.11,-0.04,21.1,-0.8,4.0,34.9,,,,,,,,,,
13.48.08.185,-108.9,27.2,0,,,62461.0,16.01,-0.61,0.04,0.17,28.4,-4.4,11.3,34.84,,,,,,,,,,
13.48.08.196,-87.2,21.8,0,,,62461.0,16.01,-0.81,0.39,-0.18,11.1,21.4,-6.1,35.59,,,,,,,,,,
13.48.08.206,-99.5,24.9,0,,,62461.0,16.01,-0.82,-0.55,-0.42,-7.4,-26.2,-2.3,35.0,,,,,,,,,,
13.48.08.219,-128.5,32.1,0,,,62461.0,16.01,-0.6,0.09,-0.23,9.3,-31.5,-1.0,34.86,,,,,,,,,,
13.48.08.228,-128.5,32.1,0,,,62461.0,16.01,-0.44,-0.05,-0.65,-10.8,8.7,-14.5,34.92,,,,,,,,,,
13.48.08.237,-163.6,40.9,0,,,62461.0,16.01,-0.67,-0.04,-0.52,0.5,45.0,-17.9,35.17,,,,,,,,,,
13.48.08.245,-167.5,41.9,0,,,62461.0,16.01,-0.7,-0.76,-0.71,6.7,27.0,3.3,35.02,,,,,,,,,,
13.48.08.254,-164.6,41.2,0,,,62461.0,16.01,-0.48,-0.36,-0.79,57.5,10.9,3.3,35.0,,,,,,,,,,
13.48.08.263,-117.1,29.3,0,,,62461.0,16.01,-0.83,0.13,-0.49,-6.4,-17.0,-1.8,34.98,,,,,,,,,,
13.48.08.273,-133.0,33.2,0,,,62461.0,16.01,-0.68,-0.09,-0.59,29.5,-14.5,14.0,34.89,,,,,,,,,,
13.48.08.283,-158.2,39.6,0,,,62461.0,16.01,-0.73,-0.25,-0.11,-3.7,-1.9,28.0,35.29,,,,,,,,,,
13.48.08.292,55.2,13.8,0,,,62461.0,16.01,-0.29,-0.08,-0.37,10.1,30.8,-3.0,34.51,,,,,,,,,,
13.48.08.302,128.0,32.0,0,,,62461.0,16.01,-0.63,-0.36,-0.24,2.8,17.4,23.0,34.78,,,,,,,,,,
13.48.08.312,198.6,49.6,0,,,62461.0,16.01,-0.63,-0.12,-0.1,-4.1,-9.9,-2.2,35.18,,,,,,,,,,
13.48.08.322,247.9,62.0,0,,,62461.0,16.01,-0.43,-0.22,-0.46,7.3,45.8,-1.7,34.89,,,,,,,,,,
13.48.08.334,304.0,76.0,0,,,62461.0,16.01,-0.88,-0.27,-0.23,-5.5,11.0,0.0,35.23,,,,,,,,,,
13.48.08.344,313.9,78.5,0,,,62461.0,16.01,-0.73,-0.02,-0.26,-0.9,16.2,5.2,34.87,,,,,,,,,,
13.48.08.354,445.4,111.4,0,,,62461.0,16.01,-0.82,0.25,0.11,-41.7,-7.3,0.7,35.03,,,,,,,,,,
13.48.08.361,399.5,99.9,0,,,62461.0,16.01,-0.78,-0.01,-0.25,-7.4,-13.4,-4.0,35.24,,,,,,,,,,
13.48.08.371,403.3,100.8,0,,,62461.0,16.01,-0.69,-0.15,0.11,-4.5,-10.4,-23.7,34.53,,,,,,,,,,
13.48.08.381,384.5,96.1,0,,,62461.0,16.01,-0.7,0.59,0.05,19.0,30.9,-10.3,34.23,,,,,,,,,,
13.48.08.390,429.6,107.4,0,,,62461.0,16.01,-1.07,-0.01,-0.15,12.4,20.7,19.0,34.94,,,,,,,,,,
13.48.08.402,317.5,79.4,0,,,62461.0,16.01,-0.5,-0.13,-0.64,-27.3,-15.3,3.0,35.08,,,,,,,,,,
13.48.08.412,332.0,83.0,0,,,62461.0,16.01,-0.73,0.08,-0.37,7.2,-17.2,-5.1,35.03,,,,,,,,,,
13.48.08.423,271.8,68.0,0,,,62461.0,16.01,-0.84,-0.57,0.2,7.2,14.2,-4.3,34.81,,,,,,,,,,
13.48.08.431,221.2,55.3,0,,,62461.0,16.01,-1.37,-0.12,-0.56,33.6,-4.9,-26.7,35.39,,,,,,,,,,
13.48.08.439,172.5,43.1,0,,,62461.0,16.01,-1.13,-0.52,-0.34,11.2,-19.5,13.9,35.23,,,,,,,,,,
13.48.08.449,67.2,16.8,0,,,62461.0,16.01,-0.81,-0.07,0.35,-27.7,39.4,4.7,34.98,,,,,,,,,,
13.48.08.459,20.6,5.2,0,,,62461.0,16.01,-0.73,-0.55,0.13,-2.1,-8.6,-23.0,34.95,,,,,,,,,,
13.48.08.469,2.3,0.6,0,,,62461.0,16.01,-1.05,-0.13,-0.42,-11.6,13.7,19.7,34.94,,,,,,,,,,
13.48.08.482,14.4,3.6,0,,,62461.0,16.01,-0.87,-0.29,-0.14,-10.0,3.4,-13.2,34.85,,,,,,,,,,
13.48.08.491,68.1,17.0,0,,,62500.0,16.0,-0.66,-0.0,-0.27,-23.6,-7.3,4.3,35.02,,,,,,,,,,
13.48.08.500,65.8,16.4,0,,,62500.0,16.0,-0.88,-0.22,0.04,-19.0,-6.8,-3.5,35.28,,,,,,,,,,
13.48.08.510,59.1,14.8,0,,,62500.0,16.0,-0.77,-1.0,-0.05,-21.5,30.0,4.8,35.22,,,,,,,,,,
13.48.08.520,82.9,20.7,0,,,62500.0,16.0,-1.12,0.01,-0.15,-3.1,9.0,8.7,35.02,,,,,,,,,,
13.48.08.528,61.8,15.4,0,,,62500.0,16.0,-1.22,-0.18,0.2,3.7,1.4,-11.3,35.1,,,,,,,,,,
13.48.08.539,55.6,13.9,1,16.0,121.2,62500.0,16.0,-0.85,0.01,0.15,15.9,11.0,1.7,35.31,,,,,,,,,,
13.48.08.547,23.1,5.8,0,,,62500.0,16.0,-1.0,-0.23,0.05,3.7,-13.4,-6.6,35.23,,,,,,,,,,
13.48.08.557,-4.0,1.0,0,,,62500.0,16.0,-0.83,-0.6,-0.29,9.9,1.7,3.9,34.64,,,,,,,,,,
13.48.08.567,-23.5,5.9,0,,,62500.0,16.0,-0.82,-0.15,0.22,-21.0,-1.4,-30.3,34.96,,,,,,,,,,
13.48.08.575,-20.9,5.2,0,,,62500.0,16.0,-0.84,-0.23,-0.31,24.8,1.5,-3.0,34.7,,,,,,,,,,
13.48.08.584,-25.2,6.3,0,,,62500.0,16.0,-1.27,0.07,-0.32,33.4,21.5,-8.7,34.66,,,,,,,,,,
13.48.08.593,-16.7,4.2,0,,,62500.0,16.0,-1.09,-0.2,0.14,-18.7,2.1,-5.8,35.0,,,,,,,,,,
13.48.08.603,-64.8,16.2,0,,,62500.0,16.0,-0.85,0.22,-0.16,-2.1,-10.2,-14.9,35.01,,,,,,,,,,
13.48.08.611,-36.2,9.0,0,,,62500.0,16.0,-1.11,-0.61,-0.38,19.9,-16.7,-6.6,35.29,,,,,,,,,,
13.48.08.621,-7.5,1.9,0,,,62500.0,16.0,-0.88,-0.18,-0.74,-0.5,11.5,-1.2,35.09,,,,,,,,,,
13.48.08.632,-63.4,15.8,0,,,62500.0,16.0,-0.72,-0.23,-0.59,29.4,-12.4,1.3,34.86,,,,,,,,,,
13.48.08.644,-74.8,18.7,0,,,62500.0,16.0,-1.08,0.23,-0.43,-26.5,-4.1,-16.1,35.06,,,,,,,,,,
13.48.08.654,-70.4,17.6,0,,,62500.0,16.0,-1.15,-0.16,-0.72,34.4,17.7,4.9,35.1,,,,,,,,,,
13.48.08.661,-57.1,14.3,0,,,62500.0,16.0,-0.98,-0.0,-0.38,28.8,0.6,-4.0,35.23,,,,,,,,,,
13.48.08.673,-84.6,21.2,0,,,62500.0,16.0,-0.79,-0.06,-0.71,27.1,11.5,-22.6,35.35,,,,,,,,,,
13.48.08.682,-92.4,23.1,0,,,62500.0,16.0,-0.87,0.3,-0.74,-22.0,-4.0,-4.8,35.0,,,,,,,,,,
13.48.08.693,-97.1,24.3,0,,,62500.0,16.0,-0.67,-0.09,-0.99,1.0,0.8,-31.1,34.84,,,,,,,,,,
13.48.08.702,-113.8,28.4,0,,,62500.0,16.0,-0.95,0.32,-0.48,2.4,12.8,-9.2,35.68,,,,,,,,,,
13.48.08.713,-76.4,19.1,0,,,62500.0,16.0,-0.81,-0.33,-0.71,8.0,36.7,2.7,35.4,,,,,,,,,,
13.48.08.722,-139.3,34.8,0,,,62500.0,16.0,-0.5,0.12,-0.7,-15.1,20.8,-8.8,35.11,,,,,,,,,,
13.48.08.731,-118.6,29.6,0,,,62500.0,16.0,-1.05,-0.05,-0.38,19.5,-21.6,-7.4,34.92,,,,,,,,,,
13.48.08.739,-129.3,32.3,0,,,62500.0,16.0,-0.84,0.45,-0.87,-4.3,-29.1,-10.3,35.38,,,,,,,,,,
13.48.08.748,-143.5,35.9,0,,,62500.0,16.0,-0.92,-0.07,-0.62,-7.6,7.0,0.0,35.1,,,,,,,,,,
13.48.08.758,-109.4,27.4,0,,,62500.0,16.0,-0.5,-0.07,-0.23,12.0,21.2,-24.9,34.39,,,,,,,,,,
13.48.08.767,-153.4,38.4,0,,,62500.0,16.0,-0.89,0.1,-0.93,9.6,-3.7,20.1,35.26,,,,,,,,,,
13.48.08.778,-148.3,37.1,0,,,62500.0,16.0,-1.18,0.04,-0.33,-6.9,-12.9,16.2,34.36,,,,,,,,,,
13.48.08.786,-155.5,38.9,0,,,62500.0,16.0,-0.67,0.1,-0.34,3.8,-12.3,10.4,35.03,,,,,,,,,,
13.48.08.795,-177.9,44.5,0,,,62500.0,16.0,-0.96,0.13,-0.46,-11.6,-8.9,5.2,35.08,,,,,,,,,,
13.48.08.806,53.3,13.3,0,,,62500.0,16.0,-0.92,0.1,-0.75,5.6,10.7,-15.3,35.09,,,,,,,,,,
13.48.08.816,129.6,32.4,0,,,62500.0,16.0,-0.6,0.01,-0.58,9.3,-15.6,-17.6,35.37,,,,,,,,,,
13.48.08.826,189.9,47.5,0,,,62500.0,16.0,-0.33,0.21,-0.45,-38.3,-1.4,-7.9,35.25,,,,,,,,,,
13.48.08.835,272.9,68.2,0,,,62500.0,16.0,-0.76,0.0,-0.63,11.8,32.6,24.5,35.32,,,,,,,,,,
13.48.08.843,295.0,73.8,0,,,62500.0,16.0,-0.58,0.88,-0.7,11.2,12.3,12.5,35.12,,,,,,,,,,
13.48.08.854,330.1,82.5,0,,,62500.0,16.0,-0.75,0.35,-0.0,-32.3,18.6,-4.8,35.36,,,,,,,,,,
13.48.08.863,382.9,95.7,0,,,62500.0,16.0,-0.77,-0.25,0.02,-25.2,8.1,-9.8,34.4,,,,,,,,,,
13.48.08.872,381.3,95.3,0,,,62500.0,16.0,-0.83,-0.07,-0.24,9.8,12.3,-3.3,34.92,,,,,,,,,,
13.48.08.881,451.0,112.8,0,,,62500.0,16.0,-0.83,0.24,0.02,35.4,20.6,-17.6,34.84,,,,,,,,,,
13.48.08.891,396.0,99.0,0,,,62500.0,16.0,-0.75,-0.09,-0.23,-16.7,3.3,8.0,35.1,,,,,,,,,,
13.48.08.900,423.4,105.8,0,,,62500.0,16.0,-0.76,0.03,0.02,-22.0,16.2,1.0,34.98,,,,,,,,,,
13.48.08.909,390.9,97.7,0,,,62500.0,16.0,-1.09,0.49,0.1,-33.0,-10.6,-15.6,35.19,,,,,,,,,,
13.48.08.917,362.3,90.6,0,,,62500.0,16.0,-0.79,0.08,-0.77,-11.8,15.8,-3.3,34.48,,,,,,,,,,
13.48.08.927,306.1,76.5,0,,,62500.0,16.0,-0.55,-0.12,0.07,-0.3,45.8,-29.0,35.59,,,,,,,,,,
13.48.08.938,246.1,61.5,0,,,62500.0,16.0,-0.75,0.1,-0.71,24.6,32.4,-8.5,35.34,,35.01,,,,,,,,
13.48.08.947,208.3,52.1,0,,,62500.0,16.0,-0.95,0.37,-0.29,18.8,-4.9,-4.4,35.23,,,,,,,,,,
13.48.08.957,96.0,24.0,0,,,62500.0,16.0,-0.84,-0.18,0.07,15.3,35.2,-7.5,35.18,,,,,,,,,,
13.48.08.965,70.2,17.6,0,,,62500.0,16.0,-0.75,0.49,-0.18,-8.4,15.3,-1.2,35.63,,,,,,,,,,
13.48.08.977,49.9,12.5,0,,,62500.0,16.0,-0.55,0.18,0.01,-10.6,9.6,10.7,34.89,,,,,,,,,,
13.48.08.988,32.5,8.1,0,,,62500.0,16.0,-0.29,-0.15,0.85,-9.6,-6.8,-14.7,34.42,,,,,,,,,,
13.48.08.998,-3.8,1.0,0,,,62500.0,16.0,-0.69,-0.14,-0.08,10.3,14.1,-21.2,35.2,,,,,,,,,,
13.48.09.007,40.5,10.1,0,,,62500.0,16.0,-0.83,-0.16,-0.07,-19.0,8.6,-0.3,35.4,,,,,,,,,,
13.48.09.019,68.7,17.2,0,,,62500.0,16.0,-0.81,0.33,-0.21,20.0,-7.3,33.4,35.2,,,,,,,,,,
13.48.09.029,71.8,18.0,0,,,62500.0,16.0,-0.8,0.56,-0.14,-36.3,10.8,3.9,34.63,,,,,,,,,,
13.48.09.038,69.9,17.5,0,,,62500.0,16.0,-0.53,-0.11,0.04,-50.9,-9.5,-15.1,34.64,,,,,,,,,,
13.48.09.049,42.8,10.7,0,,,62500.0,16.0,-0.56,-0.11,-0.27,-32.8,38.8,-12.4,35.11,,,,,,,,,,
13.48.09.062,17.2,4.3,0,,,62500.0,16.0,-0.61,-0.18,-0.36,-3.6,5.9,-13.4,34.9,,,,,,,,,,
13.48.09.071,38.7,9.7,1,17.0,112.8,62500.0,16.0,-0.36,-0.23,0.2,15.8,32.9,0.3,34.99,,,,,,,,,,
13.48.09.082,3.9,1.0,0,,,62500.0,16.0,-0.66,-0.13,-0.24,15.3,7.0,-2.6,35.15,,,,,,,,,,
13.48.09.092,-10.3,2.6,0,,,62539.1,15.99,-0.92,-0.27,-0.01,13.1,-5.3,-18.9,35.1,,,,,,,,,,
13.48.09.099,-23.6,5.9,0,,,62539.1,15.99,-0.5,-0.21,-0.73,5.4,1.0,-22.6,35.0,,,,,,,,,,
13.48.09.108,-5.8,1.4,0,,,62539.1,15.99,-1.0,0.05,-0.8,-6.2,11.7,19.8,34.82,,,,,,,,,,
13.48.09.118,-40.8,10.2,0,,,62539.1,15.99,-0.81,-0.01,-0.74,-8.1,33.1,-1.0,34.78,,,,,,,,,,
13.48.09.127,-51.8,13.0,0,,,62539.1,15.99,-0.85,-0.59,-0.62,-27.0,-5.2,0.7,35.16,,,,,,,,,,
13.48.09.136,-33.4,8.4,0,,,62539.1,15.99,-0.73,-0.4,-0.15,-0.5,-5.1,-21.7,35.1,,,,,,,,,,
13.48.09.147,-58.4,14.6,0,,,62539.1,15.99,-0.21,-0.53,-0.3,11.1,-28.0,22.1,35.52,,,,,,,,,,
13.48.09.155,-23.2,5.8,0,,,62539.1,15.99,-0.53,-0.63,-1.03,9.9,29.3,-16.0,35.21,,,,,,,,,,
13.48.09.163,-106.8,26.7,0,,,62539.1,15.99,-0.59,-0.16,-0.63,-7.7,30.8,-5.9,34.95,,,,,,,,,,
13.48.09.172,-86.4,21.6,0,,,62539.1,15.99,-0.64,0.07,-0.78,-4.7,-14.1,-10.4,34.56,,,,,,,,,,
13.48.09.182,-95.2,23.8,0,,,62539.1,15.99,-0.79,-0.14,-0.21,16.4,2.0,-10.7,34.8,,,,,,,,,,
13.48.09.192,-100.2,25.0,0,,,62539.1,15.99,-1.06,-0.38,-0.48,22.2,4.6,-13.6,35.07,,,,,,,,,,
13.48.09.203,-118.1,29.5,0,,,62539.1,15.99,-0.67,-0.15,-0.57,-17.0,5.7,1.2,35.4,,,,,,,,,,
13.48.09.212,-71.0,17.8,0,,,62539.1,15.99,-0.9,0.04,-0.43,-23.8,10.7,-1.0,35.06,,,,,,,,,,
13.48.09.221,-101.0,25.2,0,,,62539.1,15.99,-1.05,-0.2,-0.17,8.3,-9.2,-0.8,34.86,,,,,,,,,,
13.48.09.230,-102.1,25.5,0,,,62539.1,15.99,-0.91,-0.29,-0.72,-29.8,34.3,1.4,35.13,,,,,,,,,,
13.48.09.240,-93.0,23.2,0,,,62539.1,15.99,-0.74,0.28,-0.52,7.9,-7.6,18.5,35.12,,,,,,,,,,
13.48.09.248,-106.4,26.6,0,,,62539.1,15.99,-0.6,-0.49,-0.29,-33.3,19.2,-19.6,35.34,,,,,,,,,,
13.48.09.260,-110.8,27.7,0,,,62539.1,15.99,-0.42,-0.19,-0.36,-5.9,-1.4,-15.6,34.88,,,,,,,,,,
13.48.09.269,-138.1,34.5,0,,,62539.1,15.99,-0.94,-0.37,-0.07,-17.5,-5.9,1.3,35.14,,,,,,,,,,
13.48.09.279,-189.4,47.4,0,,,62539.1,15.99,-0.7,-0.24,-0.39,9.1,20.2,-14.1,34.78,,,,,,,,,,
13.48.09.288,-136.4,34.1,0,,,62539.1,15.99,-0.81,-0.69,-0.23,9.5,25.1,-11.1,35.51,,,,,,,,,,
13.48.09.296,-171.8,43.0,0,,,62539.1,15.99,-0.76,0.12,-0.18,9.1,26.3,-16.4,34.96,,,,,,,,,,
13.48.09.306,-159.9,40.0,0,,,62539.1,15.99,-1.13,-0.43,0.04,13.6,19.3,-15.1,35.05,,,,,,,,,,
13.48.09.313,42.4,10.6,0,,,62539.1,15.99,-0.85,-0.67,-0.24,-0.4,-5.2,16.7,34.99,,,,,,,,,,
13.48.09.321,73.3,18.3,0,,,62539.1,15.99,-0.92,-0.52,-0.1,16.5,18.1,-3.0,34.99,,,,,,,,,,
13.48.09.330,140.5,35.1,0,,,62539.1,15.99,-0.67,-0.66,-0.39,30.1,28.1,0.6,35.02,,,,,,,,,,
13.48.09.342,248.4,62.1,0,,,62539.1,15.99,-1.05,0.2,0.25,6.1,-22.2,14.8,34.84,,,,,,,,,,
13.48.09.351,299.7,74.9,0,,,62539.1,15.99,-0.72,0.19,-0.0,2.3,26.4,2.3,35.06,,,,,,,,,,
13.48.09.363,317.9,79.5,0,,,62539.1,15.99,-1.06,-0.8,-0.23,-1.6,11.2,1.7,34.99,,,,,,,,,,
13.48.09.373,337.9,84.5,0,,,62539.1,15.99,-0.97,-0.2,-0.55,4.4,-18.1,-13.5,34.76,,,,,,,,,,
13.48.09.381,340.7,85.2,0,,,62539.1,15.99,-1.32,-0.42,-0.06,13.3,17.8,-7.1,35.08,,,,,,,,,,
13.48.09.392,401.4,100.4,0,,,62539.1,15.99,-0.86,0.06,-0.62,-10.3,-3.6,-0.9,35.76,,,,,,,,,,
13.48.09.400,390.7,97.7,0,,,62539.1,15.99,-1.03,-0.27,-0.64,-8.6,-8.6,4.4,35.28,,,,,,,,,,
13.48.09.410,343.2,85.8,0,,,62539.1,15.99,-1.0,-0.07,-0.02,18.5,11.7,21.0,35.18,,,,,,,,,,
13.48.09.420,374.0,93.5,0,,,62539.1,15.99,-0.83,-0.63,-0.15,0.5,0.9,-14.7,35.24,,,,,,,,,,
13.48.09.431,355.8,89.0,0,,,62539.1,15.99,-1.12,-0.34,-0.43,-8.6,-4.7,-16.3,35.26,,,,,,,,,,
13.48.09.440,272.7,68.2,0,,,62539.1,15.99,-1.32,-0.13,0.4,0.6,8.5,14.4,34.93,,,,,,,,,,
13.48.09.449,255.2,63.8,0,,,62539.1,15.99,-1.05,-0.35,0.19,2.0,9.8,-21.1,34.47,,,,,,,,,,
13.48.09.460,194.4,48.6,0,,,62539.1,15.99,-1.45,-0.5,-0.49,-15.6,-7.6,-4.1,34.61,,,,,,,,,,
13.48.09.469,164.8,41.2,0,,,62539.1,15.99,-0.56,-0.55,-0.44,-2.8,19.6,25.2,34.96,,,,,,,,,,
13.48.09.480,44.4,11.1,0,,,62539.1,15.99,-1.06,0.28,-0.38,-13.4,-12.9,4.6,34.43,,,,,,,,,,
13.48.09.491,11.2,2.8,0,,,62539.1,15.99,-0.7,-0.31,-0.17,0.3,-18.0,-19.7,35.0,,,,,,,,,,
13.48.09.502,66.0,16.5,0,,,62539.1,15.99,-1.07,0.03,-0.13,-5.8,-3.2,-0.1,34.7,,,,,,,,,,
13.48.09.512,29.6,7.4,0,,,62539.1,15.99,-0.95,-0.06,-0.14,3.3,11.1,-24.1,35.31,,,,,,,,,,
13.48.09.520,37.7,9.4,0,,,62539.1,15.99,-0.98,-0.23,-0.54,3.6,17.6,-15.8,34.76,,,,,,,,,,
13.48.09.530,68.7,17.2,0,,,62539.1,15.99,-0.78,0.21,-0.14,38.3,5.8,-10.6,34.89,,,,,,,,,,
13.48.09.539,67.1,16.8,0,,,62539.1,15.99,-0.67,-0.01,0.03,4.3,6.9,8.3,34.85,,,,,,,,,,
13.48.09.549,101.1,25.3,0,,,62539.1,15.99,-0.69,0.37,-0.42,-11.6,-16.5,-5.1,34.7,,,,,,,,,,
13.48.09.557,71.2,17.8,1,18.0,123.5,62539.1,15.99,-1.2,0.34,0.01,13.6,1.3,0.8,35.33,,,,,,,,,,
13.48.09.566,29.8,7.4,0,,,62539.1,15.99,-1.29,0.11,-0.1,18.7,-3.1,0.5,34.75,,,,,,,,,,
13.48.09.575,46.4,11.6,0,,,62539.1,15.99,-0.87,-0.24,-0.35,42.8,14.3,-15.5,34.89,,,,,,,,,,
13.48.09.586,0.0,0.0,0,,,62578.2,15.98,-0.58,0.15,-0.63,-8.8,7.3,18.7,35.3,,,,,,,,,,
13.48.09.596,-5.9,1.5,0,,,62578.2,15.98,-1.23,-0.29,-0.98,-50.3,12.7,3.4,34.85,,,,,,,,,,
13.48.09.605,18.8,4.7,0,,,62578.2,15.98,-1.09,0.29,-0.25,-7.2,5.8,-5.2,34.83,,,,,,,,,,
13.48.09.614,16.8,4.2,0,,,62578.2,15.98,-0.95,0.18,-0.4,-25.1,-4.2,-28.4,34.98,,,,,,,,,,
13.48.09.624,,,0,,,,,,,,,,,,,,,,,,,,,
13.48.09.634,-21.5,5.4,0,,,62578.2,15.98,-0.7,0.03,-0.66,0.2,22.6,-3.0,35.29,,,,,,,,,,
13.48.09.642,-32.3,8.1,0,,,62578.2,15.98,-1.1,0.47,-0.68,27.0,-4.8,34.3,34.87,,,,,,,,,,
13.48.09.652,-49.1,12.3,0,,,62578.2,15.98,-0.74,-0.04,-0.15,-30.1,5.2,-7.3,34.61,,,,,,,,,,
13.48.09.663,-35.7,8.9,0,,,62578.2,15.98,-0.86,0.54,-0.56,-8.3,-39.5,29.9,35.05,,,,,,,,,,
13.48.09.673,-65.0,16.2,0,,,62578.2,15.98,-0.67,-0.05,-0.48,-1.6,20.4,1.6,34.9,,,,,,,,,,
13.48.09.683,-52.3,13.1,0,,,62578.2,15.98,-0.75,-0.4,-0.27,-5.2,-10.7,0.7,35.29,,,,,,,,,,
13.48.09.691,-80.8,20.2,0,,,62578.2,15.98,-0.87,0.51,-0.37,-20.8,-12.1,15.9,34.85,,,,,,,,,,
13.48.09.702,-52.5,13.1,0,,,62578.2,15.98,-0.66,0.2,-1.0,24.6,23.4,35.4,34.19,,,,,,,,,,
13.48.09.712,-84.9,21.2,0,,,62578.2,15.98,-0.82,0.26,-0.1,-23.5,1.7,-2.5,35.16,,,,,,,,,,
13.48.09.722,-110.7,27.7,0,,,62578.2,15.98,-0.67,0.47,0.1,-20.2,6.8,-10.3,34.67,,,,,,,,,,
13.48.09.733,-70.0,17.5,0,,,62578.2,15.98,-0.73,0.41,-0.01,-24.2,-35.4,3.1,35.36,,,,,,,,,,
13.48.09.744,-118.7,29.7,0,,,62578.2,15.98,-0.97,0.36,-0.06,2.0,-14.2,-4.2,35.41,,,,,,,,,,
13.48.09.755,-126.9,31.7,0,,,62578.2,15.98,-0.74,0.12,-0.35,16.0,29.7,4.0,35.48,,,,,,,,,,
13.48.09.764,-138.8,34.7,0,,,62578.2,15.98,-0.75,0.2,-0.19,29.1,-0.6,10.1,35.32,,,,,,,,,,
13.48.09.774,-163.9,41.0,0,,,62578.2,15.98,-0.5,-0.0,-0.22,34.6,18.3,-29.2,35.21,,,,,,,,,,
13.48.09.786,-139.4,34.8,0,,,62578.2,15.98,-0.65,-0.12,-0.36,5.0,8.7,-16.8,34.88,,,,,,,,,,
13.48.09.796,-127.9,32.0,0,,,62578.2,15.98,-0.98,-0.08,-0.54,7.8,-2.5,-7.5,35.26,,,,,,,,,,
13.48.09.805,-151.0,37.8,0,,,62578.2,15.98,-0.76,0.17,-0.63,-15.0,19.1,-7.0,35.23,,,,,,,,,,
13.48.09.815,-112.8,28.2,0,,,62578.2,15.98,-0.67,0.23,0.05,19.5,26.1,2.6,34.86,,,,,,,,,,
13.48.09.825,-4.7,1.2,0,,,62578.2,15.98,-0.46,-0.06,-0.05,22.9,53.4,-5.2,34.67,,,,,,,,,,
13.48.09.834,60.6,15.2,0,,,62578.2,15.98,-0.51,0.15,-0.28,29.2,-0.3,-12.3,35.35,,,,,,,,,,
13.48.09.843,123.6,30.9,0,,,62578.2,15.98,-0.68,-0.29,-0.11,-51.2,27.3,-2.5,35.14,,,,,,,,,,
13.48.09.854,230.6,57.6,0,,,62578.2,15.98,-0.84,-0.03,0.35,22.2,-22.9,10.6,35.14,,,,,,,,,,
13.48.09.864,294.2,73.6,0,,,62578.2,15.98,-0.34,0.26,-0.78,-14.1,25.8,-23.4,35.08,,,,,,,,,,
13.48.09.873,292.0,73.0,0,,,62578.2,15.98,-0.67,0.06,-0.27,-6.4,-5.0,13.9,35.12,,,,,,,,,,
13.48.09.883,360.6,90.2,0,,,62578.2,15.98,-0.82,0.18,0.03,22.7,-35.4,12.7,34.93,,,,,,,,,,
13.48.09.895,434.0,108.5,0,,,62578.2,15.98,-0.8,-0.02,-0.61,-24.8,-10.1,-4.6,35.11,,,,,,,,,,
13.48.09.904,415.7,103.9,0,,,62578.2,15.98,-0.55,0.32,0.08,47.7,-3.2,-5.8,34.87,,,,,,,,,,
13.48.09.913,420.2,105.0,0,,,62578.2,15.98,-0.53,0.18,-0.16,19.5,-8.3,3.1,34.93,,,,,,,,,,
13.48.09.923,424.4,106.1,0,,,62578.2,15.98,-0.57,0.11,0.11,47.7,5.0,-10.9,34.78,,,,,,,,,,
13.48.09.933,391.9,98.0,0,,,62578.2,15.98,-0.66,-0.36,-0.16,56.1,6.1,-12.2,35.14,,,,,,,,,,
13.48.09.942,309.7,77.4,0,,,62578.2,15.98,-1.23,-0.06,-0.41,4.0,7.5,21.1,34.87,,,,,,,,,,
13.48.09.952,322.7,80.7,0,,,62578.2,15.98,-1.05,-0.27,0.01,1.1,15.9,-10.2,35.05,,,,,,,,,,
13.48.09.960,264.4,66.1,0,,,62578.2,15.98,-0.87,-0.22,-0.14,44.0,-28.8,11.3,35.0,,,,,,,,,,
13.48.09.969,213.3,53.3,0,,,62578.2,15.98,-0.37,-0.17,-0.36,-1.9,23.5,-10.2,35.28,,,,,,,,,,
13.48.09.979,147.0,36.8,0,,,62578.2,15.98,-1.08,0.27,-0.06,0.2,20.1,3.1,35.16,,,,,,,,,,
13.48.09.990,57.5,14.4,0,,,62578.2,15.98,-0.7,-0.11,0.21,4.3,0.9,-14.0,35.05,,,,,,,,,,
13.48.10.000,-13.0,3.2,0,,,62578.2,15.98,-0.66,-0.49,-0.26,22.5,19.0,-7.3,34.46,116.3,,,,,,,,,
13.48.10.010,6.4,1.6,0,,,62578.2,15.98,-0.08,0.12,-0.56,-6.5,17.1,18.8,35.01,,,,,,,,,,
13.48.10.022,29.3,7.3,0,,,62578.2,15.98,-0.71,0.22,-0.74,19.9,21.4,-8.0,34.81,,,,,,,,,,
13.48.10.033,82.9,20.7,0,,,62578.2,15.98,-0.82,-0.34,-0.39,1.1,5.0,12.5,35.12,,,,,,,,,,
13.48.10.042,50.1,12.5,0,,,62578.2,15.98,-1.08,0.16,-0.25,33.7,9.1,14.0,35.16,,,,,,,,,,
13.48.10.051,31.1,7.8,0,,,62578.2,15.98,-0.49,-0.89,-0.52,-38.5,18.5,-1.4,35.16,,,,,,,,,,
13.48.10.060,67.5,16.9,0,,,62578.2,15.98,-0.24,-0.21,-0.8,13.3,20.8,-4.1,35.5,,,,,,,,,,
13.48.10.069,86.7,21.7,0,,,62578.2,15.98,-0.52,-0.29,-0.72,-14.2,8.8,5.8,34.72,,,,,,,,,,
13.48.10.080,36.7,9.2,0,,,62578.2,15.98,-0.41,-0.38,-0.02,-3.8,-2.1,-11.9,35.01,,,,,,,,,,
13.48.10.091,35.0,8.8,1,19.0,112.4,62617.4,15.97,-0.75,-0.31,-0.39,2.6,29.6,5.7,34.79,,,,,,,,,,
13.48.10.102,21.4,5.4,0,,,62617.4,15.97,-0.89,-0.14,-0.38,26.4,1.3,5.3,34.87,,,,,,,,,,
13.48.10.113,-1.2,0.3,0,,,62617.4,15.97,-0.88,-0.46,-0.37,-8.9,-22.8,-13.8,34.95,,,,,,,,,,
13.48.10.123,0.1,0.0,0,,,62617.4,15.97,-0.83,-0.16,-0.53,3.0,10.9,15.8,34.56,,,,,,,,,,
13.48.10.133,-18.6,4.6,0,,,62617.4,15.97,-0.64,-0.13,-0.63,-49.4,25.8,-23.5,35.46,,,,,,,,,,
13.48.10.144,-26.9,6.7,0,,,62617.4,15.97,-1.33,-0.24,-0.24,26.1,-6.1,-15.8,34.99,,,,,,,,,,
13.48.10.153,-41.0,10.2,0,,,62617.4,15.97,-0.69,-0.31,-0.19,-19.7,6.1,-17.1,35.37,,,,,,,,,,
13.48.10.163,-54.0,13.5,0,,,62617.4,15.97,-0.58,-0.33,-0.11,-5.0,15.8,19.5,34.64,,,,,,,,,,
13.48.10.174,-42.6,10.6,0,,,62617.4,15.97,-0.86,-0.16,-0.43,-24.9,13.9,9.3,34.87,,,,,,,,,,
13.48.10.185,-43.9,11.0,0,,,62617.4,15.97,-0.78,-0.4,-0.35,43.7,18.1,-8.4,34.55,,,,,,,,,,
13.48.10.196,-64.2,16.0,0,,,62617.4,15.97,-0.97,-0.3,-0.33,-17.0,25.0,-6.7,36.08,,,,,,,,,,
13.48.10.202,-77.3,19.3,0,,,62617.4,15.97,-0.93,-0.37,-0.18,16.7,-16.3,-13.5,35.31,,,,,,,,,,
13.48.10.212,-90.3,22.6,0,,,62617.4,15.97,-0.4,-1.01,-0.13,-10.6,8.0,-5.0,34.9,,,,,,,,,,
13.48.10.221,-75.4,18.8,0,,,62617.4,15.97,-0.91,-0.14,0.01,1.5,3.7,31.7,35.1,,,,,,,,,,
13.48.10.232,-65.4,16.4,0,,,62617.4,15.97,-1.02,-0.43,-0.02,-10.2,-6.3,-0.3,34.93,,,,,,,,,,
13.48.10.243,-117.1,29.3,0,,,62617.4,15.97,-0.66,-0.25,0.33,1.9,39.2,-5.7,34.93,,,,,,,,,,
13.48.10.253,-124.7,31.2,0,,,62617.4,15.97,-0.84,0.09,-0.13,-22.1,27.4,-7.0,34.43,,,,,,,,,,
13.48.10.262,-122.4,30.6,0,,,62617.4,15.97,-0.65,-0.55,0.03,-2.2,22.1,9.6,35.08,,,,,,,,,,
13.48.10.273,-127.2,31.8,0,,,62617.4,15.97,-0.73,-0.31,-0.1,26.9,-1.4,13.1,35.18,,,,,,,,,,
13.48.10.283,-128.7,32.2,0,,,62617.4,15.97,-0.91,-0.44,0.48,-3.0,5.1,-24.0,35.02,,,,,,,,,,
13.48.10.292,-111.9,28.0,0,,,62617.4,15.97,-0.99,-0.45,-0.2,-30.7,11.3,17.0,35.28,,,,,,,,,,
13.48.10.302,-166.3,41.6,0,,,62617.4,15.97,-0.7,-0.2,-0.61,20.6,12.3,35.9,34.68,,,,,,,,,,
13.48.10.312,-144.4,36.1,0,,,62617.4,15.97,-1.01,-0.73,-0.66,3.7,25.9,3.4,35.3,,,,,,,,,,
13.48.10.322,-124.0,31.0,0,,,62617.4,15.97,-0.58,0.03,-0.46,-10.1,2.1,-26.6,34.55,,,,,,,,,,
13.48.10.329,-165.5,41.4,0,,,62617.4,15.97,-1.06,-0.27,-0.36,9.4,-10.8,-11.5,34.82,,,,,,,,,,
13.48.10.339,40.4,10.1,0,,,62617.4,15.97,-0.89,-0.54,-0.48,48.6,27.3,-25.5,35.31,,,,,,,,,,
13.48.10.350,111.8,28.0,0,,,62617.4,15.97,-0.66,0.1,-0.36,1.5,28.9,10.8,35.04,,,,,,,,,,
13.48.10.361,169.2,42.3,0,,,62617.4,15.97,-0.9,-0.48,-0.12,-41.0,12.8,5.4,34.82,,,,,,,,,,
13.48.10.371,230.0,57.5,0,,,62617.4,15.97,-0.73,-0.44,-0.27,-3.6,0.3,12.2,35.33,,,,,,,,,,
13.48.10.380,322.1,80.5,0,,,62617.4,15.97,-0.88,0.18,-0.22,10.6,5.2,-6.1,34.39,,,,,,,,,,
13.48.10.391,360.5,90.1,0,,,62617.4,15.97,-0.7,0.37,-0.17,-12.0,20.2,-11.4,35.51,,,,,,,,,,
13.48.10.400,391.2,97.8,0,,,62617.4,15.97,-0.93,0.01,-0.22,-14.0,0.7,-13.8,34.78,,,,,,,,,,
13.48.10.410,387.3,96.8,0,,,62617.4,15.97,-1.03,0.05,-0.76,16.6,3.1,4.4,35.27,,,,,,,,,,
13.48.10.419,386.0,96.5,0,,,62617.4,15.97,-0.99,-0.34,-0.36,1.0,20.5,6.9,35.27,,,,,,,,,,
13.48.10.429,421.4,105.4,0,,,62617.4,15.97,-0.72,0.09,-0.44,-11.4,3.7,-3.3,34.69,,,,,,,,,,
13.48.10.436,422.3,105.6,0,,,62617.4,15.97,-1.22,0.49,-0.26,39.8,-22.9,-1.9,35.38,,,,,,,,,,
13.48.10.446,331.0,82.8,0,,,62617.4,15.97,-0.74,0.19,-0.42,39.0,25.8,2.6,34.67,,,,,,,,,,
13.48.10.456,337.1,84.3,0,,,62617.4,15.97,-0.82,0.15,-0.76,12.1,14.2,-7.0,35.4,,,,,,,,,,
13.48.10.464,273.3,68.3,0,,,62617.4,15.97,-0.72,-0.23,-0.62,-18.2,0.6,-19.5,34.75,,,,,,,,,,
13.48.10.475,273.7,68.4,1,20.0,156.3,62617.4,15.97,-0.65,0.16,-0.32,22.3,16.5,20.4,34.95,,,,,,,,,,
13.48.10.484,168.5,42.1,0,,,62617.4,15.97,-0.64,0.19,-0.27,-22.1,-25.4,1.7,35.1,,,,,,,,,,
13.48.10.493,152.6,38.2,0,,,62617.4,15.97,-0.88,0.26,-0.39,23.1,18.3,18.2,34.79,,,,,,,,,,
13.48.10.504,60.7,15.2,0,,,62617.4,15.97,-1.08,0.47,-0.83,-19.3,30.8,16.7,35.49,,,,,,,,,,
13.48.10.513,16.4,4.1,0,,,62617.4,15.97,-1.07,-0.23,-0.73,33.5,-4.5,8.1,35.01,,,,,,,,,,
13.48.10.522,5.0,1.2,0,,,62617.4,15.97,-0.92,-0.09,-0.53,14.5,12.3,6.1,35.49,,,,,,,,,,
13.48.10.531,21.8,5.4,0,,,62617.4,15.97,-0.81,0.53,-0.54,-9.4,12.0,25.9,35.2,,,,,,,,,,
13.48.10.541,28.7,7.2,0,,,62617.4,15.97,-0.74,-0.3,-0.33,-8.4,1.1,5.7,34.9,,,,,,,,,,
13.48.10.550,82.2,20.6,0,,,62617.4,15.97,-0.72,0.18,-0.7,7.0,3.2,-4.9,35.3,,,,,,,,,,
13.48.10.560,82.6,20.6,0,,,62617.4,15.97,-0.86,0.23,-0.57,30.8,6.4,-6.4,34.86,,,,,,,,,,
13.48.10.570,72.4,18.1,0,,,62617.4,15.97,-1.07,0.37,-0.18,0.3,-4.9,-13.2,35.02,,,,,,,,,,
13.48.10.582,58.3,14.6,0,,,62617.4,15.97,-0.78,0.29,-0.68,-0.1,13.9,-11.0,35.28,,,,,,,,,,
13.48.10.592,7.4,1.8,0,,,62617.4,15.97,-0.81,0.44,-0.5,-53.8,-27.8,-3.1,34.67,,,,,,,,,,
13.48.10.601,10.7,2.7,0,,,62617.4,15.97,-0.78,0.31,-0.36,18.4,-11.2,6.7,35.49,,,,,,,,,,
13.48.10.611,2.5,0.6,0,,,62617.4,15.97,-0.79,0.37,-1.05,-12.7,15.1,-18.1,34.75,,,,,,,,,,
13.48.10.623,-4.7,1.2,0,,,62617.4,15.97,-0.46,0.21,-0.2,-22.8,19.4,17.7,34.81,,,,,,,,,,
13.48.10.632,-16.7,4.2,0,,,62617.4,15.97,-0.54,-0.26,-0.48,-52.1,18.3,9.6,34.9,,,,,,,,,,
13.48.10.641,-26.5,6.6,0,,,62656.6,15.96,-1.08,0.18,-0.05,41.2,-26.9,-12.1,35.03,,,,,,,,,,
13.48.10.651,-2.5,0.6,0,,,62656.6,15.96,-0.83,0.06,-0.22,-29.1,4.8,12.1,35.3,,,,,,,,,,
13.48.10.660,-30.9,7.7,0,,,62656.6,15.96,-0.62,0.32,-0.16,27.4,23.5,11.6,34.39,,,,,,,,,,
13.48.10.669,-38.7,9.7,0,,,62656.6,15.96,-0.51,0.31,-0.49,22.8,17.6,4.3,34.76,,,,,,,,,,
13.48.10.680,-70.4,17.6,0,,,62656.6,15.96,-0.99,-0.03,-0.36,13.5,-2.9,-16.7,35.12,,,,,,,,,,
13.48.10.689,-53.5,13.4,0,,,62656.6,15.96,-0.41,0.35,0.04,-11.7,11.2,-12.8,35.11,,,,,,,,,,
13.48.10.696,-68.4,17.1,0,,,62656.6,15.96,-0.55,-0.0,-0.34,-17.1,14.0,1.8,34.88,,,,,,,,,,
13.48.10.705,-77.8,19.4,0,,,62656.6,15.96,-0.84,0.09,0.55,-10.6,19.7,1.7,35.17,,,,,,,,,,
13.48.10.717,-82.6,20.6,0,,,62656.6,15.96,-0.88,0.15,-0.12,25.1,-1.8,14.0,34.68,,,,,,,,,,
13.48.10.727,-111.6,27.9,0,,,62656.6,15.96,-1.14,0.33,-0.01,-18.5,9.6,16.0,35.2,,,,,,,,,,
13.48.10.734,-86.3,21.6,0,,,62656.6,15.96,-0.69,-0.04,0.4,1.9,16.1,-19.1,34.41,,,,,,,,,,
13.48.10.744,-126.2,31.6,0,,,62656.6,15.96,-0.52,0.51,0.16,-23.2,13.1,-22.9,35.05,,,,,,,,,,
13.48.10.754,-110.2,27.6,0,,,62656.6,15.96,-0.37,-0.47,0.14,3.3,12.9,0.9,34.89,,,,,,,,,,
13.48.10.765,-93.5,23.4,0,,,62656.6,15.96,-1.14,-0.33,-0.26,-19.2,14.6,-15.0,35.04,,,,,,,,,,
13.48.10.777,-136.5,34.1,0,,,62656.6,15.96,-0.52,-0.35,-0.65,50.1,4.5,3.0,34.99,,,,,,,,,,
13.48.10.785,-136.4,34.1,0,,,62656.6,15.96,-0.72,0.06,-0.58,-4.4,-11.0,11.9,34.92,,,,,,,,,,
13.48.10.795,-142.7,35.7,0,,,62656.6,15.96,-0.73,0.02,-0.61,10.8,3.5,-4.5,34.64,,,,,,,,,,
13.48.10.803,-120.2,30.0,0,,,62656.6,15.96,-0.92,-0.16,-0.22,-15.5,-14.7,18.4,35.29,,,,,,,,,,
13.48.10.812,-144.1,36.0,0,,,62656.6,15.96,-0.97,-0.11,-0.53,-0.5,43.5,0.3,34.97,,,,,,,,,,
13.48.10.822,-175.1,43.8,0,,,62656.6,15.96,-0.51,-0.35,-0.7,-42.4,-20.8,-12.6,35.09,,,,,,,,,,
13.48.10.833,-165.3,41.3,0,,,62656.6,15.96,-0.74,-0.24,-0.81,-17.7,-16.6,4.6,34.59,,,,,,,,,,
13.48.10.844,-179.9,45.0,0,,,62656.6,15.96,-0.78,-0.08,-0.28,12.7,20.1,-13.9,35.24,,,,,,,,,,
13.48.10.853,63.5,15.9,0,,,62656.6,15.96,-0.9,-0.18,-0.28,40.9,-4.0,-22.3,35.21,,,,,,,,,,
13.48.10.862,125.1,31.3,0,,,62656.6,15.96,-0.74,-0.16,-0.1,-14.5,-42.8,11.9,34.79,,,,,,,,,,
13.48.10.873,203.7,50.9,0,,,62656.6,15.96,-0.47,0.23,-0.23,-6.2,4.3,-8.0,34.48,,,,,,,,,,
13.48.10.884,236.6,59.2,0,,,62656.6,15.96,-0.94,-0.47,-0.72,-23.8,13.1,-10.3,34.7,,,,,,,,,,
13.48.10.893,338.3,84.6,0,,,62656.6,15.96,-0.58,0.33,-0.44,5.0,23.4,4.5,35.17,,,,,,,,,,
13.48.10.902,345.0,86.2,0,,,62656.6,15.96,-0.65,-0.53,-0.07,14.6,7.2,-6.4,34.93,,,,,,,,,,
13.48.10.912,393.0,98.2,0,,,62656.6,15.96,-0.64,-0.41,-0.82,-2.6,13.9,6.1,35.47,,,,,,,,,,
13.48.10.923,385.5,96.4,0,,,62656.6,15.96,-0.63,0.26,-0.66,18.2,6.4,11.1,34.99,,,,,,,,,,
13.48.10.932,381.7,95.4,0,,,62656.6,15.96,-0.87,-0.07,-0.8,7.8,3.0,-22.9,34.64,,,,,,,,,,
13.48.10.943,389.0,97.2,0,,,62656.6,15.96,-0.6,-0.55,-0.38,-12.5,2.6,-20.0,34.69,,,,,,,,,,
13.48.10.951,386.7,96.7,0,,,62656.6,15.96,-0.69,-0.33,-1.32,11.3,19.6,-10.9,34.76,,,,,,,,,,
13.48.10.961,358.3,89.6,0,,,62656.6,15.96,-0.85,-0.79,-0.39,-6.1,26.1,9.0,34.81,,,,,,,,,,
13.48.10.973,304.9,76.2,0,,,62656.6,15.96,-0.73,-0.08,-0.71,15.4,-2.0,-21.3,35.67,,,,,,,,,,
13.48.10.983,247.6,61.9,0,,,62656.6,15.96,-0.92,-0.67,-0.91,13.8,29.7,3.6,35.07,,,,,,,,,,
13.48.10.992,175.4,43.8,0,,,62656.6,15.96,-0.74,-0.39,-0.05,-9.8,13.4,-12.6,35.16,,,,,,,,,,
13.48.11.002,148.6,37.2,1,21.0,113.9,62656.6,15.96,-0.41,-0.41,-0.47,-18.9,13.3,-36.1,35.31,,,,,,,,,,
13.48.11.009,66.8,16.7,0,,,62656.6,15.96,-0.76,-0.21,-0.04,-0.9,-17.9,2.9,34.96,,,,,,,,,,
13.48.11.020,56.7,14.2,0,,,62656.6,15.96,-0.6,-0.08,-0.57,32.0,0.3,-12.9,35.36,,,,,,,,,,
13.48.11.030,-0.5,0.1,0,,,62656.6,15.96,-0.68,-0.68,-0.52,4.1,-10.7,12.8,34.38,,,,,,,,,,
13.48.11.039,23.6,5.9,0,,,62656.6,15.96,-0.89,0.29,0.05,-26.1,5.6,5.0,34.69,,,,,,,,,,
13.48.11.050,48.3,12.1,0,,,62656.6,15.96,-0.3,-1.02,0.09,3.0,19.1,-12.8,35.15,,,,,,,,,,
13.48.11.059,60.8,15.2,0,,,62656.6,15.96,-0.51,-0.1,-0.25,11.1,13.5,-13.6,34.88,,,,,,,,,,
13.48.11.068,44.0,11.0,0,,,62656.6,15.96,-0.74,-0.23,-0.37,4.0,-5.3,17.7,34.92,,,,,,,,,,
13.48.11.077,92.4,23.1,0,,,62656.6,15.96,-0.79,0.04,-0.29,17.2,0.5,-10.5,35.29,,,,,,,,,,
13.48.11.085,106.3,26.6,0,,,62656.6,15.96,-0.8,-0.78,-0.63,7.4,-3.2,-5.5,34.94,,,,,,,,,,
13.48.11.094,54.9,13.7,0,,,62656.6,15.96,-0.47,-0.28,-0.36,27.2,1.9,-4.7,34.99,,,,,,,,,,
13.48.11.106,33.5,8.4,0,,,62656.6,15.96,-1.06,-0.05,0.01,9.6,2.8,-9.0,35.04,,,,,,,,,,
13.48.11.114,31.5,7.9,0,,,62656.6,15.96,-1.0,-0.22,-0.08,11.7,0.0,16.0,34.54,,,,,,,,,,
13.48.11.123,6.9,1.7,0,,,62656.6,15.96,-0.92,0.27,0.56,3.9,5.8,31.3,34.84,,,,,,,,,,
13.48.11.132,-32.9,8.2,0,,,62656.6,15.96,-0.8,0.0,-0.16,-8.6,-16.6,10.0,34.33,,,,,,,,,,
13.48.11.141,-0.8,0.2,0,,,62656.6,15.96,-1.09,-0.47,0.06,0.7,-10.6,17.3,34.93,,,,,,,,,,
13.48.11.151,-38.8,9.7,0,,,62656.6,15.96,-0.85,-0.27,0.36,-15.1,22.0,-15.6,34.99,,,,,,,,,,
13.48.11.160,-66.4,16.6,0,,,62656.6,15.96,-0.7,-0.44,-0.31,-25.0,19.8,2.1,35.07,,,,,,,,,,
13.48.11.172,-33.1,8.3,0,,,62656.6,15.96,-1.19,-0.27,-0.68,-30.2,9.3,-8.1,34.7,,,,,,,,,,
13.48.11.183,-52.7,13.2,0,,,62656.6,15.96,-0.85,-0.11,0.57,-14.2,9.7,-21.8,34.6,,,,,,,,,,
13.48.11.192,-67.4,16.8,0,,,62695.9,15.95,-0.62,-0.19,-0.21,-7.9,-5.4,4.9,35.17,,,,,,,,,,
13.48.11.204,-55.9,14.0,0,,,62695.9,15.95,-1.13,-0.54,-0.32,40.0,7.5,2.6,34.84,,,,,,,,,,
13.48.11.214,-31.7,7.9,0,,,62695.9,15.95,-0.92,-0.29,-0.16,-2.3,-0.4,-17.1,34.55,,,,,,,,,,
13.48.11.224,-48.1,12.0,0,,,62695.9,15.95,-1.18,-0.08,-0.12,-18.8,31.5,23.5,34.83,,,,,,,,,,
13.48.11.233,-55.9,14.0,0,,,62695.9,15.95,-1.11,-0.25,-0.06,-5.1,-14.9,3.0,35.1,,,,,,,,,,
13.48.11.243,-81.9,20.5,0,,,62695.9,15.95,-0.5,-0.27,-0.67,25.5,2.3,-12.2,35.22,,,,,,,,,,
13.48.11.253,-93.4,23.4,0,,,62695.9,15.95,-0.77,0.07,-0.17,-10.6,-22.2,15.9,34.78,,,,,,,,,,
13.48.11.263,-103.2,25.8,0,,,62695.9,15.95,-0.97,-0.14,-0.43,-17.1,24.3,-18.9,35.17,,,,,,,,,,
13.48.11.272,-59.6,14.9,0,,,62695.9,15.95,-1.1,-0.53,-0.27,-5.4,9.2,4.2,35.09,,,,,,,,,,
13.48.11.278,-83.3,20.8,0,,,62695.9,15.95,-0.77,0.58,-0.51,19.3,-2.3,-6.2,34.7,,,,,,,,,,
13.48.11.287,-142.7,35.7,0,,,62695.9,15.95,-1.2,-0.59,-0.62,7.1,25.8,10.8,35.12,,,,,,,,,,
13.48.11.298,-120.8,30.2,0,,,62695.9,15.95,-0.62,-0.12,-0.63,-0.2,-32.4,4.2,34.81,,,,,,,,,,
13.48.11.308,-119.3,29.8,0,,,62695.9,15.95,-1.1,-0.08,0.12,-3.6,18.7,1.4,34.26,,,,,,,,,,
13.48.11.318,-144.1,36.0,0,,,62695.9,15.95,-1.01,-0.63,-0.19,14.1,11.9,28.4,34.94,,,,,,,,,,
13.48.11.326,-168.2,42.0,0,,,62695.9,15.95,-0.81,-0.02,-0.19,-19.8,4.4,3.2,35.68,,,,,,,,,,
13.48.11.338,-144.8,36.2,0,,,62695.9,15.95,-1.06,0.09,-0.5,29.5,10.1,-6.5,34.5,,,,,,,,,,
13.48.11.348,-184.7,46.2,0,,,62695.9,15.95,-0.75,-0.17,-0.42,20.0,0.7,-2.9,34.88,,,,,,,,,,
13.48.11.357,-0.0,0.0,0,,,62695.9,15.95,-1.08,0.34,-0.23,-25.1,-6.0,-1.0,35.1,,,,,,,,,,
13.48.11.367,64.8,16.2,0,,,62695.9,15.95,-1.08,0.45,-0.51,-16.6,-36.5,-18.6,34.58,,,,,,,,,,
13.48.11.377,95.3,23.8,0,,,62695.9,15.95,-1.1,0.52,-0.6,19.6,-5.7,-3.6,34.92,,,,,,,,,,
13.48.11.387,198.9,49.7,0,,,62695.9,15.95,-0.78,-0.15,-0.48,-4.5,39.6,-0.3,35.34,,,,,,,,,,
13.48.11.398,280.1,70.0,0,,,62695.9,15.95,-1.07,-0.06,-0.51,10.2,11.7,-24.6,35.02,,,,,,,,,,
13.48.11.407,272.5,68.1,0,,,62695.9,15.95,-0.89,0.04,-0.66,8.2,15.5,-0.3,34.69,,,,,,,,,,
13.48.11.418,375.9,94.0,0,,,62695.9,15.95,-0.8,0.3,-0.13,-18.2,13.8,-8.4,35.6,,,,,,,,,,
13.48.11.429,424.1,106.0,0,,,62695.9,15.95,-1.0,0.07,-0.6,-11.1,10.7,-14.9,34.39,,,,,,,,,,
13.48.11.437,430.6,107.6,0,,,62695.9,15.95,-0.96,0.28,-0.54,17.6,-3.7,-7.9,34.75,,,,,,,,,,
13.48.11.448,380.4,95.1,0,,,62695.9,15.95,-0.74,0.01,-0.83,3.1,13.8,8.3,34.94,,,,,,,,,,
13.48.11.456,375.9,94.0,0,,,62695.9,15.95,-1.03,0.43,-0.37,26.0,2.8,5.9,35.01,,,,,,,,,,
13.48.11.466,356.4,89.1,0,,,62695.9,15.95,-0.63,0.49,-0.72,41.7,-7.2,-9.2,35.58,,,,,,,,,,
13.48.11.477,316.7,79.2,1,22.0,126.3,62695.9,15.95,-0.44,0.03,-0.32,-4.7,7.7,-5.8,35.1,,,,,,,,,,
13.48.11.486,321.1,80.3,0,,,62695.9,15.95,-1.09,-0.3,-0.62,-27.4,-7.9,-2.4,35.04,,,,,,,,,,
13.48.11.494,238.2,59.6,0,,,62695.9,15.95,-0.82,0.12,0.09,30.0,18.1,-14.1,34.13,,,,,,,,,,
13.48.11.502,206.7,51.7,0,,,62695.9,15.95,-0.96,0.25,0.11,-30.6,-5.2,-10.5,34.71,,,,,,,,,,
13.48.11.510,170.0,42.5,0,,,62695.9,15.95,-0.68,0.26,-0.26,0.9,-7.0,6.9,35.48,,,,,,,,,,
13.48.11.524,78.5,19.6,0,,,62695.9,15.95,-1.05,0.52,-0.65,19.3,2.3,10.2,34.88,,,,,,,,,,
13.48.11.536,-17.1,4.3,0,,,62695.9,15.95,-0.84,0.15,-0.2,-16.7,22.2,-5.4,34.72,,,,,,,,,,
13.48.11.547,27.0,6.8,0,,,62695.9,15.95,-0.84,-0.02,-0.5,22.9,-3.4,18.1,35.09,,,,,,,,,,
13.48.11.557,36.7,9.2,0,,,62695.9,15.95,-0.99,-0.1,-0.43,12.4,-39.3,-11.0,34.74,,,,,,,,,,
13.48.11.567,67.9,17.0,0,,,62695.9,15.95,-0.67,-0.19,-0.05,-4.0,-0.6,0.8,35.17,,,,,,,,,,
13.48.11.576,93.3,23.3,0,,,62695.9,15.95,-0.64,0.11,-0.41,40.2,-13.6,3.0,35.02,,,,,,,,,,
13.48.11.586,86.0,21.5,0,,,62695.9,15.95,-0.66,0.72,-0.32,4.5,6.0,-11.1,34.73,,,,,,,,,,
13.48.11.594,69.3,17.3,0,,,62695.9,15.95,-0.71,-0.13,-0.34,-20.8,-1.6,15.4,34.96,,,,,,,,,,
13.48.11.602,65.5,16.4,0,,,62695.9,15.95,-0.94,0.13,-0.61,-5.9,-1.8,28.9,34.91,,,,,,,,,,
13.48.11.613,57.9,14.5,0,,,62695.9,15.95,-0.57,0.04,0.1,-18.8,-0.7,-7.8,34.74,,,,,,,,,,
13.48.11.623,22.8,5.7,0,,,62695.9,15.95,-1.26,0.02,0.42,-12.2,24.1,2.1,34.68,,,,,,,,,,
13.48.11.633,28.7,7.2,0,,,62695.9,15.95,-0.68,-0.07,0.28,3.2,16.2,-1.2,35.6,,,,,,,,,,
13.48.11.643,-1.5,0.4,0,,,62695.9,15.95,-0.99,-0.4,-0.07,-22.0,6.2,-4.6,34.93,,,,,,,,,,
13.48.11.654,-21.4,5.4,0,,,62695.9,15.95,-0.99,0.68,0.18,-14.2,15.8,-2.4,35.08,,,,,,,,,,
13.48.11.662,-22.0,5.5,0,,,62695.9,15.95,-0.47,0.57,0.23,44.2,-11.9,8.5,34.92,,,,,,,,,,
13.48.11.671,-13.4,3.4,0,,,62695.9,15.95,-0.4,0.22,-0.11,-5.2,7.0,-3.8,35.42,,,,,,,,,,
13.48.11.681,-52.3,13.1,0,,,62695.9,15.95,-0.66,0.47,0.02,20.0,-13.4,7.7,35.38,,,,,,,,,,
13.48.11.690,-103.0,25.8,0,,,62695.9,15.95,-0.8,0.07,0.11,22.3,-7.8,2.1,34.36,,,,,,,,,,
13.48.11.703,-69.3,17.3,0,,,62695.9,15.95,-0.6,0.21,-0.21,-17.4,-5.8,-27.8,35.19,,,,,,,,,,
13.48.11.709,-82.4,20.6,0,,,62695.9,15.95,-0.69,-0.4,-0.23,-0.0,18.8,-12.3,34.76,,,,,,,,,,
13.48.11.721,-41.4,10.4,0,,,62695.9,15.95,-0.4,-0.24,-0.19,-5.3,-11.7,-0.2,35.27,,,,,,,,,,
13.48.11.729,-58.9,14.7,0,,,62695.9,15.95,-0.78,-0.14,-0.4,-36.6,-16.8,-7.9,34.95,,,,,,,,,,
13.48.11.739,-70.8,17.7,0,,,62735.3,15.94,-0.66,-0.27,-0.58,5.5,-6.5,4.6,35.14,,,,,,,,,,
13.48.11.748,-89.1,22.3,0,,,62735.3,15.94,-0.46,-0.31,-0.22,4.3,18.3,5.2,34.73,,,,,,,,,,
13.48.11.759,-80.7,20.2,0,,,62735.3,15.94,-0.8,-0.11,-0.17,-32.5,12.0,-4.7,34.8,,,,,,,,,,
13.48.11.768,-65.0,16.2,0,,,62735.3,15.94,-0.83,-0.33,-0.24,-43.1,-4.6,-12.1,34.38,,,,,,,,,,
13.48.11.779,-112.6,28.2,0,,,62735.3,15.94,-0.49,0.15,-0.2,-1.7,22.4,0.6,35.04,,,,,,,,,,
13.48.11.790,-107.5,26.9,0,,,62735.3,15.94,-0.86,-0.35,-0.57,-35.2,27.8,-7.2,34.72,,,,,,,,,,
13.48.11.800,-123.1,30.8,0,,,62735.3,15.94,-0.23,0.25,-0.19,-8.2,10.7,1.1,35.07,,,,,,,,,,
13.48.11.810,-142.9,35.7,0,,,62735.3,15.94,-0.72,-1.07,-0.54,23.1,-11.2,17.4,34.51,,,,,,,,,,
13.48.11.819,-150.1,37.5,0,,,62735.3,15.94,-0.42,-0.25,-0.62,-21.7,25.0,21.9,35.6,,,,,,,,,,
13.48.11.830,-155.6,38.9,0,,,62735.3,15.94,-0.78,-0.26,-0.27,6.6,8.5,-5.7,34.94,,,,,,,,,,
13.48.11.838,-153.8,38.4,0,,,62735.3,15.94,-0.64,-0.42,-0.54,37.2,15.8,11.4,34.77,,,,,,,,,,
13.48.11.848,-150.6,37.6,0,,,62735.3,15.94,-0.43,0.01,-0.46,47.2,4.2,-28.9,35.75,,,,,,,,,,
13.48.11.859,-187.4,46.8,0,,,62735.3,15.94,-0.55,-0.11,-0.66,11.8,-18.1,2.3,34.99,,,,,,,,,,
13.48.11.867,-190.3,47.6,0,,,62735.3,15.94,-0.9,-0.16,-0.27,7.6,1.4,-14.2,35.07,,,,,,,,,,
13.48.11.877,92.1,23.0,0,,,62735.3,15.94,-0.7,0.21,-0.56,18.6,12.6,20.4,35.03,,,,,,,,,,
13.48.11.887,165.8,41.4,0,,,62735.3,15.94,-0.65,-0.64,-1.01,-3.3,-17.0,-12.0,35.13,,,,,,,,,,
13.48.11.895,160.7,40.2,0,,,62735.3,15.94,-0.84,-0.24,-0.21,55.2,4.5,-3.2,34.57,,,,,,,,,,
13.48.11.904,242.1,60.5,1,23.0,140.5,62735.3,15.94,-0.91,-0.56,-0.36,2.1,5.8,11.6,34.85,,,,,,,,,,
13.48.11.913,283.3,70.8,0,,,62735.3,15.94,-1.02,0.14,-0.02,-51.9,-8.4,-11.7,35.5,,,,,,,,,,
13.48.11.923,347.1,86.8,0,,,62735.3,15.94,-0.44,0.21,-0.54,1.3,-1.2,5.4,34.65,,,,,,,,,,
13.48.11.931,356.7,89.2,0,,,62735.3,15.94,-0.62,0.01,-0.53,27.4,1.5,-22.5,34.38,,,,,,,,,,
13.48.11.942,383.3,95.8,0,,,62735.3,15.94,-0.42,-0.41,-0.1,-8.5,8.7,22.2,34.9,,,,,,,,,,
13.48.11.951,421.4,105.4,0,,,62735.3,15.94,-0.88,-0.11,0.13,-5.0,4.0,5.2,34.86,,,,,,,,,,
13.48.11.959,379.4,94.8,0,,,62735.3,15.94,-1.01,0.26,-0.52,-15.1,21.0,-1.0,35.05,,,,,,,,,,
13.48.11.969,372.7,93.2,0,,,62735.3,15.94,-0.74,-0.32,-0.58,-7.8,-10.9,24.9,34.81,,,,,,,,,,
13.48.11.977,410.3,102.6,0,,,62735.3,15.94,-0.94,-0.49,-0.37,22.9,21.0,-28.9,34.64,,,,,,,,,,
13.48.11.988,281.4,70.4,0,,,62735.3,15.94,-0.41,-0.75,-0.46,6.3,-1.0,-1.9,34.99,,,,,,,,,,
13.48.11.997,328.2,82.0,0,,,62735.3,15.94,-0.9,-0.65,-0.36,19.8,7.0,5.4,34.69,,,,,,,,,,
13.48.12.006,313.3,78.3,0,,,62735.3,15.94,-0.65,-0.07,-0.5,18.6,2.9,6.8,35.0,,,,,,,,,,
13.48.12.016,230.8,57.7,0,,,62735.3,15.94,-0.74,-0.47,0.6,-16.5,-21.6,6.3,35.24,,,,,,,,,,
13.48.12.029,115.8,29.0,0,,,62735.3,15.94,-0.61,0.06,-0.09,-13.6,20.3,4.4,35.16,,,,,,,,,,
13.48.12.037,77.5,19.4,0,,,62735.3,15.94,-0.76,-0.44,-0.25,13.1,-2.7,15.1,35.28,,,,,,,,,,
13.48.12.050,5.1,1.3,0,,,62735.3,15.94,-0.86,-0.45,-0.29,-18.3,-11.0,3.5,35.35,,,,,,,,,,
13.48.12.061,19.0,4.8,0,,,62735.3,15.94,-1.12,-0.64,-0.15,-12.6,-38.2,1.3,35.14,,,,,,,,,,
13.48.12.071,62.6,15.6,0,,,62735.3,15.94,-0.83,0.26,-0.17,15.1,-24.3,-5.1,34.8,,,,,,,,,,
13.48.12.082,85.1,21.3,0,,,62735.3,15.94,-0.91,-0.7,0.34,8.0,7.8,-0.7,35.42,,,,,,,,,,
13.48.12.093,84.7,21.2,0,,,62735.3,15.94,-0.61,-0.5,-0.57,5.2,11.3,0.6,34.48,,,,,,,,,,
13.48.12.104,67.5,16.9,0,,,62735.3,15.94,-0.84,-0.23,-0.1,-2.1,7.6,8.5,35.59,,,,,,,,,,
13.48.12.115,28.8,7.2,0,,,62735.3,15.94,-0.81,-0.14,-0.36,-9.1,13.2,-21.4,34.8,,,,,,,,,,
13.48.12.124,51.8,13.0,0,,,62735.3,15.94,-1.32,0.05,-0.53,-14.6,8.3,-11.5,34.98,,,,,,,,,,
13.48.12.133,25.5,6.4,0,,,62735.3,15.94,-0.96,0.35,0.1,45.3,-29.8,-8.2,34.92,,,,,,,,,,
13.48.12.145,46.0,11.5,0,,,62735.3,15.94,-1.01,0.6,-0.07,-14.3,0.9,23.5,35.33,,,,,,,,,,
13.48.12.154,-9.2,2.3,0,,,62735.3,15.94,-0.88,-0.15,0.27,26.9,2.4,-26.2,35.24,,,,,,,,,,
13.48.12.165,-37.5,9.4,0,,,62735.3,15.94,-0.99,0.37,-0.58,17.8,-9.5,0.5,35.05,,,,,,,,,,
13.48.12.174,-11.0,2.8,0,,,62735.3,15.94,-0.82,-0.22,-0.09,14.5,20.6,-15.1,34.69,,,,,,,,,,
13.48.12.183,-46.2,11.6,0,,,62735.3,15.94,-0.85,-0.36,-0.34,-14.0,32.5,26.8,35.36,,,,,,,,,,
13.48.12.193,-19.1,4.8,0,,,62735.3,15.94,-0.93,-0.42,-1.07,-25.8,-43.1,-35.4,35.12,,,,,,,,,,
13.48.12.203,-45.5,11.4,0,,,62774.6,15.93,-1.04,-0.25,-0.35,14.4,-28.8,47.3,34.58,,,,,,,,,,
13.48.12.212,-46.3,11.6,0,,,62774.6,15.93,-1.04,-0.6,-0.49,21.5,22.5,1.2,34.97,,,,,,,,,,
13.48.12.222,-39.2,9.8,0,,,62774.6,15.93,-0.82,-0.31,-0.47,12.4,7.5,8.1,34.99,,,,,,,,,,
13.48.12.232,-58.1,14.5,0,,,62774.6,15.93,-0.96,-0.3,-0.89,19.7,23.8,-9.9,35.49,,,,,,,,,,
13.48.12.239,-54.4,13.6,0,,,62774.6,15.93,-0.76,0.41,-0.42,6.9,-28.1,1.2,34.82,,,,,,,,,,
13.48.12.248,-54.4,13.6,0,,,62774.6,15.93,-1.15,0.16,-0.57,-24.9,12.1,2.1,35.46,,,,,,,,,,
13.48.12.259,-72.8,18.2,0,,,62774.6,15.93,-0.37,-0.22,-0.24,-14.4,26.4,-1.4,34.96,,,,,,,,,,
13.48.12.267,-80.9,20.2,0,,,62774.6,15.93,-0.68,0.22,-1.05,9.5,11.6,-3.2,35.17,,,,,,,,,,
13.48.12.275,-120.8,30.2,0,,,62774.6,15.93,-0.9,-0.12,-0.13,-21.0,18.5,8.0,35.06,,,,,,,,,,
13.48.12.283,-95.1,23.8,0,,,62774.6,15.93,-1.19,-0.59,-0.21,1.5,39.5,10.2,34.75,,,,,,,,,,
13.48.12.292,-93.5,23.4,0,,,62774.6,15.93,-0.57,0.01,-0.34,0.3,-0.3,-11.7,35.01,,,,,,,,,,
13.48.12.302,-94.0,23.5,0,,,62774.6,15.93,-0.92,0.07,-0.74,-34.1,16.4,17.2,34.9,,,,,,,,,,
13.48.12.315,-124.4,31.1,0,,,62774.6,15.93,-0.74,0.69,-0.74,-21.5,-8.4,-9.7,34.94,,,,,,,,,,
13.48.12.326,-146.5,36.6,1,24.0,142.2,62774.6,15.93,-0.86,0.07,-0.59,21.8,17.8,6.8,34.77,,,,,,,,,,
13.48.12.337,-166.2,41.6,0,,,62774.6,15.93,-1.19,-0.02,-0.46,4.8,16.8,-20.2,34.82,,,,,,,,,,
13.48.12.349,-137.3,34.3,0,,,62774.6,15.93,-0.78,0.25,-0.42,-7.3,24.0,6.4,34.73,,,,,,,,,,
13.48.12.358,-201.5,50.4,0,,,62774.6,15.93,-0.45,-0.01,-0.78,12.6,34.2,-8.5,34.87,,,,,,,,,,
13.48.12.367,-187.2,46.8,0,,,62774.6,15.93,-0.77,0.43,-0.31,28.4,2.5,10.2,34.97,,,,,,,,,,
13.48.12.377,-167.1,41.8,0,,,62774.6,15.93,-0.62,0.02,-0.3,-17.6,-13.9,-15.3,35.37,,,,,,,,,,
13.48.12.388,93.4,23.4,0,,,62774.6,15.93,-0.57,-0.48,0.02,-9.5,-4.3,24.2,34.77,,,,,,,,,,
13.48.12.396,132.0,33.0,0,,,62774.6,15.93,-0.82,-0.11,-0.03,-11.6,-2.3,-1.1,35.46,,,,,,,,,,
13.48.12.406,221.2,55.3,0,,,62774.6,15.93,-0.83,0.18,-0.06,-33.0,7.8,1.5,34.67,,,,,,,,,,
13.48.12.417,264.6,66.2,0,,,62774.6,15.93,-1.17,0.13,0.19,-57.5,-18.4,-2.1,34.93,,,,,,,,,,
13.48.12.427,304.1,76.0,0,,,62774.6,15.93,-0.78,0.47,-0.49,-15.4,-26.4,8.7,35.56,,,,,,,,,,
13.48.12.437,377.9,94.5,0,,,62774.6,15.93,-0.86,-0.31,0.1,-4.8,20.1,-38.9,35.39,,,,,,,,,,
13.48.12.448,391.3,97.8,0,,,62774.6,15.93,-0.98,0.36,0.31,-14.5,-29.7,-7.0,35.15,,,,,,,,,,
13.48.12.460,390.5,97.6,0,,,62774.6,15.93,-0.5,0.25,-0.21,14.7,9.7,14.5,35.13,,,,,,,,,,
13.48.12.468,400.5,100.1,0,,,62774.6,15.93,-1.09,-0.18,-0.22,39.0,-7.2,-4.7,34.68,,,,,,,,,,
13.48.12.478,454.4,113.6,0,,,62774.6,15.93,-0.71,0.39,0.08,7.6,-11.3,-10.0,35.14,,,,,,,,,,
13.48.12.490,354.0,88.5,0,,,62774.6,15.93,-1.03,-0.08,-0.27,11.9,-7.3,-9.2,34.87,,,,,,,,,,
13.48.12.498,327.2,81.8,0,,,62774.6,15.93,-0.62,0.02,-0.67,46.1,21.3,32.9,34.89,,,,,,,,,,
13.48.12.507,273.9,68.5,0,,,62774.6,15.93,-0.42,-0.36,-0.19,-6.5,15.8,-7.0,34.79,,,,,,,,,,
13.48.12.516,282.1,70.5,0,,,62774.6,15.93,-0.35,0.17,-0.16,-6.3,18.3,33.3,35.51,,,,,,,,,,
13.48.12.527,227.0,56.8,0,,,62774.6,15.93,-0.18,0.21,-0.47,-25.1,17.9,-11.4,35.0,,,,,,,,,,
13.48.12.536,138.3,34.6,0,,,62774.6,15.93,-0.65,-0.07,-0.26,-22.3,5.1,-3.8,35.31,,,,,,,,,,
13.48.12.546,52.6,13.2,0,,,62774.6,15.93,-1.21,-0.49,-0.32,-31.7,-3.0,-16.6,34.58,,,,,,,,,,
13.48.12.558,6.4,1.6,0,,,62774.6,15.93,-0.78,0.27,-0.39,-3.5,11.3,10.1,35.58,,,,,,,,,,
13.48.12.568,13.4,3.4,0,,,62814.1,15.92,-0.31,-0.1,0.21,-2.9,5.5,12.7,34.59,,,,,,,,,,
13.48.12.579,42.7,10.7,0,,,62814.1,15.92,-0.7,-0.29,-0.32,-28.2,29.2,4.7,34.93,,,,,,,,,,
13.48.12.590,91.4,22.8,0,,,62814.1,15.92,-0.73,-0.02,-0.04,14.0,4.5,-14.8,35.27,,,,,,,,,,
13.48.12.598,93.4,23.4,0,,,62814.1,15.92,-0.55,-0.37,-0.37,-22.4,29.3,-6.4,34.61,,,,,,,,,,
13.48.12.608,96.1,24.0,0,,,62814.1,15.92,-0.67,0.18,-0.3,3.3,5.3,6.8,34.95,,,,,,,,,,
13.48.12.616,113.4,28.4,0,,,62814.1,15.92,-1.04,0.02,-0.07,6.5,43.4,-18.4,35.2,,,,,,,,,,
13.48.12.624,68.2,17.0,0,,,62814.1,15.92,-0.49,0.05,-0.24,44.4,21.4,-5.2,34.88,,,,,,,,,,
13.48.12.632,54.6,13.6,0,,,62814.1,15.92,-0.66,-0.13,-0.29,6.0,6.9,-30.6,35.05,,,,,,,,,,
13.48.12.643,49.5,12.4,0,,,62814.1,15.92,-0.67,-0.12,-0.9,9.3,15.8,10.8,34.81,,,,,,,,,,
13.48.12.653,-12.9,3.2,0,,,62814.1,15.92,-0.73,-0.23,-0.21,-5.2,-4.0,-21.1,34.96,,,,,,,,,,
13.48.12.663,-22.2,5.6,0,,,62814.1,15.92,-0.73,-0.56,0.2,2.5,-7.0,7.0,35.47,,,,,,,,,,
13.48.12.675,-3.3,0.8,0,,,62814.1,15.92,-0.42,-0.51,-0.9,-12.6,14.8,2.9,34.76,,,,,,,,,,
13.48.12.686,-29.5,7.4,0,,,62814.1,15.92,-0.77,0.1,-0.59,9.6,7.9,-19.0,34.71,,,,,,,,,,
13.48.12.695,-30.1,7.5,0,,,62814.1,15.92,-0.74,-0.12,-0.76,18.5,4.1,12.0,35.21,,,,,,,,,,
13.48.12.704,-34.2,8.6,0,,,62814.1,15.92,-0.74,-0.31,-0.42,9.2,-28.3,-20.3,35.6,,,,,,,,,,
13.48.12.711,-17.4,4.4,0,,,62814.1,15.92,-0.82,-0.32,-0.03,-15.1,-3.5,15.5,34.64,,,,,,,,,,
13.48.12.721,-42.6,10.6,0,,,62814.1,15.92,-0.86,-0.41,-0.44,24.5,20.5,0.9,35.1,,,,,,,,,,
13.48.12.730,-28.7,7.2,0,,,62814.1,15.92,-0.75,0.32,-0.22,-10.1,4.3,19.3,35.16,,,,,,,,,,
13.48.12.739,-53.3,13.3,0,,,62814.1,15.92,-0.52,0.06,-0.32,0.5,17.4,7.9,34.9,,,,,,,,,,
13.48.12.750,-57.5,14.4,0,,,62814.1,15.92,-0.77,-0.22,-0.6,-11.2,6.6,0.6,35.31,,,,,,,,,,
13.48.12.758,-48.3,12.1,0,,,62814.1,15.92,-1.01,-0.64,-0.38,27.7,8.3,-0.1,34.82,,,,,,,,,,
13.48.12.766,-60.0,15.0,0,,,62814.1,15.92,-0.71,-0.47,-0.71,-9.0,17.4,9.3,34.66,,,,,,,,,,
13.48.12.777,-94.5,23.6,0,,,62814.1,15.92,-0.77,-0.16,-0.41,8.5,-0.3,-5.8,35.04,,,,,,,,,,
13.48.12.787,-62.6,15.6,0,,,62814.1,15.92,-1.05,-0.23,-0.12,13.9,1.9,15.5,35.23,,,,,,,,,,
13.48.12.796,-69.2,17.3,0,,,62814.1,15.92,-0.78,-0.06,-0.52,0.7,-0.5,7.0,35.53,,,,,,,,,,
13.48.12.805,-96.7,24.2,0,,,62814.1,15.92,-0.39,-0.16,0.15,-23.7,0.5,4.4,34.53,,,,,,,,,,
13.48.12.815,-112.7,28.2,0,,,62814.1,15.92,-0.99,-0.38,-0.37,2.2,18.7,41.2,35.0,,,,,,,,,,
13.48.12.825,-109.1,27.3,0,,,62814.1,15.92,-0.81,-0.42,0.1,3.0,-21.7,28.7,34.87,,,,,,,,,,
13.48.12.834,-111.7,27.9,0,,,62814.1,15.92,-0.67,0.19,-0.05,8.4,-12.2,3.8,35.28,,,,,,,,,,
13.48.12.843,-148.1,37.0,1,25.0,116.1,62814.1,15.92,-1.0,-0.42,-0.05,-30.1,11.6,-1.9,35.2,,,,,,,,,,
13.48.12.852,-133.2,33.3,0,,,62814.1,15.92,-0.66,-0.12,-0.02,-24.9,-8.8,4.9,35.19,,,,,,,,,,
13.48.12.862,-187.0,46.8,0,,,62814.1,15.92,-0.63,-0.44,0.03,-6.3,6.8,-41.0,34.84,,,,,,,,,,
13.48.12.871,-179.3,44.8,0,,,62814.1,15.92,-0.52,0.29,0.16,10.4,5.2,8.4,35.3,,,,,,,,,,
13.48.12.880,-118.4,29.6,0,,,62814.1,15.92,-0.7,0.03,-0.59,-6.9,20.6,-19.6,34.91,,,,,,,,,,
13.48.12.889,31.0,7.8,0,,,62814.1,15.92,-0.98,-0.22,-0.54,-4.1,-6.1,-7.5,35.42,,,,,,,,,,
13.48.12.899,65.6,16.4,0,,,62814.1,15.92,-0.38,-0.42,-0.28,1.2,20.0,5.5,34.91,,,,,,,,,,
13.48.12.909,174.6,43.6,0,,,62814.1,15.92,-1.0,-0.34,-0.41,-7.3,-4.6,22.7,35.19,,,,,,,,,,
13.48.12.920,228.3,57.1,0,,,62814.1,15.92,-0.84,-0.18,0.36,35.9,-4.3,-10.1,34.8,,,,,,,,,,
13.48.12.931,272.1,68.0,0,,,62814.1,15.92,-0.89,0.07,-0.37,-18.4,6.9,-4.5,35.06,,,,,,,,,,
13.48.12.944,385.5,96.4,0,,,62853.6,15.91,-0.87,-1.0,0.15,15.4,18.4,18.9,35.01,,,,,,,,,,
13.48.12.953,407.0,101.8,0,,,62853.6,15.91,-0.98,-0.04,-0.24,-3.1,9.0,4.4,34.89,,,,,,,,,,
13.48.12.963,394.9,98.7,0,,,62853.6,15.91,-0.83,-0.18,0.42,-0.5,22.5,23.4,34.94,,,,,,,,,,
13.48.12.973,417.1,104.3,0,,,62853.6,15.91,-0.7,-0.03,-0.1,-47.7,6.2,-8.4,35.12,,,,,,,,,,
