timestamp,ppg,threshold,beat,beat_count,inst_bpm,gsr_resistance_ohm,gsr_conductance_us,accel_x,accel_y,accel_z,gyro_x,gyro_y,gyro_z,temp_c,window_bpm,window_temp_c,status_message,SpO2,bmi,age,height,weight,env_temp_c,env_humidity_pct
14.45.40.000,0.0,0.0,0,,,93283.6,10.72,-0.43,0.64,0.51,-16.7,-6.9,-0.0,36.4,97.0,,,100.0,25.0,23.0,154.94,60.0,31.44,45.0
14.45.40.010,54.8,13.7,0,,,93283.6,10.72,-0.41,0.57,0.55,-16.8,23.1,-8.6,36.16,,,,,,,,,,
14.45.40.020,75.8,19.0,0,,,93283.6,10.72,-0.29,0.67,0.52,-4.4,2.1,-5.2,36.1,,,,,,,,,,
14.45.40.030,120.8,30.2,0,,,93283.6,10.72,-0.51,0.69,0.73,9.6,0.1,-2.6,36.08,,,,,,,,,,
14.45.40.039,163.1,40.8,0,,,93283.6,10.72,-0.31,0.62,0.57,-3.3,7.2,-7.0,36.34,,,,,,,,,,
14.45.40.052,210.0,52.5,0,,,93283.6,10.72,-0.51,0.71,0.69,5.8,7.6,0.3,35.93,,,,,,,,,,
14.45.40.061,236.5,59.1,0,,,93283.6,10.72,-0.32,0.67,0.55,3.5,3.3,-4.9,36.19,,,,,,,,,,
14.45.40.073,264.7,66.2,0,,,93283.6,10.72,-0.51,0.64,0.54,12.5,21.0,6.0,35.92,,,,,,,,,,
14.45.40.083,269.3,67.3,0,,,93283.6,10.72,-0.49,0.57,0.63,0.0,-3.8,-4.3,35.97,,,,,,,,,,
14.45.40.091,294.2,73.6,0,,,93283.6,10.72,-0.5,0.74,0.53,-5.8,6.3,-3.9,36.4,,,,,,,,,,
14.45.40.102,333.4,83.4,0,,,93283.6,10.72,-0.39,0.52,0.62,-3.9,0.6,-8.4,36.45,,,,,,,,,,
14.45.40.114,316.9,79.2,0,,,93283.6,10.72,-0.53,0.46,0.51,3.9,0.8,-3.2,35.92,,,,,,,,,,
14.45.40.124,314.0,78.5,0,,,93283.6,10.72,-0.42,0.8,0.49,-6.1,-3.3,13.0,36.29,,,,,,,,,,
14.45.40.133,340.6,85.2,0,,,93283.6,10.72,-0.4,0.65,0.56,-4.4,9.3,-3.4,36.03,,,,,,,,,,
14.45.40.143,284.9,71.2,0,,,93283.6,10.72,-0.44,0.83,0.5,1.9,10.5,-5.1,36.04,,,,,,,,,,
14.45.40.152,258.2,64.6,0,,,93283.6,10.72,-0.48,0.69,0.37,2.2,6.8,-2.9,36.11,,,,,,,,,,
14.45.40.162,239.4,59.8,0,,,93283.6,10.72,-0.39,0.6,0.69,6.7,-3.9,2.2,36.21,,,,,,,,,,
14.45.40.171,222.9,55.7,0,,,93283.6,10.72,-0.47,0.77,0.48,-5.5,16.6,14.1,36.44,,,,,,,,,,
14.45.40.181,187.2,46.8,0,,,93283.6,10.72,-0.35,0.78,0.48,-0.7,13.5,-1.5,36.26,,,,,,,,,,
14.45.40.191,149.0,37.2,0,,,93283.6,10.72,-0.43,0.56,0.42,3.7,-5.5,-3.0,36.36,,,,,,,,,,
14.45.40.202,112.9,28.2,0,,,93283.6,10.72,-0.49,0.61,0.56,-5.6,12.8,-10.7,36.01,,,,,,,,,,
14.45.40.209,89.5,22.4,0,,,93283.6,10.72,-0.46,0.71,0.55,1.6,5.3,-1.1,36.31,,,,,,,,,,
14.45.40.217,45.0,11.2,0,,,93283.6,10.72,-0.45,0.74,0.6,12.2,-7.9,3.1,35.89,,,,,,,,,,
14.45.40.226,5.4,1.4,0,,,93283.6,10.72,-0.42,0.68,0.46,-7.7,0.9,-8.3,36.25,,,,,,,,,,
14.45.40.233,13.1,3.3,0,,,93283.6,10.72,-0.36,0.64,0.61,-20.6,4.3,-9.9,36.32,,,,,,,,,,
14.45.40.243,18.2,4.6,0,,,93283.6,10.72,-0.39,0.68,0.67,1.9,5.0,-9.1,36.36,,,,,,,,,,
14.45.40.250,24.4,6.1,0,,,93283.6,10.72,-0.38,0.73,0.47,-17.9,-2.3,-0.7,36.1,,,,,,,,,,
14.45.40.262,44.7,11.2,0,,,93283.6,10.72,-0.45,0.77,0.65,-1.1,5.6,-1.8,36.07,,,,,,,,,,
14.45.40.272,47.5,11.9,0,,,93283.6,10.72,-0.52,0.54,0.61,-1.9,19.5,1.5,36.39,,,,,,,,,,
14.45.40.282,58.2,14.6,0,,,93283.6,10.72,-0.39,0.69,0.41,-3.9,-3.7,-7.9,36.26,,,,,,,,,,
14.45.40.291,53.2,13.3,0,,,93283.6,10.72,-0.54,0.66,0.47,10.8,-0.8,-7.3,36.16,,,,,,,,,,
14.45.40.301,50.1,12.5,0,,,93283.6,10.72,-0.43,0.53,0.58,-11.6,13.7,-4.4,36.33,,,,,,,,,,
14.45.40.310,57.7,14.4,0,,,93283.6,10.72,-0.52,0.76,0.37,-14.6,8.7,-0.6,36.05,,,,,,,,,,
14.45.40.322,39.7,9.9,0,,,93283.6,10.72,-0.43,0.76,0.48,-10.8,-3.0,-2.0,36.05,,,,,,,,,,
14.45.40.332,31.4,7.8,0,,,93283.6,10.72,-0.51,0.84,0.63,1.4,0.4,2.2,36.3,,,,,,,,,,
14.45.40.343,17.4,4.4,0,,,93283.6,10.72,-0.3,0.54,0.54,2.9,11.8,0.7,36.31,,,,,,,,,,
14.45.40.353,8.9,2.2,0,,,93283.6,10.72,-0.46,0.62,0.49,-12.3,11.3,-13.0,36.38,,,,,,,,,,
14.45.40.364,1.8,0.4,0,,,93283.6,10.72,-0.44,0.59,0.48,-7.0,9.1,6.7,36.28,,,,,,,,,,
14.45.40.374,-3.2,0.8,0,,,93283.6,10.72,-0.37,0.82,0.47,-6.7,-3.9,6.7,36.27,,,,,,,,,,
14.45.40.384,-2.8,0.7,0,,,93283.6,10.72,-0.42,0.74,0.56,-4.4,-1.0,-3.0,36.0,,,,,,,,,,
14.45.40.394,-11.4,2.8,0,,,93283.6,10.72,-0.39,0.73,0.7,1.9,12.3,-6.0,36.08,,,,,,,,,,
14.45.40.406,-29.5,7.4,0,,,93283.6,10.72,-0.37,0.66,0.63,-0.2,-1.9,0.5,36.07,,,,,,,,,,
14.45.40.418,-24.1,6.0,0,,,93283.6,10.72,-0.24,0.62,0.42,4.2,7.3,-5.4,36.09,,,,,,,,,,
14.45.40.429,-21.1,5.3,0,,,93283.6,10.72,-0.54,0.69,0.62,5.2,2.9,2.9,36.26,,,,,,,,,,
14.45.40.438,-37.7,9.4,0,,,93283.6,10.72,-0.5,0.68,0.45,1.6,-2.8,-1.6,36.18,,,,,,,,,,
14.45.40.448,-43.9,11.0,0,,,93283.6,10.72,-0.39,0.97,0.52,15.0,-1.3,6.5,36.21,,,,,,,,,,
14.45.40.457,-47.7,11.9,0,,,93283.6,10.72,-0.51,0.57,0.47,-2.9,-1.9,1.4,36.16,,,,,,,,,,
14.45.40.466,-55.3,13.8,0,,,93283.6,10.72,-0.45,0.56,0.52,14.3,-4.9,-2.8,36.41,,,,,,,,,,
14.45.40.473,-53.7,13.4,0,,,93283.6,10.72,-0.37,0.76,0.53,3.0,-3.4,-3.3,36.2,,,,,,,,,,
14.45.40.482,-64.8,16.2,0,,,93283.6,10.72,-0.44,0.63,0.59,-9.1,-0.5,-8.5,36.18,,,,,,,,,,
14.45.40.491,-51.6,12.9,0,,,93283.6,10.72,-0.36,0.8,0.56,5.0,3.9,2.0,36.4,,,,,,,,,,
14.45.40.501,-50.2,12.6,0,,,93283.6,10.72,-0.56,0.57,0.46,-2.2,11.5,1.5,36.06,,,,,,,,,,
14.45.40.511,-83.7,20.9,0,,,93283.6,10.72,-0.37,0.67,0.53,-0.3,16.4,9.9,36.45,,,,,,,,,,
14.45.40.521,-79.2,19.8,0,,,93283.6,10.72,-0.55,0.88,0.57,2.3,15.8,-6.9,36.15,,,,,,,,,,
14.45.40.529,-76.8,19.2,0,,,93283.6,10.72,-0.48,0.92,0.54,-4.5,-2.4,-7.2,36.32,,,,,,,,,,
14.45.40.539,-72.7,18.2,0,,,93283.6,10.72,-0.5,0.79,0.6,-0.9,-8.3,-1.8,36.2,,,,,,,,,,
14.45.40.549,-81.3,20.3,0,,,93283.6,10.72,-0.37,0.52,0.54,6.5,30.6,-1.1,36.21,,,,,,,,,,
14.45.40.559,-90.8,22.7,0,,,93283.6,10.72,-0.41,0.65,0.53,-11.5,9.5,1.7,36.13,,,,,,,,,,
14.45.40.568,-95.4,23.8,0,,,93283.6,10.72,-0.6,0.82,0.55,6.0,3.4,-7.5,36.32,,,,,,,,,,
14.45.40.578,-106.8,26.7,0,,,93283.6,10.72,-0.32,0.66,0.55,-1.0,-0.0,0.2,36.61,,,,,,,,,,
14.45.40.585,-108.1,27.0,0,,,93283.6,10.72,-0.34,0.61,0.67,7.0,7.5,-3.5,36.1,,,,,,,,,,
14.45.40.595,-99.0,24.8,0,,,93283.6,10.72,-0.34,0.73,0.45,4.8,2.5,5.7,36.17,,,,,,,,,,
14.45.40.604,-114.2,28.6,0,,,93283.6,10.72,-0.33,0.54,0.41,16.5,8.8,0.8,36.0,,,,,,,,,,
14.45.40.615,-119.5,29.9,0,,,93283.6,10.72,-0.42,0.59,0.64,0.3,7.5,2.4,36.06,,,,,,,,,,
14.45.40.624,-105.8,26.4,0,,,93370.7,10.71,-0.45,0.74,0.6,-9.3,-0.9,-14.8,36.32,,,,,,,,,,
14.45.40.635,-129.1,32.3,0,,,93370.7,10.71,-0.38,0.64,0.6,11.4,7.5,-0.7,36.35,,,,,,,,,,
14.45.40.642,-126.8,31.7,0,,,93370.7,10.71,-0.52,0.69,0.55,-0.3,-0.5,0.9,35.91,,,,,,,,,,
14.45.40.655,20.9,5.2,1,1.0,,93370.7,10.71,-0.55,0.49,0.57,12.2,6.9,8.7,36.23,,,,,,,,,,
14.45.40.666,83.6,20.9,0,,,93370.7,10.71,-0.44,0.44,0.52,-6.2,15.0,-0.6,36.17,,,,,,,,,,
14.45.40.673,106.4,26.6,0,,,93370.7,10.71,-0.44,0.63,0.56,9.7,6.2,0.1,36.14,,,,,,,,,,
14.45.40.682,144.1,36.0,0,,,93370.7,10.71,-0.61,0.65,0.54,10.8,-4.5,-4.5,36.27,,,,,,,,,,
14.45.40.691,178.9,44.7,0,,,93370.7,10.71,-0.57,0.56,0.54,-6.3,10.3,1.6,36.11,,,,,,,,,,
14.45.40.701,210.9,52.7,0,,,93370.7,10.71,-0.37,0.72,0.6,-18.8,9.4,-4.6,36.15,,,,,,,,,,
14.45.40.710,231.2,57.8,0,,,93370.7,10.71,-0.54,0.83,0.55,3.2,14.4,-0.3,36.19,,,,,,,,,,
14.45.40.722,257.5,64.4,0,,,93370.7,10.71,-0.38,0.72,0.46,0.1,3.9,1.9,36.22,,,,,,,,,,
14.45.40.732,293.0,73.2,0,,,93370.7,10.71,-0.42,0.57,0.53,-7.6,9.9,-12.8,36.13,,,,,,,,,,
14.45.40.742,285.0,71.2,0,,,93370.7,10.71,-0.37,0.55,0.61,-3.3,12.7,8.8,36.29,,,,,,,,,,
14.45.40.752,331.5,82.9,0,,,93370.7,10.71,-0.34,0.66,0.52,-2.8,8.5,6.1,36.11,,,,,,,,,,
14.45.40.761,306.3,76.6,0,,,93370.7,10.71,-0.28,0.59,0.59,3.3,13.7,-9.7,36.33,,,,,,,,,,
14.45.40.770,345.1,86.3,0,,,93370.7,10.71,-0.42,0.52,0.47,1.7,10.8,-4.0,36.24,,,,,,,,,,
14.45.40.780,305.7,76.4,0,,,93370.7,10.71,-0.54,0.66,0.6,-5.1,10.9,-2.5,36.35,,,,,,,,,,
14.45.40.790,286.8,71.7,0,,,93370.7,10.71,-0.49,0.65,0.46,16.5,15.1,4.4,36.26,,,,,,,,,,
14.45.40.801,302.6,75.6,0,,,93370.7,10.71,-0.32,0.48,0.49,-4.6,12.4,-8.5,36.24,,,,,,,,,,
14.45.40.810,237.7,59.4,0,,,93370.7,10.71,-0.38,0.52,0.61,7.8,9.9,-10.5,36.07,,,,,,,,,,
14.45.40.821,225.1,56.3,0,,,93370.7,10.71,-0.37,0.74,0.5,18.5,6.9,-5.6,36.25,,,,,,,,,,
14.45.40.829,206.5,51.6,0,,,93370.7,10.71,-0.45,0.73,0.55,-7.9,10.2,5.7,36.33,,,,,,,,,,
14.45.40.840,161.1,40.3,0,,,93370.7,10.71,-0.38,0.68,0.53,-0.7,-0.6,-4.6,36.18,,,,,,,,,,
14.45.40.850,113.6,28.4,0,,,93370.7,10.71,-0.43,0.82,0.62,-0.9,12.6,3.5,36.34,,,,,,,,,,
14.45.40.861,70.9,17.7,0,,,93370.7,10.71,-0.48,0.61,0.65,0.2,4.4,-3.9,36.27,,,,,,,,,,
14.45.40.869,34.3,8.6,0,,,93370.7,10.71,-0.38,0.57,0.59,10.2,7.2,0.7,36.44,,,,,,,,,,
14.45.40.880,1.5,0.4,0,,,93370.7,10.71,-0.5,0.6,0.49,-6.7,7.2,3.6,36.32,,,,,,,,,,
14.45.40.890,16.3,4.1,0,,,93370.7,10.71,-0.36,0.74,0.62,0.8,5.4,-2.8,35.97,,,,,,,,,,
14.45.40.899,29.0,7.2,0,,,93370.7,10.71,-0.37,0.65,0.58,-0.8,13.2,0.1,36.01,,,,,,,,,,
14.45.40.912,47.2,11.8,0,,,93370.7,10.71,-0.53,0.59,0.57,19.8,4.5,8.2,36.2,,,,,,,,,,
14.45.40.921,45.7,11.4,0,,,93370.7,10.71,-0.48,0.62,0.55,14.1,11.9,-4.6,36.15,,,,,,,,,,
14.45.40.931,62.0,15.5,0,,,93370.7,10.71,-0.35,0.6,0.62,-4.2,-1.8,-11.0,36.04,,,,,,,,,,
14.45.40.938,63.7,15.9,0,,,93370.7,10.71,-0.57,0.72,0.53,-2.0,8.8,10.1,36.28,,,,,,,,,,
14.45.40.947,55.5,13.9,0,,,93370.7,10.71,-0.38,0.52,0.58,15.9,-5.3,-4.3,36.26,,,,,,,,,,
14.45.40.960,47.7,11.9,0,,,93370.7,10.71,-0.56,0.64,0.65,-0.8,-14.9,3.4,36.29,,,,,,,,,,
14.45.40.971,50.1,12.5,0,,,93370.7,10.71,-0.32,0.73,0.54,11.9,6.3,-2.4,36.16,,,,,,,,,,
14.45.40.979,31.6,7.9,0,,,93370.7,10.71,-0.42,0.67,0.61,13.1,9.9,-4.4,36.26,,,,,,,,,,
14.45.40.989,24.7,6.2,0,,,93370.7,10.71,-0.41,0.77,0.62,7.3,13.6,-1.6,36.19,,,,,,,,,,
14.45.40.999,7.1,1.8,0,,,93370.7,10.71,-0.34,0.73,0.53,-7.7,8.8,4.1,36.17,,,,,,,,,,
14.45.41.007,6.0,1.5,0,,,93370.7,10.71,-0.51,0.65,0.63,-9.7,6.1,-0.4,36.02,,,,,,,,,,
14.45.41.019,-1.4,0.4,0,,,93370.7,10.71,-0.49,0.65,0.55,1.8,-1.9,10.7,36.28,,,,,,,,,,
14.45.41.033,-10.1,2.5,0,,,93370.7,10.71,-0.33,0.69,0.65,6.6,16.7,4.0,36.23,,,,,,,,,,
14.45.41.044,-11.1,2.8,0,,,93370.7,10.71,-0.3,0.71,0.52,9.8,-1.8,7.7,36.4,,,,,,,,,,
14.45.41.055,-19.8,5.0,0,,,93370.7,10.71,-0.47,0.6,0.52,9.4,6.5,9.9,36.35,,,,,,,,,,
14.45.41.063,,,0,,,,,,,,,,,,,,,,,,,,,
14.45.41.074,-31.8,8.0,0,,,93370.7,10.71,-0.49,0.85,0.5,-6.4,5.4,-16.2,36.33,,,,,,,,,,
14.45.41.085,-29.0,7.2,0,,,93370.7,10.71,-0.54,0.8,0.45,-2.2,2.3,-8.7,36.28,,,,,,,,,,
14.45.41.093,-48.1,12.0,0,,,93370.7,10.71,-0.31,0.66,0.56,-9.8,-6.7,2.2,35.94,,,,,,,,,,
14.45.41.102,-34.1,8.5,0,,,93370.7,10.71,-0.4,0.61,0.57,4.1,1.8,2.8,36.37,,,,,,,,,,
14.45.41.114,-47.6,11.9,0,,,93370.7,10.71,-0.37,0.68,0.52,-0.8,14.1,-1.0,36.33,,,,,,,,,,
14.45.41.126,-52.8,13.2,0,,,93370.7,10.71,-0.39,0.64,0.45,-8.5,0.1,-9.3,36.23,,,,,,,,,,
14.45.41.136,-60.0,15.0,0,,,93370.7,10.71,-0.51,0.76,0.56,-6.2,-3.0,11.5,35.97,,,,,,,,,,
14.45.41.147,-58.8,14.7,0,,,93370.7,10.71,-0.42,0.74,0.72,-2.2,11.7,-2.9,36.4,,,,,,,,,,
14.45.41.154,-59.9,15.0,0,,,93370.7,10.71,-0.49,0.56,0.48,-1.3,1.7,-0.6,36.26,,,,,,,,,,
14.45.41.162,-66.6,16.6,0,,,93370.7,10.71,-0.57,0.75,0.65,1.3,17.6,-1.7,36.14,,,,,,,,,,
14.45.41.173,-68.0,17.0,0,,,93370.7,10.71,-0.41,0.56,0.51,-4.0,-1.2,-1.2,36.29,,,,,,,,,,
14.45.41.181,-84.1,21.0,0,,,93370.7,10.71,-0.54,0.63,0.52,19.0,8.3,-11.4,36.14,,,,,,,,,,
14.45.41.190,-76.9,19.2,0,,,93370.7,10.71,-0.51,0.64,0.5,12.4,11.3,-0.1,36.25,,,,,,,,,,
14.45.41.201,-91.8,23.0,0,,,93370.7,10.71,-0.28,0.6,0.56,-2.6,5.9,-24.0,36.46,,,,,,,,,,
14.45.41.210,-95.3,23.8,0,,,93370.7,10.71,-0.46,0.65,0.63,-4.6,2.1,-2.1,36.01,,,,,,,,,,
14.45.41.221,-77.8,19.4,0,,,93370.7,10.71,-0.39,0.7,0.47,-11.3,8.6,-1.0,36.4,,,,,,,,,,
14.45.41.232,-92.5,23.1,0,,,93370.7,10.71,-0.39,0.77,0.5,-9.5,9.6,-2.6,35.88,,,,,,,,,,
14.45.41.242,-90.9,22.7,0,,,93370.7,10.71,-0.46,0.63,0.53,-3.6,-5.0,-1.1,36.3,,,,,,,,,,
14.45.41.250,-115.6,28.9,0,,,93370.7,10.71,-0.32,0.36,0.54,11.1,14.0,-2.0,36.32,,,,,,,,,,
14.45.41.261,-115.9,29.0,0,,,93370.7,10.71,-0.46,0.71,0.69,-0.2,-3.8,-0.8,35.93,,,,,,,,,,
14.45.41.270,-97.6,24.4,0,,,93370.7,10.71,-0.44,0.77,0.6,10.1,19.9,-2.6,36.39,,,,,,,,,,
14.45.41.279,-127.9,32.0,1,2.0,96.2,93370.7,10.71,-0.38,0.56,0.45,-7.7,-8.2,-2.2,36.29,,,,,,,,,,
14.45.41.290,-109.4,27.4,0,,,93370.7,10.71,-0.27,0.77,0.56,3.0,12.5,1.8,36.15,,,,,,,,,,
14.45.41.299,-129.2,32.3,0,,,93370.7,10.71,-0.59,0.71,0.54,-8.9,1.8,13.2,36.23,,,,,,,,,,
14.45.41.309,32.8,8.2,0,,,93370.7,10.71,-0.51,0.84,0.57,12.1,12.0,5.6,36.28,,,,,,,,,,
14.45.41.318,76.6,19.2,0,,,93370.7,10.71,-0.6,0.62,0.65,-12.5,-0.6,-2.0,36.24,,,,,,,,,,
14.45.41.327,119.4,29.8,0,,,93370.7,10.71,-0.37,0.81,0.49,13.4,-0.8,7.6,36.21,,,,,,,,,,
14.45.41.338,145.9,36.5,0,,,93370.7,10.71,-0.41,0.72,0.48,-6.2,-2.6,-2.7,36.15,,,,,,,,,,
14.45.41.346,204.4,51.1,0,,,93370.7,10.71,-0.37,0.69,0.41,2.1,-1.8,1.9,36.2,,,,,,,,,,
14.45.41.357,225.7,56.4,0,,,93370.7,10.71,-0.45,0.69,0.64,7.6,10.4,-5.6,36.15,,,,,,,,,,
14.45.41.368,271.3,67.8,0,,,93370.7,10.71,-0.39,0.77,0.45,-3.6,13.7,-0.3,36.13,,,,,,,,,,
14.45.41.379,244.9,61.2,0,,,93370.7,10.71,-0.42,0.73,0.58,13.9,8.2,8.1,36.59,,,,,,,,,,
14.45.41.389,319.3,79.8,0,,,93370.7,10.71,-0.32,0.67,0.74,14.8,-1.2,1.6,36.07,,,,,,,,,,
14.45.41.398,295.6,73.9,0,,,93370.7,10.71,-0.43,0.59,0.48,-13.5,3.3,10.1,36.45,,,,,,,,,,
14.45.41.409,318.3,79.6,0,,,93370.7,10.71,-0.48,0.57,0.53,3.5,17.7,2.2,36.37,,,,,,,,,,
14.45.41.418,307.0,76.8,0,,,93370.7,10.71,-0.38,0.57,0.62,9.3,-8.3,-1.1,36.27,,,,,,,,,,
14.45.41.428,323.1,80.8,0,,,93370.7,10.71,-0.45,0.89,0.52,-11.0,18.7,-6.3,36.23,,,,,,,,,,
14.45.41.436,295.0,73.8,0,,,93370.7,10.71,-0.49,0.72,0.65,-2.4,1.9,-2.0,36.2,,,,,,,,,,
14.45.41.445,284.2,71.0,0,,,93370.7,10.71,-0.41,0.46,0.49,-7.0,2.0,-8.4,35.99,,,,,,,,,,
14.45.41.453,248.9,62.2,0,,,93370.7,10.71,-0.38,0.75,0.48,2.8,4.3,6.8,36.17,,,,,,,,,,
14.45.41.463,232.6,58.2,0,,,93370.7,10.71,-0.51,0.57,0.55,9.0,8.8,6.0,36.16,,,,,,,,,,
14.45.41.472,218.0,54.5,0,,,93370.7,10.71,-0.54,0.75,0.72,0.6,13.9,-4.2,36.09,,,,,,,,,,
14.45.41.481,189.8,47.4,0,,,93370.7,10.71,-0.45,0.57,0.77,-5.5,10.1,2.8,36.21,,,,,,,,,,
14.45.41.490,153.4,38.4,0,,,93370.7,10.71,-0.4,0.69,0.51,-11.8,15.2,0.4,36.2,,,,,,,,,,
14.45.41.500,119.5,29.9,0,,,93370.7,10.71,-0.36,0.57,0.56,-10.5,2.7,3.0,36.51,,,,,,,,,,
14.45.41.507,92.2,23.0,0,,,93370.7,10.71,-0.36,0.59,0.56,7.5,2.1,-4.7,36.08,,,,,,,,,,
14.45.41.518,40.2,10.0,0,,,93370.7,10.71,-0.32,0.63,0.49,-12.9,-0.3,4.4,36.1,,,,,,,,,,
14.45.41.528,-0.7,0.2,0,,,93370.7,10.71,-0.39,0.59,0.59,12.3,15.6,0.8,36.21,,,,,,,,,,
14.45.41.539,32.8,8.2,0,,,93370.7,10.71,-0.36,0.73,0.53,7.6,-2.6,5.5,36.0,,,,,,,,,,
14.45.41.549,30.3,7.6,0,,,93370.7,10.71,-0.25,0.57,0.6,-4.2,7.4,5.8,36.25,,,,,,,,,,
14.45.41.560,40.0,10.0,0,,,93370.7,10.71,-0.41,0.54,0.52,-2.4,8.2,-0.6,36.11,,,,,,,,,,
14.45.41.570,50.2,12.6,0,,,93370.7,10.71,-0.52,0.67,0.46,15.2,-0.7,0.3,36.28,,,,,,,,,,
14.45.41.579,57.3,14.3,0,,,93370.7,10.71,-0.35,0.77,0.62,-6.6,10.3,-2.1,36.11,,,,,,,,,,
14.45.41.589,64.4,16.1,0,,,93370.7,10.71,-0.28,0.93,0.6,-2.5,2.2,-6.0,36.21,,,,,,,,,,
14.45.41.600,58.6,14.6,0,,,93370.7,10.71,-0.46,0.61,0.66,-2.3,10.9,2.7,36.2,,,,,,,,,,
14.45.41.607,62.3,15.6,0,,,93370.7,10.71,-0.41,0.51,0.51,-6.8,1.8,-7.9,36.28,,,,,,,,,,
14.45.41.619,44.2,11.0,0,,,93370.7,10.71,-0.34,0.59,0.63,-3.9,14.7,-9.8,36.38,,,,,,,,,,
14.45.41.628,44.0,11.0,0,,,93370.7,10.71,-0.4,0.99,0.58,5.8,4.3,-8.9,36.31,,,,,,,,,,
14.45.41.636,25.6,6.4,0,,,93370.7,10.71,-0.49,0.57,0.55,1.7,-0.4,-13.5,36.07,,,,,,,,,,
14.45.41.644,11.8,3.0,0,,,93370.7,10.71,-0.45,0.69,0.57,-6.3,8.8,0.6,36.06,,,,,,,,,,
14.45.41.654,1.1,0.3,0,,,93370.7,10.71,-0.41,0.72,0.53,4.4,16.0,-11.6,36.04,,,,,,,,,,
14.45.41.666,-8.7,2.2,0,,,93370.7,10.71,-0.44,0.64,0.55,-2.0,10.9,-5.2,36.15,,,,,,,,,,
14.45.41.675,-0.3,0.1,0,,,93370.7,10.71,-0.55,0.81,0.47,2.2,13.5,2.8,36.36,,,,,,,,,,
14.45.41.684,-10.6,2.6,0,,,93370.7,10.71,-0.28,0.53,0.69,16.7,11.1,-1.0,36.41,,,,,,,,,,
14.45.41.693,-22.0,5.5,0,,,93370.7,10.71,-0.4,0.78,0.51,1.0,7.3,-7.2,36.21,,,,,,,,,,
14.45.41.701,-13.0,3.2,0,,,93370.7,10.71,-0.42,0.68,0.52,-6.7,5.3,10.2,36.19,,,,,,,,,,
14.45.41.709,-25.2,6.3,0,,,93370.7,10.71,-0.54,0.67,0.61,9.9,5.3,0.2,36.24,,,,,,,,,,
14.45.41.720,-34.9,8.7,0,,,93370.7,10.71,-0.45,0.58,0.55,9.1,3.4,1.1,36.06,,,,,,,,,,
14.45.41.729,-35.1,8.8,0,,,93370.7,10.71,-0.42,0.59,0.56,-0.9,5.1,7.9,36.34,,,,,,,,,,
14.45.41.738,-38.9,9.7,0,,,93370.7,10.71,-0.44,0.91,0.47,7.0,10.2,-8.5,36.29,,,,,,,,,,
14.45.41.746,-47.8,12.0,0,,,93370.7,10.71,-0.45,0.38,0.5,-9.8,7.0,-2.7,36.32,,,,,,,,,,
14.45.41.755,-53.4,13.4,0,,,93370.7,10.71,-0.26,0.58,0.57,4.2,-3.3,8.6,36.55,,,,,,,,,,
14.45.41.765,-37.4,9.4,0,,,93370.7,10.71,-0.46,0.75,0.48,4.3,9.6,-6.5,36.07,,,,,,,,,,
14.45.41.771,-43.2,10.8,0,,,93370.7,10.71,-0.6,0.64,0.62,4.1,9.8,-3.0,35.91,,,,,,,,,,
14.45.41.784,-56.5,14.1,0,,,93370.7,10.71,-0.41,0.61,0.54,11.6,-0.7,-1.8,36.14,,,,,,,,,,
14.45.41.796,-63.4,15.8,0,,,93370.7,10.71,-0.44,0.63,0.67,9.5,13.4,-2.7,36.39,,,,,,,,,,
14.45.41.809,-74.7,18.7,0,,,93370.7,10.71,-0.46,0.67,0.46,3.7,-0.3,2.2,36.14,,,,,,,,,,
14.45.41.820,-72.9,18.2,0,,,93370.7,10.71,-0.35,0.67,0.63,7.3,-5.4,-6.3,36.34,,,,,,,,,,
14.45.41.830,-75.4,18.8,0,,,93370.7,10.71,-0.52,0.76,0.54,23.3,12.1,4.7,36.36,,,,,,,,,,
14.45.41.838,-83.5,20.9,0,,,93370.7,10.71,-0.44,0.74,0.53,2.0,-5.2,4.0,35.82,,,,,,,,,,
14.45.41.848,-79.0,19.8,0,,,93370.7,10.71,-0.44,0.49,0.63,7.6,5.0,-0.2,36.35,,,,,,,,,,
14.45.41.857,-80.0,20.0,0,,,93370.7,10.71,-0.4,0.62,0.55,5.3,14.1,3.5,36.24,,,,,,,,,,
14.45.41.865,-93.8,23.4,0,,,93370.7,10.71,-0.38,0.82,0.58,-10.1,6.2,1.7,35.96,,,,,,,,,,
14.45.41.876,-93.3,23.3,0,,,93370.7,10.71,-0.43,0.76,0.53,16.0,6.4,-9.8,36.14,,,,,,,,,,
14.45.41.885,-83.6,20.9,0,,,93370.7,10.71,-0.49,0.65,0.57,17.7,1.1,8.1,36.09,,,,,,,,,,
14.45.41.895,-104.7,26.2,0,,,93370.7,10.71,-0.34,0.78,0.42,-2.1,12.3,-1.3,36.14,,,,,,,,,,
14.45.41.904,-110.0,27.5,1,3.0,96.0,93370.7,10.71,-0.45,0.52,0.61,6.1,3.0,-9.6,36.21,,,,,,,,,,
14.45.41.914,-106.5,26.6,0,,,93370.7,10.71,-0.41,0.69,0.55,-4.2,7.5,2.4,36.33,,,,,,,,,,
14.45.41.924,-117.2,29.3,0,,,93370.7,10.71,-0.34,0.76,0.5,3.4,1.1,-1.8,36.22,,,,,,,,,,
14.45.41.932,-108.2,27.0,0,,,93370.7,10.71,-0.57,0.74,0.54,-22.3,8.5,-3.0,36.07,,,,,,,,,,
14.45.41.940,-117.0,29.2,0,,,93370.7,10.71,-0.51,0.55,0.68,-13.1,3.7,-0.7,36.14,,,,,,,,,,
14.45.41.951,6.4,1.6,0,,,93370.7,10.71,-0.49,0.87,0.53,-17.1,7.3,12.4,36.21,,,,,,,,,,
14.45.41.962,53.5,13.4,0,,,93370.7,10.71,-0.43,0.63,0.5,-10.8,10.6,-10.9,36.47,,,,,,,,,,
14.45.41.971,104.9,26.2,0,,,93370.7,10.71,-0.43,0.49,0.64,5.8,-7.6,-4.6,36.07,,,,,,,,,,
14.45.41.981,140.8,35.2,0,,,93370.7,10.71,-0.44,0.59,0.66,12.7,-3.8,-0.2,36.14,,,,,,,,,,
14.45.41.989,173.9,43.5,0,,,93370.7,10.71,-0.48,0.65,0.79,-12.7,11.7,-11.4,36.04,,,,,,,,,,
14.45.41.999,206.0,51.5,0,,,93370.7,10.71,-0.68,0.74,0.59,-12.8,-1.6,-1.3,36.39,,,,,,,,,,
14.45.42.010,242.0,60.5,0,,,93370.7,10.71,-0.57,0.57,0.6,5.3,-2.5,-3.4,36.08,,,,,,,,,,
14.45.42.021,244.5,61.1,0,,,93370.7,10.71,-0.47,0.59,0.45,0.4,6.3,6.1,35.92,,,,,,,,,,
14.45.42.030,287.2,71.8,0,,,93370.7,10.71,-0.39,0.76,0.44,-3.2,2.9,-15.0,36.23,,,,,,,,,,
14.45.42.039,304.4,76.1,0,,,93370.7,10.71,-0.49,0.72,0.56,8.9,5.4,10.6,36.43,,,,,,,,,,
14.45.42.049,323.1,80.8,0,,,93370.7,10.71,-0.44,0.75,0.55,0.4,12.7,1.8,36.42,,,,,,,,,,
14.45.42.059,351.2,87.8,0,,,93370.7,10.71,-0.49,0.68,0.52,-10.0,8.9,10.0,36.23,,,,,,,,,,
14.45.42.068,303.9,76.0,0,,,93370.7,10.71,-0.47,0.67,0.51,-2.7,15.4,6.4,36.12,,,,,,,,,,
14.45.42.077,304.8,76.2,0,,,93370.7,10.71,-0.46,0.73,0.6,8.4,7.0,0.8,36.31,,,,,,,,,,
14.45.42.086,322.2,80.6,0,,,93370.7,10.71,-0.38,0.6,0.54,5.0,2.9,13.5,36.03,,,,,,,,,,
14.45.42.097,259.1,64.8,0,,,93370.7,10.71,-0.49,0.58,0.51,7.0,13.0,-8.6,36.08,,,,,,,,,,
14.45.42.106,262.7,65.7,0,,,93370.7,10.71,-0.43,0.46,0.51,-15.2,-1.5,-6.8,35.89,,,,,,,,,,
14.45.42.116,248.5,62.1,0,,,93370.7,10.71,-0.42,0.65,0.5,2.2,3.4,-1.4,36.23,,,,,,,,,,
14.45.42.125,210.5,52.6,0,,,93370.7,10.71,-0.22,0.62,0.62,11.0,7.8,4.2,36.3,,,,,,,,,,
14.45.42.132,210.6,52.6,0,,,93370.7,10.71,-0.37,0.6,0.57,-2.7,8.6,2.5,36.24,,,,,,,,,,
14.45.42.143,156.6,39.2,0,,,93370.7,10.71,-0.37,0.65,0.62,17.8,-1.9,4.5,36.16,,,,,,,,,,
14.45.42.154,107.4,26.8,0,,,93370.7,10.71,-0.43,0.64,0.57,-9.0,-3.1,-10.3,36.36,,,,,,,,,,
14.45.42.166,36.8,9.2,0,,,93370.7,10.71,-0.28,0.55,0.49,-7.1,-1.0,10.9,36.21,,,,,,,,,,
14.45.42.177,9.0,2.2,0,,,93370.7,10.71,-0.46,0.64,0.29,-4.3,9.7,0.4,36.36,,,,,,,,,,
14.45.42.187,8.4,2.1,0,,,93370.7,10.71,-0.41,0.81,0.56,-13.3,6.3,-3.1,36.07,,,,,,,,,,
14.45.42.197,26.6,6.6,0,,,93370.7,10.71,-0.36,0.6,0.6,3.5,-5.1,-3.1,36.09,,,,,,,,,,
14.45.42.208,54.3,13.6,0,,,93370.7,10.71,-0.47,0.78,0.67,-1.2,6.2,6.8,35.95,,,,,,,,,,
14.45.42.216,42.8,10.7,0,,,93370.7,10.71,-0.51,0.69,0.59,11.1,-4.4,1.3,36.19,,,,,,,,,,
14.45.42.226,49.9,12.5,0,,,93370.7,10.71,-0.5,0.63,0.48,0.5,11.8,-3.6,36.34,,,,,,,,,,
14.45.42.237,67.4,16.8,0,,,93370.7,10.71,-0.41,0.59,0.6,6.9,2.7,-0.9,36.41,,,,,,,,,,
14.45.42.247,49.1,12.3,0,,,93370.7,10.71,-0.36,0.6,0.51,16.9,2.7,-4.3,36.18,,,,,,,,,,
14.45.42.256,50.7,12.7,0,,,93370.7,10.71,-0.35,0.55,0.51,-18.4,10.7,-1.4,36.04,,,,,,,,,,
14.45.42.265,48.3,12.1,0,,,93370.7,10.71,-0.39,0.66,0.71,3.5,-1.0,9.0,36.35,,,,,,,,,,
14.45.42.275,38.3,9.6,0,,,93370.7,10.71,-0.43,0.68,0.64,7.7,-0.9,-2.6,36.16,,,,,,,,,,
14.45.42.284,32.1,8.0,0,,,93370.7,10.71,-0.36,0.9,0.58,2.6,15.9,-7.1,36.25,,,,,,,,,,
14.45.42.295,9.8,2.4,0,,,93283.6,10.72,-0.37,0.61,0.33,-2.0,5.2,-8.2,36.23,,,,,,,,,,
14.45.42.303,6.7,1.7,0,,,93283.6,10.72,-0.57,0.62,0.68,4.6,-2.8,-7.2,36.17,,,,,,,,,,
14.45.42.311,-0.0,0.0,0,,,93283.6,10.72,-0.37,0.84,0.47,-17.1,-3.1,-6.0,36.23,,,,,,,,,,
14.45.42.322,-6.4,1.6,0,,,93283.6,10.72,-0.46,0.54,0.54,2.9,6.6,-0.4,36.31,,,,,,,,,,
14.45.42.332,-8.9,2.2,0,,,93283.6,10.72,-0.31,0.71,0.36,-13.0,14.4,6.0,36.3,,,,,,,,,,
14.45.42.341,-13.1,3.3,0,,,93283.6,10.72,-0.4,0.54,0.63,-0.0,-1.4,2.7,36.3,,,,,,,,,,
14.45.42.351,-20.5,5.1,0,,,93283.6,10.72,-0.25,0.6,0.48,14.7,10.1,-0.8,36.41,,,,,,,,,,
14.45.42.362,-32.0,8.0,0,,,93283.6,10.72,-0.38,0.69,0.63,8.3,9.4,14.0,36.26,,,,,,,,,,
14.45.42.371,-35.6,8.9,0,,,93283.6,10.72,-0.49,0.72,0.57,-7.8,-4.6,3.6,36.25,,,,,,,,,,
14.45.42.384,-31.5,7.9,0,,,93283.6,10.72,-0.45,0.54,0.54,-2.3,5.0,-0.8,36.39,,,,,,,,,,
14.45.42.392,-27.1,6.8,0,,,93283.6,10.72,-0.45,0.54,0.5,6.6,7.6,-3.1,36.19,,,,,,,,,,
14.45.42.403,-36.9,9.2,0,,,93283.6,10.72,-0.29,0.89,0.57,-8.0,9.8,6.3,36.12,,,,,,,,,,
14.45.42.414,-44.1,11.0,0,,,93283.6,10.72,-0.37,0.67,0.48,7.3,13.0,4.5,36.23,,,,,,,,,,
14.45.42.424,-54.7,13.7,0,,,93283.6,10.72,-0.47,0.74,0.58,4.7,2.5,8.2,36.05,,,,,,,,,,
14.45.42.433,-55.5,13.9,0,,,93283.6,10.72,-0.36,0.59,0.45,0.2,0.2,-0.3,36.35,,,,,,,,,,
14.45.42.445,,,0,,,,,,,,,,,,,,,,,,,,,
14.45.42.456,-65.6,16.4,0,,,93283.6,10.72,-0.48,0.7,0.44,-6.2,2.1,-3.1,36.26,,,,,,,,,,
14.45.42.466,-71.2,17.8,0,,,93283.6,10.72,-0.35,0.59,0.5,0.9,2.2,4.4,35.94,,,,,,,,,,
14.45.42.475,-69.0,17.2,0,,,93283.6,10.72,-0.46,0.67,0.61,-2.1,0.8,-7.2,36.42,,,,,,,,,,
14.45.42.484,-78.2,19.6,0,,,93283.6,10.72,-0.43,0.69,0.61,-7.7,7.0,1.0,36.32,,,,,,,,,,
14.45.42.492,-68.5,17.1,0,,,93283.6,10.72,-0.47,0.69,0.5,15.3,11.0,-3.2,36.42,,,,,,,,,,
14.45.42.501,-77.5,19.4,0,,,93283.6,10.72,-0.37,0.67,0.61,7.6,11.9,5.1,36.1,,,,,,,,,,
14.45.42.511,-89.8,22.4,0,,,93283.6,10.72,-0.47,0.78,0.48,7.6,9.6,9.5,36.42,,,,,,,,,,
14.45.42.524,-89.1,22.3,0,,,93283.6,10.72,-0.53,0.58,0.64,11.3,3.7,3.0,36.42,,,,,,,,,,
14.45.42.534,-102.7,25.7,0,,,93283.6,10.72,-0.4,0.8,0.56,-7.6,10.3,-6.9,36.11,,,,,,,,,,
14.45.42.546,-109.7,27.4,0,,,93283.6,10.72,-0.3,0.75,0.54,-2.8,5.3,5.3,36.0,,,,,,,,,,
14.45.42.558,-110.6,27.6,1,4.0,91.7,93283.6,10.72,-0.4,0.79,0.72,-2.5,5.9,-0.7,36.23,,,,,,,,,,
14.45.42.567,-131.7,32.9,0,,,93283.6,10.72,-0.44,0.67,0.62,7.7,-0.3,-4.7,36.24,,,,,,,,,,
14.45.42.577,-124.4,31.1,0,,,93283.6,10.72,-0.34,0.71,0.46,4.3,8.0,-8.8,36.19,,,,,,,,,,
14.45.42.587,-126.3,31.6,0,,,93283.6,10.72,-0.59,0.67,0.6,6.9,-12.4,-2.2,36.01,,,,,,,,,,
14.45.42.597,-117.1,29.3,0,,,93283.6,10.72,-0.38,0.71,0.46,-8.2,10.4,-4.2,36.23,,,,,,,,,,
14.45.42.606,27.1,6.8,0,,,93283.6,10.72,-0.46,0.57,0.51,8.2,4.4,5.6,36.3,,,,,,,,,,
14.45.42.615,66.2,16.6,0,,,93283.6,10.72,-0.54,0.58,0.43,-4.2,9.6,-9.3,36.17,,,,,,,,,,
14.45.42.624,107.9,27.0,0,,,93283.6,10.72,-0.56,0.62,0.63,6.0,12.4,-0.0,36.11,,,,,,,,,,
14.45.42.633,144.6,36.2,0,,,93283.6,10.72,-0.56,0.57,0.54,8.0,5.4,8.1,36.39,,,,,,,,,,
14.45.42.640,184.4,46.1,0,,,93283.6,10.72,-0.58,0.68,0.59,-0.3,1.3,-3.6,36.37,,,,,,,,,,
14.45.42.650,200.2,50.0,0,,,93283.6,10.72,-0.5,0.66,0.57,-1.8,0.2,-5.1,36.17,,,,,,,,,,
14.45.42.659,237.5,59.4,0,,,93283.6,10.72,-0.52,0.66,0.58,-6.0,11.6,-4.4,36.27,,,,,,,,,,
14.45.42.670,251.2,62.8,0,,,93283.6,10.72,-0.38,0.61,0.59,12.5,9.1,-3.8,36.34,,,,,,,,,,
14.45.42.678,283.1,70.8,0,,,93283.6,10.72,-0.44,0.58,0.56,-16.6,15.1,2.7,36.04,,,,,,,,,,
14.45.42.689,286.1,71.5,0,,,93283.6,10.72,-0.48,0.68,0.56,6.2,-3.8,7.6,36.06,,,,,,,,,,
14.45.42.699,313.9,78.5,0,,,93283.6,10.72,-0.43,0.85,0.64,-10.1,3.0,6.6,36.45,,,,,,,,,,
14.45.42.709,304.4,76.1,0,,,93283.6,10.72,-0.35,0.9,0.39,-7.5,2.6,-9.1,36.5,,,,,,,,,,
14.45.42.718,297.6,74.4,0,,,93283.6,10.72,-0.44,0.68,0.53,0.4,-0.8,-0.1,36.1,,,,,,,,,,
14.45.42.727,323.6,80.9,0,,,93283.6,10.72,-0.39,0.66,0.7,-2.0,4.4,-0.6,36.37,,,,,,,,,,
14.45.42.735,303.3,75.8,0,,,93283.6,10.72,-0.28,0.62,0.5,1.1,8.4,9.7,36.26,,,,,,,,,,
14.45.42.744,265.9,66.5,0,,,93283.6,10.72,-0.47,0.78,0.56,14.5,14.3,-2.9,36.25,,,,,,,,,,
14.45.42.754,291.0,72.8,0,,,93283.6,10.72,-0.41,0.63,0.56,5.0,-2.3,-3.2,36.29,,,,,,,,,,
14.45.42.764,233.4,58.4,0,,,93283.6,10.72,-0.37,0.58,0.69,-0.7,7.1,-3.3,36.12,,,,,,,,,,
14.45.42.773,209.9,52.5,0,,,93283.6,10.72,-0.5,0.66,0.58,-14.3,-2.2,-3.7,36.24,,,,,,,,,,
14.45.42.783,166.2,41.6,0,,,93283.6,10.72,-0.5,0.49,0.46,16.2,12.7,-7.9,36.0,,,,,,,,,,
14.45.42.795,148.1,37.0,0,,,93283.6,10.72,-0.48,0.65,0.54,20.6,0.4,-10.6,36.06,,,,,,,,,,
14.45.42.804,99.3,24.8,0,,,93283.6,10.72,-0.53,0.76,0.59,-0.9,-5.0,-5.4,36.04,,,,,,,,,,
14.45.42.812,57.5,14.4,0,,,93283.6,10.72,-0.42,0.72,0.55,-14.9,3.7,2.9,36.23,,,,,,,,,,
14.45.42.822,21.4,5.4,0,,,93283.6,10.72,-0.39,0.72,0.49,6.3,12.0,6.6,36.2,,,,,,,,,,
14.45.42.832,15.9,4.0,0,,,93283.6,10.72,-0.53,0.74,0.73,-0.3,24.7,-5.1,36.07,,,,,,,,,,
14.45.42.841,20.4,5.1,0,,,93283.6,10.72,-0.26,0.72,0.45,-11.9,1.2,-8.7,36.11,,,,,,,,,,
14.45.42.849,38.0,9.5,0,,,93283.6,10.72,-0.39,0.57,0.42,15.7,5.0,-2.3,36.1,,,,,,,,,,
14.45.42.858,38.0,9.5,0,,,93283.6,10.72,-0.4,0.61,0.46,24.7,1.1,1.2,36.43,,,,,,,,,,
14.45.42.869,50.9,12.7,0,,,93283.6,10.72,-0.48,0.74,0.6,2.9,9.5,-9.1,36.08,,,,,,,,,,
14.45.42.880,55.8,14.0,0,,,93283.6,10.72,-0.47,0.57,0.67,15.3,19.0,1.3,36.03,,,,,,,,,,
14.45.42.889,57.3,14.3,0,,,93283.6,10.72,-0.42,0.58,0.59,0.8,-0.5,1.8,36.18,,,,,,,,,,
14.45.42.901,61.5,15.4,0,,,93283.6,10.72,-0.39,0.78,0.41,12.6,-2.0,-0.7,36.3,,,,,,,,,,
14.45.42.909,56.4,14.1,0,,,93283.6,10.72,-0.48,0.72,0.61,-8.3,12.0,3.2,36.18,,,,,,,,,,
14.45.42.920,49.1,12.3,0,,,93283.6,10.72,-0.51,0.68,0.5,-25.2,11.9,-0.9,35.94,,,,,,,,,,
14.45.42.928,31.3,7.8,0,,,93283.6,10.72,-0.63,0.65,0.6,-6.5,4.9,1.0,36.37,,,,,,,,,,
14.45.42.938,8.4,2.1,0,,,93283.6,10.72,-0.46,0.74,0.52,0.6,3.2,-1.6,36.14,,,,,,,,,,
14.45.42.951,6.3,1.6,0,,,93283.6,10.72,-0.38,0.68,0.57,-0.2,8.9,-3.6,35.91,,,,,,,,,,
14.45.42.960,-2.7,0.7,0,,,93283.6,10.72,-0.53,0.83,0.58,-11.2,9.5,-1.2,36.18,,,,,,,,,,
14.45.42.967,-4.9,1.2,0,,,93283.6,10.72,-0.48,0.58,0.45,4.8,2.0,4.9,36.23,,,,,,,,,,
14.45.42.977,-7.3,1.8,0,,,93283.6,10.72,-0.34,0.71,0.73,0.3,9.6,-8.2,36.09,,,,,,,,,,
14.45.42.988,-22.0,5.5,0,,,93283.6,10.72,-0.41,0.59,0.55,5.5,5.7,-0.9,36.21,,,,,,,,,,
14.45.42.999,-13.9,3.5,0,,,93283.6,10.72,-0.44,0.58,0.6,-2.3,4.2,-7.2,36.33,,,,,,,,,,
14.45.43.009,-31.8,8.0,0,,,93283.6,10.72,-0.5,0.65,0.56,2.2,-4.7,0.2,36.19,,,,,,,,,,
14.45.43.019,-23.4,5.8,0,,,93283.6,10.72,-0.44,0.62,0.62,-3.6,14.0,-13.3,36.14,,,,,,,,,,
14.45.43.029,-39.1,9.8,0,,,93283.6,10.72,-0.44,0.76,0.56,-3.0,5.4,-4.9,36.23,,,,,,,,,,
14.45.43.039,-44.4,11.1,0,,,93283.6,10.72,-0.51,0.87,0.44,-3.8,0.6,-2.0,36.2,,,,,,,,,,
14.45.43.051,-41.1,10.3,0,,,93283.6,10.72,-0.46,0.79,0.58,-8.9,14.8,-0.6,36.11,,,,,,,,,,
14.45.43.060,-44.0,11.0,0,,,93283.6,10.72,-0.34,0.64,0.61,13.4,12.4,-8.1,36.06,,,,,,,,,,
14.45.43.070,-53.3,13.3,0,,,93283.6,10.72,-0.43,0.7,0.57,6.3,8.9,-0.6,36.29,,,,,,,,,,
14.45.43.080,-56.9,14.2,0,,,93283.6,10.72,-0.62,0.69,0.49,-19.9,7.6,2.2,36.35,,,,,,,,,,
14.45.43.090,-62.8,15.7,0,,,93283.6,10.72,-0.4,0.58,0.63,-1.4,0.7,1.2,36.19,,,,,,,,,,
14.45.43.102,-70.8,17.7,0,,,93283.6,10.72,-0.43,0.48,0.6,6.4,8.6,4.8,36.19,,,,,,,,,,
14.45.43.110,-61.8,15.4,0,,,93283.6,10.72,-0.43,0.63,0.53,3.7,8.1,-10.3,36.17,,,,,,,,,,
14.45.43.119,-67.0,16.8,0,,,93283.6,10.72,-0.41,0.56,0.63,-16.5,9.5,-7.9,36.09,,,,,,,,,,
14.45.43.130,-80.7,20.2,0,,,93283.6,10.72,-0.4,0.8,0.4,-4.9,9.7,-2.9,36.47,,,,,,,,,,
14.45.43.140,-75.9,19.0,0,,,93283.6,10.72,-0.46,0.71,0.37,-2.4,12.4,2.7,35.93,,,,,,,,,,
14.45.43.148,-80.3,20.1,0,,,93283.6,10.72,-0.49,0.53,0.47,-8.5,4.8,3.5,36.35,,,,,,,,,,
14.45.43.160,-94.3,23.6,0,,,93283.6,10.72,-0.46,0.6,0.61,15.8,11.3,6.1,36.22,,,,,,,,,,
14.45.43.169,-97.5,24.4,0,,,93283.6,10.72,-0.52,0.54,0.64,1.6,13.1,-1.3,36.12,,,,,,,,,,
14.45.43.178,-96.2,24.0,0,,,93283.6,10.72,-0.43,0.57,0.72,-8.1,3.7,-2.0,36.13,,,,,,,,,,
14.45.43.187,-100.9,25.2,0,,,93283.6,10.72,-0.44,0.62,0.48,-16.4,8.7,-5.1,36.31,,,,,,,,,,
14.45.43.195,-112.2,28.0,1,5.0,94.2,93283.6,10.72,-0.48,0.63,0.48,6.2,6.5,-5.2,36.17,,,,,,,,,,
14.45.43.203,-102.2,25.6,0,,,93283.6,10.72,-0.35,0.65,0.4,13.4,-0.2,9.3,36.05,,,,,,,,,,
14.45.43.213,-101.9,25.5,0,,,93283.6,10.72,-0.37,0.75,0.57,-3.6,-1.7,-6.4,36.13,,,,,,,,,,
14.45.43.223,-105.9,26.5,0,,,93283.6,10.72,-0.35,0.72,0.44,11.6,17.5,7.8,36.25,,,,,,,,,,
14.45.43.232,-122.1,30.5,0,,,93283.6,10.72,-0.36,0.83,0.55,-3.1,0.4,-0.5,36.32,,,,,,,,,,
14.45.43.243,-123.3,30.8,0,,,93283.6,10.72,-0.43,0.5,0.55,-0.3,13.9,-5.9,36.13,,,,,,,,,,
14.45.43.251,7.8,2.0,0,,,93283.6,10.72,-0.36,0.53,0.55,16.4,10.3,3.1,36.19,,,,,,,,,,
14.45.43.261,59.8,15.0,0,,,93283.6,10.72,-0.43,0.71,0.54,9.1,11.0,5.7,36.04,,,,,,,,,,
14.45.43.272,100.3,25.1,0,,,93283.6,10.72,-0.47,0.68,0.6,6.1,10.8,-5.5,36.27,,,,,,,,,,
14.45.43.283,153.5,38.4,0,,,93283.6,10.72,-0.38,0.73,0.59,13.4,-3.6,-2.1,36.26,,,,,,,,,,
14.45.43.291,192.9,48.2,0,,,93283.6,10.72,-0.3,0.84,0.58,-2.9,-0.6,3.5,36.17,,,,,,,,,,
14.45.43.300,223.3,55.8,0,,,93283.6,10.72,-0.42,0.5,0.63,-21.0,-4.6,-10.5,36.0,,,,,,,,,,
14.45.43.309,221.0,55.2,0,,,93283.6,10.72,-0.46,0.83,0.56,-6.9,6.9,-7.2,36.15,,,,,,,,,,
14.45.43.318,293.2,73.3,0,,,93283.6,10.72,-0.44,0.78,0.45,-2.7,12.1,-4.2,36.07,,,,,,,,,,
14.45.43.329,284.4,71.1,0,,,93283.6,10.72,-0.4,0.62,0.44,6.6,9.7,-10.1,36.37,,,,,,,,,,
14.45.43.339,291.2,72.8,0,,,93283.6,10.72,-0.38,0.57,0.59,2.4,-0.3,1.5,35.91,,,,,,,,,,
14.45.43.348,320.3,80.1,0,,,93283.6,10.72,-0.57,0.61,0.62,12.3,5.2,5.9,36.18,,,,,,,,,,
14.45.43.357,319.9,80.0,0,,,93283.6,10.72,-0.52,0.6,0.46,-7.4,-4.4,2.0,36.32,,,,,,,,,,
14.45.43.366,325.5,81.4,0,,,93283.6,10.72,-0.39,0.74,0.56,-3.4,7.8,2.7,36.1,,,,,,,,,,
14.45.43.375,307.9,77.0,0,,,93283.6,10.72,-0.57,0.62,0.62,1.0,12.2,-7.2,36.23,,,,,,,,,,
14.45.43.386,302.4,75.6,0,,,93283.6,10.72,-0.53,0.59,0.56,10.1,20.3,-0.9,36.39,,,,,,,,,,
14.45.43.396,277.9,69.5,0,,,93283.6,10.72,-0.26,0.66,0.73,17.2,0.4,1.8,36.33,,,,,,,,,,
14.45.43.406,260.6,65.2,0,,,93283.6,10.72,-0.49,0.98,0.43,-11.5,10.2,1.0,36.22,,,,,,,,,,
14.45.43.415,246.7,61.7,0,,,93283.6,10.72,-0.45,0.87,0.36,-5.5,5.2,1.5,36.41,,,,,,,,,,
14.45.43.426,208.7,52.2,0,,,93283.6,10.72,-0.54,0.59,0.58,-4.1,7.2,-8.1,36.48,,,,,,,,,,
14.45.43.436,188.8,47.2,0,,,93283.6,10.72,-0.58,0.51,0.6,-6.9,4.5,4.2,36.22,,,,,,,,,,
14.45.43.446,129.3,32.3,0,,,93283.6,10.72,-0.52,0.65,0.72,4.3,-5.8,1.5,36.1,,,,,,,,,,
14.45.43.455,87.3,21.8,0,,,93283.6,10.72,-0.51,0.68,0.59,-0.3,6.2,-4.1,36.16,,,,,,,,,,
14.45.43.466,41.5,10.4,0,,,93283.6,10.72,-0.47,0.67,0.53,-6.6,15.1,-8.6,35.93,,,,,,,,,,
14.45.43.475,5.4,1.4,0,,,93283.6,10.72,-0.53,0.53,0.41,9.7,5.7,1.9,36.32,,,,,,,,,,
14.45.43.486,16.3,4.1,0,,,93283.6,10.72,-0.54,0.64,0.47,-9.3,0.2,-3.0,36.2,,,,,,,,,,
14.45.43.496,27.3,6.8,0,,,93283.6,10.72,-0.28,0.64,0.56,5.7,1.6,-3.7,36.49,,,,,,,,,,
14.45.43.505,39.5,9.9,0,,,93283.6,10.72,-0.49,0.71,0.49,5.2,11.2,-2.5,36.29,,,,,,,,,,
14.45.43.513,47.4,11.8,0,,,93283.6,10.72,-0.45,0.63,0.51,2.3,14.6,-4.3,35.82,,,,,,,,,,
14.45.43.523,55.7,13.9,0,,,93283.6,10.72,-0.46,0.69,0.54,-1.6,8.8,-6.2,36.29,,,,,,,,,,
14.45.43.533,49.4,12.4,0,,,93283.6,10.72,-0.36,0.62,0.52,-4.7,13.0,-3.4,36.09,,,,,,,,,,
14.45.43.544,39.0,9.8,0,,,93283.6,10.72,-0.5,0.62,0.58,1.6,13.7,-5.8,36.36,,,,,,,,,,
14.45.43.556,60.0,15.0,0,,,93283.6,10.72,-0.28,0.57,0.49,-7.5,5.7,-5.4,36.34,,,,,,,,,,
14.45.43.565,44.7,11.2,0,,,93283.6,10.72,-0.5,0.45,0.55,-2.6,13.8,-15.1,36.29,,,,,,,,,,
14.45.43.575,40.9,10.2,0,,,93283.6,10.72,-0.46,0.64,0.54,11.0,10.0,-9.5,36.46,,,,,,,,,,
14.45.43.586,26.9,6.7,0,,,93283.6,10.72,-0.39,0.68,0.42,7.2,14.6,4.5,36.35,,,,,,,,,,
14.45.43.595,16.8,4.2,0,,,93283.6,10.72,-0.56,0.73,0.59,-11.9,8.0,3.3,36.03,,,,,,,,,,
14.45.43.605,1.0,0.2,0,,,93283.6,10.72,-0.46,0.68,0.73,-6.2,11.1,2.7,36.23,,,,,,,,,,
14.45.43.614,-15.5,3.9,0,,,93283.6,10.72,-0.43,0.83,0.5,-13.5,8.4,-0.6,36.07,,,,,,,,,,
14.45.43.624,-18.7,4.7,0,,,93283.6,10.72,-0.51,0.71,0.62,0.2,16.1,3.5,36.01,,,,,,,,,,
14.45.43.635,-8.7,2.2,0,,,93283.6,10.72,-0.49,0.54,0.64,6.5,0.2,-8.7,36.0,,,,,,,,,,
14.45.43.645,-14.4,3.6,0,,,93283.6,10.72,-0.52,0.62,0.48,-15.0,2.9,-0.5,36.41,,,,,,,,,,
14.45.43.654,-11.2,2.8,0,,,93283.6,10.72,-0.4,0.51,0.47,-14.3,8.1,2.2,36.0,,,,,,,,,,
14.45.43.664,-15.8,4.0,0,,,93283.6,10.72,-0.47,0.39,0.54,-4.4,16.3,-2.6,36.19,,,,,,,,,,
14.45.43.675,-34.8,8.7,0,,,93370.7,10.71,-0.41,0.7,0.61,4.0,-0.3,5.1,36.13,,,,,,,,,,
14.45.43.686,-22.4,5.6,0,,,93370.7,10.71,-0.39,0.65,0.59,18.5,-0.2,-8.2,36.18,,,,,,,,,,
14.45.43.698,-40.3,10.1,0,,,93370.7,10.71,-0.31,0.76,0.55,3.2,6.8,8.8,36.15,,,,,,,,,,
14.45.43.708,-41.6,10.4,0,,,93370.7,10.71,-0.49,0.78,0.6,5.3,4.4,1.4,36.2,,,,,,,,,,
14.45.43.717,-45.0,11.2,0,,,93370.7,10.71,-0.49,0.59,0.61,11.9,-1.9,6.4,36.38,,,,,,,,,,
14.45.43.724,-55.6,13.9,0,,,93370.7,10.71,-0.44,0.74,0.53,15.0,-5.3,-6.7,35.97,,,,,,,,,,
14.45.43.732,-54.6,13.6,0,,,93370.7,10.71,-0.44,0.68,0.64,7.9,8.1,-0.6,36.43,,,,,,,,,,
14.45.43.743,-64.5,16.1,0,,,93370.7,10.71,-0.46,0.77,0.59,-6.4,-0.5,-9.5,36.15,,,,,,,,,,
14.45.43.754,-65.9,16.5,0,,,93370.7,10.71,-0.44,0.73,0.48,-9.3,5.0,2.1,36.29,,,,,,,,,,
14.45.43.764,-68.2,17.0,0,,,93370.7,10.71,-0.45,0.64,0.6,3.7,-5.0,-4.9,36.34,,,,,,,,,,
14.45.43.773,-71.7,17.9,0,,,93370.7,10.71,-0.44,0.63,0.56,-1.8,12.3,-2.0,36.4,,,,,,,,,,
14.45.43.784,-93.1,23.3,0,,,93370.7,10.71,-0.46,0.68,0.59,4.8,16.4,-4.8,36.03,,,,,,,,,,
14.45.43.795,-85.4,21.4,0,,,93370.7,10.71,-0.47,0.72,0.55,7.9,4.6,6.6,36.14,,,,,,,,,,
14.45.43.806,-89.7,22.4,0,,,93370.7,10.71,-0.39,0.66,0.56,-9.9,-9.7,-5.3,36.4,,,,,,,,,,
14.45.43.816,-95.5,23.9,0,,,93370.7,10.71,-0.4,0.65,0.48,9.3,3.2,0.7,36.45,,,,,,,,,,
14.45.43.826,-92.9,23.2,0,,,93370.7,10.71,-0.5,0.71,0.62,5.0,9.0,4.3,35.91,,,,,,,,,,
14.45.43.836,-99.3,24.8,1,6.0,93.6,93370.7,10.71,-0.46,0.76,0.47,15.5,-6.4,-10.0,36.2,,,,,,,,,,
14.45.43.846,-109.0,27.2,0,,,93370.7,10.71,-0.57,0.59,0.56,6.4,2.2,-2.3,36.08,,,,,,,,,,
14.45.43.854,-106.0,26.5,0,,,93370.7,10.71,-0.48,0.65,0.5,-6.6,3.5,6.4,36.33,,,,,,,,,,
14.45.43.863,-120.7,30.2,0,,,93370.7,10.71,-0.4,0.55,0.56,9.9,19.7,-2.6,36.13,,,,,,,,,,
14.45.43.873,-123.6,30.9,0,,,93370.7,10.71,-0.48,0.7,0.59,-1.9,18.3,-3.6,36.25,,,,,,,,,,
14.45.43.882,-120.7,30.2,0,,,93370.7,10.71,-0.54,0.66,0.51,3.0,5.5,0.6,36.11,,,,,,,,,,
14.45.43.890,-117.2,29.3,0,,,93370.7,10.71,-0.39,0.64,0.62,-4.4,1.4,11.2,36.3,,,,,,,,,,
14.45.43.899,5.0,1.2,0,,,93370.7,10.71,-0.39,0.73,0.45,12.8,6.7,-14.9,36.35,,,,,,,,,,
14.45.43.908,49.8,12.4,0,,,93370.7,10.71,-0.34,0.62,0.57,6.8,1.3,-2.4,36.44,,,,,,,,,,
14.45.43.918,90.1,22.5,0,,,93370.7,10.71,-0.48,0.75,0.61,-3.2,8.7,-5.4,36.06,,,,,,,,,,
14.45.43.928,134.5,33.6,0,,,93370.7,10.71,-0.43,0.63,0.53,9.4,8.6,-1.7,36.24,,,,,,,,,,
14.45.43.938,175.0,43.8,0,,,93370.7,10.71,-0.51,0.53,0.6,14.7,7.1,-1.3,36.48,,,,,,,,,,
14.45.43.947,219.4,54.8,0,,,93370.7,10.71,-0.5,0.68,0.62,-0.6,10.0,-0.8,36.37,,,,,,,,,,
14.45.43.957,224.0,56.0,0,,,93370.7,10.71,-0.4,0.6,0.52,6.7,0.1,7.9,36.41,,,,,,,,,,
14.45.43.967,248.4,62.1,0,,,93370.7,10.71,-0.49,0.79,0.45,13.5,5.9,-2.8,35.88,,,,,,,,,,
14.45.43.979,288.1,72.0,0,,,93370.7,10.71,-0.56,0.8,0.74,-4.8,-0.3,7.2,36.12,,,,,,,,,,
14.45.43.989,330.7,82.7,0,,,93370.7,10.71,-0.49,0.55,0.52,3.5,-1.8,2.5,36.18,,,,,,,,,,
14.45.43.998,326.8,81.7,0,,,93370.7,10.71,-0.48,0.78,0.74,-9.1,-4.2,-10.9,36.18,,,,,,,,,,
14.45.44.008,329.8,82.4,0,,,93370.7,10.71,-0.4,0.59,0.4,-3.8,18.1,-0.7,36.34,,,,,,,,,,
14.45.44.016,299.8,75.0,0,,,93370.7,10.71,-0.42,0.64,0.62,14.7,7.8,3.5,36.27,,,,,,,,,,
14.45.44.025,329.7,82.4,0,,,93370.7,10.71,-0.44,0.7,0.43,3.7,5.6,-3.3,36.2,,,,,,,,,,
14.45.44.036,293.5,73.4,0,,,93370.7,10.71,-0.37,0.64,0.69,7.6,10.6,3.0,36.33,,,,,,,,,,
14.45.44.049,265.1,66.3,0,,,93370.7,10.71,-0.55,0.66,0.52,9.1,9.8,-0.2,36.24,,,,,,,,,,
14.45.44.058,241.4,60.4,0,,,93370.7,10.71,-0.46,0.71,0.51,-0.1,1.7,-4.4,36.51,,,,,,,,,,
14.45.44.067,236.7,59.2,0,,,93370.7,10.71,-0.44,0.58,0.6,-7.0,3.5,-11.7,36.12,,,,,,,,,,
14.45.44.077,183.7,45.9,0,,,93370.7,10.71,-0.38,0.67,0.59,0.6,10.7,-10.8,36.04,,,,,,,,,,
14.45.44.087,166.7,41.7,0,,,93370.7,10.71,-0.52,0.69,0.49,8.5,-0.4,1.1,36.16,,,,,,,,,,
14.45.44.096,131.2,32.8,0,,,93370.7,10.71,-0.39,1.06,0.51,-2.3,13.7,7.3,35.96,,,,,,,,,,
14.45.44.107,75.8,19.0,0,,,93370.7,10.71,-0.53,0.57,0.47,6.0,2.7,-4.1,36.3,,,,,,,,,,
14.45.44.117,39.2,9.8,0,,,93370.7,10.71,-0.47,0.59,0.56,9.4,3.1,-3.5,36.18,,,,,,,,,,
14.45.44.126,-3.0,0.8,0,,,93370.7,10.71,-0.36,0.72,0.81,18.6,1.8,-4.0,36.05,,,,,,,,,,
14.45.44.135,15.9,4.0,0,,,93370.7,10.71,-0.4,0.68,0.44,3.0,10.3,9.2,36.13,,,,,,,,,,
14.45.44.146,35.2,8.8,0,,,93370.7,10.71,-0.63,0.81,0.7,14.8,2.8,-3.0,36.3,,,,,,,,,,
14.45.44.156,35.7,8.9,0,,,93370.7,10.71,-0.6,0.62,0.6,-8.9,8.1,4.2,36.11,,,,,,,,,,
14.45.44.166,46.0,11.5,0,,,93370.7,10.71,-0.24,0.76,0.61,6.5,3.7,-3.0,36.29,,,,,,,,,,
14.45.44.174,53.7,13.4,0,,,93370.7,10.71,-0.39,0.6,0.45,-3.6,6.9,0.6,36.22,,,,,,,,,,
14.45.44.183,64.8,16.2,0,,,93370.7,10.71,-0.38,0.51,0.7,2.4,-3.6,-7.8,36.16,,,,,,,,,,
14.45.44.192,59.4,14.8,0,,,93370.7,10.71,-0.52,0.66,0.55,1.9,2.1,-6.6,35.9,,,,,,,,,,
14.45.44.201,63.2,15.8,0,,,93370.7,10.71,-0.46,0.53,0.53,-8.0,0.2,-9.0,36.18,,,,,,,,,,
14.45.44.211,54.7,13.7,0,,,93370.7,10.71,-0.47,0.63,0.69,-3.3,7.7,-1.9,35.98,,,,,,,,,,
14.45.44.220,49.8,12.4,0,,,93370.7,10.71,-0.44,0.65,0.57,5.2,13.1,-4.2,36.28,,,,,,,,,,
14.45.44.228,37.3,9.3,0,,,93370.7,10.71,-0.46,0.77,0.45,5.0,7.1,-11.7,36.0,,,,,,,,,,
14.45.44.238,30.5,7.6,0,,,93370.7,10.71,-0.54,0.58,0.59,-0.4,4.6,-0.4,36.37,,,,,,,,,,
14.45.44.246,17.5,4.4,0,,,93370.7,10.71,-0.48,0.76,0.51,-3.5,15.6,9.7,36.05,,,,,,,,,,
14.45.44.258,-5.2,1.3,0,,,93370.7,10.71,-0.37,0.64,0.4,-5.2,14.5,-6.6,36.11,,,,,,,,,,
14.45.44.268,-6.5,1.6,0,,,93370.7,10.71,-0.56,0.61,0.51,1.1,4.0,0.0,36.21,,,,,,,,,,
14.45.44.278,-12.0,3.0,0,,,93370.7,10.71,-0.45,0.82,0.55,4.4,3.4,-5.2,36.32,,,,,,,,,,
14.45.44.286,-14.7,3.7,0,,,93370.7,10.71,-0.46,0.81,0.68,3.9,9.7,-3.8,36.27,,,,,,,,,,
14.45.44.295,-12.7,3.2,0,,,93370.7,10.71,-0.43,0.77,0.49,-1.9,4.0,11.7,36.39,,,,,,,,,,
14.45.44.305,-24.7,6.2,0,,,93370.7,10.71,-0.41,0.59,0.45,8.3,6.6,5.9,36.21,,,,,,,,,,
14.45.44.314,-23.2,5.8,0,,,93370.7,10.71,-0.51,0.71,0.61,9.1,9.8,5.4,36.25,,,,,,,,,,
14.45.44.324,-26.4,6.6,0,,,93370.7,10.71,-0.39,0.68,0.6,-5.6,6.3,14.1,36.16,,,,,,,,,,
14.45.44.334,-33.5,8.4,0,,,93370.7,10.71,-0.43,0.58,0.6,3.8,22.0,-2.3,36.36,,,,,,,,,,
14.45.44.343,-40.3,10.1,0,,,93370.7,10.71,-0.54,0.65,0.62,-10.8,4.7,5.9,36.06,,,,,,,,,,
14.45.44.353,-45.6,11.4,0,,,93370.7,10.71,-0.4,0.77,0.56,10.4,4.7,-0.2,36.09,,,,,,,,,,
14.45.44.361,-41.8,10.4,0,,,93370.7,10.71,-0.45,0.64,0.54,-18.2,4.1,-2.0,36.21,,,,,,,,,,
14.45.44.371,-53.1,13.3,0,,,93370.7,10.71,-0.54,0.62,0.68,-15.5,-5.9,8.8,36.19,,,,,,,,,,
14.45.44.382,-66.6,16.6,0,,,93370.7,10.71,-0.45,0.87,0.51,-1.5,17.1,0.9,36.31,,,,,,,,,,
14.45.44.391,-50.4,12.6,0,,,93370.7,10.71,-0.46,0.68,0.52,11.3,3.2,7.9,35.94,,,,,,,,,,
14.45.44.401,-61.8,15.4,0,,,93370.7,10.71,-0.37,0.76,0.59,7.4,5.3,14.5,36.08,,,,,,,,,,
14.45.44.411,-69.2,17.3,0,,,93370.7,10.71,-0.49,0.58,0.65,-10.6,5.8,-6.3,36.08,,,,,,,,,,
14.45.44.420,-69.0,17.2,0,,,93370.7,10.71,-0.42,0.68,0.66,12.9,13.4,-13.8,36.27,,,,,,,,,,
14.45.44.431,-78.3,19.6,0,,,93370.7,10.71,-0.33,0.7,0.6,0.3,25.0,4.5,36.23,,,,,,,,,,
14.45.44.440,-74.4,18.6,0,,,93370.7,10.71,-0.42,0.77,0.42,-5.4,-10.6,10.1,36.14,,,,,,,,,,
14.45.44.451,-87.2,21.8,0,,,93370.7,10.71,-0.55,0.55,0.64,-2.9,10.0,8.3,36.21,,,,,,,,,,
14.45.44.461,-90.0,22.5,0,,,93370.7,10.71,-0.47,0.7,0.45,-12.7,-1.5,-5.4,36.21,,,,,,,,,,
14.45.44.471,-92.6,23.2,1,7.0,94.5,93370.7,10.71,-0.53,0.66,0.57,-8.3,4.3,-1.9,36.32,,,,,,,,,,
14.45.44.481,-102.1,25.5,0,,,93370.7,10.71,-0.41,0.64,0.51,7.9,9.4,-1.0,36.23,,,,,,,,,,
14.45.44.488,-95.4,23.8,0,,,93370.7,10.71,-0.54,0.47,0.49,-12.3,11.6,-5.2,36.31,,,,,,,,,,
14.45.44.496,-101.0,25.2,0,,,93370.7,10.71,-0.36,0.76,0.53,-5.0,1.9,-1.5,36.19,,,,,,,,,,
14.45.44.506,-104.8,26.2,0,,,93370.7,10.71,-0.45,0.71,0.51,7.8,6.3,-4.1,36.3,,,,,,,,,,
14.45.44.517,-115.4,28.8,0,,,93370.7,10.71,-0.48,0.73,0.57,13.4,2.8,3.6,36.15,,,,,,,,,,
14.45.44.527,-114.9,28.7,0,,,93370.7,10.71,-0.42,0.55,0.49,5.8,13.2,5.0,36.03,,,,,,,,,,
14.45.44.536,-113.4,28.4,0,,,93370.7,10.71,-0.51,0.83,0.55,-5.3,5.4,-0.5,35.95,,,,,,,,,,
14.45.44.546,-125.9,31.5,0,,,93370.7,10.71,-0.46,0.63,0.57,4.1,8.2,-8.2,36.06,,,,,,,,,,
14.45.44.554,38.3,9.6,0,,,93370.7,10.71,-0.41,0.54,0.59,-2.9,-5.3,-2.3,36.22,,,,,,,,,,
14.45.44.565,72.8,18.2,0,,,93370.7,10.71,-0.44,0.56,0.62,-0.4,4.2,-13.6,36.1,,,,,,,,,,
14.45.44.574,108.4,27.1,0,,,93370.7,10.71,-0.5,0.69,0.46,3.4,14.7,6.7,36.18,,,,,,,,,,
14.45.44.585,143.3,35.8,0,,,93370.7,10.71,-0.43,0.52,0.56,2.6,8.6,6.5,35.99,,,,,,,,,,
14.45.44.595,199.1,49.8,0,,,93370.7,10.71,-0.54,0.52,0.58,-10.1,11.8,3.8,36.36,,,,,,,,,,
14.45.44.605,227.8,57.0,0,,,93370.7,10.71,-0.31,0.67,0.49,-9.6,10.4,2.7,36.18,,,,,,,,,,
14.45.44.613,232.7,58.2,0,,,93370.7,10.71,-0.39,0.67,0.39,3.0,8.2,-9.1,36.0,,,,,,,,,,
14.45.44.622,264.2,66.0,0,,,93370.7,10.71,-0.43,0.66,0.54,3.9,2.5,3.5,36.11,,,,,,,,,,
14.45.44.632,310.5,77.6,0,,,93370.7,10.71,-0.49,0.65,0.48,14.4,-0.1,-1.1,36.25,,,,,,,,,,
14.45.44.642,297.0,74.2,0,,,93370.7,10.71,-0.46,0.64,0.43,-10.3,17.1,9.6,36.06,,,,,,,,,,
14.45.44.650,327.2,81.8,0,,,93370.7,10.71,-0.35,0.6,0.58,6.2,13.0,-0.2,36.35,,,,,,,,,,
14.45.44.660,344.3,86.1,0,,,93370.7,10.71,-0.46,0.58,0.56,-9.1,8.3,-3.1,36.48,,,,,,,,,,
14.45.44.671,314.8,78.7,0,,,93370.7,10.71,-0.47,0.57,0.45,4.8,11.7,-9.9,36.44,,,,,,,,,,
14.45.44.680,292.2,73.0,0,,,93370.7,10.71,-0.39,0.58,0.67,6.3,9.2,-1.3,36.34,,,,,,,,,,
14.45.44.690,308.4,77.1,0,,,93370.7,10.71,-0.46,0.63,0.5,-5.4,16.0,-2.7,36.17,,,,,,,,,,
14.45.44.699,297.0,74.2,0,,,93370.7,10.71,-0.33,0.69,0.71,7.2,-1.3,-2.6,36.11,,,,,,,,,,
14.45.44.708,236.3,59.1,0,,,93370.7,10.71,-0.37,0.69,0.59,2.9,9.6,9.2,36.16,,,,,,,,,,
14.45.44.719,227.1,56.8,0,,,93370.7,10.71,-0.42,0.77,0.47,-11.4,8.9,-4.1,36.57,,,,,,,,,,
14.45.44.727,190.5,47.6,0,,,93457.9,10.7,-0.48,0.57,0.56,3.4,-1.4,3.5,36.02,,,,,,,,,,
14.45.44.736,164.9,41.2,0,,,93457.9,10.7,-0.49,0.71,0.47,2.1,7.3,-6.6,36.11,,,,,,,,,,
14.45.44.747,128.0,32.0,0,,,93457.9,10.7,-0.39,0.63,0.59,10.6,-11.8,4.8,35.98,,,,,,,,,,
14.45.44.757,93.0,23.2,0,,,93457.9,10.7,-0.4,0.63,0.46,-3.7,8.0,-3.3,36.23,,,,,,,,,,
14.45.44.765,48.3,12.1,0,,,93457.9,10.7,-0.24,0.78,0.75,-19.1,-2.1,5.0,36.24,,,,,,,,,,
14.45.44.774,0.5,0.1,0,,,93457.9,10.7,-0.49,0.67,0.57,2.4,1.7,-5.5,36.39,,,,,,,,,,
14.45.44.783,11.5,2.9,0,,,93457.9,10.7,-0.56,0.65,0.43,-1.7,-4.4,0.2,36.15,,,,,,,,,,
14.45.44.793,19.1,4.8,0,,,93457.9,10.7,-0.51,0.66,0.66,-9.3,-2.7,-1.9,36.02,,,,,,,,,,
14.45.44.801,30.0,7.5,0,,,93457.9,10.7,-0.5,0.58,0.43,1.4,7.0,8.1,36.33,,,,,,,,,,
14.45.44.810,42.7,10.7,0,,,93457.9,10.7,-0.41,0.65,0.58,5.0,9.9,0.5,36.16,,,,,,,,,,
14.45.44.822,51.2,12.8,0,,,93457.9,10.7,-0.47,0.53,0.55,-1.4,6.4,-6.3,36.14,,,,,,,,,,
14.45.44.832,65.7,16.4,0,,,93457.9,10.7,-0.5,0.8,0.4,-0.4,3.6,-2.1,36.0,,,,,,,,,,
14.45.44.843,61.9,15.5,0,,,93457.9,10.7,-0.48,0.85,0.51,-2.7,0.7,-3.9,36.34,,,,,,,,,,
14.45.44.852,57.1,14.3,0,,,93457.9,10.7,-0.38,0.8,0.53,-0.1,17.6,-5.1,35.98,,,,,,,,,,
14.45.44.861,48.7,12.2,0,,,93457.9,10.7,-0.37,0.61,0.52,0.6,-2.6,1.3,35.93,,,,,,,,,,
14.45.44.871,41.7,10.4,0,,,93457.9,10.7,-0.41,0.57,0.57,9.4,8.2,-10.8,36.15,,,,,,,,,,
14.45.44.880,33.6,8.4,0,,,93457.9,10.7,-0.34,0.75,0.63,-13.4,1.5,-3.4,36.14,,,,,,,,,,
14.45.44.889,16.5,4.1,0,,,93457.9,10.7,-0.32,0.87,0.57,-8.8,9.5,-0.9,36.11,,,,,,,,,,
14.45.44.898,12.1,3.0,0,,,93457.9,10.7,-0.55,0.51,0.59,-3.0,-8.5,-0.3,36.11,,,,,,,,,,
14.45.44.909,-6.8,1.7,0,,,93457.9,10.7,-0.42,0.75,0.59,-16.7,12.4,-6.5,36.38,,,,,,,,,,
14.45.44.917,-4.9,1.2,0,,,93457.9,10.7,-0.3,0.62,0.6,-2.6,-3.2,2.7,36.23,,,,,,,,,,
14.45.44.925,-17.8,4.4,0,,,93457.9,10.7,-0.38,0.63,0.7,3.0,14.0,-3.1,36.05,,,,,,,,,,
14.45.44.932,-13.3,3.3,0,,,93457.9,10.7,-0.45,0.59,0.56,15.7,13.9,-11.7,36.08,,,,,,,,,,
14.45.44.941,-16.5,4.1,0,,,93457.9,10.7,-0.51,0.59,0.44,9.6,-0.5,2.7,36.08,,,,,,,,,,
14.45.44.950,-21.0,5.2,0,,,93457.9,10.7,-0.52,0.69,0.43,-12.2,1.7,-6.5,36.13,,,,,,,,,,
14.45.44.962,-21.3,5.3,0,,,93457.9,10.7,-0.41,0.66,0.51,3.4,17.1,5.4,36.06,,,,,,,,,,
14.45.44.973,-27.2,6.8,0,,,93457.9,10.7,-0.39,0.83,0.52,6.8,11.9,-5.0,36.08,,,,,,,,,,
14.45.44.983,-41.5,10.4,0,,,93457.9,10.7,-0.44,0.78,0.52,-4.0,11.6,-1.1,36.54,,,,,,,,,,
14.45.44.992,-45.6,11.4,0,,,93457.9,10.7,-0.51,0.77,0.5,-2.0,4.2,3.6,36.11,,,,,,,,,,
14.45.45.003,-41.6,10.4,0,,,93457.9,10.7,-0.46,0.63,0.5,-8.4,2.1,-2.2,36.17,92.1,,,,,,,,,
14.45.45.010,-43.3,10.8,0,,,93457.9,10.7,-0.65,0.67,0.63,9.5,-1.2,-3.0,36.21,,,,,,,,,,
14.45.45.020,-54.6,13.6,0,,,93457.9,10.7,-0.32,0.67,0.52,11.0,7.1,6.0,36.14,,,,,,,,,,
14.45.45.031,-57.7,14.4,0,,,93457.9,10.7,-0.6,0.66,0.4,-0.6,8.0,-8.0,36.26,,,,,,,,,,
14.45.45.041,-72.6,18.2,0,,,93457.9,10.7,-0.39,0.81,0.46,15.9,1.9,-3.7,36.44,,,,,,,,,,
14.45.45.049,-60.4,15.1,0,,,93457.9,10.7,-0.32,0.61,0.67,-9.5,12.8,-2.7,36.34,,,,,,,,,,
14.45.45.057,-62.3,15.6,0,,,93457.9,10.7,-0.59,0.72,0.6,4.0,7.0,2.8,36.25,,,,,,,,,,
14.45.45.066,-74.3,18.6,0,,,93457.9,10.7,-0.48,0.65,0.59,-6.5,9.8,-2.3,36.1,,,,,,,,,,
14.45.45.076,-73.4,18.4,0,,,93457.9,10.7,-0.32,0.53,0.52,-0.1,7.0,0.5,36.32,,,,,,,,,,
14.45.45.085,-78.1,19.5,0,,,93457.9,10.7,-0.35,0.53,0.65,-2.2,2.6,-3.0,36.06,,,,,,,,,,
14.45.45.095,-75.3,18.8,1,8.0,96.2,93457.9,10.7,-0.41,0.82,0.51,-21.0,-0.1,3.4,35.96,,,,,,,,,,
14.45.45.106,-87.0,21.8,0,,,93457.9,10.7,-0.56,0.72,0.52,-11.4,3.9,-1.2,36.12,,,,,,,,,,
14.45.45.115,-93.6,23.4,0,,,93457.9,10.7,-0.44,0.71,0.42,-3.9,15.9,0.3,36.32,,,,,,,,,,
14.45.45.126,-97.6,24.4,0,,,93457.9,10.7,-0.44,0.6,0.53,-12.3,-0.2,-0.5,36.09,,,,,,,,,,
14.45.45.136,-110.4,27.6,0,,,93457.9,10.7,-0.44,0.83,0.56,4.6,-1.0,2.4,36.26,,,,,,,,,,
14.45.45.145,-101.2,25.3,0,,,93457.9,10.7,-0.56,0.72,0.46,-11.0,4.1,-10.3,36.29,,,,,,,,,,
14.45.45.157,-114.8,28.7,0,,,93457.9,10.7,-0.47,0.65,0.38,3.3,0.6,-6.7,36.32,,,,,,,,,,
14.45.45.169,-120.7,30.2,0,,,93457.9,10.7,-0.39,0.59,0.58,16.3,-1.5,-7.8,36.44,,,,,,,,,,
14.45.45.179,-118.2,29.6,0,,,93457.9,10.7,-0.42,0.69,0.53,-1.1,3.5,-6.0,36.28,,,,,,,,,,
14.45.45.189,-122.0,30.5,0,,,93457.9,10.7,-0.48,0.57,0.68,1.4,-8.8,-11.1,36.15,,,,,,,,,,
14.45.45.200,-0.8,0.2,0,,,93457.9,10.7,-0.4,0.73,0.58,0.8,7.6,0.2,36.19,,,,,,,,,,
14.45.45.211,56.2,14.0,0,,,93457.9,10.7,-0.44,0.62,0.44,-7.3,5.6,3.7,36.25,,,,,,,,,,
14.45.45.223,123.0,30.8,0,,,93457.9,10.7,-0.44,0.84,0.49,13.8,15.3,-3.5,36.39,,,,,,,,,,
14.45.45.234,151.6,37.9,0,,,93457.9,10.7,-0.35,0.73,0.54,-18.6,5.9,-6.8,36.17,,,,,,,,,,
14.45.45.243,180.5,45.1,0,,,93457.9,10.7,-0.4,0.59,0.52,-0.5,-0.7,-12.3,36.03,,,,,,,,,,
14.45.45.252,236.0,59.0,0,,,93457.9,10.7,-0.38,0.59,0.63,-0.1,4.6,-1.6,36.3,,,,,,,,,,
14.45.45.263,246.4,61.6,0,,,93457.9,10.7,-0.41,0.73,0.5,-0.6,6.4,5.8,36.32,,,,,,,,,,
14.45.45.271,254.8,63.7,0,,,93457.9,10.7,-0.45,0.73,0.56,-0.5,15.9,5.5,36.2,,,,,,,,,,
14.45.45.280,272.9,68.2,0,,,93457.9,10.7,-0.35,0.58,0.52,3.1,5.0,-7.5,36.33,,,,,,,,,,
14.45.45.289,334.7,83.7,0,,,93457.9,10.7,-0.39,0.72,0.58,-4.4,8.1,-10.3,36.07,,,,,,,,,,
14.45.45.299,300.1,75.0,0,,,93457.9,10.7,-0.54,0.52,0.45,2.1,14.7,-9.9,36.35,,,,,,,,,,
14.45.45.310,308.7,77.2,0,,,93457.9,10.7,-0.41,0.56,0.52,5.2,2.9,-2.7,35.88,,,,,,,,,,
14.45.45.321,330.0,82.5,0,,,93457.9,10.7,-0.63,0.67,0.6,-5.4,-2.5,6.2,35.91,,,,,,,,,,
14.45.45.336,311.6,77.9,0,,,93457.9,10.7,-0.53,0.75,0.54,4.0,11.7,6.0,36.11,,,,,,,,,,
14.45.45.344,308.9,77.2,0,,,93457.9,10.7,-0.42,0.83,0.6,1.8,11.6,3.2,36.3,,,,,,,,,,
14.45.45.354,266.2,66.6,0,,,93457.9,10.7,-0.42,0.62,0.6,12.5,13.9,4.6,36.32,,,,,,,,,,
14.45.45.364,262.6,65.6,0,,,93457.9,10.7,-0.29,0.65,0.61,8.8,-6.6,-11.8,36.3,,,,,,,,,,
14.45.45.374,217.0,54.2,0,,,93457.9,10.7,-0.28,0.5,0.65,7.2,11.9,0.1,36.25,,,,,,,,,,
14.45.45.384,173.7,43.4,0,,,93545.4,10.69,-0.4,0.64,0.49,3.7,9.8,-6.9,36.37,,,,,,,,,,
14.45.45.392,150.1,37.5,0,,,93545.4,10.69,-0.4,0.51,0.54,1.2,-1.5,5.9,36.24,,,,,,,,,,
14.45.45.400,100.2,25.0,0,,,93545.4,10.69,-0.37,0.65,0.5,-9.2,9.1,-14.2,36.07,,,,,,,,,,
14.45.45.409,58.5,14.6,0,,,93545.4,10.69,-0.38,0.59,0.52,9.8,13.1,4.2,36.27,,,,,,,,,,
14.45.45.419,22.5,5.6,0,,,93545.4,10.69,-0.39,0.68,0.57,-0.9,4.8,12.0,36.29,,,,,,,,,,
14.45.45.431,13.4,3.4,0,,,93545.4,10.69,-0.53,0.65,0.62,7.3,3.6,-1.8,36.37,,,,,,,,,,
14.45.45.441,27.9,7.0,0,,,93545.4,10.69,-0.57,0.74,0.66,10.2,6.6,-16.3,36.2,,,,,,,,,,
14.45.45.451,40.6,10.2,0,,,93545.4,10.69,-0.4,0.75,0.57,6.0,9.4,-14.6,36.21,,,,,,,,,,
14.45.45.461,41.9,10.5,0,,,93545.4,10.69,-0.64,0.64,0.55,-0.4,13.1,7.4,36.03,,,,,,,,,,
14.45.45.469,50.5,12.6,0,,,93545.4,10.69,-0.49,0.84,0.43,7.9,3.9,-5.4,36.48,,,,,,,,,,
14.45.45.479,55.1,13.8,0,,,93545.4,10.69,-0.46,0.8,0.56,15.3,8.0,6.2,36.03,,,,,,,,,,
14.45.45.487,51.0,12.8,0,,,93545.4,10.69,-0.44,0.61,0.52,6.1,2.9,-1.1,36.14,,,,,,,,,,
14.45.45.497,54.0,13.5,0,,,93545.4,10.69,-0.45,0.75,0.51,0.6,15.1,-2.6,36.21,,,,,,,,,,
14.45.45.506,53.2,13.3,0,,,93545.4,10.69,-0.42,0.75,0.57,4.0,2.5,8.2,36.36,,,,,,,,,,
14.45.45.514,50.3,12.6,0,,,93545.4,10.69,-0.43,0.53,0.56,-2.2,9.7,-6.8,35.94,,,,,,,,,,
14.45.45.525,43.4,10.8,0,,,93545.4,10.69,-0.37,0.68,0.51,-0.4,-0.5,-0.8,36.23,,,,,,,,,,
14.45.45.536,22.0,5.5,0,,,93545.4,10.69,-0.57,0.63,0.57,-4.0,1.6,-3.4,36.14,,,,,,,,,,
14.45.45.547,0.0,0.0,0,,,93545.4,10.69,-0.44,0.73,0.54,-5.7,8.3,6.2,36.39,,,,,,,,,,
14.45.45.556,-5.7,1.4,0,,,93545.4,10.69,-0.44,0.6,0.61,2.9,6.8,0.4,36.2,,,,,,,,,,
14.45.45.566,-9.5,2.4,0,,,93545.4,10.69,-0.37,0.65,0.51,-1.5,26.1,-0.1,36.14,,,,,,,,,,
14.45.45.575,-12.5,3.1,0,,,93545.4,10.69,-0.5,0.79,0.54,-0.1,-2.0,-0.6,36.08,,,,,,,,,,
14.45.45.584,-6.6,1.6,0,,,93545.4,10.69,-0.34,0.58,0.46,13.2,16.4,2.0,36.24,,,,,,,,,,
14.45.45.592,-26.4,6.6,0,,,93545.4,10.69,-0.37,0.53,0.68,3.4,2.0,-3.2,36.32,,,,,,,,,,
14.45.45.602,-21.8,5.4,0,,,93545.4,10.69,-0.32,0.54,0.64,1.8,4.6,2.1,36.08,,,,,,,,,,
14.45.45.611,-23.5,5.9,0,,,93545.4,10.69,-0.57,0.71,0.57,-11.2,6.9,1.4,36.28,,,,,,,,,,
14.45.45.623,-24.8,6.2,0,,,93545.4,10.69,-0.48,0.5,0.64,0.2,8.1,2.7,36.28,,,,,,,,,,
14.45.45.633,-33.0,8.2,0,,,93545.4,10.69,-0.49,0.83,0.44,-5.2,8.5,2.0,36.28,,,,,,,,,,
14.45.45.642,-33.8,8.4,0,,,93545.4,10.69,-0.46,0.66,0.52,-3.7,3.6,-8.1,36.03,,,,,,,,,,
14.45.45.651,-46.2,11.6,0,,,93545.4,10.69,-0.52,0.59,0.71,12.4,0.9,-4.8,36.37,,,,,,,,,,
14.45.45.663,-52.8,13.2,0,,,93545.4,10.69,-0.53,0.62,0.47,1.6,6.4,4.0,36.1,,,,,,,,,,
14.45.45.672,-44.4,11.1,0,,,93545.4,10.69,-0.19,0.57,0.58,11.2,11.5,-1.2,35.95,,,,,,,,,,
14.45.45.680,-55.8,14.0,0,,,93545.4,10.69,-0.44,0.74,0.43,-14.9,5.2,-12.4,36.18,,,,,,,,,,
14.45.45.689,-55.6,13.9,0,,,93545.4,10.69,-0.48,0.61,0.66,15.4,14.3,-3.2,36.01,,,,,,,,,,
14.45.45.697,-70.1,17.5,0,,,93545.4,10.69,-0.33,0.84,0.58,-4.5,-2.8,-4.8,36.46,,,,,,,,,,
14.45.45.707,-77.2,19.3,0,,,93545.4,10.69,-0.38,0.53,0.52,8.6,2.5,1.6,36.42,,,,,,,,,,
14.45.45.716,-70.8,17.7,0,,,93545.4,10.69,-0.5,0.75,0.69,-0.3,11.4,3.1,36.1,,,,,,,,,,
14.45.45.725,-74.5,18.6,0,,,93545.4,10.69,-0.66,0.72,0.59,6.9,4.6,-2.0,36.25,,,,,,,,,,
14.45.45.732,-82.3,20.6,0,,,93545.4,10.69,-0.36,0.77,0.58,14.0,12.5,-4.0,36.24,,,,,,,,,,
14.45.45.740,-73.3,18.3,0,,,93545.4,10.69,-0.43,0.42,0.62,17.0,1.0,-7.0,36.21,,,,,,,,,,
14.45.45.751,-81.7,20.4,1,9.0,91.5,93545.4,10.69,-0.35,0.8,0.57,13.1,8.3,-7.8,36.31,,,,,,,,,,
14.45.45.762,-88.1,22.0,0,,,93545.4,10.69,-0.43,0.6,0.61,-8.1,-5.6,-6.3,36.24,,,,,,,,,,
14.45.45.768,-104.9,26.2,0,,,93545.4,10.69,-0.44,0.66,0.52,-1.6,14.4,-8.7,36.17,,,,,,,,,,
14.45.45.776,-102.4,25.6,0,,,93545.4,10.69,-0.48,0.53,0.51,-13.7,5.2,-2.7,36.26,,,,,,,,,,
14.45.45.786,-97.8,24.4,0,,,93545.4,10.69,-0.46,0.6,0.53,1.8,0.9,8.5,36.24,,,,,,,,,,
14.45.45.797,-92.8,23.2,0,,,93545.4,10.69,-0.38,0.72,0.49,-0.1,19.0,2.1,36.31,,,,,,,,,,
14.45.45.807,-111.6,27.9,0,,,93545.4,10.69,-0.58,0.8,0.63,11.9,8.9,-3.2,36.16,,,,,,,,,,
14.45.45.815,-108.5,27.1,0,,,93545.4,10.69,-0.41,0.6,0.45,-7.1,10.4,-6.9,36.53,,,,,,,,,,
14.45.45.825,-107.3,26.8,0,,,93545.4,10.69,-0.5,0.45,0.59,-0.8,12.0,-1.2,36.23,,,,,,,,,,
14.45.45.837,-113.7,28.4,0,,,93545.4,10.69,-0.4,0.64,0.66,-18.9,3.6,-10.1,36.18,,,,,,,,,,
14.45.45.848,9.3,2.3,0,,,93545.4,10.69,-0.49,0.6,0.48,-3.9,6.8,2.1,36.28,,,,,,,,,,
14.45.45.859,56.9,14.2,0,,,93545.4,10.69,-0.55,0.74,0.5,3.8,20.2,0.5,36.16,,,,,,,,,,
14.45.45.868,85.0,21.2,0,,,93545.4,10.69,-0.49,0.54,0.62,-14.2,6.0,-6.9,36.24,,,,,,,,,,
14.45.45.878,144.9,36.2,0,,,93545.4,10.69,-0.37,0.63,0.71,3.5,-1.3,-3.1,36.19,,,,,,,,,,
14.45.45.888,151.6,37.9,0,,,93633.0,10.68,-0.49,0.56,0.51,-9.5,1.1,-0.4,36.35,,,,,,,,,,
14.45.45.898,196.6,49.2,0,,,93633.0,10.68,-0.41,0.74,0.51,-9.7,6.2,-11.7,36.1,,,,,,,,,,
14.45.45.907,226.6,56.6,0,,,93633.0,10.68,-0.42,0.52,0.56,-6.1,-4.7,-2.8,36.03,,,,,,,,,,
14.45.45.916,237.9,59.5,0,,,93633.0,10.68,-0.24,0.73,0.54,-7.4,10.5,2.8,36.37,,,,,,,,,,
14.45.45.925,258.9,64.7,0,,,93633.0,10.68,-0.39,0.69,0.51,-1.3,7.5,-2.8,36.25,,,,,,,,,,
14.45.45.937,315.8,79.0,0,,,93633.0,10.68,-0.56,0.72,0.55,2.7,7.9,-8.3,36.27,,,,,,,,,,
14.45.45.948,324.1,81.0,0,,,93633.0,10.68,-0.46,0.69,0.51,0.6,12.8,-2.1,36.44,,,,,,,,,,
14.45.45.958,311.7,77.9,0,,,93633.0,10.68,-0.36,0.66,0.54,-0.4,-9.2,-6.0,36.49,,,,,,,,,,
14.45.45.966,352.1,88.0,0,,,93633.0,10.68,-0.53,0.55,0.64,-0.1,-0.6,-3.3,36.29,,,,,,,,,,
14.45.45.976,341.1,85.3,0,,,93633.0,10.68,-0.37,0.72,0.49,-1.8,16.5,-4.4,35.9,,,,,,,,,,
14.45.45.982,302.2,75.6,0,,,93633.0,10.68,-0.39,0.59,0.44,2.1,-6.8,0.7,36.09,,,,,,,,,,
14.45.45.992,290.5,72.6,0,,,93633.0,10.68,-0.4,0.82,0.46,7.9,-1.6,4.8,36.33,,,,,,,,,,
14.45.46.000,238.0,59.5,0,,,93633.0,10.68,-0.56,0.89,0.57,-10.6,11.2,7.7,36.03,,,,,,,,,,
14.45.46.009,248.1,62.0,0,,,93633.0,10.68,-0.42,0.83,0.44,1.3,0.8,1.8,36.28,,,,,,,,,,
14.45.46.018,223.0,55.8,0,,,93633.0,10.68,-0.4,0.69,0.71,-5.9,5.7,1.0,36.13,,,,,,,,,,
14.45.46.030,170.4,42.6,0,,,93633.0,10.68,-0.47,0.63,0.61,3.0,1.9,-11.1,36.25,,,,,,,,,,
14.45.46.039,152.5,38.1,0,,,93633.0,10.68,-0.5,0.51,0.6,12.4,8.8,-8.3,36.42,,,,,,,,,,
14.45.46.050,105.0,26.2,0,,,93633.0,10.68,-0.4,0.6,0.6,-12.7,-0.7,-1.6,36.35,,,,,,,,,,
14.45.46.060,61.5,15.4,0,,,93633.0,10.68,-0.55,0.63,0.6,-1.0,-2.1,-4.6,36.02,,,,,,,,,,
14.45.46.068,25.7,6.4,0,,,93633.0,10.68,-0.36,0.74,0.57,5.4,4.8,-1.4,36.01,,,,,,,,,,
14.45.46.077,4.2,1.0,0,,,93633.0,10.68,-0.52,0.44,0.5,4.1,7.3,6.9,36.18,,,,,,,,,,
14.45.46.085,17.9,4.5,0,,,93633.0,10.68,-0.48,0.56,0.64,-10.5,5.7,-6.3,36.12,,,,,,,,,,
14.45.46.095,30.4,7.6,0,,,93633.0,10.68,-0.46,0.71,0.63,-2.3,-1.7,5.2,35.9,,,,,,,,,,
14.45.46.102,35.0,8.8,0,,,93633.0,10.68,-0.53,0.65,0.53,-8.1,12.7,2.6,36.04,,,,,,,,,,
14.45.46.111,50.1,12.5,0,,,93633.0,10.68,-0.5,0.93,0.64,7.6,3.2,-12.3,36.21,,,,,,,,,,
14.45.46.122,53.0,13.2,0,,,93633.0,10.68,-0.52,0.59,0.49,13.3,12.0,-7.2,36.3,,,,,,,,,,
14.45.46.131,48.6,12.2,0,,,93633.0,10.68,-0.37,0.67,0.47,-0.3,9.1,-1.6,36.18,,,,,,,,,,
14.45.46.140,54.3,13.6,0,,,93633.0,10.68,-0.46,0.53,0.55,9.5,-4.6,1.1,36.07,,,,,,,,,,
14.45.46.150,62.8,15.7,0,,,93633.0,10.68,-0.51,0.64,0.57,-4.3,-3.1,-3.7,36.23,,,,,,,,,,
14.45.46.160,49.9,12.5,0,,,93633.0,10.68,-0.4,0.74,0.53,2.8,13.7,-5.2,36.36,,,,,,,,,,
14.45.46.170,40.9,10.2,0,,,93633.0,10.68,-0.42,0.57,0.55,6.2,13.4,-9.7,36.17,,,,,,,,,,
14.45.46.180,31.6,7.9,0,,,93633.0,10.68,-0.49,0.41,0.58,4.6,6.0,-8.7,36.11,,,,,,,,,,
14.45.46.191,19.7,4.9,0,,,93633.0,10.68,-0.46,0.77,0.59,-16.2,6.1,0.7,36.11,,,,,,,,,,
14.45.46.200,3.7,0.9,0,,,93633.0,10.68,-0.54,0.69,0.55,-1.0,1.5,-0.0,36.13,,,,,,,,,,
14.45.46.207,3.5,0.9,0,,,93633.0,10.68,-0.4,0.68,0.42,6.2,5.1,7.5,36.49,,,,,,,,,,
14.45.46.214,-10.7,2.7,0,,,93633.0,10.68,-0.43,0.59,0.52,-11.6,17.4,11.6,36.19,,,,,,,,,,
14.45.46.224,-6.1,1.5,0,,,93633.0,10.68,-0.4,0.85,0.6,1.8,-1.8,-2.0,36.22,,,,,,,,,,
14.45.46.233,-8.8,2.2,0,,,93633.0,10.68,-0.3,0.76,0.63,-5.9,11.3,1.5,36.28,,,,,,,,,,
14.45.46.243,-19.4,4.8,0,,,93633.0,10.68,-0.35,0.6,0.66,-7.0,-6.3,0.3,36.2,,,,,,,,,,
14.45.46.252,-13.6,3.4,0,,,93633.0,10.68,-0.44,0.38,0.66,-3.9,16.4,2.3,36.12,,,,,,,,,,
14.45.46.262,-22.7,5.7,0,,,93633.0,10.68,-0.42,0.46,0.38,-7.9,3.8,-0.8,36.19,,,,,,,,,,
14.45.46.270,-21.9,5.5,0,,,93633.0,10.68,-0.55,0.66,0.58,-1.4,2.2,-1.3,36.35,,,,,,,,,,
14.45.46.279,-36.7,9.2,0,,,93633.0,10.68,-0.35,0.59,0.55,2.2,8.0,-1.7,35.89,,,,,,,,,,
14.45.46.288,-42.5,10.6,0,,,93633.0,10.68,-0.3,0.51,0.57,-6.9,2.7,1.8,36.31,,,,,,,,,,
14.45.46.297,-41.6,10.4,0,,,93633.0,10.68,-0.4,0.53,0.52,-8.6,4.2,11.6,36.26,,,,,,,,,,
14.45.46.308,-45.2,11.3,0,,,93633.0,10.68,-0.5,0.64,0.59,-1.5,10.1,5.5,36.35,,,,,,,,,,
14.45.46.317,-50.9,12.7,0,,,93633.0,10.68,-0.41,0.75,0.58,-11.4,10.3,6.7,36.29,,,,,,,,,,
14.45.46.327,-50.6,12.6,0,,,93633.0,10.68,-0.51,0.74,0.54,11.7,4.2,1.0,36.47,,,,,,,,,,
14.45.46.337,-54.2,13.6,0,,,93633.0,10.68,-0.39,0.63,0.62,-7.8,1.5,-4.4,36.2,,,,,,,,,,
14.45.46.345,-65.8,16.4,0,,,93633.0,10.68,-0.44,0.67,0.5,-1.1,13.3,-3.0,36.12,,,,,,,,,,
14.45.46.356,-69.6,17.4,0,,,93633.0,10.68,-0.38,0.74,0.52,8.7,-5.0,-3.1,36.18,,,,,,,,,,
14.45.46.364,-66.2,16.6,0,,,93633.0,10.68,-0.51,0.81,0.6,10.6,16.2,-11.4,36.35,,,,,,,,,,
14.45.46.376,-78.2,19.6,0,,,93633.0,10.68,-0.36,0.6,0.45,-1.5,12.8,-1.0,36.03,,,,,,,,,,
14.45.46.386,-88.1,22.0,0,,,93633.0,10.68,-0.38,0.79,0.51,-7.0,4.4,-7.1,36.29,,,,,,,,,,
14.45.46.398,-77.0,19.2,1,10.0,92.7,93633.0,10.68,-0.38,0.79,0.63,4.8,8.5,5.7,36.31,,,,,,,,,,
14.45.46.407,-85.6,21.4,0,,,93633.0,10.68,-0.39,0.68,0.55,2.0,0.8,0.4,36.28,,,,,,,,,,
14.45.46.417,-88.3,22.1,0,,,93633.0,10.68,-0.36,0.77,0.52,4.2,3.4,-11.2,36.29,,,,,,,,,,
14.45.46.427,-102.6,25.6,0,,,93633.0,10.68,-0.34,0.85,0.69,18.4,9.7,-7.2,36.15,,,,,,,,,,
14.45.46.438,-102.9,25.7,0,,,93633.0,10.68,-0.53,0.67,0.6,7.2,8.6,5.9,36.43,,,,,,,,,,
14.45.46.450,-109.0,27.2,0,,,93545.4,10.69,-0.41,0.79,0.46,9.4,6.2,5.9,36.15,,,,,,,,,,
14.45.46.460,-127.0,31.8,0,,,93545.4,10.69,-0.35,0.72,0.53,5.5,1.2,-7.9,36.16,,,,,,,,,,
14.45.46.469,-120.1,30.0,0,,,93545.4,10.69,-0.59,0.72,0.55,-6.9,10.0,2.6,36.18,,,,,,,,,,
14.45.46.478,-113.3,28.3,0,,,93545.4,10.69,-0.49,0.51,0.6,-10.6,9.4,-2.3,36.15,,,,,,,,,,
14.45.46.487,-141.4,35.4,0,,,93545.4,10.69,-0.49,0.69,0.55,11.1,8.0,4.0,36.11,,,,,,,,,,
14.45.46.496,-130.8,32.7,0,,,93545.4,10.69,-0.37,0.65,0.58,11.5,4.3,-8.6,36.09,,,,,,,,,,
14.45.46.506,38.9,9.7,0,,,93545.4,10.69,-0.54,0.84,0.68,11.2,9.7,7.6,36.28,,,,,,,,,,
14.45.46.518,103.3,25.8,0,,,93545.4,10.69,-0.42,0.49,0.54,-2.8,6.6,-6.5,36.35,,,,,,,,,,
14.45.46.529,148.6,37.2,0,,,93545.4,10.69,-0.41,0.61,0.52,-6.4,15.0,12.0,36.36,,,,,,,,,,
14.45.46.536,165.1,41.3,0,,,93545.4,10.69,-0.39,0.64,0.59,-7.0,8.6,-4.0,36.33,,,,,,,,,,
14.45.46.543,183.1,45.8,0,,,93545.4,10.69,-0.31,0.7,0.35,7.2,25.0,-1.5,36.07,,,,,,,,,,
14.45.46.554,231.8,58.0,0,,,93545.4,10.69,-0.4,0.62,0.66,-7.6,1.8,-1.9,36.19,,,,,,,,,,
14.45.46.562,232.7,58.2,0,,,93545.4,10.69,-0.49,0.53,0.51,11.0,9.5,-5.5,35.99,,,,,,,,,,
14.45.46.572,288.2,72.0,0,,,93545.4,10.69,-0.38,0.68,0.52,1.9,3.7,1.2,35.74,,,,,,,,,,
14.45.46.583,313.3,78.3,0,,,93545.4,10.69,-0.35,0.71,0.56,-4.6,13.0,-3.0,36.17,,,,,,,,,,
14.45.46.591,323.9,81.0,0,,,93545.4,10.69,-0.31,0.59,0.64,-12.1,2.6,2.6,36.32,,,,,,,,,,
14.45.46.600,323.1,80.8,0,,,93545.4,10.69,-0.54,0.49,0.6,-6.5,-1.1,-3.3,36.16,,,,,,,,,,
14.45.46.608,,,0,,,,,,,,,,,,,,,,,,,,,
14.45.46.619,322.2,80.6,0,,,93545.4,10.69,-0.4,0.62,0.68,2.6,2.8,0.1,36.27,,,,,,,,,,
14.45.46.628,326.2,81.6,0,,,93545.4,10.69,-0.37,0.44,0.5,-2.7,3.0,6.3,36.15,,,,,,,,,,
14.45.46.639,322.2,80.6,0,,,93545.4,10.69,-0.36,0.76,0.58,5.4,8.8,-4.3,36.28,,,,,,,,,,
14.45.46.650,259.9,65.0,0,,,93545.4,10.69,-0.39,0.45,0.64,3.9,0.2,0.1,36.31,,,,,,,,,,
14.45.46.659,244.6,61.2,0,,,93545.4,10.69,-0.39,0.69,0.54,-2.8,5.7,5.3,36.02,,,,,,,,,,
14.45.46.671,212.2,53.0,0,,,93545.4,10.69,-0.47,0.7,0.59,-17.1,6.7,-1.2,36.51,,,,,,,,,,
14.45.46.681,189.9,47.5,0,,,93545.4,10.69,-0.46,0.74,0.55,3.9,3.9,-4.7,36.18,,,,,,,,,,
14.45.46.691,131.1,32.8,0,,,93545.4,10.69,-0.37,0.65,0.64,11.0,8.5,-11.4,35.99,,,,,,,,,,
14.45.46.701,99.5,24.9,0,,,93545.4,10.69,-0.43,0.7,0.59,-3.2,9.1,0.2,36.17,,,,,,,,,,
14.45.46.711,58.0,14.5,0,,,93545.4,10.69,-0.47,0.57,0.63,9.2,6.3,6.2,36.37,,,,,,,,,,
14.45.46.720,8.7,2.2,0,,,93545.4,10.69,-0.46,0.68,0.63,-0.6,6.9,-0.5,36.02,,,,,,,,,,
14.45.46.730,10.0,2.5,0,,,93545.4,10.69,-0.57,0.58,0.49,4.2,7.2,-5.8,36.04,,,,,,,,,,
14.45.46.740,24.6,6.2,0,,,93545.4,10.69,-0.56,0.69,0.64,-16.4,-1.2,6.3,36.07,,,,,,,,,,
14.45.46.750,39.7,9.9,0,,,93545.4,10.69,-0.46,0.62,0.55,12.6,13.4,0.6,36.1,,,,,,,,,,
14.45.46.759,36.6,9.2,0,,,93545.4,10.69,-0.39,0.67,0.48,-6.1,6.7,9.2,36.07,,,,,,,,,,
14.45.46.768,53.3,13.3,0,,,93545.4,10.69,-0.45,0.57,0.58,14.6,-4.9,0.4,36.17,,,,,,,,,,
14.45.46.776,46.1,11.5,0,,,93545.4,10.69,-0.44,0.71,0.61,4.5,7.4,2.4,36.06,,,,,,,,,,
14.45.46.784,62.3,15.6,0,,,93545.4,10.69,-0.39,0.67,0.36,2.6,-3.3,-3.5,36.17,,,,,,,,,,
14.45.46.794,60.8,15.2,0,,,93545.4,10.69,-0.34,0.69,0.6,4.1,14.7,-4.3,36.08,,,,,,,,,,
14.45.46.804,57.4,14.4,0,,,93545.4,10.69,-0.46,0.78,0.6,0.8,5.2,9.1,35.96,,,,,,,,,,
14.45.46.814,56.2,14.0,0,,,93545.4,10.69,-0.36,0.79,0.68,0.9,6.4,-5.7,36.33,,,,,,,,,,
14.45.46.822,36.3,9.1,0,,,93545.4,10.69,-0.46,0.54,0.53,-7.8,18.8,-7.4,36.3,,,,,,,,,,
14.45.46.834,29.7,7.4,0,,,93545.4,10.69,-0.37,0.92,0.49,-9.1,7.9,7.0,36.2,,,,,,,,,,
14.45.46.844,18.4,4.6,0,,,93545.4,10.69,-0.4,0.72,0.51,8.1,13.4,-9.2,36.06,,,,,,,,,,
14.45.46.852,2.8,0.7,0,,,93545.4,10.69,-0.53,0.66,0.59,10.7,0.1,-17.0,36.1,,,,,,,,,,
14.45.46.861,-1.8,0.4,0,,,93545.4,10.69,-0.55,0.68,0.48,4.5,7.7,-9.0,36.21,,,,,,,,,,
14.45.46.870,-1.2,0.3,0,,,93545.4,10.69,-0.42,0.73,0.41,-1.5,9.6,5.8,36.23,,,,,,,,,,
14.45.46.879,-10.9,2.7,0,,,93545.4,10.69,-0.37,0.62,0.49,13.3,-3.9,-7.7,36.29,,,,,,,,,,
14.45.46.890,-20.4,5.1,0,,,93545.4,10.69,-0.52,0.66,0.61,9.3,2.3,-7.4,36.25,,,,,,,,,,
14.45.46.898,-14.4,3.6,0,,,93545.4,10.69,-0.44,0.67,0.62,-11.5,14.1,-5.7,36.44,,,,,,,,,,
14.45.46.909,-25.4,6.4,0,,,93545.4,10.69,-0.5,0.58,0.69,-3.0,3.2,5.7,35.99,,,,,,,,,,
14.45.46.918,-28.2,7.0,0,,,93545.4,10.69,-0.51,0.67,0.49,5.9,6.9,-5.1,36.24,,,,,,,,,,
14.45.46.928,-33.2,8.3,0,,,93545.4,10.69,-0.62,0.62,0.56,-5.5,6.4,-0.6,36.29,,,,,,,,,,
14.45.46.938,-44.0,11.0,0,,,93545.4,10.69,-0.48,0.61,0.51,0.8,12.3,1.1,35.98,,,,,,,,,,
14.45.46.950,-45.7,11.4,0,,,93545.4,10.69,-0.44,0.44,0.44,-8.2,0.9,-5.5,36.16,,,,,,,,,,
14.45.46.958,-41.4,10.4,0,,,93545.4,10.69,-0.5,0.47,0.51,12.6,11.1,-5.0,36.28,,,,,,,,,,
14.45.46.967,-54.2,13.6,0,,,93545.4,10.69,-0.48,0.69,0.68,2.7,-0.7,-9.2,36.09,,,,,,,,,,
14.45.46.976,-58.8,14.7,0,,,93545.4,10.69,-0.38,0.64,0.63,-7.7,3.4,12.0,36.34,,,,,,,,,,
14.45.46.986,-54.0,13.5,1,11.0,102.0,93545.4,10.69,-0.45,0.64,0.57,-5.4,12.7,1.9,36.21,,,,,,,,,,
14.45.46.995,-67.5,16.9,0,,,93545.4,10.69,-0.45,0.62,0.44,10.3,12.9,-8.5,36.04,,,,,,,,,,
14.45.47.003,-70.4,17.6,0,,,93545.4,10.69,-0.36,0.7,0.58,8.5,13.5,-5.3,36.08,,,,,,,,,,
14.45.47.014,-73.7,18.4,0,,,93545.4,10.69,-0.49,0.7,0.74,2.4,5.3,-0.6,36.15,,,,,,,,,,
14.45.47.024,-77.3,19.3,0,,,93545.4,10.69,-0.42,0.67,0.69,-8.7,18.8,-5.7,36.02,,,,,,,,,,
14.45.47.033,-67.8,17.0,0,,,93545.4,10.69,-0.45,0.78,0.43,-5.8,0.8,1.3,36.13,,,,,,,,,,
14.45.47.041,-70.2,17.6,0,,,93545.4,10.69,-0.48,0.39,0.6,-2.1,8.6,5.1,36.1,,,,,,,,,,
14.45.47.050,-77.8,19.4,0,,,93545.4,10.69,-0.38,0.62,0.55,4.0,12.2,3.8,36.17,,,,,,,,,,
14.45.47.063,-90.8,22.7,0,,,93545.4,10.69,-0.45,0.78,0.51,14.7,8.8,-2.6,36.38,,,,,,,,,,
14.45.47.073,-93.5,23.4,0,,,93545.4,10.69,-0.5,0.75,0.63,-5.7,0.3,-3.8,36.24,,,,,,,,,,
14.45.47.083,-100.8,25.2,0,,,93545.4,10.69,-0.31,0.71,0.6,-9.8,14.7,1.2,36.22,,,,,,,,,,
14.45.47.092,-113.6,28.4,0,,,93545.4,10.69,-0.32,0.74,0.47,-2.3,4.4,-1.4,36.08,,,,,,,,,,
14.45.47.102,-103.2,25.8,0,,,93545.4,10.69,-0.34,0.71,0.62,2.5,3.7,1.9,36.0,,,,,,,,,,
14.45.47.114,-117.7,29.4,0,,,93545.4,10.69,-0.54,0.7,0.58,-13.1,5.4,3.5,36.28,,,,,,,,,,
14.45.47.124,-114.4,28.6,0,,,93545.4,10.69,-0.5,0.59,0.63,-6.8,-10.4,-3.6,36.35,,,,,,,,,,
14.45.47.136,-124.1,31.0,0,,,93545.4,10.69,-0.5,0.53,0.52,4.2,6.1,8.4,36.36,,,,,,,,,,
14.45.47.147,-1.8,0.4,0,,,93545.4,10.69,-0.4,0.84,0.66,-0.9,-0.3,-2.2,36.22,,,,,,,,,,
14.45.47.158,52.0,13.0,0,,,93545.4,10.69,-0.38,0.49,0.62,-10.5,13.5,-11.8,36.36,,,,,,,,,,
14.45.47.169,94.7,23.7,0,,,93545.4,10.69,-0.49,0.81,0.51,-3.7,-11.4,9.8,36.15,,,,,,,,,,
14.45.47.178,148.5,37.1,0,,,93545.4,10.69,-0.4,0.6,0.5,-0.6,10.2,-1.3,36.31,,,,,,,,,,
14.45.47.186,168.4,42.1,0,,,93545.4,10.69,-0.4,0.7,0.61,-18.1,0.7,-12.3,36.05,,,,,,,,,,
14.45.47.196,219.8,55.0,0,,,93545.4,10.69,-0.52,0.73,0.55,-0.6,-4.4,-8.1,36.18,,,,,,,,,,
14.45.47.206,242.8,60.7,0,,,93545.4,10.69,-0.47,0.53,0.54,16.5,-2.3,-4.0,36.13,,,,,,,,,,
14.45.47.218,253.4,63.4,0,,,93545.4,10.69,-0.5,0.88,0.65,5.5,1.6,-9.0,36.14,,,,,,,,,,
14.45.47.228,273.0,68.2,0,,,93545.4,10.69,-0.34,0.68,0.38,-8.1,-1.8,-2.9,36.38,,,,,,,,,,
14.45.47.240,322.5,80.6,0,,,93545.4,10.69,-0.44,0.69,0.55,7.7,-1.4,5.0,35.83,,,,,,,,,,
14.45.47.250,353.1,88.3,0,,,93545.4,10.69,-0.54,0.63,0.5,3.5,10.8,-3.7,36.41,,,,,,,,,,
14.45.47.259,316.8,79.2,0,,,93545.4,10.69,-0.32,0.56,0.49,4.8,4.4,9.2,36.03,,,,,,,,,,
14.45.47.269,301.3,75.3,0,,,93545.4,10.69,-0.51,0.68,0.68,2.6,4.5,-4.6,36.1,,,,,,,,,,
14.45.47.278,287.1,71.8,0,,,93545.4,10.69,-0.45,0.72,0.74,-3.1,11.2,0.5,36.31,,,,,,,,,,
14.45.47.287,289.4,72.4,0,,,93545.4,10.69,-0.5,0.83,0.61,-7.6,13.1,-8.1,36.34,,,,,,,,,,
14.45.47.297,263.1,65.8,0,,,93545.4,10.69,-0.44,0.77,0.49,-14.0,-2.9,5.8,36.05,,,,,,,,,,
14.45.47.308,252.7,63.2,0,,,93545.4,10.69,-0.33,0.65,0.56,-3.1,-0.0,-0.3,36.25,,,,,,,,,,
14.45.47.317,261.3,65.3,0,,,93545.4,10.69,-0.42,0.63,0.63,0.9,4.3,-4.1,36.24,,,,,,,,,,
14.45.47.326,186.1,46.5,0,,,93545.4,10.69,-0.39,0.63,0.44,-5.9,19.7,2.4,36.21,,,,,,,,,,
14.45.47.337,157.9,39.5,0,,,93545.4,10.69,-0.26,0.69,0.61,-4.6,1.5,6.2,36.15,,,,,,,,,,
14.45.47.345,117.5,29.4,0,,,93545.4,10.69,-0.44,0.64,0.58,-4.5,2.3,-6.4,36.28,,,,,,,,,,
14.45.47.355,82.9,20.7,0,,,93545.4,10.69,-0.24,0.7,0.58,0.7,-3.8,11.3,36.28,,,,,,,,,,
14.45.47.366,34.8,8.7,0,,,93545.4,10.69,-0.52,0.6,0.59,3.7,3.3,3.2,36.14,,,,,,,,,,
14.45.47.378,9.4,2.4,0,,,93545.4,10.69,-0.68,0.8,0.62,-2.8,10.8,-1.6,36.06,,,,,,,,,,
14.45.47.388,24.0,6.0,0,,,93545.4,10.69,-0.31,0.94,0.52,5.5,7.6,5.5,36.09,,,,,,,,,,
14.45.47.396,31.1,7.8,0,,,93545.4,10.69,-0.45,0.53,0.46,-0.9,0.1,-1.4,36.14,,,,,,,,,,
14.45.47.405,41.1,10.3,0,,,93545.4,10.69,-0.33,0.58,0.56,-6.9,10.4,1.8,36.15,,,,,,,,,,
14.45.47.415,47.2,11.8,0,,,93545.4,10.69,-0.33,0.73,0.49,0.9,11.2,2.4,36.21,,,,,,,,,,
14.45.47.425,55.9,14.0,0,,,93545.4,10.69,-0.33,0.69,0.49,3.4,5.8,2.2,36.21,,,,,,,,,,
14.45.47.434,55.1,13.8,0,,,93545.4,10.69,-0.63,0.66,0.5,-11.6,4.2,-0.4,36.04,,,,,,,,,,
14.45.47.443,64.8,16.2,0,,,93545.4,10.69,-0.51,0.68,0.6,13.6,12.6,0.9,36.36,,,,,,,,,,
14.45.47.454,55.4,13.8,0,,,93545.4,10.69,-0.44,0.73,0.72,1.2,10.0,-5.4,36.29,,,,,,,,,,
14.45.47.463,56.2,14.0,0,,,93545.4,10.69,-0.56,0.71,0.46,-12.1,8.5,2.4,36.21,,,,,,,,,,
14.45.47.475,40.3,10.1,0,,,93545.4,10.69,-0.56,0.6,0.59,-9.8,1.2,-7.6,36.25,,,,,,,,,,
14.45.47.483,27.1,6.8,0,,,93545.4,10.69,-0.44,0.68,0.61,8.6,2.2,2.8,36.25,,,,,,,,,,
14.45.47.494,4.7,1.2,0,,,93545.4,10.69,-0.5,0.59,0.64,5.8,3.4,8.4,36.15,,,,,,,,,,
14.45.47.505,4.9,1.2,0,,,93545.4,10.69,-0.37,0.72,0.55,3.9,-6.4,4.7,35.86,,,,,,,,,,
14.45.47.515,-3.3,0.8,0,,,93545.4,10.69,-0.43,0.64,0.59,7.8,7.0,-6.2,36.18,,,,,,,,,,
14.45.47.524,1.2,0.3,0,,,93545.4,10.69,-0.32,0.53,0.73,1.5,14.1,-6.5,36.36,,,,,,,,,,
14.45.47.535,-29.7,7.4,0,,,93545.4,10.69,-0.53,0.78,0.5,8.2,9.7,-9.7,36.25,,,,,,,,,,
14.45.47.546,-15.0,3.8,0,,,93545.4,10.69,-0.44,0.74,0.42,-5.6,1.7,-3.9,36.45,,,,,,,,,,
14.45.47.557,-27.1,6.8,0,,,93545.4,10.69,-0.36,0.73,0.66,1.7,3.6,-11.7,36.31,,,,,,,,,,
14.45.47.567,-32.7,8.2,0,,,93545.4,10.69,-0.42,0.53,0.6,6.3,8.4,6.9,36.46,,,,,,,,,,
14.45.47.576,-26.0,6.5,0,,,93545.4,10.69,-0.4,0.75,0.45,-10.2,7.6,-8.5,36.2,,,,,,,,,,
14.45.47.587,-28.0,7.0,0,,,93545.4,10.69,-0.45,0.65,0.44,-9.2,8.6,-3.2,35.93,,,,,,,,,,
14.45.47.599,-40.6,10.2,0,,,93545.4,10.69,-0.35,0.54,0.74,5.3,5.1,-1.6,36.17,,,,,,,,,,
14.45.47.609,-46.9,11.7,0,,,93545.4,10.69,-0.41,0.58,0.59,2.1,-5.5,-5.0,36.18,,,,,,,,,,
14.45.47.617,-44.8,11.2,0,,,93545.4,10.69,-0.53,0.63,0.63,3.4,6.9,-0.4,36.0,,,,,,,,,,
14.45.47.626,-57.5,14.4,1,12.0,93.8,93545.4,10.69,-0.39,0.71,0.59,-0.4,9.9,-1.8,36.24,,,,,,,,,,
14.45.47.636,-54.0,13.5,0,,,93545.4,10.69,-0.56,0.65,0.57,-4.7,-0.9,-7.9,36.05,,,,,,,,,,
14.45.47.646,-73.3,18.3,0,,,93545.4,10.69,-0.41,0.73,0.58,-6.2,8.7,-8.3,36.06,,,,,,,,,,
14.45.47.653,-68.5,17.1,0,,,93545.4,10.69,-0.45,0.57,0.45,13.6,5.1,-3.1,36.27,,,,,,,,,,
14.45.47.664,-73.3,18.3,0,,,93545.4,10.69,-0.54,0.73,0.57,2.7,6.5,-2.6,36.17,,,,,,,,,,
14.45.47.674,-77.0,19.2,0,,,93545.4,10.69,-0.49,0.59,0.51,8.1,-6.9,-1.9,36.17,,,,,,,,,,
14.45.47.685,-81.2,20.3,0,,,93545.4,10.69,-0.34,0.52,0.5,-3.3,15.5,-2.6,36.15,,,,,,,,,,
14.45.47.696,-94.5,23.6,0,,,93545.4,10.69,-0.41,0.7,0.67,13.6,8.1,4.9,36.21,,,,,,,,,,
14.45.47.705,-77.1,19.3,0,,,93545.4,10.69,-0.39,0.76,0.55,-12.3,10.2,-5.6,36.28,,,,,,,,,,
14.45.47.715,-82.4,20.6,0,,,93545.4,10.69,-0.4,0.8,0.67,-11.1,-2.3,4.9,36.02,,,,,,,,,,
14.45.47.723,-103.3,25.8,0,,,93545.4,10.69,-0.52,0.81,0.55,5.3,-4.7,1.1,36.04,,,,,,,,,,
14.45.47.732,-103.9,26.0,0,,,93545.4,10.69,-0.49,0.57,0.51,-8.2,8.0,0.4,36.2,,,,,,,,,,
14.45.47.739,-102.9,25.7,0,,,93545.4,10.69,-0.54,0.63,0.6,14.4,18.2,2.1,36.17,,,,,,,,,,
14.45.47.749,-109.7,27.4,0,,,93545.4,10.69,-0.43,0.48,0.6,5.0,7.7,4.6,36.16,,,,,,,,,,
14.45.47.759,-114.8,28.7,0,,,93545.4,10.69,-0.43,0.76,0.51,-7.6,-5.1,-2.9,36.21,,,,,,,,,,
14.45.47.767,-116.5,29.1,0,,,93545.4,10.69,-0.37,0.6,0.49,6.9,13.5,6.3,36.32,,,,,,,,,,
14.45.47.774,-116.5,29.1,0,,,93545.4,10.69,-0.39,0.59,0.7,9.1,10.6,-8.4,36.16,,,,,,,,,,
14.45.47.783,-131.9,33.0,0,,,93545.4,10.69,-0.45,0.6,0.56,-17.0,8.5,-2.7,36.18,,,,,,,,,,
14.45.47.794,-124.5,31.1,0,,,93545.4,10.69,-0.49,0.67,0.7,4.9,7.0,-11.0,36.07,,,,,,,,,,
14.45.47.804,47.3,11.8,0,,,93545.4,10.69,-0.54,0.72,0.58,0.6,12.1,-14.7,36.05,,,,,,,,,,
14.45.47.813,64.4,16.1,0,,,93545.4,10.69,-0.51,0.59,0.72,-4.4,4.9,-5.4,36.12,,,,,,,,,,
14.45.47.822,100.0,25.0,0,,,93545.4,10.69,-0.44,0.64,0.43,11.7,10.5,-4.9,36.27,,,,,,,,,,
14.45.47.832,158.0,39.5,0,,,93545.4,10.69,-0.34,0.6,0.6,-0.5,14.2,1.4,36.45,,,,,,,,,,
14.45.47.843,202.9,50.7,0,,,93545.4,10.69,-0.51,0.64,0.6,1.2,4.5,9.4,36.26,,,,,,,,,,
14.45.47.852,240.1,60.0,0,,,93545.4,10.69,-0.44,0.6,0.4,-3.1,3.4,0.1,36.14,,,,,,,,,,
14.45.47.864,250.7,62.7,0,,,93545.4,10.69,-0.47,0.64,0.54,20.8,-1.3,-12.1,36.28,,,,,,,,,,
14.45.47.873,267.3,66.8,0,,,93545.4,10.69,-0.46,0.65,0.6,15.1,4.4,-7.2,36.27,,,,,,,,,,
14.45.47.883,290.6,72.6,0,,,93545.4,10.69,-0.48,0.66,0.59,1.3,2.9,5.6,36.48,,,,,,,,,,
14.45.47.891,293.7,73.4,0,,,93545.4,10.69,-0.35,0.64,0.53,-5.5,8.4,4.0,36.02,,,,,,,,,,
14.45.47.901,365.2,91.3,0,,,93545.4,10.69,-0.47,0.52,0.45,1.6,4.8,-2.0,36.15,,,,,,,,,,
14.45.47.911,344.9,86.2,0,,,93545.4,10.69,-0.44,0.46,0.64,3.1,6.0,11.3,36.25,,,,,,,,,,
14.45.47.920,322.1,80.5,0,,,93545.4,10.69,-0.51,0.63,0.44,-6.2,0.3,2.8,36.36,,,,,,,,,,
14.45.47.929,283.4,70.8,0,,,93545.4,10.69,-0.33,0.71,0.49,2.3,1.0,-7.9,36.1,,,,,,,,,,
14.45.47.938,296.9,74.2,0,,,93545.4,10.69,-0.44,0.81,0.66,1.6,6.8,-3.6,36.18,,,,,,,,,,
14.45.47.947,298.6,74.6,0,,,93545.4,10.69,-0.45,0.57,0.56,-11.9,0.8,5.9,36.05,,,,,,,,,,
14.45.47.956,252.1,63.0,0,,,93545.4,10.69,-0.47,0.72,0.59,-9.1,5.5,-1.6,36.19,,,,,,,,,,
14.45.47.967,202.8,50.7,0,,,93545.4,10.69,-0.49,0.76,0.56,8.8,-6.2,2.0,36.16,,,,,,,,,,
14.45.47.978,188.8,47.2,0,,,93545.4,10.69,-0.32,0.72,0.53,11.5,1.8,3.2,36.15,,,,,,,,,,
14.45.47.986,155.7,38.9,0,,,93545.4,10.69,-0.43,0.68,0.55,3.8,7.1,-9.7,36.18,,,,,,,,,,
14.45.47.995,124.8,31.2,0,,,93545.4,10.69,-0.39,0.73,0.51,19.5,6.3,-4.9,36.26,,,,,,,,,,
14.45.48.006,74.6,18.6,0,,,93545.4,10.69,-0.5,0.59,0.52,-9.0,-3.2,-2.0,36.34,,,,,,,,,,
14.45.48.015,21.6,5.4,0,,,93545.4,10.69,-0.36,0.68,0.52,-21.3,14.3,8.7,36.34,,,,,,,,,,
14.45.48.024,5.7,1.4,0,,,93545.4,10.69,-0.35,0.61,0.65,-0.3,13.8,9.0,36.15,,,,,,,,,,
14.45.48.033,24.1,6.0,0,,,93545.4,10.69,-0.41,0.88,0.59,7.0,-9.4,1.1,36.23,,,,,,,,,,
14.45.48.042,33.6,8.4,0,,,93545.4,10.69,-0.4,0.7,0.55,-7.4,10.0,2.7,36.34,,,,,,,,,,
14.45.48.051,28.3,7.1,0,,,93545.4,10.69,-0.3,0.51,0.7,3.0,7.3,10.8,36.08,,,,,,,,,,
14.45.48.059,42.1,10.5,0,,,93545.4,10.69,-0.46,0.66,0.43,4.0,17.1,-6.5,36.23,,,,,,,,,,
14.45.48.068,52.1,13.0,0,,,93545.4,10.69,-0.3,0.69,0.48,2.0,11.9,-2.0,36.06,,,,,,,,,,
14.45.48.077,59.7,14.9,0,,,93545.4,10.69,-0.45,0.83,0.57,3.1,1.1,-7.8,36.06,,,,,,,,,,
14.45.48.086,57.8,14.4,0,,,93545.4,10.69,-0.45,0.63,0.57,-10.6,2.7,-2.0,35.98,,,,,,,,,,
14.45.48.096,59.8,15.0,0,,,93545.4,10.69,-0.43,0.65,0.6,-16.8,6.5,1.0,36.2,,,,,,,,,,
14.45.48.106,53.3,13.3,0,,,93545.4,10.69,-0.45,0.72,0.48,8.4,0.2,-3.0,35.93,,,,,,,,,,
14.45.48.116,46.0,11.5,0,,,93545.4,10.69,-0.37,0.74,0.61,4.5,1.3,4.7,36.18,,,,,,,,,,
14.45.48.128,42.0,10.5,0,,,93545.4,10.69,-0.38,0.63,0.54,-10.9,6.2,4.1,36.16,,,,,,,,,,
14.45.48.139,26.4,6.6,0,,,93545.4,10.69,-0.37,0.74,0.41,23.3,-4.6,0.7,36.2,,,,,,,,,,
14.45.48.152,-0.3,0.1,0,,,93545.4,10.69,-0.42,0.71,0.55,-11.7,18.6,-3.6,36.03,,,,,,,,,,
14.45.48.163,2.1,0.5,0,,,93545.4,10.69,-0.38,0.58,0.58,5.3,-1.8,-8.9,36.33,,,,,,,,,,
14.45.48.172,-17.5,4.4,0,,,93545.4,10.69,-0.51,0.74,0.58,-9.8,13.5,-0.9,36.14,,,,,,,,,,
14.45.48.184,-8.5,2.1,0,,,93545.4,10.69,-0.51,0.79,0.53,-9.5,0.7,-3.3,36.09,,,,,,,,,,
14.45.48.193,-20.5,5.1,0,,,93545.4,10.69,-0.44,0.42,0.74,1.5,-0.1,9.2,35.98,,,,,,,,,,
14.45.48.204,-22.9,5.7,0,,,93545.4,10.69,-0.5,0.65,0.64,10.9,-1.2,-7.0,36.25,,,,,,,,,,
14.45.48.212,-24.3,6.1,0,,,93545.4,10.69,-0.44,0.82,0.6,7.5,1.7,-3.1,36.21,,,,,,,,,,
14.45.48.220,-26.2,6.6,0,,,93545.4,10.69,-0.31,0.56,0.52,-16.9,4.9,-2.1,36.14,,,,,,,,,,
14.45.48.229,-33.6,8.4,1,13.0,99.5,93545.4,10.69,-0.44,0.73,0.41,-2.7,9.6,-7.4,36.34,,,,,,,,,,
14.45.48.237,-36.0,9.0,0,,,93545.4,10.69,-0.42,0.51,0.59,-15.2,6.2,0.5,36.15,,,,,,,,,,
14.45.48.245,-35.2,8.8,0,,,93545.4,10.69,-0.55,0.75,0.6,8.0,17.3,-10.4,36.23,,,,,,,,,,
14.45.48.256,-39.4,9.8,0,,,93545.4,10.69,-0.47,0.92,0.58,7.1,-9.2,-8.5,36.1,,,,,,,,,,
14.45.48.266,-53.5,13.4,0,,,93545.4,10.69,-0.47,0.82,0.48,6.1,2.5,-0.5,36.35,,,,,,,,,,
14.45.48.276,-57.1,14.3,0,,,93545.4,10.69,-0.45,0.82,0.49,-5.4,8.2,-8.7,36.37,,,,,,,,,,
14.45.48.284,-60.8,15.2,0,,,93545.4,10.69,-0.59,0.7,0.61,-8.5,3.9,1.8,35.99,,,,,,,,,,
14.45.48.293,-69.8,17.4,0,,,93545.4,10.69,-0.4,0.62,0.64,-15.8,9.9,-12.5,36.29,,,,,,,,,,
14.45.48.303,-62.7,15.7,0,,,93545.4,10.69,-0.4,0.45,0.59,9.0,8.8,6.2,36.09,,,,,,,,,,
14.45.48.313,-62.3,15.6,0,,,93545.4,10.69,-0.39,0.52,0.55,4.2,11.2,0.4,36.4,,,,,,,,,,
14.45.48.323,-84.2,21.0,0,,,93545.4,10.69,-0.52,0.81,0.53,-15.2,1.8,-12.9,36.04,,,,,,,,,,
14.45.48.332,-88.8,22.2,0,,,93545.4,10.69,-0.44,0.68,0.6,-8.8,-3.6,-1.6,36.08,,,,,,,,,,
14.45.48.344,-81.4,20.4,0,,,93545.4,10.69,-0.4,0.67,0.45,14.8,5.2,8.3,36.62,,,,,,,,,,
14.45.48.356,-81.0,20.2,0,,,93545.4,10.69,-0.38,0.63,0.65,2.9,8.7,10.1,36.26,,,,,,,,,,
14.45.48.367,-99.2,24.8,0,,,93545.4,10.69,-0.4,0.64,0.48,11.6,5.1,-1.6,35.92,,,,,,,,,,
14.45.48.378,-103.4,25.8,0,,,93545.4,10.69,-0.6,0.51,0.52,-2.8,7.9,-1.7,36.19,,,,,,,,,,
14.45.48.386,-102.7,25.7,0,,,93545.4,10.69,-0.46,0.83,0.65,-3.5,1.7,-5.2,36.08,,,,,,,,,,
14.45.48.394,-121.4,30.4,0,,,93545.4,10.69,-0.49,0.61,0.56,6.6,5.3,0.6,36.17,,,,,,,,,,
14.45.48.405,-102.4,25.6,0,,,93545.4,10.69,-0.47,0.77,0.6,13.2,12.6,-4.9,36.24,,,,,,,,,,
14.45.48.416,-107.3,26.8,0,,,93545.4,10.69,-0.46,0.63,0.51,18.4,-2.4,8.1,36.28,,,,,,,,,,
14.45.48.426,-110.5,27.6,0,,,93545.4,10.69,-0.49,0.62,0.5,-4.9,10.1,-6.3,36.13,,,,,,,,,,
14.45.48.437,-130.3,32.6,0,,,93545.4,10.69,-0.44,0.63,0.65,4.5,3.3,1.1,36.06,,,,,,,,,,
14.45.48.448,16.5,4.1,0,,,93545.4,10.69,-0.45,0.7,0.65,-18.7,19.0,0.7,36.16,,,,,,,,,,
14.45.48.459,57.9,14.5,0,,,93545.4,10.69,-0.52,0.7,0.48,6.8,1.4,-4.6,36.31,,,,,,,,,,
14.45.48.471,127.7,31.9,0,,,93545.4,10.69,-0.34,0.73,0.44,14.3,1.5,-6.7,36.4,,,,,,,,,,
14.45.48.481,154.4,38.6,0,,,93545.4,10.69,-0.44,0.61,0.68,-2.1,6.6,1.7,36.29,,,,,,,,,,
14.45.48.489,176.4,44.1,0,,,93545.4,10.69,-0.32,0.73,0.43,0.5,3.6,7.1,36.28,,,,,,,,,,
14.45.48.500,216.4,54.1,0,,,93545.4,10.69,-0.35,0.74,0.58,-1.3,21.1,9.0,36.07,,,,,,,,,,
14.45.48.511,274.3,68.6,0,,,93545.4,10.69,-0.42,0.8,0.62,-12.7,10.9,-2.1,35.94,,,,,,,,,,
14.45.48.521,263.0,65.8,0,,,93545.4,10.69,-0.16,0.74,0.64,17.1,-1.2,11.6,36.34,,,,,,,,,,
14.45.48.532,339.1,84.8,0,,,93545.4,10.69,-0.36,0.76,0.6,20.3,-3.2,2.0,36.14,,,,,,,,,,
14.45.48.539,277.6,69.4,0,,,93545.4,10.69,-0.38,0.57,0.56,2.4,-1.8,-1.2,36.06,,,,,,,,,,
14.45.48.548,303.2,75.8,0,,,93545.4,10.69,-0.57,0.66,0.64,-17.2,-9.5,-2.3,36.05,,,,,,,,,,
14.45.48.558,331.3,82.8,0,,,93545.4,10.69,-0.48,0.86,0.52,1.4,4.0,6.2,36.22,,,,,,,,,,
14.45.48.569,308.2,77.0,0,,,93545.4,10.69,-0.45,0.69,0.64,-8.0,11.9,0.9,36.06,,,,,,,,,,
14.45.48.578,319.4,79.8,0,,,93545.4,10.69,-0.37,0.58,0.53,8.3,8.3,-4.4,35.99,,,,,,,,,,
14.45.48.587,290.2,72.6,0,,,93545.4,10.69,-0.57,0.57,0.6,19.4,-1.9,7.2,36.21,,,,,,,,,,
14.45.48.598,262.5,65.6,0,,,93545.4,10.69,-0.47,0.7,0.44,0.6,16.1,4.2,35.89,,,,,,,,,,
14.45.48.610,230.9,57.7,0,,,93545.4,10.69,-0.54,0.79,0.59,14.2,10.3,1.2,36.21,,,,,,,,,,
14.45.48.619,210.1,52.5,0,,,93545.4,10.69,-0.5,0.72,0.5,1.3,3.9,3.9,36.27,,,,,,,,,,
14.45.48.629,180.0,45.0,0,,,93545.4,10.69,-0.58,0.63,0.5,6.1,-2.9,-7.3,36.15,,,,,,,,,,
14.45.48.637,143.3,35.8,0,,,93545.4,10.69,-0.41,0.7,0.63,-8.1,-3.8,-1.6,36.18,,,,,,,,,,
14.45.48.647,112.0,28.0,0,,,93545.4,10.69,-0.52,0.64,0.62,-1.8,5.9,2.5,35.91,,,,,,,,,,
14.45.48.655,73.9,18.5,0,,,93545.4,10.69,-0.34,0.75,0.55,-3.5,2.9,-0.2,36.41,,,,,,,,,,
14.45.48.665,36.9,9.2,0,,,93545.4,10.69,-0.52,0.56,0.62,-2.3,12.9,-5.7,35.99,,,,,,,,,,
14.45.48.674,-3.4,0.8,0,,,93545.4,10.69,-0.29,0.63,0.53,-1.1,4.0,-5.4,36.36,,,,,,,,,,
14.45.48.683,22.4,5.6,0,,,93545.4,10.69,-0.3,0.67,0.52,4.5,1.2,2.3,36.21,,,,,,,,,,
14.45.48.693,23.7,5.9,0,,,93545.4,10.69,-0.52,0.82,0.38,-4.9,11.7,5.8,36.18,,,,,,,,,,
14.45.48.703,39.0,9.8,0,,,93545.4,10.69,-0.39,0.76,0.61,3.5,13.3,1.0,36.29,,,,,,,,,,
14.45.48.712,42.1,10.5,0,,,93545.4,10.69,-0.43,0.71,0.56,5.5,-6.1,-5.5,36.0,,,,,,,,,,
14.45.48.724,44.8,11.2,0,,,93545.4,10.69,-0.45,0.78,0.59,18.7,8.7,-6.7,36.16,,,,,,,,,,
14.45.48.734,64.5,16.1,0,,,93545.4,10.69,-0.51,0.58,0.51,-8.0,6.2,0.4,36.24,,,,,,,,,,
14.45.48.743,55.8,14.0,0,,,93545.4,10.69,-0.3,0.86,0.57,-22.3,14.4,6.1,36.03,,,,,,,,,,
14.45.48.753,42.3,10.6,0,,,93545.4,10.69,-0.59,0.47,0.68,-4.5,12.8,1.6,36.31,,,,,,,,,,
14.45.48.764,44.0,11.0,0,,,93545.4,10.69,-0.43,0.47,0.61,-0.3,8.7,4.9,36.11,,,,,,,,,,
14.45.48.773,23.8,6.0,0,,,93545.4,10.69,-0.52,0.86,0.5,-7.1,0.9,-1.7,36.52,,,,,,,,,,
14.45.48.783,33.7,8.4,0,,,93545.4,10.69,-0.55,0.85,0.54,-2.0,7.6,-0.8,36.23,,,,,,,,,,
14.45.48.795,9.8,2.4,0,,,93545.4,10.69,-0.38,0.73,0.69,1.7,17.8,2.5,36.15,,,,,,,,,,
14.45.48.805,1.3,0.3,0,,,93545.4,10.69,-0.43,0.6,0.61,-2.9,12.1,-2.3,36.1,,,,,,,,,,
14.45.48.813,-1.0,0.2,0,,,93545.4,10.69,-0.39,0.79,0.53,-13.8,4.3,-3.7,36.11,,,,,,,,,,
14.45.48.823,-12.4,3.1,0,,,93545.4,10.69,-0.4,0.71,0.47,7.0,9.0,1.7,35.99,,,,,,,,,,
14.45.48.835,-17.7,4.4,0,,,93545.4,10.69,-0.44,0.68,0.28,6.6,-2.1,5.6,36.39,,,,,,,,,,
14.45.48.842,-22.8,5.7,0,,,93545.4,10.69,-0.39,0.78,0.55,3.1,6.8,6.7,36.14,,,,,,,,,,
14.45.48.851,-24.6,6.2,0,,,93545.4,10.69,-0.39,0.79,0.62,3.1,2.9,-3.0,36.17,,,,,,,,,,
14.45.48.860,-30.9,7.7,0,,,93545.4,10.69,-0.42,0.56,0.53,4.7,6.9,6.9,36.3,,,,,,,,,,
14.45.48.868,-30.6,7.6,0,,,93545.4,10.69,-0.55,0.58,0.61,-0.5,-2.1,-7.3,36.11,,,,,,,,,,
14.45.48.876,-36.9,9.2,1,14.0,92.7,93545.4,10.69,-0.37,0.58,0.49,18.1,9.9,-3.9,36.19,,,,,,,,,,
14.45.48.888,-40.5,10.1,0,,,93545.4,10.69,-0.49,0.59,0.59,1.3,10.2,-2.0,36.45,,,,,,,,,,
14.45.48.896,-31.3,7.8,0,,,93545.4,10.69,-0.46,0.56,0.63,6.5,0.6,-0.4,36.27,,,,,,,,,,
14.45.48.906,-43.2,10.8,0,,,93545.4,10.69,-0.5,0.56,0.6,-4.0,-2.5,-0.8,36.22,,,,,,,,,,
14.45.48.918,-52.9,13.2,0,,,93545.4,10.69,-0.49,0.86,0.58,12.8,6.9,-5.6,36.41,,,,,,,,,,
14.45.48.928,-59.9,15.0,0,,,93545.4,10.69,-0.38,0.57,0.49,3.5,5.3,-6.3,36.09,,,,,,,,,,
14.45.48.938,-52.1,13.0,0,,,93545.4,10.69,-0.55,0.74,0.6,-3.2,14.5,-2.9,36.3,,,,,,,,,,
14.45.48.947,-69.9,17.5,0,,,93545.4,10.69,-0.39,0.61,0.54,-0.5,1.0,2.2,36.17,,36.2,,,,,,,,
14.45.48.957,-65.8,16.4,0,,,93545.4,10.69,-0.44,0.53,0.56,-0.6,8.5,-3.1,36.28,,,,,,,,,,
14.45.48.969,-88.1,22.0,0,,,93545.4,10.69,-0.46,0.67,0.45,13.3,6.2,2.8,36.13,,,,,,,,,,
14.45.48.981,-72.4,18.1,0,,,93545.4,10.69,-0.43,0.54,0.55,-2.3,8.2,3.9,36.05,,,,,,,,,,
14.45.48.991,-69.2,17.3,0,,,93545.4,10.69,-0.51,0.59,0.6,-4.4,-2.0,1.8,36.08,,,,,,,,,,
14.45.49.000,-77.6,19.4,0,,,93545.4,10.69,-0.54,0.74,0.54,-8.5,6.9,11.3,36.14,,,,,,,,,,
14.45.49.010,-99.7,24.9,0,,,93545.4,10.69,-0.42,0.72,0.49,4.3,8.1,-5.9,36.01,,,,,,,,,,
14.45.49.019,-101.2,25.3,0,,,93545.4,10.69,-0.48,0.62,0.57,4.2,-0.4,-5.1,36.17,,,,,,,,,,
14.45.49.029,-103.2,25.8,0,,,93545.4,10.69,-0.45,0.64,0.59,-3.4,7.4,-0.8,36.31,,,,,,,,,,
14.45.49.039,-106.9,26.7,0,,,93545.4,10.69,-0.32,0.79,0.54,-0.5,1.7,-5.4,36.38,,,,,,,,,,
14.45.49.050,-125.4,31.4,0,,,93545.4,10.69,-0.32,0.69,0.48,0.2,2.8,-6.7,36.36,,,,,,,,,,
14.45.49.059,-110.7,27.7,0,,,93545.4,10.69,-0.46,0.59,0.5,6.9,11.1,-3.0,36.18,,,,,,,,,,
14.45.49.068,-122.4,30.6,0,,,93545.4,10.69,-0.38,0.69,0.56,2.1,5.6,-5.0,36.18,,,,,,,,,,
14.45.49.080,-138.8,34.7,0,,,93545.4,10.69,-0.47,0.51,0.55,-7.0,15.2,-12.9,36.13,,,,,,,,,,
14.45.49.090,-132.8,33.2,0,,,93545.4,10.69,-0.25,0.58,0.55,-0.0,2.2,0.0,36.36,,,,,,,,,,
14.45.49.100,23.8,6.0,0,,,93545.4,10.69,-0.46,0.66,0.41,12.8,-3.6,-2.9,36.16,,,,,,,,,,
14.45.49.112,81.1,20.3,0,,,93545.4,10.69,-0.45,0.7,0.45,1.2,9.0,5.4,36.42,,,,,,,,,,
14.45.49.122,124.8,31.2,0,,,93545.4,10.69,-0.57,0.84,0.64,-7.3,7.0,11.1,36.24,,,,,,,,,,
14.45.49.130,144.2,36.0,0,,,93545.4,10.69,-0.41,0.74,0.64,3.5,-8.4,1.3,36.16,,,,,,,,,,
14.45.49.140,183.0,45.8,0,,,93545.4,10.69,-0.42,0.72,0.53,5.3,3.9,9.2,36.14,,,,,,,,,,
14.45.49.149,216.1,54.0,0,,,93545.4,10.69,-0.44,0.52,0.65,9.2,14.3,5.4,36.1,,,,,,,,,,
14.45.49.159,251.4,62.8,0,,,93545.4,10.69,-0.32,0.7,0.52,8.9,-0.5,0.6,36.29,,,,,,,,,,
14.45.49.169,292.9,73.2,0,,,93545.4,10.69,-0.43,0.48,0.51,-11.0,7.5,0.1,36.19,,,,,,,,,,
14.45.49.178,282.8,70.7,0,,,93545.4,10.69,-0.42,0.72,0.56,-1.9,2.3,-1.2,36.34,,,,,,,,,,
14.45.49.189,311.1,77.8,0,,,93545.4,10.69,-0.47,0.73,0.55,7.8,10.2,6.8,36.14,,,,,,,,,,
14.45.49.199,309.4,77.4,0,,,93545.4,10.69,-0.46,0.81,0.39,16.9,9.9,-2.0,36.45,,,,,,,,,,
14.45.49.209,306.0,76.5,0,,,93545.4,10.69,-0.39,0.78,0.52,-28.5,-1.8,5.9,36.28,,,,,,,,,,
14.45.49.219,278.6,69.6,0,,,93545.4,10.69,-0.56,0.46,0.58,-3.5,16.8,1.4,36.06,,,,,,,,,,
14.45.49.231,288.7,72.2,0,,,93545.4,10.69,-0.46,0.54,0.68,10.6,12.0,3.4,36.42,,,,,,,,,,
14.45.49.239,296.2,74.0,0,,,93545.4,10.69,-0.53,0.6,0.67,10.3,4.1,-1.1,36.23,,,,,,,,,,
14.45.49.248,279.4,69.8,0,,,93545.4,10.69,-0.44,0.58,0.58,0.7,0.0,-6.3,36.01,,,,,,,,,,
14.45.49.256,244.3,61.1,0,,,93545.4,10.69,-0.5,0.5,0.7,-5.4,-2.2,-3.1,36.06,,,,,,,,,,
14.45.49.267,212.0,53.0,0,,,93545.4,10.69,-0.28,0.54,0.44,6.3,6.6,1.7,36.11,,,,,,,,,,
14.45.49.276,198.7,49.7,0,,,93545.4,10.69,-0.46,0.41,0.58,17.7,7.6,-9.7,36.38,,,,,,,,,,
14.45.49.287,147.6,36.9,0,,,93545.4,10.69,-0.46,0.57,0.62,-6.3,9.3,9.3,36.43,,,,,,,,,,
14.45.49.299,88.1,22.0,0,,,93545.4,10.69,-0.53,0.74,0.71,-0.2,13.0,-5.1,36.21,,,,,,,,,,
14.45.49.311,46.8,11.7,0,,,93545.4,10.69,-0.49,0.58,0.58,2.4,6.5,-10.0,36.29,,,,,,,,,,
14.45.49.321,-9.9,2.5,0,,,93545.4,10.69,-0.5,0.68,0.51,-22.7,7.8,-1.2,36.07,,,,,,,,,,
14.45.49.330,13.9,3.5,0,,,93545.4,10.69,-0.39,0.77,0.47,8.7,2.4,-5.5,36.09,,,,,,,,,,
14.45.49.341,27.3,6.8,0,,,93545.4,10.69,-0.54,0.78,0.58,-11.8,1.9,-8.6,36.13,,,,,,,,,,
14.45.49.350,43.5,10.9,0,,,93545.4,10.69,-0.4,0.64,0.49,-4.6,4.3,-8.3,35.95,,,,,,,,,,
14.45.49.360,59.8,15.0,0,,,93545.4,10.69,-0.33,0.63,0.52,-2.7,9.4,4.4,36.39,,,,,,,,,,
14.45.49.369,52.7,13.2,0,,,93545.4,10.69,-0.46,0.66,0.57,8.7,3.2,-14.2,36.06,,,,,,,,,,
14.45.49.378,70.1,17.5,0,,,93545.4,10.69,-0.44,0.63,0.7,9.2,13.6,-4.9,36.13,,,,,,,,,,
14.45.49.389,61.6,15.4,0,,,93545.4,10.69,-0.26,0.69,0.62,4.7,0.7,-0.8,36.09,,,,,,,,,,
14.45.49.400,61.7,15.4,0,,,93545.4,10.69,-0.47,0.73,0.56,1.9,7.7,1.2,36.23,,,,,,,,,,
14.45.49.410,59.3,14.8,0,,,93545.4,10.69,-0.34,0.69,0.51,-1.8,13.4,-4.9,36.25,,,,,,,,,,
14.45.49.419,33.3,8.3,0,,,93545.4,10.69,-0.66,0.85,0.62,7.9,-0.1,2.4,36.15,,,,,,,,,,
14.45.49.428,29.0,7.2,0,,,93545.4,10.69,-0.42,0.58,0.52,-7.8,-0.8,1.6,36.2,,,,,,,,,,
14.45.49.437,19.7,4.9,0,,,93545.4,10.69,-0.44,0.58,0.46,14.2,8.9,-6.1,36.09,,,,,,,,,,
14.45.49.447,-2.1,0.5,0,,,93545.4,10.69,-0.43,0.52,0.47,-18.0,5.5,-6.7,36.42,,,,,,,,,,
14.45.49.458,-10.0,2.5,0,,,93545.4,10.69,-0.39,0.67,0.55,-7.1,2.7,-8.4,36.01,,,,,,,,,,
14.45.49.469,-13.9,3.5,0,,,93545.4,10.69,-0.38,0.75,0.64,10.4,9.6,-0.4,36.21,,,,,,,,,,
14.45.49.479,-16.5,4.1,1,15.0,99.5,93545.4,10.69,-0.39,0.73,0.59,8.9,2.9,2.0,36.12,,,,,,,,,,
14.45.49.490,-15.0,3.8,0,,,93545.4,10.69,-0.57,0.65,0.62,-9.8,-2.7,0.2,36.15,,,,,,,,,,
14.45.49.498,-29.5,7.4,0,,,93545.4,10.69,-0.47,0.82,0.68,-7.7,9.7,6.8,36.17,,,,,,,,,,
14.45.49.507,-28.9,7.2,0,,,93545.4,10.69,-0.5,0.67,0.6,-5.6,1.2,-1.6,36.0,,,,,,,,,,
14.45.49.517,-34.7,8.7,0,,,93545.4,10.69,-0.47,0.89,0.48,8.3,-3.8,-7.0,36.31,,,,,,,,,,
14.45.49.529,-37.4,9.4,0,,,93545.4,10.69,-0.43,0.57,0.47,10.9,2.1,-0.0,36.32,,,,,,,,,,
14.45.49.540,-31.0,7.8,0,,,93545.4,10.69,-0.5,0.68,0.67,-4.0,4.6,-9.4,36.04,,,,,,,,,,
14.45.49.550,-38.3,9.6,0,,,93545.4,10.69,-0.31,0.8,0.56,-0.6,3.0,4.1,36.26,,,,,,,,,,
14.45.49.560,-58.2,14.6,0,,,93545.4,10.69,-0.25,0.66,0.55,-9.9,11.3,7.0,36.34,,,,,,,,,,
14.45.49.569,-59.4,14.8,0,,,93545.4,10.69,-0.42,0.73,0.63,-0.6,13.6,-0.6,36.25,,,,,,,,,,
14.45.49.578,-50.3,12.6,0,,,93545.4,10.69,-0.41,0.76,0.5,-8.9,-3.1,-15.4,36.27,,,,,,,,,,
14.45.49.587,-59.9,15.0,0,,,93545.4,10.69,-0.47,0.72,0.54,-3.6,0.1,-9.4,36.15,,,,,,,,,,
14.45.49.598,-60.3,15.1,0,,,93545.4,10.69,-0.31,0.51,0.51,2.3,-5.4,0.1,36.23,,,,,,,,,,
14.45.49.609,-72.1,18.0,0,,,93545.4,10.69,-0.48,0.47,0.52,-11.1,-9.4,-1.5,36.05,,,,,,,,,,
14.45.49.619,-63.9,16.0,0,,,93545.4,10.69,-0.59,0.72,0.68,6.6,0.4,1.6,36.4,,,,,,,,,,
14.45.49.628,-74.7,18.7,0,,,93545.4,10.69,-0.38,0.61,0.49,9.8,13.1,2.4,36.52,,,,,,,,,,
14.45.49.637,-78.2,19.6,0,,,93545.4,10.69,-0.47,0.63,0.48,6.5,8.4,-0.1,36.34,,,,,,,,,,
14.45.49.645,-92.0,23.0,0,,,93545.4,10.69,-0.5,0.65,0.56,22.0,1.4,-0.8,36.08,,,,,,,,,,
14.45.49.654,-87.4,21.8,0,,,93545.4,10.69,-0.33,0.75,0.55,-1.0,-0.3,4.3,36.59,,,,,,,,,,
14.45.49.664,-98.9,24.7,0,,,93545.4,10.69,-0.56,0.7,0.76,-14.7,0.2,-7.8,36.11,,,,,,,,,,
14.45.49.674,-86.8,21.7,0,,,93545.4,10.69,-0.42,0.71,0.58,-11.2,15.6,3.7,36.2,,,,,,,,,,
14.45.49.684,-106.3,26.6,0,,,93545.4,10.69,-0.45,0.66,0.63,2.6,-0.2,-5.8,36.4,,,,,,,,,,
14.45.49.694,-100.7,25.2,0,,,93545.4,10.69,-0.55,0.7,0.54,-2.9,-4.9,-3.5,36.1,,,,,,,,,,
14.45.49.702,-121.1,30.3,0,,,93545.4,10.69,-0.45,0.69,0.45,-8.6,8.4,-19.2,36.11,,,,,,,,,,
14.45.49.710,-123.4,30.8,0,,,93545.4,10.69,-0.35,0.65,0.55,-16.0,4.1,0.2,36.15,,,,,,,,,,
14.45.49.721,-112.2,28.0,0,,,93545.4,10.69,-0.47,0.6,0.55,9.6,1.9,1.3,36.09,,,,,,,,,,
14.45.49.730,-127.7,31.9,0,,,93545.4,10.69,-0.42,0.66,0.59,-2.5,-5.1,-6.1,36.28,,,,,,,,,,
14.45.49.742,-138.4,34.6,0,,,93545.4,10.69,-0.64,0.64,0.57,-12.9,6.4,-4.6,36.11,,,,,,,,,,
14.45.49.751,34.8,8.7,0,,,93545.4,10.69,-0.52,0.73,0.61,10.7,2.3,6.3,36.45,,,,,,,,,,
14.45.49.761,87.5,21.9,0,,,93545.4,10.69,-0.39,0.84,0.54,-9.8,11.6,-3.0,36.39,,,,,,,,,,
14.45.49.770,120.3,30.1,0,,,93545.4,10.69,-0.37,0.76,0.54,10.8,6.1,-1.7,36.34,,,,,,,,,,
14.45.49.780,158.2,39.6,0,,,93545.4,10.69,-0.51,0.56,0.66,0.4,13.5,-7.1,36.25,,,,,,,,,,
14.45.49.792,192.3,48.1,0,,,93545.4,10.69,-0.52,0.68,0.61,2.0,19.5,-4.3,35.96,,,,,,,,,,
14.45.49.803,240.1,60.0,0,,,93545.4,10.69,-0.44,0.67,0.48,4.7,19.4,-3.7,36.22,,,,,,,,,,
14.45.49.810,249.2,62.3,0,,,93545.4,10.69,-0.29,0.69,0.5,4.0,21.2,-12.3,36.47,,,,,,,,,,
14.45.49.818,289.4,72.4,0,,,93545.4,10.69,-0.37,0.65,0.44,12.8,-1.8,-3.9,36.41,,,,,,,,,,
14.45.49.826,297.7,74.4,0,,,93545.4,10.69,-0.42,0.8,0.58,2.5,7.5,4.5,36.42,,,,,,,,,,
14.45.49.836,312.8,78.2,0,,,93545.4,10.69,-0.49,0.72,0.55,-2.8,-2.0,-6.8,36.23,,,,,,,,,,
14.45.49.844,331.6,82.9,0,,,93545.4,10.69,-0.5,0.54,0.59,-0.4,4.9,-1.1,36.41,,,,,,,,,,
14.45.49.854,312.3,78.1,0,,,93545.4,10.69,-0.47,0.83,0.47,-9.9,-2.5,-9.2,36.09,,,,,,,,,,
14.45.49.865,329.8,82.4,0,,,93545.4,10.69,-0.46,0.65,0.52,-9.8,0.2,-8.2,36.02,,,,,,,,,,
14.45.49.875,330.0,82.5,0,,,93545.4,10.69,-0.51,0.92,0.46,-0.9,6.9,-1.2,35.91,,,,,,,,,,
14.45.49.884,325.2,81.3,0,,,93545.4,10.69,-0.42,0.55,0.49,-3.4,1.9,-11.3,36.01,,,,,,,,,,
14.45.49.893,283.5,70.9,0,,,93545.4,10.69,-0.48,0.8,0.51,5.3,-1.4,-1.4,35.99,,,,,,,,,,
14.45.49.904,256.9,64.2,0,,,93545.4,10.69,-0.37,0.75,0.67,-10.1,-5.3,-1.9,36.32,,,,,,,,,,
14.45.49.914,212.8,53.2,0,,,93633.0,10.68,-0.34,0.5,0.6,14.6,-1.4,5.8,35.91,,,,,,,,,,
14.45.49.926,183.1,45.8,0,,,93633.0,10.68,-0.44,0.75,0.64,0.2,-0.7,-3.5,36.22,,,,,,,,,,
14.45.49.932,148.6,37.2,0,,,93633.0,10.68,-0.31,0.68,0.54,9.9,-4.3,7.1,36.22,,,,,,,,,,
14.45.49.942,127.7,31.9,0,,,93633.0,10.68,-0.48,0.67,0.55,-1.1,9.6,-6.0,36.23,,,,,,,,,,
14.45.49.952,79.4,19.8,0,,,93633.0,10.68,-0.41,0.7,0.59,-7.9,-0.7,4.2,36.08,,,,,,,,,,
14.45.49.961,41.9,10.5,0,,,93633.0,10.68,-0.57,0.61,0.52,-7.5,-2.9,4.5,36.22,,,,,,,,,,
14.45.49.970,7.1,1.8,0,,,93633.0,10.68,-0.25,0.71,0.48,1.1,1.6,9.1,35.97,,,,,,,,,,
14.45.49.979,11.6,2.9,0,,,93633.0,10.68,-0.55,0.71,0.5,1.4,3.1,3.1,36.48,,,,,,,,,,
14.45.49.988,25.4,6.4,0,,,93633.0,10.68,-0.53,0.63,0.46,6.2,-1.2,3.1,36.19,,,,,,,,,,
14.45.49.999,33.3,8.3,0,,,93633.0,10.68,-0.44,0.82,0.44,9.8,0.9,-3.6,36.16,,,,,,,,,,
14.45.50.010,44.4,11.1,0,,,93633.0,10.68,-0.43,0.55,0.55,-12.3,-4.9,-2.1,36.13,92.9,,,,,,,,,
14.45.50.019,52.1,13.0,0,,,93633.0,10.68,-0.46,0.59,0.56,-9.7,5.4,-4.8,36.34,,,,,,,,,,
14.45.50.028,49.9,12.5,0,,,93633.0,10.68,-0.43,0.75,0.51,-0.3,6.5,-5.4,35.99,,,,,,,,,,
14.45.50.036,66.3,16.6,0,,,93633.0,10.68,-0.25,0.77,0.58,3.3,8.6,3.6,36.18,,,,,,,,,,
14.45.50.045,62.3,15.6,0,,,93633.0,10.68,-0.58,0.66,0.47,1.6,-5.0,-1.0,36.2,,,,,,,,,,
14.45.50.055,46.1,11.5,0,,,93633.0,10.68,-0.5,0.69,0.6,0.2,8.8,-0.3,36.24,,,,,,,,,,
14.45.50.066,54.8,13.7,0,,,93633.0,10.68,-0.38,0.68,0.62,11.1,18.7,-2.8,36.16,,,,,,,,,,
14.45.50.074,31.9,8.0,0,,,93633.0,10.68,-0.5,0.69,0.42,-0.4,-0.9,1.1,36.04,,,,,,,,,,
14.45.50.083,24.4,6.1,0,,,93633.0,10.68,-0.36,0.68,0.56,1.6,4.6,-8.3,36.19,,,,,,,,,,
14.45.50.094,8.6,2.2,0,,,93633.0,10.68,-0.48,0.62,0.48,10.9,5.4,4.4,36.06,,,,,,,,,,
14.45.50.104,-2.1,0.5,0,,,93633.0,10.68,-0.36,0.49,0.63,19.2,-4.5,5.8,36.01,,,,,,,,,,
14.45.50.115,-2.4,0.6,0,,,93633.0,10.68,-0.46,0.86,0.77,-2.4,-15.5,3.9,36.28,,,,,,,,,,
14.45.50.127,-19.5,4.9,1,16.0,92.6,93633.0,10.68,-0.45,0.62,0.49,6.7,4.9,-9.9,36.21,,,,,,,,,,
14.45.50.134,-5.2,1.3,0,,,93633.0,10.68,-0.52,0.75,0.58,2.4,3.8,-4.4,35.97,,,,,,,,,,
14.45.50.145,-19.8,5.0,0,,,93633.0,10.68,-0.42,0.75,0.39,-0.8,16.3,0.2,36.21,,,,,,,,,,
14.45.50.155,-19.9,5.0,0,,,93633.0,10.68,-0.44,0.57,0.58,16.6,2.2,0.8,35.84,,,,,,,,,,
14.45.50.165,-27.0,6.8,0,,,93633.0,10.68,-0.39,0.74,0.47,-12.1,-8.9,0.1,36.23,,,,,,,,,,
14.45.50.175,-30.9,7.7,0,,,93633.0,10.68,-0.58,0.69,0.46,-11.4,-0.3,5.7,36.15,,,,,,,,,,
14.45.50.185,-40.3,10.1,0,,,93633.0,10.68,-0.45,0.81,0.33,-12.2,8.1,0.7,36.16,,,,,,,,,,
14.45.50.193,-39.7,9.9,0,,,93633.0,10.68,-0.41,0.7,0.54,-3.5,6.1,-0.3,36.12,,,,,,,,,,
14.45.50.203,-53.3,13.3,0,,,93633.0,10.68,-0.39,0.6,0.52,-0.1,2.8,-1.8,36.01,,,,,,,,,,
14.45.50.212,-52.1,13.0,0,,,93633.0,10.68,-0.52,0.66,0.44,7.1,-8.7,-3.8,36.17,,,,,,,,,,
14.45.50.222,-56.4,14.1,0,,,93633.0,10.68,-0.42,0.63,0.52,6.9,22.2,-0.6,36.2,,,,,,,,,,
14.45.50.232,-50.8,12.7,0,,,93633.0,10.68,-0.47,0.6,0.57,6.8,15.6,1.9,36.28,,,,,,,,,,
14.45.50.242,-62.1,15.5,0,,,93633.0,10.68,-0.28,0.58,0.64,10.7,16.7,2.3,36.15,,,,,,,,,,
14.45.50.252,-66.2,16.6,0,,,93633.0,10.68,-0.43,0.81,0.56,-4.9,7.1,-3.0,36.28,,,,,,,,,,
14.45.50.263,-67.3,16.8,0,,,93633.0,10.68,-0.45,0.74,0.58,1.4,15.1,-2.2,36.2,,,,,,,,,,
14.45.50.274,-76.1,19.0,0,,,93633.0,10.68,-0.34,0.72,0.48,-7.2,4.0,-8.9,36.03,,,,,,,,,,
14.45.50.281,-77.7,19.4,0,,,93633.0,10.68,-0.29,0.72,0.58,2.2,9.3,5.2,36.37,,,,,,,,,,
14.45.50.289,-97.2,24.3,0,,,93633.0,10.68,-0.41,0.47,0.48,10.1,12.7,-1.6,36.03,,,,,,,,,,
14.45.50.299,-85.6,21.4,0,,,93633.0,10.68,-0.43,0.72,0.57,-11.9,11.2,-10.8,36.33,,,,,,,,,,
14.45.50.309,-99.0,24.8,0,,,93633.0,10.68,-0.45,0.53,0.56,10.8,7.3,-3.6,36.13,,,,,,,,,,
14.45.50.320,-93.5,23.4,0,,,93633.0,10.68,-0.49,0.82,0.5,-2.4,6.9,2.4,36.34,,,,,,,,,,
14.45.50.332,-86.9,21.7,0,,,93633.0,10.68,-0.34,0.66,0.48,-5.2,5.2,-5.3,36.27,,,,,,,,,,
14.45.50.343,-98.1,24.5,0,,,93633.0,10.68,-0.44,0.73,0.57,-0.9,14.9,1.8,36.11,,,,,,,,,,
14.45.50.353,-117.7,29.4,0,,,93633.0,10.68,-0.44,0.86,0.49,3.3,-7.1,-6.2,36.04,,,,,,,,,,
14.45.50.363,-120.0,30.0,0,,,93633.0,10.68,-0.33,0.54,0.61,5.5,17.7,8.4,36.12,,,,,,,,,,
14.45.50.374,-129.2,32.3,0,,,93633.0,10.68,-0.41,0.6,0.49,-18.8,0.3,-4.3,36.15,,,,,,,,,,
14.45.50.384,-134.6,33.6,0,,,93633.0,10.68,-0.55,0.83,0.5,-6.1,-11.9,3.0,36.3,,,,,,,,,,
14.45.50.395,7.6,1.9,0,,,93633.0,10.68,-0.48,0.67,0.57,3.4,6.8,-3.2,36.18,,,,,,,,,,
14.45.50.406,68.2,17.0,0,,,93633.0,10.68,-0.41,0.76,0.53,12.0,4.7,-2.8,36.24,,,,,,,,,,
14.45.50.414,98.9,24.7,0,,,93633.0,10.68,-0.58,0.64,0.51,11.1,11.8,8.9,35.87,,,,,,,,,,
14.45.50.422,115.9,29.0,0,,,93633.0,10.68,-0.5,0.71,0.49,-10.6,14.1,-4.1,36.07,,,,,,,,,,
14.45.50.431,170.2,42.6,0,,,93633.0,10.68,-0.49,0.67,0.65,-9.7,-7.9,-1.1,36.21,,,,,,,,,,
14.45.50.441,209.2,52.3,0,,,93633.0,10.68,-0.22,0.73,0.48,10.2,-18.2,7.2,36.23,,,,,,,,,,
14.45.50.450,253.5,63.4,0,,,93633.0,10.68,-0.39,0.67,0.44,15.9,4.9,-5.8,36.29,,,,,,,,,,
14.45.50.461,260.0,65.0,0,,,93633.0,10.68,-0.46,0.9,0.59,1.0,12.5,-8.6,36.36,,,,,,,,,,
14.45.50.471,293.1,73.3,0,,,93633.0,10.68,-0.56,0.84,0.57,-13.7,10.8,12.4,36.37,,,,,,,,,,
14.45.50.480,314.7,78.7,0,,,93633.0,10.68,-0.37,0.78,0.58,-1.0,2.1,-1.7,36.2,,,,,,,,,,
14.45.50.490,295.7,73.9,0,,,93633.0,10.68,-0.57,0.58,0.42,-15.1,-0.7,-1.7,36.35,,,,,,,,,,
14.45.50.501,330.1,82.5,0,,,93633.0,10.68,-0.39,0.82,0.45,14.8,9.4,-2.8,36.1,,,,,,,,,,
14.45.50.510,325.0,81.2,0,,,93633.0,10.68,-0.5,0.85,0.44,-1.3,19.9,-6.7,36.0,,,,,,,,,,
14.45.50.519,313.6,78.4,0,,,93633.0,10.68,-0.43,0.62,0.49,-5.5,10.2,3.1,35.98,,,,,,,,,,
14.45.50.527,281.8,70.4,0,,,93633.0,10.68,-0.36,0.65,0.66,-8.0,10.3,-0.8,36.48,,,,,,,,,,
14.45.50.536,263.1,65.8,0,,,93633.0,10.68,-0.48,0.73,0.61,0.8,15.5,-4.1,35.96,,,,,,,,,,
14.45.50.545,282.6,70.6,0,,,93633.0,10.68,-0.27,0.55,0.51,-4.9,2.4,-17.7,36.16,,,,,,,,,,
14.45.50.554,241.7,60.4,0,,,93633.0,10.68,-0.49,0.72,0.6,-2.6,-8.6,-7.6,36.12,,,,,,,,,,
14.45.50.563,228.4,57.1,0,,,93633.0,10.68,-0.63,0.71,0.61,9.3,14.4,1.0,36.2,,,,,,,,,,
14.45.50.571,184.8,46.2,0,,,93633.0,10.68,-0.49,0.66,0.77,2.3,13.0,1.7,36.23,,,,,,,,,,
14.45.50.581,164.8,41.2,0,,,93633.0,10.68,-0.45,0.71,0.64,3.6,4.4,-4.5,36.29,,,,,,,,,,
14.45.50.590,136.3,34.1,0,,,93633.0,10.68,-0.41,0.81,0.59,-0.1,0.8,-5.5,36.14,,,,,,,,,,
14.45.50.598,87.4,21.8,0,,,93633.0,10.68,-0.45,0.75,0.48,-9.8,6.2,-0.3,35.95,,,,,,,,,,
14.45.50.609,42.4,10.6,0,,,93633.0,10.68,-0.41,0.58,0.42,-11.2,0.9,1.8,36.08,,,,,,,,,,
14.45.50.621,-5.5,1.4,0,,,93633.0,10.68,-0.47,0.66,0.49,4.4,-3.1,-4.8,36.08,,,,,,,,,,
14.45.50.629,14.5,3.6,0,,,93633.0,10.68,-0.41,0.84,0.53,-10.2,4.6,-2.4,36.05,,,,,,,,,,
14.45.50.640,28.4,7.1,0,,,93633.0,10.68,-0.41,0.71,0.62,4.0,0.7,10.6,36.14,,,,,,,,,,
14.45.50.651,31.7,7.9,0,,,93633.0,10.68,-0.33,0.61,0.63,-7.1,10.0,-2.2,35.97,,,,,,,,,,
14.45.50.659,59.6,14.9,0,,,93633.0,10.68,-0.44,0.63,0.54,-4.3,-7.6,-4.7,36.31,,,,,,,,,,
14.45.50.671,45.8,11.4,0,,,93633.0,10.68,-0.43,0.64,0.43,5.4,0.9,-8.5,36.38,,,,,,,,,,
14.45.50.680,62.9,15.7,0,,,93633.0,10.68,-0.51,0.78,0.37,6.5,10.4,3.6,36.06,,,,,,,,,,
14.45.50.689,54.2,13.6,0,,,93633.0,10.68,-0.52,0.62,0.49,9.1,5.0,-10.9,36.05,,,,,,,,,,
14.45.50.698,62.8,15.7,0,,,93633.0,10.68,-0.44,0.82,0.56,3.8,6.3,0.9,36.03,,,,,,,,,,
14.45.50.706,45.7,11.4,0,,,93633.0,10.68,-0.29,0.72,0.64,2.0,14.6,0.2,36.01,,,,,,,,,,
14.45.50.715,45.4,11.4,0,,,93633.0,10.68,-0.46,0.62,0.56,-4.4,-2.5,1.9,36.07,,,,,,,,,,
14.45.50.726,30.8,7.7,1,17.0,100.2,93633.0,10.68,-0.52,0.66,0.6,8.7,6.2,3.6,36.19,,,,,,,,,,
14.45.50.733,25.0,6.2,0,,,93633.0,10.68,-0.41,0.74,0.66,7.6,4.8,-3.8,36.35,,,,,,,,,,
14.45.50.744,11.5,2.9,0,,,93633.0,10.68,-0.34,0.68,0.59,10.4,6.5,-7.0,36.25,,,,,,,,,,
14.45.50.752,4.7,1.2,0,,,93633.0,10.68,-0.41,0.64,0.62,9.0,13.1,7.8,35.99,,,,,,,,,,
14.45.50.763,-7.3,1.8,0,,,93633.0,10.68,-0.43,0.57,0.48,17.5,3.0,-1.0,36.37,,,,,,,,,,
14.45.50.773,-6.9,1.7,0,,,93633.0,10.68,-0.49,0.6,0.59,-10.9,3.1,6.7,36.1,,,,,,,,,,
14.45.50.782,-16.9,4.2,0,,,93633.0,10.68,-0.45,0.62,0.51,1.9,1.9,8.8,36.32,,,,,,,,,,
14.45.50.790,-7.0,1.8,0,,,93633.0,10.68,-0.55,0.81,0.52,-14.2,7.1,-2.6,36.33,,,,,,,,,,
14.45.50.798,-7.0,1.8,0,,,93633.0,10.68,-0.44,0.56,0.58,0.8,-8.5,4.2,36.16,,,,,,,,,,
14.45.50.806,-21.4,5.4,0,,,93633.0,10.68,-0.51,0.75,0.5,10.5,5.5,-7.5,36.09,,,,,,,,,,
14.45.50.817,-31.5,7.9,0,,,93633.0,10.68,-0.5,0.8,0.55,13.0,3.3,-8.3,35.95,,,,,,,,,,
14.45.50.828,-40.0,10.0,0,,,93633.0,10.68,-0.62,0.53,0.44,13.9,16.2,-3.6,36.12,,,,,,,,,,
14.45.50.838,-43.8,11.0,0,,,93633.0,10.68,-0.51,0.5,0.5,6.7,5.0,-2.7,36.17,,,,,,,,,,
14.45.50.847,-49.3,12.3,0,,,93633.0,10.68,-0.43,0.72,0.59,8.5,-3.4,6.4,36.07,,,,,,,,,,
14.45.50.858,-50.5,12.6,0,,,93633.0,10.68,-0.39,0.77,0.61,27.4,-5.5,5.1,36.26,,,,,,,,,,
14.45.50.869,-50.7,12.7,0,,,93633.0,10.68,-0.52,0.76,0.74,3.1,12.1,2.0,36.53,,,,,,,,,,
14.45.50.879,-51.2,12.8,0,,,93633.0,10.68,-0.23,0.58,0.59,-3.5,11.2,1.3,36.28,,,,,,,,,,
14.45.50.887,-49.7,12.4,0,,,93633.0,10.68,-0.42,0.66,0.45,0.4,0.2,1.1,36.23,,,,,,,,,,
14.45.50.899,-61.2,15.3,0,,,93633.0,10.68,-0.3,0.7,0.51,-4.6,-2.6,1.9,36.4,,,,,,,,,,
14.45.50.909,-72.1,18.0,0,,,93633.0,10.68,-0.36,0.72,0.64,4.8,10.8,-14.0,36.45,,,,,,,,,,
14.45.50.919,-67.1,16.8,0,,,93633.0,10.68,-0.34,0.76,0.52,2.6,5.8,-3.7,36.18,,,,,,,,,,
14.45.50.929,-78.3,19.6,0,,,93633.0,10.68,-0.47,0.8,0.52,-12.2,9.8,-4.7,36.18,,,,,,,,,,
14.45.50.939,-90.9,22.7,0,,,93633.0,10.68,-0.47,0.83,0.5,15.3,7.0,-5.2,36.07,,,,,,,,,,
14.45.50.949,-87.8,22.0,0,,,93633.0,10.68,-0.44,0.77,0.46,17.7,1.4,2.8,36.22,,,,,,,,,,
14.45.50.960,-93.3,23.3,0,,,93633.0,10.68,-0.4,0.72,0.54,-14.5,-0.6,14.4,35.83,,,,,,,,,,
14.45.50.969,-101.0,25.2,0,,,93633.0,10.68,-0.51,0.65,0.56,8.2,-1.2,-1.9,36.07,,,,,,,,,,
14.45.50.980,-105.4,26.4,0,,,93633.0,10.68,-0.42,0.6,0.42,2.9,3.3,3.7,36.11,,,,,,,,,,
14.45.50.991,-104.1,26.0,0,,,93633.0,10.68,-0.36,0.74,0.67,-6.6,1.7,2.0,36.11,,,,,,,,,,
14.45.51.001,-124.0,31.0,0,,,93633.0,10.68,-0.39,0.55,0.58,-6.5,9.2,-0.6,36.33,,,,,,,,,,
14.45.51.012,-111.4,27.8,0,,,93633.0,10.68,-0.39,0.56,0.47,1.5,14.0,10.6,36.24,,,,,,,,,,
14.45.51.022,-114.9,28.7,0,,,93633.0,10.68,-0.43,0.69,0.49,16.0,11.1,-6.7,36.03,,,,,,,,,,
14.45.51.030,-120.2,30.0,0,,,93633.0,10.68,-0.43,0.64,0.63,17.4,11.4,-10.4,36.28,,,,,,,,,,
14.45.51.039,-133.6,33.4,0,,,93633.0,10.68,-0.48,0.92,0.6,1.2,5.1,-4.6,35.97,,,,,,,,,,
14.45.51.052,43.2,10.8,0,,,93633.0,10.68,-0.38,0.77,0.66,9.5,-0.8,-0.0,36.1,,,,,,,,,,
14.45.51.063,94.1,23.5,0,,,93633.0,10.68,-0.49,0.52,0.54,8.9,0.2,9.9,36.27,,,,,,,,,,
14.45.51.073,132.2,33.0,0,,,93633.0,10.68,-0.42,0.57,0.59,-3.5,7.9,-4.5,36.24,,,,,,,,,,
14.45.51.082,173.1,43.3,0,,,93633.0,10.68,-0.38,0.61,0.47,9.5,8.1,5.9,36.01,,,,,,,,,,
14.45.51.090,202.5,50.6,0,,,93633.0,10.68,-0.38,0.64,0.58,-14.9,-1.9,-8.5,36.42,,,,,,,,,,
14.45.51.100,225.6,56.4,0,,,93633.0,10.68,-0.52,0.52,0.68,-9.8,6.8,3.5,36.24,,,,,,,,,,
14.45.51.112,262.4,65.6,0,,,93633.0,10.68,-0.59,0.66,0.56,1.0,14.1,-3.3,36.3,,,,,,,,,,
14.45.51.120,286.2,71.6,0,,,93633.0,10.68,-0.6,0.69,0.65,10.7,-1.6,6.8,36.26,,,,,,,,,,
14.45.51.130,280.7,70.2,0,,,93633.0,10.68,-0.51,0.61,0.42,9.7,6.3,-4.9,36.11,,,,,,,,,,
14.45.51.139,311.4,77.8,0,,,93633.0,10.68,-0.38,0.61,0.57,-4.0,11.2,7.9,36.14,,,,,,,,,,
14.45.51.147,344.8,86.2,0,,,93633.0,10.68,-0.44,0.57,0.57,3.2,9.2,-0.1,36.21,,,,,,,,,,
14.45.51.156,309.4,77.4,0,,,93633.0,10.68,-0.43,0.91,0.59,-6.5,1.9,4.8,36.18,,,,,,,,,,
14.45.51.165,284.8,71.2,0,,,93633.0,10.68,-0.41,0.75,0.73,-4.9,15.4,4.2,36.2,,,,,,,,,,
14.45.51.176,292.7,73.2,0,,,93633.0,10.68,-0.26,0.62,0.55,-18.9,3.2,-1.1,36.34,,,,,,,,,,
14.45.51.184,296.6,74.2,0,,,93633.0,10.68,-0.5,0.82,0.6,-3.5,8.8,-6.7,36.24,,,,,,,,,,
14.45.51.196,273.2,68.3,0,,,93633.0,10.68,-0.43,0.71,0.45,-7.5,9.2,-1.4,36.21,,,,,,,,,,
14.45.51.205,237.0,59.2,0,,,93633.0,10.68,-0.44,0.72,0.55,-8.5,15.1,2.7,36.35,,,,,,,,,,
14.45.51.214,222.8,55.7,0,,,93633.0,10.68,-0.52,0.79,0.63,-7.8,7.6,-6.1,35.92,,,,,,,,,,
14.45.51.224,189.1,47.3,0,,,93633.0,10.68,-0.5,0.72,0.67,-12.0,1.6,3.2,36.37,,,,,,,,,,
14.45.51.235,138.3,34.6,0,,,93633.0,10.68,-0.39,0.63,0.52,-4.2,3.1,-2.0,35.97,,,,,,,,,,
14.45.51.247,89.2,22.3,0,,,93633.0,10.68,-0.46,0.76,0.45,4.1,5.9,-0.4,36.16,,,,,,,,,,
14.45.51.256,61.3,15.3,0,,,93633.0,10.68,-0.52,0.55,0.55,3.8,7.9,1.8,36.34,,,,,,,,,,
14.45.51.265,17.0,4.2,0,,,93633.0,10.68,-0.48,0.75,0.38,10.2,18.6,0.6,36.47,,,,,,,,,,
14.45.51.275,12.8,3.2,0,,,93633.0,10.68,-0.55,0.58,0.46,-7.6,-3.0,-10.3,36.23,,,,,,,,,,
14.45.51.283,19.3,4.8,0,,,93633.0,10.68,-0.3,0.5,0.45,-3.2,17.8,9.4,36.07,,,,,,,,,,
14.45.51.292,27.8,7.0,0,,,93633.0,10.68,-0.36,0.66,0.65,2.4,1.4,-5.0,36.41,,,,,,,,,,
14.45.51.300,33.3,8.3,0,,,93633.0,10.68,-0.48,0.53,0.55,13.2,19.1,-9.5,36.33,,,,,,,,,,
14.45.51.308,50.2,12.6,0,,,93633.0,10.68,-0.46,0.77,0.48,17.7,2.3,-0.8,36.37,,,,,,,,,,
14.45.51.318,50.6,12.6,0,,,93633.0,10.68,-0.56,0.55,0.55,-3.9,9.1,-2.0,36.02,,,,,,,,,,
14.45.51.330,66.9,16.7,0,,,93633.0,10.68,-0.34,0.66,0.62,-4.8,9.8,0.1,36.19,,,,,,,,,,
14.45.51.342,64.8,16.2,0,,,93633.0,10.68,-0.47,0.69,0.48,3.5,-2.0,-3.2,36.19,,,,,,,,,,
14.45.51.353,48.1,12.0,0,,,93633.0,10.68,-0.5,0.84,0.69,-2.2,16.6,-5.4,36.2,,,,,,,,,,
14.45.51.361,59.1,14.8,1,18.0,94.5,93633.0,10.68,-0.46,0.83,0.57,9.5,-2.9,-1.7,36.16,,,,,,,,,,
14.45.51.370,41.5,10.4,0,,,93633.0,10.68,-0.58,0.65,0.72,1.4,3.4,7.9,36.05,,,,,,,,,,
14.45.51.381,23.1,5.8,0,,,93633.0,10.68,-0.51,0.48,0.62,-4.9,-2.6,11.1,36.03,,,,,,,,,,
14.45.51.389,11.0,2.8,0,,,93633.0,10.68,-0.25,0.64,0.46,13.4,-5.8,-1.1,36.29,,,,,,,,,,
14.45.51.399,4.4,1.1,0,,,93633.0,10.68,-0.48,0.77,0.61,3.3,12.9,3.5,36.09,,,,,,,,,,
14.45.51.407,-0.3,0.1,0,,,93633.0,10.68,-0.55,0.7,0.57,-3.8,18.5,-4.9,36.15,,,,,,,,,,
14.45.51.416,-17.8,4.4,0,,,93633.0,10.68,-0.56,0.75,0.53,6.6,5.7,3.8,36.16,,,,,,,,,,
14.45.51.426,-19.0,4.8,0,,,93633.0,10.68,-0.57,0.58,0.57,-1.0,8.1,1.2,36.45,,,,,,,,,,
14.45.51.436,-17.2,4.3,0,,,93633.0,10.68,-0.4,0.75,0.52,-4.9,-1.9,-11.7,36.22,,,,,,,,,,
14.45.51.446,-13.7,3.4,0,,,93633.0,10.68,-0.42,0.54,0.52,6.2,14.5,5.5,36.21,,,,,,,,,,
14.45.51.456,-27.7,6.9,0,,,93633.0,10.68,-0.39,0.71,0.35,-2.6,-1.7,6.7,36.12,,,,,,,,,,
14.45.51.466,-32.9,8.2,0,,,93633.0,10.68,-0.45,0.69,0.5,-10.5,7.7,0.3,36.21,,,,,,,,,,
14.45.51.475,-27.4,6.8,0,,,93633.0,10.68,-0.46,0.57,0.6,3.7,7.5,-0.6,36.26,,,,,,,,,,
14.45.51.485,-51.3,12.8,0,,,93633.0,10.68,-0.48,0.81,0.69,0.3,7.8,-0.7,35.94,,,,,,,,,,
14.45.51.496,-41.6,10.4,0,,,93633.0,10.68,-0.52,0.77,0.56,10.3,5.8,-6.1,36.23,,,,,,,,,,
14.45.51.506,-40.5,10.1,0,,,93633.0,10.68,-0.39,0.68,0.37,-12.4,5.0,-0.6,36.18,,,,,,,,,,
14.45.51.513,-58.2,14.6,0,,,93633.0,10.68,-0.34,0.59,0.55,-11.4,0.1,6.3,36.2,,,,,,,,,,
14.45.51.524,-57.7,14.4,0,,,93633.0,10.68,-0.32,0.71,0.57,-14.4,7.9,4.6,36.26,,,,,,,,,,
14.45.51.532,-61.5,15.4,0,,,93633.0,10.68,-0.47,0.57,0.61,-1.9,12.0,-2.2,36.46,,,,,,,,,,
14.45.51.543,-69.4,17.4,0,,,93633.0,10.68,-0.47,0.68,0.6,12.6,11.3,-5.2,36.16,,,,,,,,,,
14.45.51.550,-66.5,16.6,0,,,93633.0,10.68,-0.43,0.71,0.49,4.0,3.7,1.5,36.44,,,,,,,,,,
14.45.51.562,-68.3,17.1,0,,,93633.0,10.68,-0.35,0.68,0.56,-1.3,10.3,0.3,36.21,,,,,,,,,,
14.45.51.570,-74.2,18.6,0,,,93633.0,10.68,-0.39,0.75,0.52,11.9,14.1,-9.4,36.13,,,,,,,,,,
14.45.51.578,-96.1,24.0,0,,,93633.0,10.68,-0.38,0.64,0.44,8.7,4.3,3.8,36.2,,,,,,,,,,
14.45.51.588,-87.7,21.9,0,,,93633.0,10.68,-0.53,0.66,0.71,-1.6,2.0,-2.8,36.41,,,,,,,,,,
14.45.51.598,-98.3,24.6,0,,,93633.0,10.68,-0.61,0.63,0.73,9.7,10.0,-7.5,36.01,,,,,,,,,,
14.45.51.610,-94.1,23.5,0,,,93633.0,10.68,-0.48,0.63,0.55,2.3,5.8,3.4,36.07,,,,,,,,,,
14.45.51.621,-85.5,21.4,0,,,93633.0,10.68,-0.47,0.68,0.59,-3.6,1.2,-5.2,36.28,,,,,,,,,,
14.45.51.630,-95.4,23.8,0,,,93633.0,10.68,-0.43,0.68,0.54,5.8,0.1,7.6,36.26,,,,,,,,,,
14.45.51.637,-109.9,27.5,0,,,93633.0,10.68,-0.23,0.62,0.52,-4.1,17.4,5.1,36.42,,,,,,,,,,
14.45.51.648,-105.9,26.5,0,,,93633.0,10.68,-0.38,0.62,0.73,-4.6,4.8,6.2,36.31,,,,,,,,,,
14.45.51.658,-104.4,26.1,0,,,93633.0,10.68,-0.49,0.8,0.57,-19.8,11.5,2.4,36.18,,,,,,,,,,
14.45.51.666,-121.3,30.3,0,,,93633.0,10.68,-0.53,0.68,0.49,-22.8,8.3,6.5,36.21,,,,,,,,,,
14.45.51.678,-118.9,29.7,0,,,93633.0,10.68,-0.49,0.59,0.55,-2.4,8.6,-3.8,36.25,,,,,,,,,,
14.45.51.688,-119.0,29.8,0,,,93633.0,10.68,-0.41,0.76,0.63,16.8,7.7,5.0,36.12,,,,,,,,,,
14.45.51.695,22.5,5.6,0,,,93633.0,10.68,-0.42,0.76,0.51,0.5,7.7,3.8,36.35,,,,,,,,,,
14.45.51.706,63.1,15.8,0,,,93633.0,10.68,-0.31,0.55,0.49,-26.2,3.2,-0.5,36.29,,,,,,,,,,
14.45.51.714,106.8,26.7,0,,,93633.0,10.68,-0.48,0.63,0.59,5.3,8.6,-7.6,36.04,,,,,,,,,,
14.45.51.723,129.0,32.2,0,,,93633.0,10.68,-0.32,0.75,0.55,3.5,15.4,-10.9,36.19,,,,,,,,,,
14.45.51.730,163.7,40.9,0,,,93633.0,10.68,-0.46,0.74,0.64,6.5,13.6,0.2,36.18,,,,,,,,,,
14.45.51.738,185.0,46.2,0,,,93633.0,10.68,-0.36,0.88,0.52,-8.9,11.7,1.0,36.27,,,,,,,,,,
14.45.51.748,209.3,52.3,0,,,93633.0,10.68,-0.49,0.61,0.49,3.9,-0.4,-12.0,36.19,,,,,,,,,,
14.45.51.758,264.1,66.0,0,,,93633.0,10.68,-0.48,0.46,0.63,-0.9,2.8,-11.5,36.29,,,,,,,,,,
14.45.51.769,288.9,72.2,0,,,93633.0,10.68,-0.33,0.67,0.55,-0.8,1.2,6.0,36.33,,,,,,,,,,
14.45.51.778,296.8,74.2,0,,,93633.0,10.68,-0.37,0.88,0.56,3.4,5.1,4.3,36.28,,,,,,,,,,
14.45.51.786,333.5,83.4,0,,,93633.0,10.68,-0.48,0.54,0.46,5.2,11.8,-3.3,35.95,,,,,,,,,,
14.45.51.796,342.9,85.7,0,,,93633.0,10.68,-0.47,0.77,0.59,-3.3,8.5,3.5,36.06,,,,,,,,,,
14.45.51.806,311.2,77.8,0,,,93633.0,10.68,-0.68,0.73,0.45,17.4,1.7,-1.1,36.19,,,,,,,,,,
14.45.51.814,326.7,81.7,0,,,93720.7,10.67,-0.5,0.57,0.63,7.1,5.7,-6.7,36.15,,,,,,,,,,
14.45.51.825,339.9,85.0,0,,,93720.7,10.67,-0.63,0.69,0.55,7.2,11.3,1.6,36.32,,,,,,,,,,
14.45.51.835,278.6,69.6,0,,,93720.7,10.67,-0.44,0.77,0.55,-13.1,9.9,-3.9,36.31,,,,,,,,,,
14.45.51.843,252.7,63.2,0,,,93720.7,10.67,-0.36,0.72,0.45,0.3,-7.8,2.4,36.09,,,,,,,,,,
14.45.51.853,249.8,62.4,0,,,93720.7,10.67,-0.37,0.73,0.62,5.4,8.3,7.8,36.23,,,,,,,,,,
14.45.51.862,214.0,53.5,0,,,93720.7,10.67,-0.41,0.7,0.57,13.8,-2.8,-4.8,36.38,,,,,,,,,,
14.45.51.871,187.6,46.9,0,,,93720.7,10.67,-0.44,0.57,0.6,15.7,2.9,7.2,36.14,,,,,,,,,,
14.45.51.879,146.1,36.5,0,,,93720.7,10.67,-0.45,0.62,0.61,3.1,2.1,-6.6,36.14,,,,,,,,,,
14.45.51.889,127.3,31.8,0,,,93720.7,10.67,-0.51,0.55,0.48,-16.4,11.8,9.3,36.17,,,,,,,,,,
14.45.51.900,70.7,17.7,0,,,93720.7,10.67,-0.4,0.8,0.48,-6.0,19.1,-16.7,36.34,,,,,,,,,,
14.45.51.911,34.3,8.6,0,,,93720.7,10.67,-0.41,0.7,0.66,-8.2,-4.4,-5.1,36.11,,,,,,,,,,
14.45.51.919,10.3,2.6,0,,,93720.7,10.67,-0.64,0.63,0.5,-2.1,14.1,-5.5,36.05,,,,,,,,,,
14.45.51.929,24.8,6.2,0,,,93720.7,10.67,-0.52,0.73,0.6,-9.7,-3.1,1.9,36.24,,,,,,,,,,
14.45.51.938,22.6,5.6,1,19.0,104.0,93720.7,10.67,-0.59,0.61,0.59,-0.9,5.4,6.1,36.41,,,,,,,,,,
14.45.51.947,36.5,9.1,0,,,93720.7,10.67,-0.31,0.78,0.62,3.8,10.3,-13.0,36.12,,,,,,,,,,
14.45.51.956,47.6,11.9,0,,,93720.7,10.67,-0.5,0.73,0.54,11.3,4.4,5.8,36.2,,,,,,,,,,
14.45.51.966,41.2,10.3,0,,,93720.7,10.67,-0.39,0.59,0.59,-17.1,-5.9,1.9,36.38,,,,,,,,,,
14.45.51.975,58.1,14.5,0,,,93720.7,10.67,-0.47,0.79,0.73,-8.0,13.2,13.0,36.08,,,,,,,,,,
14.45.51.985,65.6,16.4,0,,,93720.7,10.67,-0.5,0.67,0.66,9.8,5.8,-7.7,36.05,,,,,,,,,,
14.45.51.995,62.2,15.6,0,,,93720.7,10.67,-0.48,0.65,0.48,-3.4,4.7,3.9,36.58,,,,,,,,,,
14.45.52.006,51.7,12.9,0,,,93720.7,10.67,-0.42,0.74,0.57,-0.1,15.2,-4.8,36.06,,,,,,,,,,
14.45.52.016,37.8,9.4,0,,,93720.7,10.67,-0.52,0.7,0.58,15.7,4.8,-7.0,36.04,,,,,,,,,,
14.45.52.024,27.7,6.9,0,,,93720.7,10.67,-0.3,0.81,0.44,8.0,-11.2,0.9,36.14,,,,,,,,,,
14.45.52.033,18.2,4.6,0,,,93720.7,10.67,-0.54,0.79,0.67,12.4,-1.8,4.1,36.32,,,,,,,,,,
14.45.52.043,4.3,1.1,0,,,93720.7,10.67,-0.38,0.53,0.56,-2.7,12.1,1.5,36.38,,,,,,,,,,
14.45.52.051,-2.5,0.6,0,,,93720.7,10.67,-0.49,0.73,0.62,16.3,12.7,1.8,36.27,,,,,,,,,,
14.45.52.062,-8.4,2.1,0,,,93720.7,10.67,-0.39,0.7,0.6,3.0,3.5,-7.3,36.33,,,,,,,,,,
14.45.52.072,-10.9,2.7,0,,,93720.7,10.67,-0.49,0.67,0.72,2.5,5.4,-0.8,36.08,,,,,,,,,,
14.45.52.081,-7.3,1.8,0,,,93720.7,10.67,-0.47,0.7,0.55,-10.8,13.2,2.0,36.26,,,,,,,,,,
14.45.52.092,-26.0,6.5,0,,,93720.7,10.67,-0.5,0.88,0.47,0.1,-0.4,-2.3,36.13,,,,,,,,,,
14.45.52.101,-22.3,5.6,0,,,93720.7,10.67,-0.51,0.76,0.5,-0.6,12.8,-8.2,36.1,,,,,,,,,,
14.45.52.110,-31.0,7.8,0,,,93720.7,10.67,-0.64,0.76,0.48,-11.9,9.9,-5.2,36.03,,,,,,,,,,
14.45.52.119,-28.9,7.2,0,,,93720.7,10.67,-0.48,0.73,0.47,-1.3,5.2,0.1,36.26,,,,,,,,,,
14.45.52.129,-35.4,8.8,0,,,93720.7,10.67,-0.41,0.74,0.6,-4.4,12.3,-4.9,36.21,,,,,,,,,,
14.45.52.139,-40.6,10.2,0,,,93720.7,10.67,-0.41,0.58,0.56,3.3,-6.5,8.1,36.33,,,,,,,,,,
14.45.52.149,-48.0,12.0,0,,,93720.7,10.67,-0.46,0.71,0.46,27.7,-4.7,2.5,36.28,,,,,,,,,,
14.45.52.158,-57.8,14.4,0,,,93720.7,10.67,-0.53,0.69,0.66,5.9,6.5,9.8,36.38,,,,,,,,,,
14.45.52.168,-61.2,15.3,0,,,93720.7,10.67,-0.56,0.55,0.52,-12.5,20.3,3.5,36.37,,,,,,,,,,
14.45.52.181,-60.2,15.0,0,,,93720.7,10.67,-0.34,0.65,0.5,-0.0,3.4,7.7,36.2,,,,,,,,,,
14.45.52.191,-57.5,14.4,0,,,93720.7,10.67,-0.45,0.56,0.58,-14.3,14.9,0.8,36.18,,,,,,,,,,
14.45.52.200,-67.2,16.8,0,,,93720.7,10.67,-0.43,0.72,0.41,1.7,-3.7,-0.8,36.26,,,,,,,,,,
14.45.52.210,-71.3,17.8,0,,,93720.7,10.67,-0.48,0.63,0.52,-9.8,7.1,12.0,36.19,,,,,,,,,,
14.45.52.221,-81.7,20.4,0,,,93720.7,10.67,-0.34,0.65,0.63,6.9,8.8,-3.5,35.91,,,,,,,,,,
14.45.52.230,-80.0,20.0,0,,,93720.7,10.67,-0.44,0.59,0.45,10.4,8.8,-6.5,36.17,,,,,,,,,,
14.45.52.240,-98.6,24.6,0,,,93720.7,10.67,-0.61,0.5,0.43,-2.1,5.1,4.5,36.25,,,,,,,,,,
14.45.52.250,-85.8,21.4,0,,,93720.7,10.67,-0.4,0.74,0.65,0.3,-1.6,6.1,36.0,,,,,,,,,,
14.45.52.261,-83.4,20.8,0,,,93720.7,10.67,-0.56,0.65,0.63,1.6,-0.3,7.5,36.18,,,,,,,,,,
14.45.52.270,-84.3,21.1,0,,,93720.7,10.67,-0.53,0.64,0.55,-4.0,-3.5,-8.8,36.3,,,,,,,,,,
14.45.52.278,-88.7,22.2,0,,,93720.7,10.67,-0.43,0.73,0.63,-4.5,7.2,6.3,36.38,,,,,,,,,,
14.45.52.288,-106.3,26.6,0,,,93720.7,10.67,-0.52,0.54,0.57,-10.4,10.6,4.1,36.24,,,,,,,,,,
14.45.52.298,-121.3,30.3,0,,,93720.7,10.67,-0.35,0.7,0.55,3.0,13.8,2.5,36.15,,,,,,,,,,
14.45.52.307,-111.1,27.8,0,,,93720.7,10.67,-0.51,0.9,0.47,3.5,-2.3,0.2,36.3,,,,,,,,,,
14.45.52.318,-116.3,29.1,0,,,93720.7,10.67,-0.35,0.68,0.56,10.0,8.5,5.7,36.08,,,,,,,,,,
14.45.52.327,-130.8,32.7,0,,,93720.7,10.67,-0.48,0.64,0.54,-6.0,2.9,3.1,35.94,,,,,,,,,,
14.45.52.339,-118.3,29.6,0,,,93720.7,10.67,-0.51,0.61,0.65,5.1,13.7,-7.3,36.26,,,,,,,,,,
14.45.52.347,29.4,7.4,0,,,93720.7,10.67,-0.45,0.68,0.64,-1.9,11.8,-0.1,35.89,,,,,,,,,,
14.45.52.357,80.0,20.0,0,,,93720.7,10.67,-0.47,0.57,0.52,-21.3,-5.0,5.4,36.1,,,,,,,,,,
14.45.52.367,118.9,29.7,0,,,93720.7,10.67,-0.51,0.77,0.62,2.1,3.7,5.2,36.2,,,,,,,,,,
14.45.52.376,145.9,36.5,0,,,93720.7,10.67,-0.43,0.74,0.48,20.4,3.5,-6.0,36.14,,,,,,,,,,
14.45.52.384,195.6,48.9,0,,,93720.7,10.67,-0.35,0.55,0.59,-0.6,5.6,-11.5,36.34,,,,,,,,,,
14.45.52.393,221.8,55.4,0,,,93720.7,10.67,-0.51,0.58,0.64,-2.1,5.0,8.3,36.02,,,,,,,,,,
14.45.52.403,245.3,61.3,0,,,93720.7,10.67,-0.48,0.6,0.64,2.2,12.3,9.5,36.22,,,,,,,,,,
14.45.52.412,263.6,65.9,0,,,93720.7,10.67,-0.36,0.85,0.55,2.7,-5.0,-0.8,36.38,,,,,,,,,,
14.45.52.424,289.5,72.4,0,,,93720.7,10.67,-0.45,0.96,0.66,-9.1,3.2,2.0,36.37,,,,,,,,,,
14.45.52.433,318.9,79.7,0,,,93720.7,10.67,-0.55,0.79,0.67,1.5,13.2,5.7,36.28,,,,,,,,,,
14.45.52.443,327.5,81.9,0,,,93720.7,10.67,-0.55,0.65,0.38,-3.8,5.6,-10.6,36.3,,,,,,,,,,
14.45.52.452,321.3,80.3,0,,,93720.7,10.67,-0.52,0.75,0.64,23.0,-2.4,-2.0,36.26,,,,,,,,,,
14.45.52.462,325.4,81.4,0,,,93720.7,10.67,-0.62,0.79,0.55,-8.4,-3.2,0.4,36.27,,,,,,,,,,
14.45.52.473,319.0,79.8,0,,,93720.7,10.67,-0.5,0.64,0.58,1.3,2.5,-4.2,36.12,,,,,,,,,,
14.45.52.481,317.3,79.3,0,,,93720.7,10.67,-0.22,0.59,0.67,-4.7,10.6,-7.8,36.29,,,,,,,,,,
14.45.52.489,301.7,75.4,0,,,93720.7,10.67,-0.29,0.8,0.55,3.7,17.9,-8.7,36.48,,,,,,,,,,
14.45.52.500,236.0,59.0,0,,,93808.6,10.66,-0.54,0.68,0.55,-11.2,3.9,9.1,36.26,,,,,,,,,,
14.45.52.511,227.2,56.8,0,,,93808.6,10.66,-0.45,0.54,0.58,3.5,14.4,3.0,36.13,,,,,,,,,,
14.45.52.520,180.1,45.0,0,,,93808.6,10.66,-0.32,0.8,0.57,12.8,-4.2,-2.2,36.48,,,,,,,,,,
14.45.52.531,147.5,36.9,0,,,93808.6,10.66,-0.45,0.67,0.53,1.9,20.4,0.3,36.27,,,,,,,,,,
14.45.52.542,116.4,29.1,0,,,93808.6,10.66,-0.33,0.6,0.66,-6.6,2.9,0.4,35.85,,,,,,,,,,
14.45.52.551,63.0,15.8,1,20.0,97.9,93808.6,10.66,-0.34,0.68,0.56,-3.7,9.3,0.7,36.04,,,,,,,,,,
14.45.52.560,30.1,7.5,0,,,93808.6,10.66,-0.42,0.7,0.53,-8.0,16.3,-0.6,36.45,,,,,,,,,,
14.45.52.570,-3.1,0.8,0,,,93808.6,10.66,-0.44,0.63,0.57,9.8,11.9,-1.0,36.16,,,,,,,,,,
14.45.52.579,10.7,2.7,0,,,93808.6,10.66,-0.5,0.86,0.54,1.0,-7.8,-1.7,36.23,,,,,,,,,,
14.45.52.589,31.6,7.9,0,,,93808.6,10.66,-0.43,0.57,0.48,-17.3,11.7,-2.0,36.29,,,,,,,,,,
14.45.52.601,42.2,10.6,0,,,93808.6,10.66,-0.52,0.57,0.63,-3.0,11.1,0.1,35.78,,,,,,,,,,
14.45.52.610,55.9,14.0,0,,,93808.6,10.66,-0.54,0.73,0.49,10.9,3.8,3.6,36.23,,,,,,,,,,
14.45.52.619,59.3,14.8,0,,,93808.6,10.66,-0.41,0.79,0.76,-0.5,12.9,-1.6,36.28,,,,,,,,,,
14.45.52.628,52.9,13.2,0,,,93808.6,10.66,-0.43,0.55,0.47,19.2,14.6,10.5,36.31,,,,,,,,,,
14.45.52.637,62.0,15.5,0,,,93808.6,10.66,-0.52,0.64,0.47,0.2,1.8,-10.7,36.36,,,,,,,,,,
14.45.52.647,55.7,13.9,0,,,93808.6,10.66,-0.42,0.7,0.58,0.1,11.1,-3.1,35.99,,,,,,,,,,
14.45.52.655,56.1,14.0,0,,,93808.6,10.66,-0.65,0.57,0.5,-0.0,7.3,-11.2,36.32,,,,,,,,,,
14.45.52.666,39.8,10.0,0,,,93808.6,10.66,-0.42,0.57,0.51,-1.4,0.9,7.1,36.57,,,,,,,,,,
14.45.52.674,28.2,7.0,0,,,93808.6,10.66,-0.32,0.66,0.6,9.6,13.8,-4.1,35.9,,,,,,,,,,
14.45.52.684,19.4,4.8,0,,,93808.6,10.66,-0.41,0.6,0.57,-0.4,19.1,-3.0,36.29,,,,,,,,,,
14.45.52.693,-2.1,0.5,0,,,93808.6,10.66,-0.56,0.63,0.46,-1.8,3.6,3.3,35.85,,,,,,,,,,
14.45.52.702,-4.0,1.0,0,,,93808.6,10.66,-0.49,0.82,0.68,13.2,6.0,-1.7,36.19,,,,,,,,,,
14.45.52.712,-8.4,2.1,0,,,93808.6,10.66,-0.44,0.56,0.47,-2.6,-5.3,-4.3,36.32,,,,,,,,,,
14.45.52.721,-8.0,2.0,0,,,93808.6,10.66,-0.42,0.71,0.52,3.6,3.1,-6.6,36.33,,,,,,,,,,
14.45.52.728,-8.6,2.2,0,,,93808.6,10.66,-0.44,0.64,0.52,-2.5,21.1,1.2,36.32,,,,,,,,,,
14.45.52.740,-15.6,3.9,0,,,93808.6,10.66,-0.44,0.8,0.69,-7.8,-4.7,-5.3,36.27,,,,,,,,,,
14.45.52.751,-19.1,4.8,0,,,93808.6,10.66,-0.4,0.69,0.48,-13.8,13.8,5.4,36.0,,,,,,,,,,
14.45.52.762,-34.6,8.6,0,,,93808.6,10.66,-0.39,0.64,0.48,-6.5,7.8,-0.9,36.13,,,,,,,,,,
14.45.52.771,-30.1,7.5,0,,,93808.6,10.66,-0.41,0.81,0.57,-1.1,4.7,-6.9,36.27,,,,,,,,,,
14.45.52.779,-37.6,9.4,0,,,93808.6,10.66,-0.38,0.53,0.54,-11.0,1.1,2.6,36.34,,,,,,,,,,
14.45.52.789,-49.0,12.2,0,,,93808.6,10.66,-0.48,0.47,0.63,1.6,9.8,4.4,36.08,,,,,,,,,,
14.45.52.800,-37.9,9.5,0,,,93808.6,10.66,-0.51,0.73,0.43,0.3,-1.0,-10.5,36.1,,,,,,,,,,
14.45.52.809,-57.5,14.4,0,,,93808.6,10.66,-0.35,0.83,0.58,-3.7,8.8,9.4,36.25,,,,,,,,,,
14.45.52.819,,,0,,,,,,,,,,,,,,,,,,,,,
14.45.52.827,-50.0,12.5,0,,,93808.6,10.66,-0.39,0.7,0.38,-5.5,1.9,5.0,36.16,,,,,,,,,,
14.45.52.837,-63.1,15.8,0,,,93808.6,10.66,-0.59,0.64,0.47,-1.0,7.8,-1.6,36.29,,,,,,,,,,
14.45.52.847,-68.1,17.0,0,,,93808.6,10.66,-0.52,0.76,0.55,2.6,2.0,-3.1,36.17,,,,,,,,,,
14.45.52.857,-57.7,14.4,0,,,93808.6,10.66,-0.45,0.57,0.55,-4.3,0.7,-4.1,36.41,,,,,,,,,,
14.45.52.865,-79.4,19.8,0,,,93808.6,10.66,-0.39,0.5,0.63,14.0,2.1,2.2,36.4,,,,,,,,,,
14.45.52.874,-90.7,22.7,0,,,93808.6,10.66,-0.47,0.57,0.47,-7.3,1.7,-9.6,36.35,,,,,,,,,,
14.45.52.883,-87.1,21.8,0,,,93808.6,10.66,-0.42,0.8,0.38,-11.6,12.2,-3.0,36.06,,,,,,,,,,
14.45.52.893,-90.1,22.5,0,,,93808.6,10.66,-0.5,0.62,0.45,7.4,8.0,-4.4,36.09,,,,,,,,,,
14.45.52.900,-75.4,18.8,0,,,93808.6,10.66,-0.5,0.57,0.69,14.8,5.6,-2.9,36.41,,,,,,,,,,
14.45.52.909,-95.2,23.8,0,,,93808.6,10.66,-0.47,0.72,0.56,1.8,4.0,3.7,36.3,,,,,,,,,,
14.45.52.919,-104.6,26.2,0,,,93808.6,10.66,-0.41,0.74,0.53,17.3,-5.1,2.9,36.21,,,,,,,,,,
14.45.52.930,-103.9,26.0,0,,,93808.6,10.66,-0.52,0.72,0.44,-4.1,18.0,-2.4,36.24,,,,,,,,,,
14.45.52.938,-113.4,28.4,0,,,93808.6,10.66,-0.38,0.55,0.32,12.5,10.3,5.4,36.49,,,,,,,,,,
14.45.52.948,-112.4,28.1,0,,,93808.6,10.66,-0.42,0.76,0.54,14.2,11.1,0.7,36.36,,,,,,,,,,
14.45.52.957,-115.1,28.8,0,,,93808.6,10.66,-0.56,0.63,0.65,-8.2,3.5,-2.2,36.17,,,,,,,,,,
14.45.52.967,-116.5,29.1,0,,,93808.6,10.66,-0.36,0.72,0.64,9.7,-0.6,5.3,36.17,,,,,,,,,,
14.45.52.974,-127.6,31.9,0,,,93808.6,10.66,-0.41,0.5,0.61,-6.4,4.7,1.0,36.21,,,,,,,,,,
14.45.52.983,-119.7,29.9,0,,,93808.6,10.66,-0.39,0.59,0.56,1.3,9.5,0.1,36.0,,,,,,,,,,
14.45.52.992,18.4,4.6,0,,,93808.6,10.66,-0.42,0.81,0.5,12.6,14.3,2.0,36.36,,,,,,,,,,
14.45.53.002,59.6,14.9,0,,,93808.6,10.66,-0.41,0.57,0.61,7.5,7.3,2.2,36.08,,,,,,,,,,
14.45.53.012,100.5,25.1,0,,,93808.6,10.66,-0.47,0.69,0.59,24.8,0.4,1.3,36.1,,,,,,,,,,
14.45.53.023,119.3,29.8,0,,,93808.6,10.66,-0.37,0.59,0.52,-9.5,-1.8,-4.0,36.22,,,,,,,,,,
14.45.53.035,180.7,45.2,0,,,93808.6,10.66,-0.48,0.63,0.59,1.4,13.9,-1.3,36.24,,,,,,,,,,
14.45.53.045,245.2,61.3,0,,,93808.6,10.66,-0.46,0.55,0.54,-2.6,12.7,-0.2,36.2,,,,,,,,,,
14.45.53.056,265.7,66.4,0,,,93808.6,10.66,-0.36,0.67,0.55,-7.5,4.1,5.9,36.22,,,,,,,,,,
14.45.53.065,275.9,69.0,0,,,93808.6,10.66,-0.41,0.57,0.61,-1.0,-0.7,-5.9,36.4,,,,,,,,,,
14.45.53.076,303.6,75.9,0,,,93808.6,10.66,-0.5,0.66,0.45,-16.2,10.5,1.7,36.56,,,,,,,,,,
14.45.53.086,310.3,77.6,0,,,93808.6,10.66,-0.56,0.59,0.37,1.9,9.1,0.6,36.41,,,,,,,,,,
14.45.53.096,327.7,81.9,0,,,93808.6,10.66,-0.38,0.77,0.62,18.0,-0.2,11.6,36.2,,,,,,,,,,
14.45.53.105,318.7,79.7,0,,,93808.6,10.66,-0.38,0.6,0.64,-2.8,2.1,-8.0,36.24,,,,,,,,,,
14.45.53.116,333.1,83.3,0,,,93808.6,10.66,-0.43,0.61,0.53,-5.5,2.8,2.7,36.17,,,,,,,,,,
14.45.53.125,318.6,79.6,0,,,93808.6,10.66,-0.43,0.64,0.54,-26.2,19.3,1.6,36.22,,,,,,,,,,
14.45.53.133,288.2,72.0,0,,,93808.6,10.66,-0.51,0.79,0.54,15.2,-4.3,-1.4,36.01,,,,,,,,,,
14.45.53.144,251.0,62.8,0,,,93808.6,10.66,-0.47,0.54,0.6,2.0,7.7,2.5,36.41,,,,,,,,,,
14.45.53.152,269.1,67.3,0,,,93808.6,10.66,-0.4,0.66,0.6,12.9,3.2,4.1,36.31,,,,,,,,,,
14.45.53.162,233.4,58.4,0,,,93808.6,10.66,-0.43,0.74,0.66,12.6,17.3,-1.6,36.07,,,,,,,,,,
14.45.53.171,187.0,46.8,0,,,93808.6,10.66,-0.39,0.65,0.5,-3.8,4.3,6.7,36.13,,,,,,,,,,
14.45.53.180,161.4,40.4,0,,,93808.6,10.66,-0.49,0.58,0.72,7.8,12.6,-0.2,36.14,,,,,,,,,,
14.45.53.190,110.0,27.5,1,21.0,93.9,93808.6,10.66,-0.49,0.67,0.56,4.2,11.8,6.9,36.14,,,,,,,,,,
14.45.53.198,75.1,18.8,0,,,93808.6,10.66,-0.52,0.61,0.47,-15.1,11.9,0.4,35.98,,,,,,,,,,
14.45.53.206,48.0,12.0,0,,,93808.6,10.66,-0.43,0.7,0.55,-4.8,1.6,6.5,36.23,,,,,,,,,,
14.45.53.216,1.2,0.3,0,,,93808.6,10.66,-0.33,0.43,0.56,-12.1,18.5,2.0,35.93,,,,,,,,,,
14.45.53.226,12.7,3.2,0,,,93808.6,10.66,-0.4,0.86,0.59,-10.8,-6.6,5.4,36.19,,,,,,,,,,
14.45.53.234,20.9,5.2,0,,,93808.6,10.66,-0.46,0.78,0.51,-0.2,-7.0,-4.8,36.19,,,,,,,,,,
14.45.53.244,26.9,6.7,0,,,93808.6,10.66,-0.38,0.73,0.6,-10.1,6.3,-15.5,36.23,,,,,,,,,,
14.45.53.254,59.0,14.8,0,,,93808.6,10.66,-0.45,0.78,0.52,-7.2,6.1,2.1,36.4,,,,,,,,,,
14.45.53.264,46.3,11.6,0,,,93808.6,10.66,-0.57,0.86,0.46,-16.3,10.0,3.8,36.12,,,,,,,,,,
14.45.53.272,60.6,15.2,0,,,93808.6,10.66,-0.38,0.8,0.46,10.4,-15.2,4.6,36.16,,,,,,,,,,
14.45.53.282,62.2,15.6,0,,,93808.6,10.66,-0.48,0.64,0.53,-1.1,6.3,-8.8,36.49,,,,,,,,,,
14.45.53.292,59.1,14.8,0,,,93808.6,10.66,-0.39,0.66,0.46,3.7,13.0,-0.8,36.07,,,,,,,,,,
14.45.53.302,55.4,13.8,0,,,93808.6,10.66,-0.37,0.82,0.53,-4.3,4.8,0.7,36.24,,,,,,,,,,
14.45.53.311,38.7,9.7,0,,,93808.6,10.66,-0.25,0.68,0.61,0.2,3.8,-2.2,35.95,,,,,,,,,,
14.45.53.321,33.4,8.4,0,,,93808.6,10.66,-0.37,0.78,0.53,-0.0,12.8,-10.6,36.26,,,,,,,,,,
14.45.53.331,13.6,3.4,0,,,93808.6,10.66,-0.36,0.71,0.69,5.7,14.6,-6.0,36.37,,,,,,,,,,
14.45.53.343,3.2,0.8,0,,,93808.6,10.66,-0.39,0.72,0.6,10.8,13.2,3.0,36.0,,,,,,,,,,
14.45.53.352,-3.8,1.0,0,,,93808.6,10.66,-0.41,0.91,0.55,-2.3,5.6,-2.2,36.42,,,,,,,,,,
14.45.53.360,-11.5,2.9,0,,,93808.6,10.66,-0.39,0.69,0.67,-3.7,3.3,-7.4,35.91,,,,,,,,,,
