timestamp,ppg,threshold,beat,beat_count,inst_bpm,gsr_resistance_ohm,gsr_conductance_us,accel_x,accel_y,accel_z,gyro_x,gyro_y,gyro_z,temp_c,window_bpm,window_temp_c,status_message,SpO2,bmi,age,height,weight,env_temp_c,env_humidity_pct
13.11.00.000,0.0,0.0,0,,,83056.5,12.04,-0.91,0.01,-0.17,-3.3,8.1,-8.4,34.22,82.1,,,,20.6,21.0,167.64,58.0,31.44,45.0
13.11.00.009,44.8,11.2,0,,,83056.5,12.04,-0.71,0.46,-0.37,15.3,3.0,-8.8,34.15,,,,,,,,,,
13.11.00.020,117.6,29.4,0,,,83056.5,12.04,-0.73,0.14,-0.5,12.3,0.6,-10.9,34.95,,,,,,,,,,
13.11.00.031,121.0,30.2,0,,,83056.5,12.04,-0.99,-0.21,-0.17,-23.2,-13.0,-17.9,34.17,,,,,,,,,,
13.11.00.038,174.3,43.6,0,,,83056.5,12.04,-0.76,0.34,-0.19,24.9,1.8,26.2,34.43,,,,,,,,,,
13.11.00.046,220.4,55.1,0,,,83056.5,12.04,-0.73,0.35,-0.71,7.0,-0.2,-10.9,34.24,,,,,,,,,,
13.11.00.056,226.2,56.6,0,,,83056.5,12.04,-0.53,0.17,-0.39,-12.0,20.8,5.6,34.11,,,,,,,,,,
13.11.00.065,294.8,73.7,0,,,83056.5,12.04,-0.39,0.2,-0.33,-19.1,30.6,7.3,34.92,,,,,,,,,,
13.11.00.072,302.8,75.7,0,,,83056.5,12.04,-0.81,0.23,-0.23,-23.7,14.0,-7.5,34.39,,,,,,,,,,
13.11.00.080,304.1,76.0,0,,,83056.5,12.04,-0.84,0.53,0.17,9.1,13.8,-10.7,34.24,,,,,,,,,,
13.11.00.089,371.5,92.9,0,,,83056.5,12.04,-0.94,0.06,0.03,11.8,-17.3,-6.4,34.23,,,,,,,,,,
13.11.00.099,328.8,82.2,0,,,83056.5,12.04,-0.35,0.13,0.23,-4.0,20.9,2.8,33.82,,,,,,,,,,
13.11.00.108,429.9,107.5,0,,,83056.5,12.04,-0.78,0.17,0.05,-34.4,8.9,4.8,33.99,,,,,,,,,,
13.11.00.119,410.6,102.6,0,,,83056.5,12.04,-0.81,0.43,-0.39,-1.9,-1.3,7.0,34.63,,,,,,,,,,
13.11.00.128,385.5,96.4,0,,,83056.5,12.04,-0.53,0.03,-0.0,-37.4,14.1,10.0,34.32,,,,,,,,,,
13.11.00.136,428.6,107.2,0,,,83056.5,12.04,-0.79,0.27,0.04,-14.5,18.5,-1.9,33.94,,,,,,,,,,
13.11.00.148,397.1,99.3,0,,,83056.5,12.04,-0.73,-0.23,-0.54,-28.0,-32.1,-15.1,34.18,,,,,,,,,,
13.11.00.158,363.8,91.0,0,,,83056.5,12.04,-0.6,-0.31,0.15,11.7,24.3,-33.7,34.38,,,,,,,,,,
13.11.00.165,351.4,87.8,0,,,83056.5,12.04,-0.85,0.38,-0.23,-40.3,5.4,13.6,34.29,,,,,,,,,,
13.11.00.174,307.9,77.0,0,,,83056.5,12.04,-0.31,0.23,-0.32,-2.7,20.5,-19.2,34.41,,,,,,,,,,
13.11.00.184,349.0,87.2,0,,,83125.5,12.03,-0.81,-0.01,-0.45,-15.7,14.5,1.4,34.17,,,,,,,,,,
13.11.00.193,273.1,68.3,0,,,83125.5,12.03,-0.53,0.26,-0.24,-21.1,4.6,15.6,33.81,,,,,,,,,,
13.11.00.202,230.6,57.6,0,,,83125.5,12.03,-0.44,0.14,-0.18,-21.1,-6.5,6.0,34.1,,,,,,,,,,
13.11.00.212,183.3,45.8,0,,,83125.5,12.03,-1.1,-0.14,-0.31,-36.3,-17.5,5.3,34.35,,,,,,,,,,
13.11.00.221,174.1,43.5,0,,,83125.5,12.03,-0.73,0.14,-0.11,-1.1,-20.2,8.0,34.46,,,,,,,,,,
13.11.00.230,79.5,19.9,0,,,83125.5,12.03,-1.09,-0.24,-1.17,15.9,1.1,8.9,34.34,,,,,,,,,,
13.11.00.241,86.5,21.6,0,,,83125.5,12.03,-0.79,-0.04,-0.31,5.9,-5.9,3.5,34.33,,,,,,,,,,
13.11.00.251,11.9,3.0,0,,,83125.5,12.03,-0.56,0.11,-0.18,-20.5,19.5,21.1,34.22,,,,,,,,,,
13.11.00.259,8.0,2.0,0,,,83125.5,12.03,-0.72,0.19,-0.52,-5.6,4.6,-2.8,33.89,,,,,,,,,,
13.11.00.269,0.3,0.1,0,,,83125.5,12.03,-0.84,0.31,-0.01,15.8,0.8,19.9,34.38,,,,,,,,,,
13.11.00.279,16.9,4.2,0,,,83125.5,12.03,-0.66,0.19,-0.4,-54.9,26.6,-0.0,33.81,,,,,,,,,,
13.11.00.288,52.6,13.2,0,,,83125.5,12.03,-0.65,-0.06,-0.46,6.7,42.4,-1.5,34.42,,,,,,,,,,
13.11.00.297,62.8,15.7,0,,,83125.5,12.03,-0.69,-0.17,-0.38,20.4,25.0,-8.2,34.08,,,,,,,,,,
13.11.00.308,57.1,14.3,0,,,83125.5,12.03,-0.67,-0.36,-0.5,1.6,-5.5,-7.6,33.96,,,,,,,,,,
13.11.00.316,64.2,16.0,0,,,83125.5,12.03,-0.84,-0.37,-0.43,-14.1,13.1,-28.6,34.17,,,,,,,,,,
13.11.00.327,88.5,22.1,0,,,83125.5,12.03,-1.06,0.14,-0.36,2.3,41.8,-6.1,34.32,,,,,,,,,,
13.11.00.337,80.1,20.0,0,,,83125.5,12.03,-0.74,0.04,-0.49,7.3,13.5,13.3,33.68,,,,,,,,,,
13.11.00.346,91.9,23.0,0,,,83125.5,12.03,-0.53,0.23,-0.51,-12.2,-4.3,-3.2,34.77,,,,,,,,,,
13.11.00.355,55.6,13.9,0,,,83125.5,12.03,-0.71,-0.4,-0.48,-5.2,-3.7,17.3,34.42,,,,,,,,,,
13.11.00.367,58.8,14.7,0,,,83125.5,12.03,-0.93,-0.42,-0.39,-3.6,-4.2,-4.6,34.03,,,,,,,,,,
13.11.00.376,50.3,12.6,0,,,83125.5,12.03,-0.85,0.21,-0.11,-10.3,6.1,7.3,34.25,,,,,,,,,,
13.11.00.385,31.2,7.8,0,,,83125.5,12.03,-0.6,0.32,-0.38,-39.5,-0.4,9.3,34.14,,,,,,,,,,
13.11.00.396,54.7,13.7,0,,,83125.5,12.03,-1.04,-0.11,0.2,-16.6,21.1,11.3,34.27,,,,,,,,,,
13.11.00.408,-12.7,3.2,0,,,83125.5,12.03,-0.82,-0.46,-0.67,-14.3,39.5,-30.0,34.62,,,,,,,,,,
13.11.00.418,9.7,2.4,0,,,83125.5,12.03,-0.54,0.16,-0.23,28.0,-8.4,-5.9,34.19,,,,,,,,,,
13.11.00.426,-54.7,13.7,0,,,83125.5,12.03,-0.77,-0.39,0.47,-1.0,8.4,1.0,34.81,,,,,,,,,,
13.11.00.437,-18.5,4.6,0,,,83125.5,12.03,-0.73,0.16,0.07,-40.2,13.3,4.8,34.36,,,,,,,,,,
13.11.00.448,18.2,4.6,0,,,83125.5,12.03,-1.09,-0.16,-0.25,-1.9,1.6,19.2,33.91,,,,,,,,,,
13.11.00.459,-32.0,8.0,0,,,83125.5,12.03,-0.6,-0.28,-0.06,-12.3,-7.5,3.7,34.13,,,,,,,,,,
13.11.00.469,-63.9,16.0,0,,,83125.5,12.03,-0.69,-0.5,-0.34,3.9,-22.8,1.0,35.03,,,,,,,,,,
13.11.00.477,-2.3,0.6,0,,,83125.5,12.03,-0.89,-0.01,-0.23,-50.6,-3.3,9.9,34.34,,,,,,,,,,
13.11.00.487,-36.2,9.0,0,,,83125.5,12.03,-0.75,-0.13,-0.1,37.5,0.2,-16.1,34.54,,,,,,,,,,
13.11.00.497,-43.0,10.8,0,,,83125.5,12.03,-1.04,-0.33,0.05,5.1,5.1,6.8,34.08,,,,,,,,,,
13.11.00.506,-54.4,13.6,0,,,83125.5,12.03,-1.22,-0.02,-0.25,10.8,57.1,-0.4,34.6,,,,,,,,,,
13.11.00.516,-27.3,6.8,0,,,83125.5,12.03,-0.7,0.09,0.26,-4.8,-11.1,17.8,33.84,,,,,,,,,,
13.11.00.524,-74.9,18.7,0,,,83125.5,12.03,-0.66,-0.48,-0.24,-16.1,17.7,10.6,33.77,,,,,,,,,,
13.11.00.534,-62.5,15.6,0,,,83125.5,12.03,-0.79,0.28,-0.09,-9.9,37.5,10.4,33.98,,,,,,,,,,
13.11.00.544,-63.3,15.8,0,,,83125.5,12.03,-1.09,0.02,-0.34,-15.9,16.0,4.9,34.75,,,,,,,,,,
13.11.00.552,-80.0,20.0,0,,,83125.5,12.03,-0.93,-0.11,0.01,-2.0,5.7,-8.0,34.15,,,,,,,,,,
13.11.00.561,-83.6,20.9,0,,,83125.5,12.03,-0.86,0.15,0.57,12.1,21.7,5.4,34.47,,,,,,,,,,
13.11.00.571,-70.2,17.6,0,,,83125.5,12.03,-0.63,0.08,-0.01,-20.4,6.1,4.5,34.02,,,,,,,,,,
13.11.00.580,-102.0,25.5,0,,,83125.5,12.03,-0.86,-0.03,0.23,-35.8,-10.3,-13.7,34.74,,,,,,,,,,
13.11.00.589,-88.0,22.0,0,,,83125.5,12.03,-1.05,-0.35,-0.2,9.3,-0.7,17.7,33.91,,,,,,,,,,
13.11.00.599,-104.4,26.1,0,,,83125.5,12.03,-0.63,-0.21,-0.73,35.7,6.2,5.5,34.81,,,,,,,,,,
13.11.00.611,-101.8,25.4,0,,,83125.5,12.03,-0.59,-0.18,0.1,22.0,-7.5,-5.5,33.84,,,,,,,,,,
13.11.00.617,-83.0,20.8,0,,,83125.5,12.03,-0.81,-0.16,0.03,33.2,25.0,9.9,34.05,,,,,,,,,,
13.11.00.627,-118.9,29.7,0,,,83125.5,12.03,-0.57,-0.5,-0.46,-32.2,5.4,7.0,34.46,,,,,,,,,,
13.11.00.641,-141.3,35.3,0,,,83125.5,12.03,-0.99,-0.05,0.16,-18.1,7.0,2.3,34.8,,,,,,,,,,
13.11.00.649,-139.8,35.0,0,,,83125.5,12.03,-0.91,-0.36,-0.32,6.6,25.3,-0.5,34.31,,,,,,,,,,
13.11.00.657,-115.2,28.8,0,,,83125.5,12.03,-0.78,0.02,-0.26,-53.3,27.8,-5.5,34.7,,,,,,,,,,
13.11.00.666,-134.3,33.6,0,,,83125.5,12.03,-0.98,-0.96,-0.86,1.3,1.8,-7.7,34.2,,,,,,,,,,
13.11.00.674,-133.2,33.3,0,,,83125.5,12.03,-0.86,0.7,-0.52,14.5,25.4,10.5,34.56,,,,,,,,,,
13.11.00.683,-113.3,28.3,0,,,83125.5,12.03,-0.81,-0.13,-0.41,-42.0,-1.4,-32.8,34.56,,,,,,,,,,
13.11.00.693,-129.1,32.3,0,,,83125.5,12.03,-0.48,-0.17,-0.41,-19.3,-0.9,6.0,34.12,,,,,,,,,,
13.11.00.704,-161.6,40.4,0,,,83125.5,12.03,-0.78,0.32,-0.48,35.6,-29.1,7.9,34.19,,,,,,,,,,
13.11.00.714,-137.6,34.4,0,,,83125.5,12.03,-0.96,0.24,-0.66,-6.2,8.1,-10.3,34.69,,,,,,,,,,
13.11.00.723,-189.7,47.4,0,,,83125.5,12.03,-0.52,0.27,-0.11,-8.3,-18.0,16.8,34.31,,,,,,,,,,
13.11.00.732,-28.8,7.2,1,1.0,,83125.5,12.03,-0.8,-0.41,0.06,5.6,-6.5,-3.4,34.37,,,,,,,,,,
13.11.00.741,62.3,15.6,0,,,83125.5,12.03,-0.64,0.38,-0.81,21.0,4.8,-8.1,34.41,,,,,,,,,,
13.11.00.752,75.9,19.0,0,,,83125.5,12.03,-1.1,-0.26,-0.97,-12.4,15.0,8.4,33.98,,,,,,,,,,
13.11.00.762,163.5,40.9,0,,,83125.5,12.03,-1.01,-0.18,-0.58,-8.6,-34.2,-3.3,34.45,,,,,,,,,,
13.11.00.774,196.1,49.0,0,,,83125.5,12.03,-0.87,0.41,-0.15,-13.3,6.7,-29.3,33.96,,,,,,,,,,
13.11.00.784,241.1,60.3,0,,,83125.5,12.03,-0.65,0.06,-0.5,1.4,23.2,-1.4,34.1,,,,,,,,,,
13.11.00.795,327.5,81.9,0,,,83125.5,12.03,-0.92,0.04,-0.73,-42.0,11.4,14.6,34.03,,,,,,,,,,
13.11.00.807,363.4,90.8,0,,,83125.5,12.03,-0.78,0.61,-0.45,2.4,0.2,2.3,34.83,,,,,,,,,,
13.11.00.813,414.6,103.6,0,,,83125.5,12.03,-1.14,0.29,-0.05,6.4,-6.8,12.4,34.19,,,,,,,,,,
13.11.00.823,368.9,92.2,0,,,83125.5,12.03,-0.98,0.3,-0.16,-17.0,19.2,1.5,34.09,,,,,,,,,,
13.11.00.834,359.7,89.9,0,,,83125.5,12.03,-1.05,0.21,-0.35,-3.0,16.4,0.5,33.94,,,,,,,,,,
13.11.00.842,425.7,106.4,0,,,83125.5,12.03,-0.93,0.18,0.09,28.0,-14.1,-0.1,34.07,,,,,,,,,,
13.11.00.851,414.1,103.5,0,,,83125.5,12.03,-0.8,0.1,-0.88,16.0,17.4,-23.1,34.15,,,,,,,,,,
13.11.00.860,423.3,105.8,0,,,83125.5,12.03,-0.94,-0.11,-0.43,55.2,7.4,-1.4,34.3,,,,,,,,,,
13.11.00.871,405.0,101.2,0,,,83125.5,12.03,-0.46,0.22,-0.35,-39.7,23.2,-9.5,34.68,,,,,,,,,,
13.11.00.880,398.5,99.6,0,,,83125.5,12.03,-0.77,0.03,-0.1,34.1,-3.5,15.5,34.05,,,,,,,,,,
13.11.00.891,403.9,101.0,0,,,83125.5,12.03,-0.96,-0.1,-0.23,-3.0,39.6,-15.5,34.25,,,,,,,,,,
13.11.00.900,365.7,91.4,0,,,83125.5,12.03,-0.77,0.27,-0.14,20.0,3.2,-14.4,34.7,,,,,,,,,,
13.11.00.909,336.0,84.0,0,,,83125.5,12.03,-0.7,0.17,-0.23,0.5,16.8,-12.4,34.02,,,,,,,,,,
13.11.00.919,285.3,71.3,0,,,83125.5,12.03,-0.86,-0.05,-0.34,-4.3,8.5,1.9,34.09,,,,,,,,,,
13.11.00.930,237.5,59.4,0,,,83125.5,12.03,-0.83,-0.37,-0.1,-19.0,-4.1,-26.5,33.92,,,,,,,,,,
13.11.00.940,250.9,62.7,0,,,83125.5,12.03,-0.63,0.11,0.41,-22.9,16.3,-0.9,34.17,,,,,,,,,,
13.11.00.947,212.0,53.0,0,,,83125.5,12.03,-0.12,-0.07,-0.29,-12.8,-1.4,-8.6,34.07,,,,,,,,,,
13.11.00.957,147.4,36.8,0,,,83125.5,12.03,-0.7,0.18,-0.23,-1.2,28.8,8.1,33.87,,,,,,,,,,
13.11.00.964,75.8,19.0,0,,,83125.5,12.03,-0.59,-0.15,0.33,7.2,30.6,4.5,34.29,,,,,,,,,,
13.11.00.975,63.9,16.0,0,,,83125.5,12.03,-0.6,0.12,0.32,-29.6,20.8,24.1,34.0,,,,,,,,,,
13.11.00.982,21.1,5.3,0,,,83125.5,12.03,-0.68,0.11,0.09,-16.9,37.3,-2.1,34.55,,,,,,,,,,
13.11.00.991,30.6,7.6,0,,,83125.5,12.03,-0.51,0.35,0.05,37.9,18.2,-31.8,34.78,,,,,,,,,,
13.11.01.000,11.2,2.8,0,,,83125.5,12.03,-0.37,0.69,0.34,-13.3,44.0,-10.9,34.33,,,,,,,,,,
13.11.01.010,54.1,13.5,0,,,83125.5,12.03,-0.83,0.12,-0.35,11.4,9.4,12.1,34.49,,,,,,,,,,
13.11.01.022,65.1,16.3,0,,,83125.5,12.03,-0.99,-0.04,-0.18,11.1,19.2,3.3,34.03,,,,,,,,,,
13.11.01.031,33.0,8.2,0,,,83125.5,12.03,-0.34,-0.02,0.2,-2.1,31.9,-17.3,34.62,,,,,,,,,,
13.11.01.043,71.1,17.8,0,,,83125.5,12.03,-0.75,0.02,0.2,-18.7,23.9,-13.6,34.01,,,,,,,,,,
13.11.01.051,50.6,12.6,0,,,83125.5,12.03,-0.74,-0.1,0.01,-6.2,10.0,2.8,34.13,,,,,,,,,,
13.11.01.060,83.5,20.9,0,,,83125.5,12.03,-0.42,0.03,-0.45,24.7,-14.8,4.0,34.43,,,,,,,,,,
13.11.01.069,83.7,20.9,0,,,83125.5,12.03,-0.47,0.13,-0.07,20.8,-8.5,23.3,34.33,,,,,,,,,,
13.11.01.079,59.9,15.0,0,,,83125.5,12.03,-0.49,-0.32,-0.54,16.8,0.3,-31.1,34.14,,,,,,,,,,
13.11.01.089,70.1,17.5,0,,,83125.5,12.03,-0.92,0.49,-0.33,14.0,4.0,4.2,34.29,,,,,,,,,,
13.11.01.099,47.2,11.8,0,,,83125.5,12.03,-0.39,-0.58,-0.78,-18.9,1.7,7.4,34.16,,,,,,,,,,
13.11.01.109,49.5,12.4,0,,,83125.5,12.03,-0.7,-0.44,-0.78,6.6,-4.6,-20.2,34.2,,,,,,,,,,
13.11.01.121,16.8,4.2,0,,,83125.5,12.03,-0.66,-0.43,-0.54,7.6,8.1,21.8,34.78,,,,,,,,,,
13.11.01.133,2.4,0.6,0,,,83125.5,12.03,-0.85,-0.21,-0.38,-12.9,17.1,-2.4,34.18,,,,,,,,,,
13.11.01.143,23.7,5.9,0,,,83125.5,12.03,-0.27,-0.27,-0.13,-32.1,12.9,9.6,34.52,,,,,,,,,,
13.11.01.153,0.1,0.0,0,,,83125.5,12.03,-0.32,-0.2,-0.17,2.2,5.4,-26.7,34.36,,,,,,,,,,
13.11.01.160,-45.7,11.4,0,,,83125.5,12.03,-0.65,-0.44,-0.3,-34.7,4.9,-4.1,33.84,,,,,,,,,,
13.11.01.172,-31.6,7.9,0,,,83125.5,12.03,-0.36,0.13,-0.0,-15.2,-20.6,0.0,34.07,,,,,,,,,,
13.11.01.182,-39.1,9.8,0,,,83125.5,12.03,-0.31,-0.99,-0.06,-13.0,16.1,-3.1,34.31,,,,,,,,,,
13.11.01.192,-3.7,0.9,0,,,83125.5,12.03,-0.51,0.22,0.1,16.7,8.6,-7.1,34.41,,,,,,,,,,
13.11.01.202,-18.4,4.6,0,,,83125.5,12.03,-0.57,0.02,-0.22,5.9,-9.1,0.1,34.07,,,,,,,,,,
13.11.01.213,-39.2,9.8,0,,,83125.5,12.03,-0.35,-0.14,-0.68,11.3,12.4,7.5,34.21,,,,,,,,,,
13.11.01.224,-61.8,15.4,0,,,83125.5,12.03,-0.73,-0.48,-0.75,-5.3,-0.8,-0.1,34.32,,,,,,,,,,
13.11.01.234,-46.6,11.6,0,,,83125.5,12.03,-0.8,-0.56,-0.04,-29.0,6.9,-23.2,34.29,,,,,,,,,,
13.11.01.245,-57.6,14.4,0,,,83125.5,12.03,-0.7,-0.1,0.03,-18.6,19.3,29.8,34.37,,,,,,,,,,
13.11.01.255,-39.1,9.8,0,,,83125.5,12.03,-0.61,-0.42,-0.76,9.8,-1.3,8.8,34.42,,,,,,,,,,
13.11.01.263,-87.3,21.8,0,,,83125.5,12.03,-0.73,-0.13,-0.74,11.1,-5.1,12.9,34.17,,,,,,,,,,
13.11.01.271,-60.5,15.1,0,,,83125.5,12.03,-0.77,-0.72,-0.31,-19.4,8.5,7.6,34.2,,,,,,,,,,
13.11.01.281,-84.6,21.2,0,,,83125.5,12.03,-0.51,-0.65,-0.68,-23.6,29.8,-32.0,34.27,,,,,,,,,,
13.11.01.289,-67.4,16.8,0,,,83125.5,12.03,-0.83,-0.57,0.04,15.7,16.4,-1.5,34.28,,,,,,,,,,
13.11.01.300,-100.0,25.0,0,,,83125.5,12.03,-0.76,-0.15,-0.2,-36.5,18.5,7.9,34.64,,,,,,,,,,
13.11.01.310,-97.6,24.4,0,,,83125.5,12.03,-0.64,-0.15,0.15,-0.3,23.1,-30.2,34.48,,,,,,,,,,
13.11.01.319,-101.7,25.4,0,,,83125.5,12.03,-0.83,-0.1,-0.26,20.1,-11.9,-21.3,34.47,,,,,,,,,,
13.11.01.330,-97.6,24.4,0,,,83125.5,12.03,-0.7,-0.44,-0.18,-63.5,19.9,10.4,34.24,,,,,,,,,,
13.11.01.339,-113.3,28.3,0,,,83125.5,12.03,-1.01,-0.2,0.07,35.5,-18.9,-7.7,34.51,,,,,,,,,,
13.11.01.350,-125.9,31.5,0,,,83125.5,12.03,-0.83,-0.04,-0.76,32.3,-21.7,-2.5,34.73,,,,,,,,,,
13.11.01.359,-111.0,27.8,0,,,83125.5,12.03,-0.83,-0.28,-0.41,-13.0,27.4,-17.2,34.39,,,,,,,,,,
13.11.01.370,-111.9,28.0,0,,,83125.5,12.03,-0.61,-0.34,-0.66,13.7,-20.6,1.4,34.38,,,,,,,,,,
13.11.01.382,-126.6,31.6,0,,,83125.5,12.03,-0.71,-0.02,0.03,-33.6,14.5,4.0,34.22,,,,,,,,,,
13.11.01.392,-147.1,36.8,0,,,83125.5,12.03,-1.35,-0.23,-0.48,31.2,-7.3,3.8,34.18,,,,,,,,,,
13.11.01.401,-135.9,34.0,0,,,83125.5,12.03,-0.78,-0.71,-0.35,-33.7,2.3,18.2,34.85,,,,,,,,,,
13.11.01.410,-102.4,25.6,0,,,83125.5,12.03,-0.65,-0.6,-0.26,8.4,13.1,-1.0,34.36,,,,,,,,,,
13.11.01.421,-136.8,34.2,0,,,83125.5,12.03,-0.76,-0.25,0.16,19.2,8.6,11.9,34.21,,,,,,,,,,
13.11.01.429,-95.3,23.8,0,,,83125.5,12.03,-0.9,-0.06,-0.39,-3.4,-6.5,10.4,34.83,,,,,,,,,,
13.11.01.439,-168.3,42.1,1,2.0,84.9,83125.5,12.03,-0.75,0.06,-0.36,13.3,-19.1,5.6,34.61,,,,,,,,,,
13.11.01.448,-159.5,39.9,0,,,83125.5,12.03,-1.05,-0.14,-0.33,-34.9,-8.5,10.8,33.68,,,,,,,,,,
13.11.01.457,-139.9,35.0,0,,,83125.5,12.03,-0.79,-0.19,-0.5,-19.3,3.1,-13.4,33.89,,,,,,,,,,
13.11.01.466,28.5,7.1,0,,,83125.5,12.03,-1.03,0.28,0.04,-16.7,19.6,-13.8,34.6,,,,,,,,,,
13.11.01.475,84.2,21.0,0,,,83125.5,12.03,-0.88,-0.23,0.28,-1.0,31.7,-4.6,34.21,,,,,,,,,,
13.11.01.486,91.5,22.9,0,,,83125.5,12.03,-0.83,0.2,0.05,1.6,32.6,6.0,34.72,,,,,,,,,,
13.11.01.494,173.9,43.5,0,,,83125.5,12.03,-0.79,-0.0,0.04,12.7,21.8,-9.6,34.03,,,,,,,,,,
13.11.01.501,193.2,48.3,0,,,83125.5,12.03,-0.71,-0.36,-0.13,40.7,-0.8,3.1,34.16,,,,,,,,,,
13.11.01.511,188.7,47.2,0,,,83125.5,12.03,-0.92,-0.12,-0.35,17.3,-13.6,4.8,34.45,,,,,,,,,,
13.11.01.521,265.5,66.4,0,,,83125.5,12.03,-0.97,-0.24,-0.28,20.2,-19.8,10.2,33.71,,,,,,,,,,
13.11.01.531,347.3,86.8,0,,,83125.5,12.03,-1.25,0.26,-0.34,-27.6,-24.3,-31.0,34.39,,,,,,,,,,
13.11.01.541,317.6,79.4,0,,,83125.5,12.03,-0.89,-0.17,0.02,-6.7,2.7,12.6,34.16,,,,,,,,,,
13.11.01.550,368.1,92.0,0,,,83125.5,12.03,-0.96,-0.16,-0.07,-18.2,-8.9,-24.2,34.49,,,,,,,,,,
13.11.01.559,335.1,83.8,0,,,83125.5,12.03,-0.59,0.31,-0.18,19.7,-12.4,6.2,34.14,,,,,,,,,,
13.11.01.571,380.0,95.0,0,,,83125.5,12.03,-0.89,0.38,-0.11,0.1,-6.9,-6.7,34.25,,,,,,,,,,
13.11.01.581,394.3,98.6,0,,,83125.5,12.03,-0.94,-0.12,-0.34,-11.9,5.6,-4.4,34.58,,,,,,,,,,
13.11.01.592,431.9,108.0,0,,,83125.5,12.03,-0.73,0.16,-0.35,-19.4,5.2,-16.3,34.3,,,,,,,,,,
13.11.01.601,437.5,109.4,0,,,83125.5,12.03,-0.71,0.4,0.06,-10.9,10.3,5.1,34.26,,,,,,,,,,
13.11.01.613,440.8,110.2,0,,,83125.5,12.03,-1.04,0.35,-0.58,2.8,10.7,7.7,34.2,,,,,,,,,,
13.11.01.622,395.2,98.8,0,,,83125.5,12.03,-1.14,0.51,-0.61,17.3,9.6,10.9,34.51,,,,,,,,,,
13.11.01.630,389.3,97.3,0,,,83125.5,12.03,-0.88,0.59,-0.79,-3.9,6.9,11.8,34.11,,,,,,,,,,
13.11.01.638,319.7,79.9,0,,,83125.5,12.03,-0.82,0.34,-0.69,6.6,20.0,6.9,33.63,,,,,,,,,,
13.11.01.649,,,0,,,,,,,,,,,,,,,,,,,,,
13.11.01.659,245.1,61.3,0,,,83125.5,12.03,-0.76,0.41,-0.05,-12.5,-5.9,-3.0,34.73,,,,,,,,,,
13.11.01.669,259.8,65.0,0,,,83125.5,12.03,-0.56,0.11,-0.17,-16.0,8.5,-0.6,33.94,,,,,,,,,,
13.11.01.679,156.5,39.1,0,,,83125.5,12.03,-1.02,0.08,-0.63,-9.3,26.4,-6.1,34.61,,,,,,,,,,
13.11.01.688,148.7,37.2,0,,,83125.5,12.03,-0.86,0.05,-0.61,1.5,11.4,35.4,34.75,,,,,,,,,,
13.11.01.696,129.5,32.4,0,,,83125.5,12.03,-0.73,-0.14,-0.36,2.2,2.4,5.1,34.01,,,,,,,,,,
13.11.01.708,39.4,9.8,0,,,83125.5,12.03,-1.03,0.33,-0.19,-23.9,30.7,-12.9,34.41,,,,,,,,,,
13.11.01.716,0.3,0.1,0,,,83125.5,12.03,-0.65,0.27,-0.51,-3.6,4.7,10.8,33.9,,,,,,,,,,
13.11.01.724,8.4,2.1,0,,,83125.5,12.03,-0.48,0.16,-0.66,20.2,15.1,-6.5,33.91,,,,,,,,,,
13.11.01.734,27.9,7.0,0,,,83125.5,12.03,-0.89,-0.48,-0.38,12.2,0.1,-23.0,34.57,,,,,,,,,,
13.11.01.743,15.5,3.9,0,,,83125.5,12.03,-0.62,0.48,-0.7,6.3,-8.6,4.9,34.03,,,,,,,,,,
13.11.01.753,79.1,19.8,0,,,83125.5,12.03,-0.91,0.41,-0.18,14.8,4.8,-2.0,34.07,,,,,,,,,,
13.11.01.764,44.8,11.2,0,,,83125.5,12.03,-0.77,0.27,-0.49,-3.9,29.1,-6.6,34.22,,,,,,,,,,
13.11.01.775,82.3,20.6,0,,,83125.5,12.03,-1.19,-0.22,0.1,1.5,8.4,-5.4,34.42,,,,,,,,,,
13.11.01.784,99.6,24.9,0,,,83125.5,12.03,-1.02,0.08,0.05,16.6,-4.3,-1.5,34.35,,,,,,,,,,
13.11.01.791,96.3,24.1,0,,,83125.5,12.03,-0.87,0.16,-0.18,7.6,5.5,-2.6,34.19,,,,,,,,,,
13.11.01.804,67.7,16.9,0,,,83125.5,12.03,-1.28,0.17,-0.07,-29.2,3.9,4.8,34.5,,,,,,,,,,
13.11.01.811,96.5,24.1,0,,,83125.5,12.03,-1.14,0.09,0.25,7.7,-5.7,-11.5,34.97,,,,,,,,,,
13.11.01.821,56.2,14.0,0,,,83125.5,12.03,-0.69,0.49,-0.66,2.9,2.1,15.5,34.91,,,,,,,,,,
13.11.01.831,65.0,16.2,0,,,83125.5,12.03,-0.81,-0.05,-0.76,-28.8,29.6,-5.7,34.24,,,,,,,,,,
13.11.01.841,57.9,14.5,0,,,83125.5,12.03,-0.71,0.26,-0.21,0.6,2.3,-10.9,34.41,,,,,,,,,,
13.11.01.851,-14.4,3.6,0,,,83125.5,12.03,-0.67,0.41,0.07,11.1,-2.5,7.4,34.27,,,,,,,,,,
13.11.01.862,-42.2,10.6,0,,,83125.5,12.03,-0.66,0.46,0.24,15.5,10.6,0.4,34.31,,,,,,,,,,
13.11.01.873,-5.3,1.3,0,,,83125.5,12.03,-0.69,0.23,-0.15,5.3,18.7,0.8,34.52,,,,,,,,,,
13.11.01.881,-31.6,7.9,0,,,83125.5,12.03,-1.13,-0.28,-0.2,-7.6,10.5,3.1,34.5,,,,,,,,,,
13.11.01.891,-6.2,1.6,0,,,83125.5,12.03,-0.47,0.19,-0.22,-2.6,-8.2,5.0,34.74,,,,,,,,,,
13.11.01.901,-18.7,4.7,0,,,83125.5,12.03,-0.84,0.25,-0.38,25.3,21.0,-26.3,34.57,,,,,,,,,,
13.11.01.909,-18.5,4.6,0,,,83125.5,12.03,-0.51,0.3,-0.47,-22.4,38.8,6.4,34.32,,,,,,,,,,
13.11.01.918,-26.3,6.6,0,,,83125.5,12.03,-0.45,-0.38,0.04,14.1,-0.6,13.4,34.71,,,,,,,,,,
13.11.01.928,-27.6,6.9,0,,,83125.5,12.03,-0.54,0.0,-0.21,-25.6,10.2,37.5,34.44,,,,,,,,,,
13.11.01.939,-28.2,7.0,0,,,83125.5,12.03,-0.19,0.32,-0.44,16.5,-10.1,-10.9,33.93,,,,,,,,,,
13.11.01.949,-12.4,3.1,0,,,83125.5,12.03,-0.87,-0.26,-0.32,8.6,-2.6,-0.4,34.41,,,,,,,,,,
13.11.01.961,-37.2,9.3,0,,,83125.5,12.03,-0.61,0.22,-0.08,10.8,-4.1,5.1,34.2,,,,,,,,,,
13.11.01.969,-61.0,15.2,0,,,83125.5,12.03,-0.71,0.02,0.12,11.5,-6.7,-14.8,34.85,,,,,,,,,,
13.11.01.981,-71.6,17.9,0,,,83125.5,12.03,-0.87,0.45,-0.48,-13.3,5.9,3.4,34.32,,,,,,,,,,
13.11.01.990,-30.0,7.5,0,,,83125.5,12.03,-0.85,-0.1,-0.23,-2.9,-11.5,17.6,34.46,,,,,,,,,,
13.11.01.998,-42.6,10.6,0,,,83125.5,12.03,-0.69,0.32,-0.51,35.4,14.4,-20.2,34.74,,,,,,,,,,
13.11.02.008,-35.9,9.0,0,,,83125.5,12.03,-0.74,-0.12,-0.48,13.3,-10.7,-20.0,34.59,,,,,,,,,,
13.11.02.015,-90.0,22.5,0,,,83125.5,12.03,-0.63,0.13,-0.37,28.9,-2.9,10.7,33.91,,,,,,,,,,
13.11.02.024,-101.7,25.4,0,,,83125.5,12.03,-0.68,0.17,-0.18,-7.7,-33.2,5.8,34.71,,,,,,,,,,
13.11.02.031,-73.7,18.4,0,,,83125.5,12.03,-0.61,0.08,0.16,-38.1,-15.9,2.7,34.1,,,,,,,,,,
13.11.02.041,-73.8,18.4,0,,,83125.5,12.03,-0.54,0.3,-0.57,-5.9,13.0,-2.9,34.2,,,,,,,,,,
13.11.02.049,-117.6,29.4,0,,,83125.5,12.03,-0.44,-0.31,-0.51,42.7,28.1,0.5,34.2,,,,,,,,,,
13.11.02.062,-84.6,21.2,0,,,83125.5,12.03,-0.53,0.53,-0.26,26.8,-11.3,-2.4,34.49,,,,,,,,,,
13.11.02.071,-98.9,24.7,0,,,83125.5,12.03,-0.84,0.23,-0.39,17.2,-13.2,9.0,34.45,,,,,,,,,,
13.11.02.082,-101.4,25.4,0,,,83125.5,12.03,-0.66,-0.35,-0.28,-62.4,-1.3,-18.0,35.1,,,,,,,,,,
13.11.02.092,-98.4,24.6,0,,,83125.5,12.03,-0.79,-0.48,-0.49,13.8,1.5,15.9,34.97,,,,,,,,,,
13.11.02.101,-115.4,28.8,0,,,83125.5,12.03,-0.53,0.41,-0.1,-12.0,-30.4,-18.3,34.12,,,,,,,,,,
13.11.02.110,-109.5,27.4,0,,,83125.5,12.03,-0.92,-0.5,-0.33,8.7,4.5,3.0,34.75,,,,,,,,,,
13.11.02.118,-164.2,41.0,0,,,83125.5,12.03,-0.75,-0.43,-0.25,-3.1,6.0,-10.3,34.05,,,,,,,,,,
13.11.02.129,-123.3,30.8,0,,,83125.5,12.03,-0.51,-0.15,-0.82,7.7,12.2,25.7,34.23,,,,,,,,,,
13.11.02.139,-109.7,27.4,1,3.0,85.7,83125.5,12.03,-0.95,-0.62,-0.84,-16.4,9.2,6.8,34.22,,,,,,,,,,
13.11.02.147,-143.6,35.9,0,,,83125.5,12.03,-0.72,-0.31,-0.06,-2.7,-31.7,-10.5,34.44,,,,,,,,,,
13.11.02.158,-160.2,40.0,0,,,83125.5,12.03,-0.89,0.08,-0.32,3.7,17.8,26.5,34.39,,,,,,,,,,
13.11.02.167,-141.4,35.4,0,,,83125.5,12.03,-0.52,-0.57,-0.35,-40.9,-10.5,-13.0,34.03,,,,,,,,,,
13.11.02.176,-168.0,42.0,0,,,83125.5,12.03,-0.84,-0.67,-0.22,-18.4,-11.4,9.8,34.31,,,,,,,,,,
13.11.02.184,-188.2,47.0,0,,,83125.5,12.03,-0.6,-0.14,-0.64,-15.7,10.3,-1.9,34.16,,,,,,,,,,
13.11.02.192,6.3,1.6,0,,,83125.5,12.03,-0.67,-0.05,-0.46,31.8,-40.5,-22.5,33.94,,,,,,,,,,
13.11.02.204,51.0,12.8,0,,,83125.5,12.03,-0.88,-0.19,-0.59,-2.3,21.8,21.0,34.72,,,,,,,,,,
13.11.02.213,111.7,27.9,0,,,83125.5,12.03,-0.7,0.21,0.04,0.1,21.1,10.3,34.17,,,,,,,,,,
13.11.02.222,162.9,40.7,0,,,83125.5,12.03,-0.78,-0.53,0.09,-17.7,-8.2,-15.3,34.62,,,,,,,,,,
13.11.02.235,219.9,55.0,0,,,83125.5,12.03,-0.7,-0.07,0.49,6.4,-14.2,12.7,33.87,,,,,,,,,,
13.11.02.245,295.5,73.9,0,,,83125.5,12.03,-0.95,-0.28,0.29,10.5,4.0,-25.4,34.45,,,,,,,,,,
13.11.02.256,305.3,76.3,0,,,83125.5,12.03,-0.75,0.21,0.11,24.8,-6.4,-11.5,34.64,,,,,,,,,,
13.11.02.265,332.9,83.2,0,,,83125.5,12.03,-0.55,-0.46,-0.55,-6.0,-4.8,5.3,34.15,,,,,,,,,,
13.11.02.277,329.5,82.4,0,,,83125.5,12.03,-0.85,-0.1,-0.06,-24.9,12.1,-5.4,34.58,,,,,,,,,,
13.11.02.284,382.6,95.6,0,,,83125.5,12.03,-1.21,-0.0,0.26,2.6,4.7,-9.0,34.58,,,,,,,,,,
13.11.02.292,367.7,91.9,0,,,83125.5,12.03,-0.81,-0.32,0.14,16.1,-33.7,5.0,33.99,,,,,,,,,,
13.11.02.302,395.6,98.9,0,,,83125.5,12.03,-0.99,-0.24,0.57,2.2,-6.6,-17.2,34.3,,,,,,,,,,
13.11.02.312,409.7,102.4,0,,,83125.5,12.03,-0.85,0.29,-0.15,-25.1,10.6,-5.2,33.56,,,,,,,,,,
13.11.02.320,396.6,99.2,0,,,83125.5,12.03,-0.68,0.07,-0.22,-22.3,1.4,-7.4,34.14,,,,,,,,,,
13.11.02.330,409.9,102.5,0,,,83125.5,12.03,-0.62,-0.42,-0.63,16.7,16.1,14.3,33.99,,,,,,,,,,
13.11.02.340,402.8,100.7,0,,,83125.5,12.03,-1.03,-0.32,0.01,22.0,-47.1,-7.6,34.25,,,,,,,,,,
13.11.02.350,338.7,84.7,0,,,83125.5,12.03,-0.57,-0.28,-0.59,-11.4,12.9,-9.9,34.41,,,,,,,,,,
13.11.02.363,373.5,93.4,0,,,83125.5,12.03,-1.01,-0.39,-0.64,-6.2,-6.4,5.2,34.21,,,,,,,,,,
13.11.02.372,311.7,77.9,0,,,83125.5,12.03,-1.05,-0.28,0.05,22.2,-13.0,1.1,34.27,,,,,,,,,,
13.11.02.382,346.2,86.6,0,,,83125.5,12.03,-0.98,-0.26,-0.15,1.3,12.4,-6.2,34.66,,,,,,,,,,
13.11.02.392,252.6,63.2,0,,,83125.5,12.03,-1.04,-0.68,-0.1,-61.7,-3.6,-5.5,33.93,,,,,,,,,,
13.11.02.401,217.2,54.3,0,,,83125.5,12.03,-0.58,-0.38,-0.0,-24.7,-24.0,-13.3,34.01,,,,,,,,,,
13.11.02.411,199.6,49.9,0,,,83125.5,12.03,-0.66,-0.02,-0.25,0.6,-15.1,-22.5,34.23,,,,,,,,,,
13.11.02.419,106.3,26.6,0,,,83125.5,12.03,-0.64,0.4,0.1,-3.5,-10.3,-0.4,33.67,,,,,,,,,,
13.11.02.428,106.0,26.5,0,,,83125.5,12.03,-1.0,0.44,-0.36,-1.7,21.2,-17.8,34.58,,,,,,,,,,
13.11.02.434,29.6,7.4,0,,,83125.5,12.03,-1.06,-0.12,0.0,23.1,14.2,6.5,33.97,,,,,,,,,,
13.11.02.443,39.2,9.8,0,,,83125.5,12.03,-1.43,-0.02,-0.58,-0.7,-4.0,-10.7,34.68,,,,,,,,,,
13.11.02.454,35.6,8.9,0,,,83125.5,12.03,-0.91,-0.1,-0.46,27.1,0.3,14.4,34.33,,,,,,,,,,
13.11.02.463,30.7,7.7,0,,,83125.5,12.03,-1.07,0.0,-0.03,-43.2,30.3,-7.7,34.4,,,,,,,,,,
13.11.02.474,38.0,9.5,0,,,83125.5,12.03,-1.14,-0.14,-0.59,-25.1,17.2,15.1,34.08,,,,,,,,,,
13.11.02.483,31.4,7.8,0,,,83125.5,12.03,-0.75,-0.14,-0.63,-35.4,-2.8,24.8,34.26,,,,,,,,,,
13.11.02.494,68.5,17.1,0,,,83125.5,12.03,-1.18,-0.08,-0.01,21.0,-1.4,4.4,34.14,,,,,,,,,,
13.11.02.506,53.4,13.4,0,,,83125.5,12.03,-0.68,-0.52,-0.69,-0.1,5.1,4.0,34.39,,,,,,,,,,
13.11.02.516,96.1,24.0,0,,,83125.5,12.03,-0.68,0.09,-0.52,0.3,-10.8,27.9,34.38,,,,,,,,,,
13.11.02.527,76.9,19.2,0,,,83125.5,12.03,-0.68,0.2,-0.9,33.3,-4.9,-11.2,34.42,,,,,,,,,,
13.11.02.538,101.2,25.3,0,,,83125.5,12.03,-0.98,0.3,-0.32,16.0,-8.3,-21.4,34.47,,,,,,,,,,
13.11.02.548,40.3,10.1,0,,,83125.5,12.03,-0.97,0.15,-0.2,14.1,27.3,20.7,34.05,,,,,,,,,,
13.11.02.558,65.5,16.4,0,,,83125.5,12.03,-0.47,-0.18,-0.31,33.5,-5.8,-4.2,34.07,,,,,,,,,,
13.11.02.569,25.7,6.4,0,,,83125.5,12.03,-0.84,0.22,-0.44,-12.3,-21.1,-1.2,34.09,,,,,,,,,,
13.11.02.580,13.7,3.4,0,,,83125.5,12.03,-1.3,0.22,-0.93,4.1,-10.8,-8.7,34.2,,,,,,,,,,
13.11.02.589,1.1,0.3,0,,,83125.5,12.03,-0.94,0.13,-0.02,-19.9,10.6,-15.1,34.11,,,,,,,,,,
13.11.02.599,0.7,0.2,0,,,83125.5,12.03,-0.89,0.23,-0.07,9.2,16.7,-27.7,34.53,,,,,,,,,,
13.11.02.611,-22.9,5.7,0,,,83125.5,12.03,-0.98,-0.1,-0.45,-24.2,8.2,18.2,34.88,,,,,,,,,,
13.11.02.621,-19.9,5.0,0,,,83125.5,12.03,-0.62,0.29,-0.13,37.8,-7.1,4.6,34.22,,,,,,,,,,
13.11.02.630,-22.6,5.6,0,,,83125.5,12.03,-0.88,0.2,-0.21,1.1,7.7,-21.8,34.35,,,,,,,,,,
13.11.02.639,-20.0,5.0,0,,,83125.5,12.03,-1.07,-0.11,-0.63,0.3,-14.7,2.8,34.79,,,,,,,,,,
13.11.02.648,5.4,1.4,0,,,83125.5,12.03,-0.74,0.07,-0.3,-15.4,29.1,15.1,34.35,,,,,,,,,,
13.11.02.659,-15.6,3.9,0,,,83125.5,12.03,-0.86,0.54,-0.65,16.9,11.3,4.6,34.21,,,,,,,,,,
13.11.02.668,-44.0,11.0,0,,,83125.5,12.03,-0.45,-0.05,-0.31,6.4,-10.9,-18.8,35.01,,,,,,,,,,
13.11.02.680,-29.1,7.3,0,,,83125.5,12.03,-0.64,0.27,-0.05,-31.2,3.5,6.4,34.98,,,,,,,,,,
13.11.02.689,-52.6,13.2,0,,,83125.5,12.03,-0.54,0.07,0.05,-1.7,33.2,-0.1,34.33,,,,,,,,,,
13.11.02.698,-57.7,14.4,0,,,83125.5,12.03,-0.73,0.19,0.01,3.7,-11.8,-5.9,34.65,,,,,,,,,,
13.11.02.710,-58.9,14.7,0,,,83125.5,12.03,-0.6,0.02,0.38,-5.6,23.0,-30.2,34.49,,,,,,,,,,
13.11.02.721,-48.1,12.0,0,,,83125.5,12.03,-0.68,-0.02,-0.08,35.9,14.6,-2.5,33.95,,,,,,,,,,
13.11.02.732,-72.4,18.1,0,,,83125.5,12.03,-1.08,-0.07,-0.04,46.4,-17.3,-8.8,34.45,,,,,,,,,,
13.11.02.743,-85.8,21.4,0,,,83125.5,12.03,-0.59,0.36,-0.59,3.2,19.6,5.1,34.43,,,,,,,,,,
13.11.02.755,-91.3,22.8,0,,,83125.5,12.03,-0.82,0.25,-0.12,15.6,-18.3,2.9,34.36,,,,,,,,,,
13.11.02.766,-127.0,31.8,0,,,83125.5,12.03,-0.94,0.19,0.41,22.0,-6.6,-41.8,34.31,,,,,,,,,,
13.11.02.775,-86.2,21.6,0,,,83125.5,12.03,-0.6,0.38,0.06,-15.2,-12.6,-16.4,34.08,,,,,,,,,,
13.11.02.782,-107.3,26.8,0,,,83125.5,12.03,-0.49,0.07,-0.06,-22.6,18.9,-3.5,34.0,,,,,,,,,,
13.11.02.794,-90.5,22.6,0,,,83125.5,12.03,-0.78,-0.47,-0.49,-21.2,23.4,-25.6,33.94,,,,,,,,,,
13.11.02.806,-125.4,31.4,0,,,83125.5,12.03,-0.77,0.75,0.09,-9.6,13.7,-20.5,34.1,,,,,,,,,,
13.11.02.816,-99.0,24.8,0,,,83125.5,12.03,-0.74,-0.28,-0.18,1.6,26.2,-15.6,33.99,,,,,,,,,,
13.11.02.824,-109.6,27.4,0,,,83125.5,12.03,-0.47,0.59,-0.36,29.4,-0.7,12.6,34.16,,,,,,,,,,
13.11.02.834,-161.9,40.5,0,,,83125.5,12.03,-0.59,-0.12,-0.6,24.9,-18.4,20.3,34.31,,,,,,,,,,
13.11.02.845,-137.6,34.4,0,,,83125.5,12.03,-0.65,-0.38,-0.22,24.6,11.8,12.7,34.57,,,,,,,,,,
13.11.02.856,-156.1,39.0,1,4.0,83.7,83125.5,12.03,-0.31,-0.26,-0.62,14.2,19.4,2.6,34.62,,,,,,,,,,
13.11.02.864,-137.7,34.4,0,,,83125.5,12.03,-0.43,0.17,-0.06,-15.5,4.5,-27.7,34.56,,,,,,,,,,
13.11.02.875,-142.8,35.7,0,,,83056.5,12.04,-0.66,0.57,-0.39,11.0,14.7,-1.1,34.54,,,,,,,,,,
13.11.02.884,-158.8,39.7,0,,,83056.5,12.04,-0.7,-0.11,-0.25,18.4,0.4,-18.2,34.61,,,,,,,,,,
13.11.02.892,-137.0,34.2,0,,,83056.5,12.04,-0.77,-0.42,-0.62,-2.1,-3.3,-14.6,34.78,,,,,,,,,,
13.11.02.901,-212.9,53.2,0,,,83056.5,12.04,-0.57,-0.59,-0.04,-1.6,4.5,-0.3,34.26,,,,,,,,,,
13.11.02.912,-187.4,46.8,0,,,83056.5,12.04,-0.7,0.33,-0.78,1.6,1.5,-13.9,34.6,,,,,,,,,,
13.11.02.921,10.2,2.6,0,,,83056.5,12.04,-0.88,-0.58,-0.38,-0.8,-38.8,6.5,34.37,,,,,,,,,,
13.11.02.931,61.3,15.3,0,,,83056.5,12.04,-0.56,-0.03,-0.47,9.3,8.6,-2.2,34.11,,,,,,,,,,
13.11.02.942,106.6,26.6,0,,,83056.5,12.04,-0.7,0.02,-0.22,-14.2,47.5,13.5,34.47,,,,,,,,,,
13.11.02.953,180.8,45.2,0,,,83056.5,12.04,-0.81,-0.06,-0.53,4.9,24.7,0.6,33.88,,,,,,,,,,
13.11.02.964,181.6,45.4,0,,,83056.5,12.04,-0.86,0.45,-0.82,0.7,16.5,-12.4,34.35,,,,,,,,,,
13.11.02.976,293.4,73.4,0,,,83056.5,12.04,-0.67,0.09,0.25,-48.7,18.1,12.7,34.63,,,,,,,,,,
13.11.02.987,310.2,77.6,0,,,83056.5,12.04,-0.8,0.26,-0.38,-38.2,32.0,-16.6,33.74,,,,,,,,,,
13.11.02.996,311.8,78.0,0,,,83056.5,12.04,-0.79,0.18,-0.64,-16.6,-0.3,-14.0,34.45,,,,,,,,,,
13.11.03.007,351.1,87.8,0,,,83056.5,12.04,-0.9,-0.04,-0.56,6.3,14.2,-6.0,34.41,,,,,,,,,,
13.11.03.017,385.7,96.4,0,,,83056.5,12.04,-0.46,-0.31,-0.18,-28.9,37.0,-7.2,34.64,,,,,,,,,,
13.11.03.026,406.5,101.6,0,,,83056.5,12.04,-0.63,-0.08,-0.51,7.5,20.1,9.4,34.28,,,,,,,,,,
13.11.03.036,421.0,105.2,0,,,83056.5,12.04,-0.6,-0.35,-0.96,16.4,15.1,-16.9,34.14,,,,,,,,,,
13.11.03.045,448.2,112.0,0,,,83056.5,12.04,-0.2,0.01,-0.01,22.7,-3.9,1.1,34.49,,,,,,,,,,
13.11.03.054,439.7,109.9,0,,,83056.5,12.04,-0.86,0.28,-0.7,7.5,-1.8,-15.9,34.21,,,,,,,,,,
13.11.03.066,386.8,96.7,0,,,83056.5,12.04,-0.83,-0.56,-0.08,13.7,0.4,23.2,34.01,,,,,,,,,,
13.11.03.077,356.0,89.0,0,,,83056.5,12.04,-0.58,-0.13,-0.36,-14.3,2.7,8.5,34.85,,,,,,,,,,
13.11.03.088,376.1,94.0,0,,,83056.5,12.04,-0.89,-0.54,-0.09,-35.7,35.9,-6.7,34.08,,,,,,,,,,
13.11.03.101,334.9,83.7,0,,,83056.5,12.04,-1.02,-0.27,-0.35,13.2,-0.4,-0.0,34.35,,,,,,,,,,
13.11.03.111,243.7,60.9,0,,,83056.5,12.04,-1.13,-0.7,-0.25,16.2,18.3,-1.4,34.07,,,,,,,,,,
13.11.03.121,256.0,64.0,0,,,83056.5,12.04,-0.79,0.12,-0.26,21.5,7.4,3.5,34.04,,,,,,,,,,
13.11.03.130,242.6,60.6,0,,,83056.5,12.04,-1.09,-0.6,-0.49,-42.9,12.5,-11.8,34.69,,,,,,,,,,
13.11.03.141,127.1,31.8,0,,,83056.5,12.04,-0.82,-0.48,-0.13,-7.7,-25.1,11.4,33.98,,,,,,,,,,
13.11.03.153,79.9,20.0,0,,,83056.5,12.04,-0.85,-0.39,0.12,-30.0,12.5,7.1,34.7,,,,,,,,,,
13.11.03.164,54.8,13.7,0,,,83056.5,12.04,-1.08,-0.34,-0.44,8.9,25.0,14.8,34.52,,,,,,,,,,
13.11.03.173,5.9,1.5,0,,,83056.5,12.04,-0.83,0.03,-0.87,2.2,13.1,-23.1,34.69,,,,,,,,,,
13.11.03.183,14.1,3.5,0,,,83056.5,12.04,-0.73,0.42,-0.23,22.5,43.8,2.9,34.11,,,,,,,,,,
13.11.03.194,41.2,10.3,0,,,83056.5,12.04,-0.92,-0.11,0.15,-8.8,14.3,-24.6,34.51,,,,,,,,,,
13.11.03.206,71.3,17.8,0,,,83056.5,12.04,-0.54,-0.31,0.12,-20.1,-6.2,29.2,34.46,,,,,,,,,,
13.11.03.215,39.5,9.9,0,,,83056.5,12.04,-0.42,-0.41,-0.02,1.4,-3.8,-16.4,34.05,,,,,,,,,,
13.11.03.225,30.2,7.6,0,,,83056.5,12.04,-0.73,-0.74,-0.24,8.9,-6.2,-3.5,34.19,,,,,,,,,,
13.11.03.235,60.4,15.1,0,,,83056.5,12.04,-0.86,0.03,0.21,0.4,28.0,-5.8,33.62,,,,,,,,,,
13.11.03.244,36.1,9.0,0,,,83056.5,12.04,-0.8,-0.76,-0.12,27.7,-22.2,-10.2,34.65,,,,,,,,,,
13.11.03.254,56.7,14.2,0,,,83056.5,12.04,-0.79,0.47,0.02,1.4,-8.5,-28.9,34.42,,,,,,,,,,
13.11.03.263,88.1,22.0,0,,,83056.5,12.04,-0.97,0.27,0.11,0.8,-0.3,-21.4,34.37,,,,,,,,,,
13.11.03.272,32.1,8.0,0,,,83056.5,12.04,-0.69,0.24,-0.64,5.2,-28.0,6.0,33.98,,,,,,,,,,
13.11.03.281,41.2,10.3,0,,,83056.5,12.04,-0.65,0.36,-0.15,-0.1,3.3,-12.1,34.06,,,,,,,,,,
13.11.03.291,34.5,8.6,0,,,83056.5,12.04,-1.27,-0.02,-0.01,-15.3,6.6,17.6,33.81,,,,,,,,,,
13.11.03.300,32.4,8.1,0,,,83056.5,12.04,-1.06,0.51,-0.3,-15.7,13.8,-1.0,34.26,,,,,,,,,,
13.11.03.308,0.3,0.1,0,,,83056.5,12.04,-0.7,0.48,-0.17,-15.0,8.4,2.3,34.21,,,,,,,,,,
13.11.03.318,15.8,4.0,0,,,83056.5,12.04,-0.91,0.04,-0.22,-5.3,-11.6,11.6,33.87,,,,,,,,,,
13.11.03.327,-16.4,4.1,0,,,83056.5,12.04,-1.05,0.41,-0.43,-16.3,-16.2,2.9,34.43,,,,,,,,,,
13.11.03.336,1.3,0.3,0,,,83056.5,12.04,-0.56,-0.02,-0.11,-12.6,32.2,-11.2,34.07,,,,,,,,,,
13.11.03.348,-11.1,2.8,0,,,83056.5,12.04,-0.82,-0.13,-0.59,1.3,-1.4,-1.2,34.34,,,,,,,,,,
13.11.03.356,-30.7,7.7,0,,,83056.5,12.04,-0.79,0.17,-0.37,13.7,0.7,-4.8,34.36,,,,,,,,,,
13.11.03.366,-4.3,1.1,0,,,83056.5,12.04,-1.06,0.18,-0.82,31.4,-5.8,13.1,34.1,,,,,,,,,,
13.11.03.374,-31.0,7.8,0,,,83056.5,12.04,-0.49,-0.27,-0.22,6.6,13.6,6.5,34.05,,,,,,,,,,
13.11.03.385,-25.7,6.4,0,,,83056.5,12.04,-0.89,0.33,-0.38,-0.4,38.0,4.9,34.46,,,,,,,,,,
13.11.03.393,-10.2,2.6,0,,,83056.5,12.04,-0.53,0.38,-0.32,1.4,-19.8,-7.7,34.41,,,,,,,,,,
13.11.03.403,-49.9,12.5,0,,,83056.5,12.04,-0.98,-0.19,-0.67,-7.9,-8.6,12.4,34.13,,,,,,,,,,
13.11.03.411,-74.9,18.7,0,,,83056.5,12.04,-0.54,0.43,-0.64,5.2,22.9,-13.5,34.66,,,,,,,,,,
13.11.03.419,-49.0,12.2,0,,,83056.5,12.04,-0.77,-0.07,-0.75,18.1,32.1,-11.5,34.01,,,,,,,,,,
13.11.03.428,-65.4,16.4,0,,,83056.5,12.04,-1.05,0.4,-0.46,8.7,13.9,-0.0,34.33,,,,,,,,,,
13.11.03.439,-64.5,16.1,0,,,83056.5,12.04,-1.03,0.27,-0.18,-4.3,-1.4,-10.3,34.5,,,,,,,,,,
13.11.03.449,-84.7,21.2,0,,,83056.5,12.04,-1.02,-0.24,0.25,-22.2,4.8,19.4,34.49,,,,,,,,,,
13.11.03.460,-66.2,16.6,0,,,83056.5,12.04,-1.18,-0.22,0.43,-4.9,20.1,10.3,34.31,,,,,,,,,,
13.11.03.470,-62.4,15.6,0,,,83056.5,12.04,-1.06,0.44,-0.59,-1.9,23.6,11.9,34.26,,,,,,,,,,
13.11.03.480,-71.7,17.9,0,,,83056.5,12.04,-1.06,0.08,-0.66,31.1,10.7,6.5,34.58,,,,,,,,,,
13.11.03.491,-76.1,19.0,0,,,83056.5,12.04,-0.52,-0.1,-0.7,10.7,16.6,-1.7,34.25,,,,,,,,,,
13.11.03.503,-75.5,18.9,0,,,83056.5,12.04,-0.56,0.08,-1.06,-31.0,21.1,-3.6,33.97,,,,,,,,,,
13.11.03.514,-112.5,28.1,0,,,83056.5,12.04,-0.78,0.02,-0.8,14.0,1.3,-7.5,34.12,,,,,,,,,,
13.11.03.524,-89.2,22.3,0,,,83056.5,12.04,-0.68,0.64,0.23,12.7,4.5,-6.8,34.35,,,,,,,,,,
13.11.03.534,-98.0,24.5,0,,,83056.5,12.04,-0.91,-0.2,0.03,32.1,-4.1,-2.5,33.7,,,,,,,,,,
13.11.03.544,-122.9,30.7,0,,,83056.5,12.04,-0.83,-0.14,0.18,1.6,15.2,32.0,34.08,,,,,,,,,,
13.11.03.555,-117.6,29.4,0,,,83056.5,12.04,-0.84,-0.04,0.03,-0.5,16.4,-6.7,34.29,,,,,,,,,,
13.11.03.567,-113.0,28.2,1,5.0,84.4,83056.5,12.04,-0.54,-0.28,-0.34,22.0,-5.2,22.9,33.91,,,,,,,,,,
13.11.03.578,-132.5,33.1,0,,,83056.5,12.04,-1.21,0.36,-0.58,6.1,-8.0,-10.2,34.59,,,,,,,,,,
13.11.03.589,-86.6,21.6,0,,,83056.5,12.04,-0.84,0.2,-0.29,3.1,-0.7,-11.3,34.25,,,,,,,,,,
13.11.03.598,-126.3,31.6,0,,,83056.5,12.04,-0.95,0.06,0.16,3.0,-2.9,8.8,34.52,,,,,,,,,,
13.11.03.605,-176.6,44.2,0,,,83056.5,12.04,-0.88,0.04,-0.49,3.7,-7.5,-22.5,34.23,,,,,,,,,,
13.11.03.613,-162.1,40.5,0,,,83056.5,12.04,-0.67,0.01,-0.4,-6.4,7.7,-9.5,34.21,,,,,,,,,,
13.11.03.622,-153.9,38.5,0,,,83056.5,12.04,-0.37,-0.38,0.23,13.7,-1.3,-3.2,34.7,,,,,,,,,,
13.11.03.632,-166.8,41.7,0,,,83056.5,12.04,-0.4,0.41,-0.18,77.9,40.1,20.8,34.02,,,,,,,,,,
13.11.03.644,-177.5,44.4,0,,,83056.5,12.04,-0.51,0.1,0.06,-1.2,26.7,-14.6,34.27,,,,,,,,,,
13.11.03.653,45.4,11.4,0,,,83056.5,12.04,-0.75,0.65,-0.46,24.8,7.2,8.0,34.72,,,,,,,,,,
13.11.03.664,99.0,24.8,0,,,83056.5,12.04,-0.62,-0.03,0.04,-19.2,5.6,-8.3,34.5,,,,,,,,,,
13.11.03.673,145.7,36.4,0,,,83056.5,12.04,-0.68,0.08,-0.31,-6.7,9.1,7.0,34.26,,,,,,,,,,
13.11.03.683,148.9,37.2,0,,,83056.5,12.04,-0.74,-0.1,0.53,31.9,10.5,-6.3,34.47,,,,,,,,,,
13.11.03.694,221.7,55.4,0,,,83056.5,12.04,-0.79,0.59,0.08,-25.8,34.0,-2.6,34.65,,,,,,,,,,
13.11.03.703,267.6,66.9,0,,,83056.5,12.04,-0.24,0.11,0.1,-15.6,4.5,13.6,33.8,,,,,,,,,,
13.11.03.713,284.0,71.0,0,,,83056.5,12.04,-0.43,0.47,-0.8,19.5,1.3,-19.9,34.26,,,,,,,,,,
13.11.03.720,375.5,93.9,0,,,83056.5,12.04,-0.7,0.21,0.03,23.6,30.8,-9.1,34.28,,,,,,,,,,
13.11.03.731,421.0,105.2,0,,,83056.5,12.04,-0.35,0.13,-0.14,-40.5,18.5,7.1,34.4,,,,,,,,,,
13.11.03.742,413.5,103.4,0,,,83056.5,12.04,-0.56,0.09,-0.52,-8.7,22.2,13.6,34.42,,,,,,,,,,
13.11.03.750,385.3,96.3,0,,,83056.5,12.04,-0.76,-0.17,-0.08,-25.4,8.5,-9.6,33.87,,,,,,,,,,
13.11.03.760,444.2,111.0,0,,,83056.5,12.04,-0.48,-0.38,-0.78,20.5,12.0,29.5,34.17,,,,,,,,,,
13.11.03.769,385.7,96.4,0,,,83056.5,12.04,-0.82,0.23,-0.46,-33.4,37.9,13.7,34.49,,,,,,,,,,
13.11.03.780,409.7,102.4,0,,,83056.5,12.04,-0.84,0.5,-0.7,-51.2,14.1,3.8,34.09,,,,,,,,,,
13.11.03.792,431.3,107.8,0,,,83056.5,12.04,-0.77,0.12,-0.29,14.0,6.3,-6.0,34.23,,,,,,,,,,
13.11.03.802,394.2,98.6,0,,,83056.5,12.04,-0.83,-0.12,-0.35,42.4,-5.2,-2.8,34.37,,,,,,,,,,
13.11.03.809,355.1,88.8,0,,,83056.5,12.04,-0.46,-0.05,-0.04,-42.4,23.1,-8.2,34.47,,,,,,,,,,
13.11.03.816,342.6,85.6,0,,,83056.5,12.04,-0.62,-0.07,-0.46,34.2,-5.4,2.3,34.24,,,,,,,,,,
13.11.03.828,318.4,79.6,0,,,83056.5,12.04,-0.81,0.11,-0.56,-10.0,-9.4,14.0,34.11,,,,,,,,,,
13.11.03.837,324.2,81.0,0,,,83056.5,12.04,-0.6,-0.33,-0.49,-41.8,-1.8,0.2,34.5,,,,,,,,,,
13.11.03.847,268.7,67.2,0,,,83056.5,12.04,-0.6,-0.62,-0.75,23.2,-6.4,-4.6,34.37,,,,,,,,,,
13.11.03.859,190.7,47.7,0,,,83056.5,12.04,-0.36,-0.06,-0.88,-18.1,22.5,-9.5,34.27,,,,,,,,,,
13.11.03.869,136.6,34.2,0,,,83056.5,12.04,-0.82,-0.22,-0.19,12.4,11.5,-1.4,34.4,,,,,,,,,,
13.11.03.878,111.8,28.0,0,,,83056.5,12.04,-0.51,0.17,-0.6,50.9,18.2,17.5,34.17,,,,,,,,,,
13.11.03.887,39.2,9.8,0,,,83056.5,12.04,-0.75,-0.32,-0.49,9.0,26.8,9.0,34.48,,,,,,,,,,
13.11.03.899,-4.0,1.0,0,,,83056.5,12.04,-0.79,-0.17,-0.89,-0.7,2.1,4.6,34.37,,,,,,,,,,
13.11.03.908,-10.9,2.7,0,,,83056.5,12.04,-0.71,-0.37,-0.51,-12.2,13.7,5.8,34.6,,,,,,,,,,
13.11.03.918,40.7,10.2,0,,,83056.5,12.04,-0.57,-0.24,-0.62,-28.6,-8.9,14.2,34.64,,,,,,,,,,
13.11.03.927,35.5,8.9,0,,,83056.5,12.04,-0.58,-0.3,0.03,-2.5,-0.4,-13.0,34.92,,,,,,,,,,
13.11.03.939,61.2,15.3,0,,,83056.5,12.04,-0.74,-0.27,-0.75,0.5,9.3,21.6,34.07,,,,,,,,,,
13.11.03.946,72.1,18.0,0,,,83056.5,12.04,-0.44,0.34,-0.03,16.7,4.1,0.6,34.79,,,,,,,,,,
13.11.03.957,70.6,17.6,0,,,83056.5,12.04,-0.79,0.19,-0.67,12.4,25.4,5.0,33.85,,,,,,,,,,
13.11.03.968,92.2,23.0,0,,,83056.5,12.04,-0.59,-0.11,-0.82,36.3,-23.7,0.8,34.36,,,,,,,,,,
13.11.03.976,32.4,8.1,0,,,83056.5,12.04,-0.91,-0.66,-0.31,-11.0,-14.9,-0.5,34.49,,,,,,,,,,
13.11.03.986,41.5,10.4,0,,,83056.5,12.04,-0.98,-0.72,-0.41,19.3,-16.8,17.3,34.63,,,,,,,,,,
13.11.03.996,68.9,17.2,0,,,83056.5,12.04,-0.93,-0.59,-0.32,39.7,-17.0,-6.8,33.99,,,,,,,,,,
13.11.04.005,39.1,9.8,0,,,83056.5,12.04,-0.8,0.14,-0.25,20.3,29.0,-8.4,34.52,,,,,,,,,,
13.11.04.016,60.4,15.1,0,,,83056.5,12.04,-0.83,-0.52,0.13,21.7,10.3,-3.0,34.32,,,,,,,,,,
13.11.04.026,46.9,11.7,0,,,83056.5,12.04,-0.91,-0.06,-0.4,13.7,6.2,-5.5,35.3,,,,,,,,,,
13.11.04.034,49.8,12.4,0,,,83056.5,12.04,-0.69,-0.02,-0.16,7.9,-2.2,10.7,33.92,,,,,,,,,,
13.11.04.042,23.4,5.8,0,,,83056.5,12.04,-0.94,-0.12,-0.27,-17.8,17.0,9.6,34.26,,,,,,,,,,
13.11.04.053,-17.6,4.4,0,,,83056.5,12.04,-0.73,-0.01,0.27,16.5,15.5,-0.5,34.19,,,,,,,,,,
13.11.04.062,11.8,3.0,0,,,83056.5,12.04,-1.04,-0.34,0.11,-7.3,15.8,1.9,34.45,,,,,,,,,,
13.11.04.072,5.6,1.4,0,,,83056.5,12.04,-0.71,-0.17,-0.02,0.1,4.3,7.1,34.05,,,,,,,,,,
13.11.04.080,-23.4,5.8,0,,,83056.5,12.04,-1.03,-0.22,-0.27,0.9,19.4,1.9,33.77,,,,,,,,,,
13.11.04.089,-36.0,9.0,0,,,83056.5,12.04,-1.09,-0.25,-0.04,-7.2,4.9,18.8,34.57,,,,,,,,,,
13.11.04.098,-12.2,3.0,0,,,83056.5,12.04,-0.85,-0.45,0.23,-27.3,-1.8,-9.5,34.31,,,,,,,,,,
13.11.04.110,-39.5,9.9,0,,,83056.5,12.04,-0.66,0.38,-0.49,1.0,18.2,-2.7,34.31,,,,,,,,,,
13.11.04.120,-20.4,5.1,0,,,83056.5,12.04,-1.0,-0.35,0.25,8.1,3.8,23.5,34.2,,,,,,,,,,
13.11.04.128,-54.0,13.5,0,,,83056.5,12.04,-1.1,0.27,-0.33,-3.7,-7.1,-15.1,34.5,,,,,,,,,,
13.11.04.136,-19.8,5.0,0,,,83056.5,12.04,-0.85,0.1,-0.48,27.3,-9.8,-9.3,34.47,,,,,,,,,,
13.11.04.146,-47.5,11.9,0,,,83056.5,12.04,-0.72,0.33,-0.11,40.2,-25.8,3.2,34.29,,,,,,,,,,
13.11.04.158,-54.4,13.6,0,,,83056.5,12.04,-0.68,-0.55,0.22,14.5,-6.0,-5.8,34.21,,,,,,,,,,
13.11.04.168,-67.3,16.8,0,,,83056.5,12.04,-1.05,0.11,-0.25,-4.2,4.1,-6.7,34.73,,,,,,,,,,
13.11.04.179,-57.0,14.2,0,,,83056.5,12.04,-0.37,0.08,-0.06,-23.8,-4.5,-11.5,34.43,,,,,,,,,,
13.11.04.187,-52.3,13.1,0,,,83056.5,12.04,-0.6,-0.18,-0.36,-43.9,-5.2,4.5,34.29,,,,,,,,,,
13.11.04.198,-89.5,22.4,0,,,83056.5,12.04,-0.36,0.28,-0.02,-17.5,9.8,-19.1,34.62,,,,,,,,,,
13.11.04.208,-67.1,16.8,0,,,82987.6,12.05,-0.77,-0.3,0.14,-9.7,5.5,-3.5,34.89,,,,,,,,,,
13.11.04.217,-108.4,27.1,0,,,82987.6,12.05,-0.82,0.04,-0.29,33.8,17.7,24.6,33.45,,,,,,,,,,
13.11.04.225,-92.1,23.0,0,,,82987.6,12.05,-0.81,-0.09,-0.34,28.6,-8.4,3.8,34.07,,,,,,,,,,
13.11.04.235,-99.9,25.0,0,,,82987.6,12.05,-0.83,-0.2,-0.07,11.1,-0.7,-6.2,34.47,,,,,,,,,,
13.11.04.243,-131.1,32.8,0,,,82987.6,12.05,-0.65,0.01,-0.66,34.1,-6.1,9.5,34.5,,,,,,,,,,
13.11.04.252,-128.6,32.2,0,,,82987.6,12.05,-0.79,-0.03,-0.58,36.6,-19.6,1.7,33.79,,,,,,,,,,
13.11.04.260,-106.7,26.7,0,,,82987.6,12.05,-0.87,0.31,-0.64,-39.1,24.8,0.6,34.48,,,,,,,,,,
13.11.04.270,-120.5,30.1,0,,,82987.6,12.05,-1.12,-0.17,-0.01,21.0,13.2,13.1,34.02,,,,,,,,,,
13.11.04.278,-119.9,30.0,0,,,82987.6,12.05,-1.09,0.35,-0.13,-26.8,18.7,6.7,34.03,,,,,,,,,,
13.11.04.286,-107.8,27.0,1,6.0,83.4,82987.6,12.05,-1.03,-0.1,0.07,-14.7,18.9,19.4,34.32,,,,,,,,,,
13.11.04.296,-144.8,36.2,0,,,82987.6,12.05,-1.13,-0.03,-0.36,29.6,5.7,3.3,34.36,,,,,,,,,,
13.11.04.303,-129.1,32.3,0,,,82987.6,12.05,-0.77,-0.08,-0.47,17.8,10.6,-8.8,34.4,,,,,,,,,,
13.11.04.311,-121.1,30.3,0,,,82987.6,12.05,-0.63,0.29,-0.02,-32.6,-26.6,29.8,34.49,,,,,,,,,,
13.11.04.319,-133.4,33.4,0,,,82987.6,12.05,-0.85,0.2,-0.62,36.8,18.2,-3.1,34.18,,,,,,,,,,
13.11.04.331,-145.8,36.4,0,,,82987.6,12.05,-0.49,-0.17,-0.44,-11.6,20.5,-0.3,34.12,,,,,,,,,,
13.11.04.341,-165.7,41.4,0,,,82987.6,12.05,-0.88,0.18,-0.77,-25.5,16.1,7.3,34.47,,,,,,,,,,
13.11.04.350,-134.0,33.5,0,,,82987.6,12.05,-0.87,0.02,-0.58,-45.3,5.6,-34.2,34.49,,,,,,,,,,
13.11.04.360,-166.8,41.7,0,,,82987.6,12.05,-0.71,-0.17,-0.14,15.0,-32.1,5.6,34.19,,,,,,,,,,
13.11.04.370,-162.1,40.5,0,,,82987.6,12.05,-0.3,0.05,-0.41,4.7,-6.5,6.5,34.33,,,,,,,,,,
13.11.04.380,62.7,15.7,0,,,82987.6,12.05,-0.55,-0.27,-0.54,3.4,-6.5,8.1,34.51,,,,,,,,,,
13.11.04.391,107.1,26.8,0,,,82987.6,12.05,-0.91,0.4,-0.59,2.7,-18.8,-24.5,34.15,,,,,,,,,,
13.11.04.399,120.6,30.2,0,,,82987.6,12.05,-0.53,0.6,-0.12,-3.6,-12.7,-8.8,34.58,,,,,,,,,,
13.11.04.408,179.8,45.0,0,,,82987.6,12.05,-0.64,0.26,-0.33,13.2,19.9,-21.0,34.04,,,,,,,,,,
13.11.04.420,241.3,60.3,0,,,82987.6,12.05,-0.74,-0.04,-0.91,25.9,22.3,9.6,34.44,,,,,,,,,,
13.11.04.429,283.4,70.8,0,,,82987.6,12.05,-0.73,0.16,-0.38,-38.7,34.7,-7.0,34.33,,,,,,,,,,
13.11.04.439,345.5,86.4,0,,,82987.6,12.05,-0.76,-0.49,-0.5,-33.8,-4.7,-1.2,35.19,,,,,,,,,,
13.11.04.450,368.7,92.2,0,,,82987.6,12.05,-0.71,0.17,-0.46,8.1,16.8,-17.0,34.09,,,,,,,,,,
13.11.04.461,421.1,105.3,0,,,82987.6,12.05,-0.73,-0.01,-0.18,-20.0,16.5,-6.8,34.27,,,,,,,,,,
13.11.04.471,427.8,107.0,0,,,82987.6,12.05,-1.03,-0.14,-0.01,44.8,29.4,-5.5,34.59,,,,,,,,,,
13.11.04.478,430.5,107.6,0,,,82987.6,12.05,-0.78,0.29,-0.67,-6.2,0.4,7.3,34.36,,,,,,,,,,
13.11.04.488,438.3,109.6,0,,,82987.6,12.05,-0.69,0.36,-0.76,-18.0,3.0,15.2,34.23,,,,,,,,,,
13.11.04.497,440.6,110.2,0,,,82987.6,12.05,-0.69,0.43,-0.55,36.3,-5.0,12.8,34.27,,,,,,,,,,
13.11.04.506,437.5,109.4,0,,,82987.6,12.05,-0.77,0.09,0.16,11.6,22.6,-12.3,34.39,,,,,,,,,,
13.11.04.513,397.2,99.3,0,,,82987.6,12.05,-0.63,-0.01,-0.17,7.9,-3.7,11.9,34.59,,,,,,,,,,
13.11.04.523,394.8,98.7,0,,,82987.6,12.05,-0.61,0.1,0.08,12.8,-8.1,12.6,34.58,,,,,,,,,,
13.11.04.533,405.8,101.4,0,,,82987.6,12.05,-0.79,-0.08,0.1,13.2,-3.0,1.7,34.35,,,,,,,,,,
13.11.04.543,369.2,92.3,0,,,82918.7,12.06,-0.6,0.17,-0.32,9.2,18.4,10.4,34.67,,,,,,,,,,
13.11.04.553,285.2,71.3,0,,,82918.7,12.06,-0.5,0.34,-0.03,4.6,33.1,-1.3,34.63,,,,,,,,,,
13.11.04.564,296.3,74.1,0,,,82918.7,12.06,-0.76,0.43,-0.06,26.2,9.6,16.1,34.2,,,,,,,,,,
13.11.04.573,249.9,62.5,0,,,82918.7,12.06,-0.77,0.37,-0.24,44.5,1.8,-15.8,34.49,,,,,,,,,,
13.11.04.583,188.9,47.2,0,,,82918.7,12.06,-0.8,-0.07,0.0,-6.1,23.2,10.5,34.17,,,,,,,,,,
13.11.04.591,149.0,37.2,0,,,82918.7,12.06,-0.77,0.1,-0.04,-28.3,8.2,-15.3,33.81,,,,,,,,,,
13.11.04.602,129.1,32.3,0,,,82918.7,12.06,-0.81,-0.15,-0.47,-12.5,-19.0,20.2,34.47,,,,,,,,,,
13.11.04.612,66.5,16.6,0,,,82918.7,12.06,-0.64,0.06,-0.09,-15.6,8.3,-12.5,34.57,,,,,,,,,,
13.11.04.622,5.2,1.3,0,,,82918.7,12.06,-0.81,-0.13,-0.25,-7.9,23.1,11.7,34.91,,,,,,,,,,
13.11.04.632,-9.2,2.3,0,,,82918.7,12.06,-0.66,0.09,-0.54,-27.2,17.5,14.8,34.45,,,,,,,,,,
13.11.04.641,37.0,9.2,0,,,82918.7,12.06,-0.72,0.06,-0.63,-32.9,4.4,23.9,34.34,,,,,,,,,,
13.11.04.653,74.9,18.7,0,,,82918.7,12.06,-0.63,-0.35,0.39,-39.5,13.2,-37.7,34.58,,,,,,,,,,
13.11.04.662,40.9,10.2,0,,,82918.7,12.06,-0.72,-0.4,-0.36,13.2,-15.9,-4.2,34.43,,,,,,,,,,
13.11.04.669,65.5,16.4,0,,,82918.7,12.06,-1.06,-0.36,-0.49,-37.0,-3.8,-8.3,34.24,,,,,,,,,,
13.11.04.678,45.8,11.4,0,,,82918.7,12.06,-0.5,0.21,-0.29,0.5,-6.5,-9.5,34.74,,,,,,,,,,
13.11.04.690,71.8,18.0,0,,,82918.7,12.06,-0.46,0.13,0.0,3.6,-12.0,-32.8,34.06,,,,,,,,,,
13.11.04.698,103.3,25.8,0,,,82918.7,12.06,-0.98,-0.09,-0.83,-13.8,-0.2,-0.9,34.4,,,,,,,,,,
13.11.04.708,81.1,20.3,0,,,82918.7,12.06,-0.75,0.01,0.01,17.1,-21.4,-9.7,34.71,,,,,,,,,,
13.11.04.718,73.8,18.4,0,,,82918.7,12.06,-0.62,-0.11,-0.65,-47.6,3.1,2.4,34.31,,,,,,,,,,
13.11.04.727,64.0,16.0,0,,,82918.7,12.06,-0.75,-0.27,-0.67,-30.1,-18.2,6.4,34.21,,,,,,,,,,
13.11.04.738,20.4,5.1,0,,,82918.7,12.06,-0.63,-0.23,-0.21,26.2,1.0,10.5,34.69,,,,,,,,,,
13.11.04.746,13.6,3.4,0,,,82918.7,12.06,-0.8,-0.52,-0.52,-14.5,12.3,-31.6,34.49,,,,,,,,,,
13.11.04.756,19.1,4.8,0,,,82918.7,12.06,-0.52,-0.72,-0.91,-7.6,23.2,-1.5,34.11,,,,,,,,,,
13.11.04.767,23.0,5.8,0,,,82918.7,12.06,-0.92,0.72,-0.51,-3.2,18.1,16.2,34.51,,,,,,,,,,
13.11.04.776,10.9,2.7,0,,,82918.7,12.06,-0.63,-0.15,-0.21,13.7,-17.8,1.7,33.96,,,,,,,,,,
13.11.04.787,-40.8,10.2,0,,,82918.7,12.06,-0.71,-0.05,-0.89,-11.6,12.5,-1.7,34.89,,,,,,,,,,
13.11.04.796,-38.9,9.7,0,,,82918.7,12.06,-0.69,-0.15,-0.8,0.9,24.6,-1.9,34.04,,,,,,,,,,
13.11.04.806,-21.2,5.3,0,,,82918.7,12.06,-0.33,0.02,-0.43,-2.5,37.4,4.6,34.71,,,,,,,,,,
13.11.04.816,-40.7,10.2,0,,,82918.7,12.06,-0.57,-0.04,-0.42,31.7,34.8,0.0,34.03,,,,,,,,,,
13.11.04.826,-22.8,5.7,0,,,82918.7,12.06,-0.73,-0.29,-0.27,-8.8,7.6,-24.4,34.12,,,,,,,,,,
13.11.04.835,-35.9,9.0,0,,,82918.7,12.06,-0.24,-0.54,-0.21,3.3,-7.4,-20.2,33.55,,,,,,,,,,
13.11.04.845,-47.6,11.9,0,,,82918.7,12.06,-0.41,-0.4,-0.88,12.3,0.8,28.4,34.61,,,,,,,,,,
13.11.04.853,-50.4,12.6,0,,,82918.7,12.06,-0.72,-0.02,-0.72,-15.5,18.6,-27.3,34.33,,,,,,,,,,
13.11.04.863,-69.7,17.4,0,,,82918.7,12.06,-0.9,-0.24,-0.06,11.1,-13.1,-13.7,34.0,,,,,,,,,,
13.11.04.872,-36.8,9.2,0,,,82918.7,12.06,-0.63,-0.11,-0.51,20.5,6.0,-8.3,34.15,,,,,,,,,,
13.11.04.884,-53.3,13.3,0,,,82850.0,12.07,-0.99,-0.38,-0.18,13.8,25.0,13.5,34.17,,,,,,,,,,
13.11.04.894,-53.3,13.3,0,,,82850.0,12.07,-0.69,-0.53,-0.03,4.0,16.9,-4.6,34.83,,,,,,,,,,
13.11.04.904,-86.8,21.7,0,,,82850.0,12.07,-0.63,-0.13,-0.46,0.2,18.5,22.7,34.66,,,,,,,,,,
13.11.04.913,-76.3,19.1,0,,,82850.0,12.07,-0.85,0.14,0.18,-14.3,8.3,-5.3,34.11,,,,,,,,,,
13.11.04.923,-54.3,13.6,0,,,82850.0,12.07,-0.99,-0.1,-0.34,25.1,-6.9,-10.4,33.95,,,,,,,,,,
13.11.04.932,-80.7,20.2,0,,,82850.0,12.07,-0.7,-0.67,0.52,-16.1,16.1,-2.0,34.17,,,,,,,,,,
13.11.04.941,-85.8,21.4,0,,,82850.0,12.07,-0.96,0.34,-0.29,-5.5,-19.2,19.1,34.12,,,,,,,,,,
13.11.04.953,-78.9,19.7,0,,,82850.0,12.07,-0.49,-0.28,-0.33,28.8,34.2,-18.6,34.04,,,,,,,,,,
13.11.04.964,-49.2,12.3,0,,,82850.0,12.07,-0.84,0.33,-0.04,-8.3,-1.0,18.9,34.3,,,,,,,,,,
13.11.04.973,-106.1,26.5,0,,,82850.0,12.07,-0.71,-0.33,0.1,19.3,54.5,-31.8,33.84,,,,,,,,,,
13.11.04.985,-98.8,24.7,1,7.0,85.8,82850.0,12.07,-1.31,-0.07,-0.06,-36.9,9.2,20.4,34.28,,,,,,,,,,
13.11.04.994,-100.3,25.1,0,,,82850.0,12.07,-0.71,0.51,-0.03,21.7,-2.5,3.5,34.88,,,,,,,,,,
13.11.05.003,-151.4,37.8,0,,,82850.0,12.07,-0.93,-0.72,-0.04,15.5,-10.4,-5.5,34.12,83.6,,,,,,,,,
13.11.05.012,-136.0,34.0,0,,,82850.0,12.07,-0.71,0.26,-0.45,-33.2,11.6,-12.8,34.42,,,,,,,,,,
13.11.05.020,-107.5,26.9,0,,,82850.0,12.07,-0.68,-0.35,0.06,-23.3,-9.3,-0.0,34.44,,,,,,,,,,
13.11.05.030,-131.9,33.0,0,,,82850.0,12.07,-0.82,-0.68,-0.01,-3.9,18.6,2.3,34.54,,,,,,,,,,
13.11.05.039,-152.0,38.0,0,,,82850.0,12.07,-0.68,0.06,0.02,-5.8,6.3,-9.3,34.51,,,,,,,,,,
13.11.05.047,-145.2,36.3,0,,,82850.0,12.07,-1.05,-0.46,-0.6,10.5,15.2,-6.2,34.12,,,,,,,,,,
13.11.05.057,-170.3,42.6,0,,,82850.0,12.07,-0.81,-0.18,-0.02,29.9,-15.8,-21.3,33.77,,,,,,,,,,
13.11.05.067,-165.0,41.2,0,,,82850.0,12.07,-1.14,-0.14,-0.1,-12.6,4.6,-1.8,34.29,,,,,,,,,,
13.11.05.075,-135.6,33.9,0,,,82850.0,12.07,-0.85,-0.17,-0.04,13.7,5.1,13.6,34.14,,,,,,,,,,
13.11.05.085,-175.1,43.8,0,,,82850.0,12.07,-1.36,0.34,-0.38,-11.6,-11.3,-5.9,34.74,,,,,,,,,,
13.11.05.096,21.8,5.4,0,,,82850.0,12.07,-0.94,0.49,-0.45,-5.5,-5.2,-9.6,34.32,,,,,,,,,,
13.11.05.105,56.3,14.1,0,,,82850.0,12.07,-1.15,0.45,-0.35,5.3,4.6,12.6,34.34,,,,,,,,,,
13.11.05.115,71.7,17.9,0,,,82850.0,12.07,-1.03,-0.31,-0.12,-21.8,8.4,20.3,34.21,,,,,,,,,,
13.11.05.126,113.5,28.4,0,,,82850.0,12.07,-0.97,0.19,-0.06,53.8,-20.9,-11.0,34.59,,,,,,,,,,
13.11.05.136,182.0,45.5,0,,,82850.0,12.07,-0.49,-0.01,-0.64,-1.7,23.3,4.3,33.81,,,,,,,,,,
13.11.05.145,243.1,60.8,0,,,82850.0,12.07,-1.23,-0.53,-0.65,-11.5,-10.6,-0.8,34.06,,,,,,,,,,
13.11.05.156,251.6,62.9,0,,,82850.0,12.07,-0.83,0.18,-0.35,-16.1,10.5,19.8,34.42,,,,,,,,,,
13.11.05.166,318.9,79.7,0,,,82850.0,12.07,-0.66,0.33,-0.68,-43.0,3.8,-24.4,33.54,,,,,,,,,,
13.11.05.175,356.0,89.0,0,,,82850.0,12.07,-0.89,-0.32,-0.49,-31.9,4.8,10.1,34.53,,,,,,,,,,
13.11.05.184,337.8,84.4,0,,,82850.0,12.07,-0.67,-0.05,-0.39,-24.0,16.8,3.3,34.63,,,,,,,,,,
13.11.05.192,373.3,93.3,0,,,82850.0,12.07,-0.42,0.73,-0.03,-12.2,6.1,7.4,34.28,,,,,,,,,,
13.11.05.203,393.6,98.4,0,,,82850.0,12.07,-1.18,0.27,0.05,-12.7,14.3,24.3,34.21,,,,,,,,,,
13.11.05.212,428.8,107.2,0,,,82850.0,12.07,-0.45,-0.11,-0.66,-22.0,16.1,-5.1,34.28,,,,,,,,,,
13.11.05.220,440.8,110.2,0,,,82850.0,12.07,-0.31,-0.58,-0.6,-11.4,1.6,7.8,34.61,,,,,,,,,,
13.11.05.230,400.4,100.1,0,,,82850.0,12.07,-0.86,0.37,-0.21,9.7,8.8,-2.8,34.91,,,,,,,,,,
13.11.05.240,382.6,95.6,0,,,82850.0,12.07,-1.01,-0.14,-0.07,8.0,-11.8,12.8,34.14,,,,,,,,,,
13.11.05.251,365.2,91.3,0,,,82850.0,12.07,-0.84,0.32,-0.44,23.3,34.6,-14.8,34.09,,,,,,,,,,
13.11.05.260,391.6,97.9,0,,,82850.0,12.07,-0.7,0.43,-0.1,2.7,22.9,13.9,34.43,,,,,,,,,,
13.11.05.269,323.5,80.9,0,,,82850.0,12.07,-1.04,0.42,-0.26,11.1,9.7,18.7,33.77,,,,,,,,,,
13.11.05.276,270.5,67.6,0,,,82850.0,12.07,-0.84,-0.12,-0.62,-6.5,-1.2,3.6,34.02,,,,,,,,,,
13.11.05.287,287.0,71.8,0,,,82850.0,12.07,-0.85,-0.09,-0.5,-8.6,-6.1,-1.6,34.5,,,,,,,,,,
13.11.05.297,239.4,59.8,0,,,82850.0,12.07,-0.94,-0.05,-0.37,32.0,0.0,-1.6,34.36,,,,,,,,,,
13.11.05.306,204.6,51.2,0,,,82850.0,12.07,-0.52,-0.08,-0.17,-1.9,-11.2,-9.5,34.12,,,,,,,,,,
13.11.05.317,132.5,33.1,0,,,82850.0,12.07,-0.73,0.27,-0.04,13.5,24.3,-1.4,34.57,,,,,,,,,,
13.11.05.327,105.6,26.4,0,,,82850.0,12.07,-0.42,0.4,-0.62,-32.3,-9.3,15.2,34.04,,,,,,,,,,
13.11.05.336,74.8,18.7,0,,,82850.0,12.07,-0.8,0.08,-0.16,31.0,5.2,19.9,34.69,,,,,,,,,,
13.11.05.348,25.7,6.4,0,,,82850.0,12.07,-0.71,0.44,-0.31,-9.5,9.4,-15.0,34.19,,,,,,,,,,
13.11.05.359,19.7,4.9,0,,,82850.0,12.07,-0.62,-0.39,-0.72,49.6,-4.2,10.6,34.33,,,,,,,,,,
13.11.05.367,18.3,4.6,0,,,82850.0,12.07,-0.9,-0.24,-0.24,-7.8,-16.7,15.4,34.55,,,,,,,,,,
13.11.05.379,62.0,15.5,0,,,82850.0,12.07,-0.49,0.21,-0.57,-10.6,7.1,-10.5,34.05,,,,,,,,,,
13.11.05.391,70.3,17.6,0,,,82850.0,12.07,-0.6,-0.41,0.04,33.4,-1.6,-9.1,34.46,,,,,,,,,,
13.11.05.403,63.7,15.9,0,,,82850.0,12.07,-0.81,0.06,-0.13,-2.9,4.3,0.2,34.25,,,,,,,,,,
13.11.05.414,54.3,13.6,0,,,82850.0,12.07,-0.81,-0.33,-0.27,22.6,-4.9,7.8,34.58,,,,,,,,,,
13.11.05.424,70.8,17.7,0,,,82850.0,12.07,-0.91,0.09,-0.14,-10.3,18.7,-10.4,34.04,,,,,,,,,,
13.11.05.436,49.8,12.4,0,,,82850.0,12.07,-0.69,0.11,0.13,-35.6,20.9,-7.1,34.53,,,,,,,,,,
13.11.05.446,68.8,17.2,0,,,82850.0,12.07,-0.57,0.34,-0.32,-43.4,11.7,6.8,34.39,,,,,,,,,,
13.11.05.456,23.2,5.8,0,,,82850.0,12.07,-0.61,0.08,0.28,2.7,-16.9,15.0,34.26,,,,,,,,,,
13.11.05.464,40.9,10.2,0,,,82850.0,12.07,-0.42,0.08,-0.95,-16.7,0.8,0.8,34.53,,,,,,,,,,
13.11.05.475,4.6,1.2,0,,,82850.0,12.07,-0.84,0.55,-0.32,23.3,-9.2,-5.1,34.47,,,,,,,,,,
13.11.05.485,28.6,7.2,0,,,82850.0,12.07,-0.75,0.11,-0.58,-14.2,-7.4,-20.8,34.12,,,,,,,,,,
13.11.05.495,4.1,1.0,0,,,82850.0,12.07,-0.42,0.01,-0.01,3.2,15.3,9.7,34.25,,,,,,,,,,
13.11.05.504,23.6,5.9,0,,,82850.0,12.07,-0.66,-0.06,-0.25,9.8,26.5,-7.0,34.45,,,,,,,,,,
13.11.05.512,11.0,2.8,0,,,82850.0,12.07,-0.76,0.36,-0.48,11.5,-7.5,-15.7,34.05,,,,,,,,,,
13.11.05.522,-10.2,2.6,0,,,82850.0,12.07,-0.88,-0.26,0.14,-0.8,38.4,-12.2,33.83,,,,,,,,,,
13.11.05.532,-29.8,7.4,0,,,82850.0,12.07,-0.64,-0.67,-0.31,-43.7,28.7,10.5,34.11,,,,,,,,,,
13.11.05.542,-13.4,3.4,0,,,82850.0,12.07,-0.43,-0.36,-0.38,9.8,-32.2,14.6,34.48,,,,,,,,,,
13.11.05.553,-23.9,6.0,0,,,82850.0,12.07,-0.78,-0.05,0.15,-13.9,-8.7,-0.9,34.46,,,,,,,,,,
13.11.05.564,-14.9,3.7,0,,,82850.0,12.07,-0.6,-0.34,-0.33,-19.2,-15.7,0.7,33.83,,,,,,,,,,
13.11.05.572,-17.4,4.4,0,,,82850.0,12.07,-1.17,-0.18,-0.66,16.9,-27.4,-2.9,34.57,,,,,,,,,,
13.11.05.582,-27.9,7.0,0,,,82850.0,12.07,-0.89,-0.08,-0.65,44.9,5.5,-7.3,34.7,,,,,,,,,,
13.11.05.591,-41.0,10.2,0,,,82850.0,12.07,-0.39,0.28,-0.59,-0.3,19.0,15.1,33.9,,,,,,,,,,
13.11.05.600,-64.3,16.1,0,,,82850.0,12.07,-0.49,-0.21,-0.76,-35.8,38.3,-4.4,34.02,,,,,,,,,,
13.11.05.609,-72.3,18.1,0,,,82850.0,12.07,-0.93,0.11,-0.78,-17.9,5.4,2.8,34.3,,,,,,,,,,
13.11.05.619,-86.9,21.7,0,,,82850.0,12.07,-0.41,-0.01,-0.29,37.1,-16.2,9.1,34.86,,,,,,,,,,
13.11.05.630,-67.2,16.8,0,,,82850.0,12.07,-0.87,-0.36,-0.73,10.3,2.6,-35.1,34.47,,,,,,,,,,
13.11.05.641,-61.0,15.2,0,,,82850.0,12.07,-0.91,0.18,-0.31,18.2,24.4,7.8,34.0,,,,,,,,,,
13.11.05.650,-61.6,15.4,0,,,82781.5,12.08,-0.65,-0.42,-0.45,-17.1,25.1,-13.9,34.25,,,,,,,,,,
13.11.05.660,-104.9,26.2,0,,,82781.5,12.08,-0.8,-0.19,-0.45,-15.5,18.9,-20.7,33.97,,,,,,,,,,
13.11.05.671,-77.0,19.2,1,8.0,87.5,82781.5,12.08,-0.73,0.15,-0.22,10.4,11.8,14.0,34.46,,,,,,,,,,
13.11.05.680,-106.7,26.7,0,,,82781.5,12.08,-0.83,0.03,-0.66,-50.9,3.3,-2.4,34.72,,,,,,,,,,
13.11.05.687,-98.3,24.6,0,,,82781.5,12.08,-0.54,-0.13,-0.31,-25.3,4.0,-10.3,34.16,,,,,,,,,,
13.11.05.698,-103.0,25.8,0,,,82781.5,12.08,-0.61,-0.4,-0.64,8.2,3.9,-26.1,34.49,,,,,,,,,,
13.11.05.708,-116.9,29.2,0,,,82781.5,12.08,-0.81,-0.51,-0.17,-26.9,-2.5,25.0,34.52,,,,,,,,,,
13.11.05.718,-86.3,21.6,0,,,82781.5,12.08,-0.75,-0.11,-0.5,-1.5,6.9,2.8,34.4,,,,,,,,,,
13.11.05.726,-110.2,27.6,0,,,82781.5,12.08,-0.63,0.17,-0.03,-3.0,17.0,-2.8,34.44,,,,,,,,,,
13.11.05.736,-154.5,38.6,0,,,82781.5,12.08,-0.82,-0.53,-0.56,-5.9,-7.6,1.3,34.18,,,,,,,,,,
13.11.05.747,-94.0,23.5,0,,,82781.5,12.08,-0.69,0.27,0.32,37.8,16.1,8.6,34.78,,,,,,,,,,
13.11.05.756,-112.0,28.0,0,,,82781.5,12.08,-0.7,-0.08,-0.4,0.2,16.4,1.3,34.52,,,,,,,,,,
13.11.05.764,-142.8,35.7,0,,,82781.5,12.08,-0.91,-0.24,0.01,-8.5,4.4,-20.6,34.43,,,,,,,,,,
13.11.05.774,-148.6,37.2,0,,,82781.5,12.08,-1.09,-0.14,0.19,14.0,9.0,7.2,34.16,,,,,,,,,,
13.11.05.783,-132.7,33.2,0,,,82781.5,12.08,-0.77,0.04,-0.15,-10.7,28.7,-0.5,34.49,,,,,,,,,,
13.11.05.793,-144.1,36.0,0,,,82781.5,12.08,-1.0,0.17,0.03,-16.9,10.3,16.9,34.33,,,,,,,,,,
13.11.05.803,-171.3,42.8,0,,,82781.5,12.08,-0.63,-0.14,-0.49,7.9,-2.8,14.0,34.43,,,,,,,,,,
13.11.05.813,-154.3,38.6,0,,,82781.5,12.08,-0.76,0.14,0.02,21.5,28.5,-9.1,34.14,,,,,,,,,,
13.11.05.823,2.1,0.5,0,,,82781.5,12.08,-1.11,-0.13,-0.52,-7.5,-8.7,-14.5,34.69,,,,,,,,,,
13.11.05.831,62.7,15.7,0,,,82781.5,12.08,-0.76,-0.5,-0.21,10.5,8.5,-7.7,34.01,,,,,,,,,,
13.11.05.843,115.4,28.8,0,,,82781.5,12.08,-0.83,0.03,0.06,11.4,7.7,19.8,34.58,,,,,,,,,,
13.11.05.853,139.7,34.9,0,,,82781.5,12.08,-0.67,-0.11,-0.22,-46.9,0.8,-18.4,34.45,,,,,,,,,,
13.11.05.862,183.1,45.8,0,,,82781.5,12.08,-1.01,-0.24,0.42,-4.0,-9.3,7.8,34.46,,,,,,,,,,
13.11.05.873,254.2,63.6,0,,,82781.5,12.08,-0.81,-0.4,-0.19,-6.8,6.1,19.8,34.68,,,,,,,,,,
13.11.05.880,266.5,66.6,0,,,82781.5,12.08,-0.63,-0.16,-0.38,2.7,-5.4,6.1,34.2,,,,,,,,,,
13.11.05.890,296.1,74.0,0,,,82781.5,12.08,-0.74,0.11,-0.06,7.9,12.1,-18.5,34.19,,,,,,,,,,
13.11.05.900,263.4,65.8,0,,,82781.5,12.08,-1.19,-0.33,-0.0,19.9,12.4,2.1,34.65,,,,,,,,,,
13.11.05.909,399.2,99.8,0,,,82781.5,12.08,-0.96,-0.03,-0.13,33.8,1.8,-9.5,34.6,,,,,,,,,,
13.11.05.918,403.0,100.8,0,,,82781.5,12.08,-0.52,-0.37,-0.19,42.6,-10.8,13.6,34.23,,,,,,,,,,
13.11.05.928,401.2,100.3,0,,,82781.5,12.08,-0.71,-0.43,-0.48,-34.9,24.9,-13.9,34.11,,,,,,,,,,
13.11.05.939,412.6,103.2,0,,,82781.5,12.08,-1.26,0.19,-0.08,-5.0,-6.7,37.6,34.53,,,,,,,,,,
13.11.05.952,416.8,104.2,0,,,82781.5,12.08,-0.84,-0.05,-0.18,-8.0,35.2,9.9,34.16,,,,,,,,,,
13.11.05.961,358.0,89.5,0,,,82781.5,12.08,-1.01,-0.55,0.48,-15.3,9.0,-12.3,33.56,,,,,,,,,,
13.11.05.972,384.9,96.2,0,,,82781.5,12.08,-1.15,-0.05,-0.63,10.7,2.5,7.6,33.66,,,,,,,,,,
13.11.05.982,361.2,90.3,0,,,82781.5,12.08,-0.68,-0.42,-0.34,-35.7,16.3,2.1,34.57,,,,,,,,,,
13.11.05.992,316.6,79.2,0,,,82781.5,12.08,-0.89,-0.11,0.14,-30.6,11.3,-28.4,34.33,,,,,,,,,,
13.11.06.000,304.1,76.0,0,,,82781.5,12.08,-0.66,-0.35,-0.02,11.9,4.2,8.1,34.51,,,,,,,,,,
13.11.06.011,279.1,69.8,0,,,82781.5,12.08,-0.89,0.08,-0.4,22.7,7.9,17.8,34.15,,,,,,,,,,
13.11.06.023,247.8,62.0,0,,,82781.5,12.08,-1.11,0.19,-0.55,2.9,-18.2,16.8,34.13,,,,,,,,,,
13.11.06.032,190.5,47.6,0,,,82781.5,12.08,-1.03,0.03,-0.76,-23.4,-1.9,7.2,34.31,,,,,,,,,,
13.11.06.040,159.0,39.8,0,,,82781.5,12.08,-0.97,-0.46,-0.58,-4.0,11.0,1.8,33.94,,,,,,,,,,
13.11.06.050,122.1,30.5,0,,,82781.5,12.08,-1.02,0.17,-0.33,20.5,-27.7,-3.5,34.55,,,,,,,,,,
13.11.06.060,57.3,14.3,0,,,82781.5,12.08,-1.1,0.63,-0.39,-13.7,12.5,-13.1,34.1,,,,,,,,,,
13.11.06.071,-4.3,1.1,0,,,82781.5,12.08,-0.68,0.13,-0.22,44.1,0.0,5.3,34.58,,,,,,,,,,
13.11.06.080,-13.9,3.5,0,,,82781.5,12.08,-0.6,-0.34,-0.81,34.9,21.8,-3.4,33.96,,,,,,,,,,
13.11.06.092,22.9,5.7,0,,,82781.5,12.08,-0.74,0.67,-0.62,23.7,8.8,-0.4,34.14,,,,,,,,,,
13.11.06.102,27.0,6.8,0,,,82781.5,12.08,-0.84,0.15,-0.54,6.9,-0.5,-4.3,33.95,,,,,,,,,,
13.11.06.112,36.3,9.1,0,,,82781.5,12.08,-0.97,-0.19,-0.8,-32.6,14.6,-20.4,34.04,,,,,,,,,,
13.11.06.123,70.3,17.6,0,,,82781.5,12.08,-0.84,0.36,-0.91,-21.7,-41.3,-12.8,34.41,,,,,,,,,,
13.11.06.131,49.7,12.4,0,,,82781.5,12.08,-0.61,0.51,-0.69,-10.0,-0.8,-3.5,34.06,,,,,,,,,,
13.11.06.141,88.7,22.2,0,,,82781.5,12.08,-0.5,0.11,-0.6,2.1,11.0,16.1,34.13,,,,,,,,,,
13.11.06.150,78.4,19.6,0,,,82781.5,12.08,-0.97,-0.13,-0.33,-5.6,36.4,-6.0,34.21,,,,,,,,,,
13.11.06.159,87.4,21.8,0,,,82781.5,12.08,-0.73,0.15,-0.44,35.3,8.9,13.6,34.83,,,,,,,,,,
13.11.06.170,42.2,10.6,0,,,82781.5,12.08,-0.57,-0.03,-0.49,-8.1,6.9,-28.7,34.42,,,,,,,,,,
13.11.06.180,44.1,11.0,0,,,82781.5,12.08,-0.61,0.42,-0.55,22.1,6.6,-3.9,34.55,,,,,,,,,,
13.11.06.192,3.2,0.8,0,,,82781.5,12.08,-1.08,0.67,-0.23,-13.5,-11.7,9.3,34.11,,,,,,,,,,
13.11.06.202,30.1,7.5,0,,,82781.5,12.08,-0.7,-0.35,-0.31,16.7,-14.6,6.4,34.69,,,,,,,,,,
13.11.06.210,19.9,5.0,0,,,82781.5,12.08,-0.71,0.15,-0.22,22.6,2.3,-6.3,34.25,,,,,,,,,,
13.11.06.221,7.4,1.8,0,,,82781.5,12.08,-0.8,0.57,-0.14,2.3,-26.8,14.5,34.01,,,,,,,,,,
13.11.06.231,-25.2,6.3,0,,,82781.5,12.08,-0.81,0.64,-0.09,-6.1,2.3,-7.6,34.25,,,,,,,,,,
13.11.06.242,1.7,0.4,0,,,82781.5,12.08,0.05,0.13,0.11,-30.5,-28.1,-5.7,34.24,,,,,,,,,,
13.11.06.253,-30.8,7.7,0,,,82781.5,12.08,-0.58,-0.3,0.22,29.0,-6.0,-20.1,34.33,,,,,,,,,,
13.11.06.263,-25.9,6.5,0,,,82781.5,12.08,-0.97,-0.13,-0.24,2.0,11.8,10.8,34.29,,,,,,,,,,
13.11.06.272,-12.6,3.2,0,,,82781.5,12.08,-0.52,0.02,-0.02,25.2,20.7,6.9,33.76,,,,,,,,,,
13.11.06.282,-21.4,5.4,0,,,82781.5,12.08,-0.78,0.2,0.04,2.8,24.0,-4.4,34.45,,,,,,,,,,
13.11.06.291,-44.6,11.2,0,,,82781.5,12.08,-0.66,0.67,0.22,-23.4,14.4,10.0,34.43,,,,,,,,,,
13.11.06.297,-55.4,13.8,0,,,82781.5,12.08,-0.78,0.22,0.15,-18.8,15.7,-7.6,34.14,,,,,,,,,,
13.11.06.305,-67.8,17.0,0,,,82781.5,12.08,-1.12,0.08,-0.24,52.3,28.1,12.7,34.38,,,,,,,,,,
13.11.06.315,-52.7,13.2,0,,,82781.5,12.08,-0.42,0.13,0.02,-36.0,-8.1,8.4,34.73,,,,,,,,,,
13.11.06.326,-43.4,10.8,0,,,82781.5,12.08,-0.95,0.25,-0.42,10.9,-14.4,-12.5,34.39,,,,,,,,,,
13.11.06.335,-46.5,11.6,0,,,82781.5,12.08,-0.67,0.24,-0.14,-12.2,-21.8,-15.1,34.06,,,,,,,,,,
13.11.06.345,-62.5,15.6,0,,,82781.5,12.08,-0.98,-0.43,0.02,-21.8,3.0,11.4,34.2,,,,,,,,,,
13.11.06.355,-64.7,16.2,0,,,82781.5,12.08,-0.83,0.26,-0.39,47.8,-8.9,-28.6,34.2,,,,,,,,,,
13.11.06.365,-78.2,19.6,0,,,82781.5,12.08,-0.47,0.12,-0.38,-27.5,-16.6,7.4,34.24,,,,,,,,,,
13.11.06.376,-76.5,19.1,0,,,82781.5,12.08,-0.47,0.26,-0.53,24.3,-10.9,-18.9,34.36,,,,,,,,,,
13.11.06.384,-87.8,22.0,0,,,82781.5,12.08,-0.75,-0.1,-0.15,-11.3,12.3,-6.7,34.52,,,,,,,,,,
13.11.06.395,-97.0,24.2,0,,,82781.5,12.08,-0.29,0.13,-0.59,-3.8,-29.1,-21.6,34.23,,,,,,,,,,
13.11.06.402,-75.1,18.8,0,,,82781.5,12.08,-0.58,0.0,-0.44,-23.5,-1.3,-7.3,33.45,,,,,,,,,,
13.11.06.411,-119.9,30.0,0,,,82781.5,12.08,-0.94,0.23,-0.77,2.5,12.4,-25.5,34.07,,,,,,,,,,
13.11.06.422,-78.8,19.7,0,,,82781.5,12.08,-0.59,0.33,-0.73,-11.6,15.1,3.1,34.12,,,,,,,,,,
13.11.06.432,-85.8,21.4,0,,,82781.5,12.08,-0.65,-0.31,-1.11,-20.9,-0.5,-7.5,34.78,,,,,,,,,,
13.11.06.440,-73.0,18.2,1,9.0,78.0,82781.5,12.08,-0.92,0.17,-0.17,14.6,18.9,13.8,34.79,,,,,,,,,,
13.11.06.451,-115.0,28.8,0,,,82781.5,12.08,-0.28,0.28,-0.56,-18.6,7.3,-10.7,34.9,,,,,,,,,,
13.11.06.460,-107.2,26.8,0,,,82781.5,12.08,-0.91,0.04,-0.7,-20.2,0.4,-15.8,33.84,,,,,,,,,,
13.11.06.469,-118.3,29.6,0,,,82781.5,12.08,-0.67,0.1,-0.28,37.3,-4.3,-0.7,34.0,,,,,,,,,,
13.11.06.478,-154.2,38.6,0,,,82781.5,12.08,-0.47,0.13,-0.23,-2.3,35.9,1.7,33.91,,,,,,,,,,
13.11.06.487,-173.2,43.3,0,,,82781.5,12.08,-0.84,-0.21,-0.55,29.4,-6.4,-16.0,34.24,,,,,,,,,,
13.11.06.498,-142.5,35.6,0,,,82781.5,12.08,-0.66,-0.06,-0.95,1.5,-13.1,-22.2,34.47,,,,,,,,,,
13.11.06.508,-140.7,35.2,0,,,82781.5,12.08,-0.45,0.1,-0.66,0.2,3.9,12.0,34.37,,,,,,,,,,
13.11.06.520,-153.3,38.3,0,,,82713.0,12.09,-0.76,-0.11,-0.51,48.6,35.6,0.2,34.25,,,,,,,,,,
13.11.06.531,-137.1,34.3,0,,,82713.0,12.09,-0.67,-0.91,-0.36,-19.1,7.0,15.3,34.21,,,,,,,,,,
13.11.06.540,-148.9,37.2,0,,,82713.0,12.09,-0.64,0.15,-0.47,-1.4,21.7,-10.4,34.35,,,,,,,,,,
13.11.06.548,23.5,5.9,0,,,82713.0,12.09,-0.59,-0.02,-0.19,-24.5,11.1,10.1,34.34,,,,,,,,,,
13.11.06.557,99.0,24.8,0,,,82713.0,12.09,-0.67,-0.35,-0.16,3.6,2.7,5.2,33.75,,,,,,,,,,
13.11.06.565,113.9,28.5,0,,,82713.0,12.09,-0.75,-0.48,-0.69,21.1,24.3,-23.7,33.93,,,,,,,,,,
13.11.06.571,117.5,29.4,0,,,82713.0,12.09,-0.96,-0.68,-0.69,-14.1,16.1,-22.2,34.56,,,,,,,,,,
13.11.06.581,201.5,50.4,0,,,82713.0,12.09,-0.45,-0.58,-0.2,-3.8,-2.9,-2.0,33.75,,,,,,,,,,
13.11.06.591,236.6,59.2,0,,,82713.0,12.09,-0.69,-0.53,-0.29,13.5,10.5,8.6,34.43,,,,,,,,,,
13.11.06.599,284.3,71.1,0,,,82713.0,12.09,-1.01,0.3,-0.56,-26.1,18.6,-15.7,33.99,,,,,,,,,,
13.11.06.609,320.3,80.1,0,,,82713.0,12.09,-0.88,-0.83,-0.64,48.4,6.8,-13.1,34.04,,,,,,,,,,
13.11.06.618,332.6,83.2,0,,,82713.0,12.09,-0.92,-0.01,-0.6,-4.0,11.3,-2.6,33.89,,,,,,,,,,
13.11.06.629,406.3,101.6,0,,,82713.0,12.09,-0.94,0.01,-0.19,21.4,12.0,-7.7,34.2,,,,,,,,,,
13.11.06.637,393.0,98.2,0,,,82713.0,12.09,-0.54,0.08,-0.41,-3.9,12.4,5.3,34.41,,,,,,,,,,
13.11.06.647,375.4,93.8,0,,,82713.0,12.09,-0.62,-0.24,0.31,15.0,-3.4,18.5,34.01,,,,,,,,,,
13.11.06.658,425.6,106.4,0,,,82713.0,12.09,-0.91,0.02,-0.14,-9.3,33.5,3.1,34.67,,,,,,,,,,
13.11.06.668,500.6,125.2,0,,,82713.0,12.09,-0.92,0.16,0.12,10.6,-8.0,-7.2,34.32,,,,,,,,,,
13.11.06.679,416.6,104.2,0,,,82713.0,12.09,-0.7,0.37,-0.36,-28.3,8.3,-0.9,34.41,,,,,,,,,,
13.11.06.689,368.8,92.2,0,,,82713.0,12.09,-0.68,-0.68,-0.18,7.6,17.3,-0.5,34.25,,,,,,,,,,
13.11.06.698,393.6,98.4,0,,,82713.0,12.09,-1.17,-0.29,-0.09,-6.1,-1.6,7.4,34.16,,,,,,,,,,
13.11.06.707,337.4,84.4,0,,,82713.0,12.09,-0.71,0.11,-0.43,-11.0,4.3,11.7,34.33,,,,,,,,,,
13.11.06.716,324.5,81.1,0,,,82713.0,12.09,-0.84,0.05,-0.69,-4.0,27.8,-3.9,34.25,,,,,,,,,,
13.11.06.726,299.1,74.8,0,,,82713.0,12.09,-0.67,0.02,0.11,-13.6,9.8,-15.0,34.33,,,,,,,,,,
13.11.06.735,325.2,81.3,0,,,82713.0,12.09,-0.62,-0.16,-0.41,-5.4,10.5,7.0,34.13,,,,,,,,,,
13.11.06.744,248.9,62.2,0,,,82713.0,12.09,-0.7,0.04,0.07,32.7,-4.1,-13.0,34.54,,,,,,,,,,
13.11.06.752,199.7,49.9,0,,,82713.0,12.09,-0.91,-0.02,-0.38,-18.6,0.1,-25.4,34.4,,,,,,,,,,
13.11.06.763,147.7,36.9,0,,,82713.0,12.09,-1.12,-0.16,0.24,-1.6,4.1,-20.4,34.19,,,,,,,,,,
13.11.06.774,131.2,32.8,0,,,82713.0,12.09,-0.91,-0.34,-0.27,2.5,-16.5,14.2,34.3,,,,,,,,,,
13.11.06.784,41.4,10.4,0,,,82713.0,12.09,-0.93,-0.03,-0.49,-51.3,23.9,-2.2,34.75,,,,,,,,,,
13.11.06.796,-16.6,4.2,0,,,82713.0,12.09,-0.58,-0.36,-0.23,0.5,-13.6,-1.8,34.57,,,,,,,,,,
13.11.06.808,36.7,9.2,0,,,82713.0,12.09,-0.84,-0.09,-0.02,-8.6,-6.0,1.6,34.56,,,,,,,,,,
13.11.06.817,14.3,3.6,0,,,82713.0,12.09,-0.63,-0.67,-0.29,-19.5,11.8,11.7,34.22,,,,,,,,,,
13.11.06.826,30.4,7.6,0,,,82713.0,12.09,-1.37,0.42,-0.62,-30.4,23.8,15.3,33.89,,,,,,,,,,
13.11.06.836,36.0,9.0,0,,,82713.0,12.09,-0.82,0.3,0.04,32.8,-8.9,17.9,34.31,,,,,,,,,,
13.11.06.847,56.7,14.2,0,,,82713.0,12.09,-1.32,-0.01,0.23,40.1,5.2,8.4,34.65,,,,,,,,,,
13.11.06.858,48.4,12.1,0,,,82713.0,12.09,-0.84,-0.04,-0.22,2.5,2.3,6.5,34.27,,,,,,,,,,
13.11.06.869,82.0,20.5,0,,,82713.0,12.09,-0.56,-0.01,0.16,5.9,1.0,-0.4,34.21,,,,,,,,,,
13.11.06.877,88.2,22.0,0,,,82713.0,12.09,-0.5,-0.01,-0.62,4.3,8.1,-9.8,34.02,,,,,,,,,,
13.11.06.886,82.5,20.6,0,,,82713.0,12.09,-0.77,0.18,0.03,-5.1,-0.5,-17.3,34.4,,,,,,,,,,
13.11.06.894,31.9,8.0,0,,,82713.0,12.09,-0.66,-0.14,-0.01,-27.6,11.8,4.7,34.26,,,,,,,,,,
13.11.06.903,60.7,15.2,0,,,82713.0,12.09,-0.8,0.46,-0.73,-4.6,-5.8,-17.7,34.19,,,,,,,,,,
13.11.06.911,60.2,15.0,0,,,82713.0,12.09,-1.06,0.34,-0.61,27.5,0.0,-15.0,34.33,,,,,,,,,,
13.11.06.920,34.6,8.6,0,,,82713.0,12.09,-0.76,-0.15,-0.92,21.5,-2.3,-8.4,34.46,,,,,,,,,,
13.11.06.928,11.2,2.8,0,,,82713.0,12.09,-1.09,0.37,-0.59,-23.0,6.9,-8.8,34.61,,,,,,,,,,
13.11.06.938,-7.6,1.9,0,,,82713.0,12.09,-1.22,0.19,-0.4,-32.5,31.0,-7.6,34.62,,,,,,,,,,
13.11.06.946,9.3,2.3,0,,,82713.0,12.09,-0.63,-0.07,-0.63,-23.9,14.0,9.1,34.34,,,,,,,,,,
13.11.06.957,-30.4,7.6,0,,,82713.0,12.09,-1.04,-0.25,-0.38,-11.7,6.6,-29.5,34.11,,,,,,,,,,
13.11.06.968,-10.1,2.5,0,,,82713.0,12.09,-0.87,0.35,-0.34,23.8,33.5,-7.6,34.59,,,,,,,,,,
13.11.06.977,-35.2,8.8,0,,,82713.0,12.09,-0.92,-0.01,-0.03,12.2,-13.7,-7.4,34.33,,,,,,,,,,
13.11.06.986,-25.6,6.4,0,,,82713.0,12.09,-0.79,0.19,-0.2,-8.3,0.0,-0.5,34.16,,,,,,,,,,
13.11.06.993,-46.3,11.6,0,,,82713.0,12.09,-0.98,-0.12,-0.61,12.7,19.3,-11.2,34.79,,,,,,,,,,
13.11.07.005,-64.1,16.0,0,,,82713.0,12.09,-0.72,-0.21,0.06,4.8,8.8,8.9,34.32,,,,,,,,,,
13.11.07.015,-28.8,7.2,0,,,82713.0,12.09,-0.72,0.31,-0.21,-0.9,3.9,12.9,33.95,,,,,,,,,,
13.11.07.023,-47.2,11.8,0,,,82713.0,12.09,-0.77,-0.6,-0.4,50.6,7.9,-13.5,33.88,,,,,,,,,,
13.11.07.033,-70.5,17.6,0,,,82713.0,12.09,-0.62,0.25,-0.16,8.2,14.3,-23.7,34.75,,,,,,,,,,
13.11.07.044,-39.4,9.8,0,,,82713.0,12.09,-0.56,0.44,-0.54,-32.2,31.0,-2.4,34.39,,,,,,,,,,
13.11.07.054,-58.1,14.5,0,,,82713.0,12.09,-0.79,-0.13,-0.41,-1.4,17.9,-34.9,34.06,,,,,,,,,,
13.11.07.065,-48.5,12.1,0,,,82713.0,12.09,-1.02,0.46,-0.24,-7.8,28.3,19.1,34.18,,,,,,,,,,
13.11.07.076,-109.3,27.3,0,,,82713.0,12.09,-0.88,0.33,0.14,40.6,-11.9,-9.8,34.07,,,,,,,,,,
13.11.07.087,-41.4,10.4,0,,,82713.0,12.09,-0.83,-0.09,-0.28,40.2,-11.1,-2.8,34.51,,,,,,,,,,
13.11.07.097,-61.7,15.4,0,,,82713.0,12.09,-0.57,0.24,0.06,2.1,10.8,10.8,34.57,,,,,,,,,,
13.11.07.109,-110.8,27.7,0,,,82713.0,12.09,-1.24,0.38,-0.7,14.2,6.1,28.4,34.38,,,,,,,,,,
13.11.07.119,-101.6,25.4,0,,,82713.0,12.09,-0.81,0.1,-0.5,5.8,31.8,17.7,34.35,,,,,,,,,,
13.11.07.131,-114.7,28.7,1,10.0,86.8,82713.0,12.09,-0.81,0.34,-0.04,-28.6,14.3,-8.1,34.52,,,,,,,,,,
13.11.07.141,-115.3,28.8,0,,,82713.0,12.09,-0.6,-0.24,-0.68,-30.8,-31.6,0.7,34.0,,,,,,,,,,
13.11.07.152,-113.2,28.3,0,,,82713.0,12.09,-0.61,0.02,0.19,18.6,2.1,14.6,34.21,,,,,,,,,,
13.11.07.161,-119.4,29.8,0,,,82713.0,12.09,-0.38,0.14,-0.43,-17.8,12.6,-19.5,34.48,,,,,,,,,,
13.11.07.171,-148.4,37.1,0,,,82713.0,12.09,-0.63,-0.23,-0.54,-22.6,3.3,-20.9,34.36,,,,,,,,,,
13.11.07.181,-109.7,27.4,0,,,82713.0,12.09,-0.87,0.13,-0.4,31.0,-4.1,-9.6,34.23,,,,,,,,,,
13.11.07.190,-122.9,30.7,0,,,82713.0,12.09,-0.69,0.47,0.01,-5.0,6.9,-10.9,34.63,,,,,,,,,,
13.11.07.201,-120.4,30.1,0,,,82713.0,12.09,-0.31,-0.06,-0.21,-6.3,8.1,-13.6,33.92,,,,,,,,,,
13.11.07.211,-124.7,31.2,0,,,82713.0,12.09,-0.59,0.26,0.33,-3.3,-3.1,11.2,33.62,,,,,,,,,,
13.11.07.220,-132.3,33.1,0,,,82713.0,12.09,-0.65,0.41,-0.12,17.4,6.1,14.5,34.03,,,,,,,,,,
13.11.07.231,-125.5,31.4,0,,,82713.0,12.09,-0.66,1.01,0.07,18.2,7.0,-27.0,34.34,,,,,,,,,,
13.11.07.240,-130.1,32.5,0,,,82713.0,12.09,-0.95,-0.1,-0.81,-16.3,9.0,12.9,34.54,,,,,,,,,,
13.11.07.251,-195.0,48.8,0,,,82713.0,12.09,-0.56,0.22,-0.33,3.6,-12.8,1.5,34.1,,,,,,,,,,
13.11.07.260,-183.8,46.0,0,,,82644.6,12.1,-0.82,0.53,0.15,5.6,8.5,-15.2,33.73,,,,,,,,,,
13.11.07.267,36.3,9.1,0,,,82644.6,12.1,-0.62,0.91,-0.57,-26.8,12.2,-4.9,34.48,,,,,,,,,,
13.11.07.277,61.1,15.3,0,,,82644.6,12.1,-0.28,0.06,-0.06,2.5,1.8,41.2,34.57,,,,,,,,,,
13.11.07.289,133.8,33.4,0,,,82644.6,12.1,-0.75,-0.18,-0.76,-13.0,9.7,6.1,34.22,,,,,,,,,,
13.11.07.298,135.5,33.9,0,,,82644.6,12.1,-0.8,0.46,-0.26,2.5,-18.1,1.5,34.39,,,,,,,,,,
13.11.07.306,191.0,47.8,0,,,82644.6,12.1,-0.31,-0.17,-0.51,-26.7,6.8,11.1,34.15,,,,,,,,,,
13.11.07.316,273.4,68.4,0,,,82644.6,12.1,-0.6,-0.05,-0.26,20.0,4.3,1.5,34.63,,,,,,,,,,
13.11.07.324,251.2,62.8,0,,,82644.6,12.1,-0.74,-0.05,-0.08,-63.7,-13.2,10.5,33.93,,,,,,,,,,
13.11.07.333,319.7,79.9,0,,,82644.6,12.1,-0.62,-0.05,-0.1,-19.9,44.2,-2.1,33.8,,,,,,,,,,
13.11.07.345,330.2,82.6,0,,,82644.6,12.1,-0.39,0.12,-0.06,-1.3,-0.3,5.6,34.03,,,,,,,,,,
13.11.07.352,328.5,82.1,0,,,82644.6,12.1,-0.67,-0.06,-0.09,-8.1,2.1,15.9,34.44,,,,,,,,,,
13.11.07.363,359.1,89.8,0,,,82644.6,12.1,-0.19,0.08,-0.74,-18.6,-8.8,-16.6,34.1,,,,,,,,,,
13.11.07.371,406.0,101.5,0,,,82644.6,12.1,-0.73,0.06,-0.72,40.3,-13.9,-19.1,34.23,,,,,,,,,,
13.11.07.382,436.5,109.1,0,,,82644.6,12.1,-0.82,-0.65,-0.77,-11.8,-14.3,-6.0,34.34,,,,,,,,,,
13.11.07.392,390.3,97.6,0,,,82644.6,12.1,-0.78,-0.6,-0.33,2.6,9.8,28.4,34.42,,,,,,,,,,
13.11.07.403,397.7,99.4,0,,,82644.6,12.1,-0.72,-0.4,-0.62,43.5,-15.3,-23.3,33.81,,,,,,,,,,
13.11.07.413,418.9,104.7,0,,,82644.6,12.1,-0.8,0.06,-0.6,23.5,-8.6,-9.6,34.46,,,,,,,,,,
13.11.07.424,345.6,86.4,0,,,82644.6,12.1,-0.3,-0.17,-1.12,-3.1,21.4,-17.6,34.03,,,,,,,,,,
13.11.07.436,347.7,86.9,0,,,82644.6,12.1,-0.78,-0.67,-0.24,11.3,26.4,12.2,34.63,,,,,,,,,,
13.11.07.445,287.4,71.8,0,,,82644.6,12.1,-0.57,0.09,-0.69,-23.5,5.7,-18.4,34.05,,,,,,,,,,
13.11.07.455,251.3,62.8,0,,,82644.6,12.1,-0.5,-0.72,-0.46,11.0,-13.5,-15.7,33.86,,,,,,,,,,
13.11.07.466,258.5,64.6,0,,,82644.6,12.1,-0.6,-0.67,-0.53,38.1,10.7,3.4,34.17,,,,,,,,,,
13.11.07.476,237.6,59.4,0,,,82644.6,12.1,-0.99,-0.34,-0.19,-16.2,18.7,-0.4,34.39,,,,,,,,,,
13.11.07.486,140.2,35.0,0,,,82644.6,12.1,-0.79,-0.46,-0.37,-19.2,21.9,0.9,34.17,,,,,,,,,,
13.11.07.498,130.1,32.5,0,,,82644.6,12.1,-0.57,-0.31,-0.92,34.1,3.0,13.3,33.95,,,,,,,,,,
13.11.07.505,48.3,12.1,0,,,82644.6,12.1,-0.84,-0.57,-0.68,5.2,1.5,4.6,34.85,,,,,,,,,,
13.11.07.514,78.8,19.7,0,,,82644.6,12.1,-0.9,-0.42,0.31,39.9,26.5,-2.9,34.63,,,,,,,,,,
13.11.07.524,-14.6,3.6,0,,,82644.6,12.1,-0.99,-0.34,-0.76,5.6,-8.1,-2.5,34.68,,,,,,,,,,
13.11.07.534,18.8,4.7,0,,,82644.6,12.1,-0.79,-0.45,-0.13,6.0,16.5,-2.0,34.68,,,,,,,,,,
13.11.07.545,40.0,10.0,0,,,82644.6,12.1,-0.85,-0.44,-0.14,28.5,8.0,8.5,34.63,,,,,,,,,,
13.11.07.556,84.4,21.1,0,,,82644.6,12.1,-0.81,-0.04,-0.41,18.3,-28.1,2.2,34.39,,,,,,,,,,
13.11.07.567,42.5,10.6,0,,,82644.6,12.1,-0.96,-0.15,0.09,1.0,-10.5,13.7,34.14,,,,,,,,,,
13.11.07.575,57.7,14.4,0,,,82644.6,12.1,-0.81,-0.46,-0.11,-20.0,22.3,-15.4,34.23,,,,,,,,,,
13.11.07.584,98.3,24.6,0,,,82644.6,12.1,-1.01,-0.46,-0.47,7.6,16.4,-17.0,34.62,,,,,,,,,,
13.11.07.594,102.4,25.6,0,,,82644.6,12.1,-0.7,-0.32,-0.4,5.5,-12.8,26.9,34.38,,,,,,,,,,
13.11.07.604,68.0,17.0,0,,,82644.6,12.1,-1.09,-0.61,-0.13,-4.3,9.5,8.3,34.33,,,,,,,,,,
13.11.07.614,72.9,18.2,0,,,82644.6,12.1,-1.11,0.24,0.09,33.8,6.8,15.9,35.07,,,,,,,,,,
13.11.07.623,51.9,13.0,0,,,82644.6,12.1,-0.93,-1.09,-0.13,-2.6,18.9,-15.6,34.11,,,,,,,,,,
13.11.07.633,69.3,17.3,0,,,82644.6,12.1,-0.94,0.56,-0.53,27.4,-3.8,-6.2,34.0,,,,,,,,,,
13.11.07.644,24.4,6.1,0,,,82644.6,12.1,-0.66,-0.35,0.21,19.6,5.8,-2.5,34.33,,,,,,,,,,
13.11.07.652,3.0,0.8,0,,,82644.6,12.1,-0.95,-0.3,0.15,-6.6,-2.6,-10.4,33.51,,,,,,,,,,
13.11.07.663,-20.3,5.1,0,,,82644.6,12.1,-0.83,-0.47,-0.03,-22.0,-7.9,15.3,34.38,,,,,,,,,,
13.11.07.671,13.2,3.3,0,,,82644.6,12.1,-1.16,-0.06,-0.06,21.8,-4.4,15.9,34.19,,,,,,,,,,
13.11.07.681,-17.8,4.4,0,,,82644.6,12.1,-1.02,0.09,-0.18,-2.1,-18.1,-8.4,34.18,,,,,,,,,,
13.11.07.692,4.5,1.1,0,,,82644.6,12.1,-0.94,-0.64,0.15,42.6,36.2,-3.2,33.81,,,,,,,,,,
13.11.07.705,-21.6,5.4,0,,,82644.6,12.1,-0.52,-0.05,-0.18,10.7,5.1,9.7,34.23,,,,,,,,,,
13.11.07.716,-50.1,12.5,0,,,82644.6,12.1,-0.88,-0.44,-0.56,0.5,-0.2,5.0,34.4,,,,,,,,,,
13.11.07.727,-29.4,7.4,0,,,82644.6,12.1,-0.94,-0.32,-0.49,15.0,0.8,-13.4,33.97,,,,,,,,,,
13.11.07.737,-44.5,11.1,0,,,82644.6,12.1,-1.24,-0.13,-0.44,-40.1,17.3,-29.6,34.17,,,,,,,,,,
13.11.07.747,-38.9,9.7,0,,,82644.6,12.1,-1.1,0.07,-0.61,9.5,10.4,-19.1,34.24,,,,,,,,,,
13.11.07.756,-37.2,9.3,0,,,82644.6,12.1,-0.94,-0.17,-0.15,5.6,-22.1,-19.5,34.08,,,,,,,,,,
13.11.07.765,-36.9,9.2,0,,,82644.6,12.1,-0.69,0.19,-0.6,11.4,20.2,15.6,34.31,,,,,,,,,,
13.11.07.773,-93.4,23.4,1,11.0,93.5,82644.6,12.1,-1.04,-0.03,-0.1,-18.9,-2.5,1.8,34.33,,,,,,,,,,
13.11.07.786,-43.7,10.9,0,,,82644.6,12.1,-0.69,0.11,-0.12,-2.1,16.0,-6.6,34.36,,,,,,,,,,
13.11.07.797,-45.7,11.4,0,,,82644.6,12.1,-0.9,0.19,-0.7,-1.0,6.4,17.9,34.24,,,,,,,,,,
13.11.07.807,-88.4,22.1,0,,,82644.6,12.1,-1.0,0.33,-0.0,15.2,9.5,-14.5,34.19,,,,,,,,,,
13.11.07.815,-60.8,15.2,0,,,82644.6,12.1,-0.75,0.2,-0.9,-1.6,18.9,5.3,34.61,,,,,,,,,,
13.11.07.824,-80.9,20.2,0,,,82644.6,12.1,-0.87,-0.03,-0.23,-24.9,-1.7,11.6,34.09,,,,,,,,,,
13.11.07.835,-83.1,20.8,0,,,82644.6,12.1,-0.58,0.01,-0.47,2.0,-5.5,16.2,34.15,,,,,,,,,,
13.11.07.846,-112.4,28.1,0,,,82644.6,12.1,-0.88,0.14,-0.23,4.8,5.3,-4.5,34.4,,,,,,,,,,
13.11.07.855,-114.4,28.6,0,,,82644.6,12.1,-1.12,0.28,0.08,15.8,-15.0,-2.4,34.42,,,,,,,,,,
13.11.07.865,-90.2,22.6,0,,,82644.6,12.1,-0.74,-0.14,-0.41,10.5,40.7,1.9,34.33,,,,,,,,,,
13.11.07.875,-106.6,26.6,0,,,82644.6,12.1,-0.76,-0.1,-0.28,-9.4,-20.8,3.9,33.86,,,,,,,,,,
13.11.07.882,-129.4,32.4,0,,,82644.6,12.1,-0.64,-0.23,-0.78,-58.8,8.7,9.0,34.08,,,,,,,,,,
13.11.07.892,-124.4,31.1,0,,,82644.6,12.1,-1.07,-0.06,-0.26,-29.3,1.6,33.9,34.61,,,,,,,,,,
13.11.07.901,-130.2,32.6,0,,,82644.6,12.1,-0.81,-0.18,-0.69,14.7,-1.5,-6.4,34.5,,,,,,,,,,
13.11.07.912,-123.6,30.9,0,,,82576.4,12.11,-1.01,-0.14,0.0,-12.7,13.8,-9.6,34.06,,,,,,,,,,
13.11.07.921,-108.8,27.2,0,,,82576.4,12.11,-0.93,0.15,-0.28,3.6,0.7,7.4,34.12,,,,,,,,,,
13.11.07.930,-123.2,30.8,0,,,82576.4,12.11,-1.25,0.31,0.27,-15.5,6.5,7.5,34.06,,,,,,,,,,
13.11.07.940,-143.1,35.8,0,,,82576.4,12.11,-0.92,0.08,-0.38,-51.5,-1.4,16.9,34.6,,,,,,,,,,
13.11.07.948,-144.1,36.0,0,,,82576.4,12.11,-1.05,-0.21,-0.18,-24.4,5.1,13.7,34.1,,,,,,,,,,
13.11.07.958,-133.2,33.3,0,,,82576.4,12.11,-0.59,0.54,-0.25,-22.0,-2.0,8.9,34.36,,,,,,,,,,
13.11.07.966,-107.6,26.9,0,,,82576.4,12.11,-0.78,0.5,-0.14,63.1,13.7,7.4,34.08,,,,,,,,,,
13.11.07.977,-151.0,37.8,0,,,82576.4,12.11,-0.35,-0.08,-0.47,21.4,-12.1,5.0,34.28,,,,,,,,,,
13.11.07.985,-29.0,7.2,0,,,82576.4,12.11,-0.53,0.87,-0.31,-0.1,29.1,-0.4,34.29,,,,,,,,,,
13.11.07.994,43.3,10.8,0,,,82576.4,12.11,-0.84,0.45,-0.04,-22.0,-15.6,8.5,34.38,,,,,,,,,,
13.11.08.002,91.6,22.9,0,,,82576.4,12.11,-0.61,0.67,-0.26,9.2,23.1,1.0,34.4,,,,,,,,,,
13.11.08.011,142.6,35.6,0,,,82576.4,12.11,-0.98,0.25,-0.26,-3.7,37.1,-16.8,34.35,,,,,,,,,,
13.11.08.020,179.3,44.8,0,,,82576.4,12.11,-0.99,-0.19,-0.09,18.6,11.7,-10.8,33.95,,,,,,,,,,
13.11.08.030,259.1,64.8,0,,,82576.4,12.11,-0.45,0.34,-0.19,-1.5,-0.9,-1.6,34.26,,,,,,,,,,
13.11.08.039,248.9,62.2,0,,,82576.4,12.11,-0.86,0.21,-0.11,25.7,0.4,-3.1,34.6,,,,,,,,,,
13.11.08.048,267.6,66.9,0,,,82576.4,12.11,-0.95,0.17,-0.02,-1.8,10.6,-6.0,34.32,,,,,,,,,,
13.11.08.057,236.5,59.1,0,,,82576.4,12.11,-0.67,0.08,-0.49,-21.0,7.2,-16.4,34.6,,,,,,,,,,
13.11.08.069,387.0,96.8,0,,,82576.4,12.11,-0.65,0.15,-0.16,40.3,-13.9,-9.4,34.9,,,,,,,,,,
13.11.08.079,323.6,80.9,0,,,82576.4,12.11,-0.79,-0.26,0.21,24.9,-7.1,-7.6,34.17,,,,,,,,,,
13.11.08.090,407.6,101.9,0,,,82576.4,12.11,-0.52,0.27,-0.2,-7.6,9.2,-23.3,34.39,,,,,,,,,,
13.11.08.099,480.0,120.0,0,,,82576.4,12.11,-0.52,0.36,-0.02,4.4,0.6,8.7,34.21,,,,,,,,,,
13.11.08.108,388.9,97.2,0,,,82576.4,12.11,-0.53,-0.4,-0.31,31.0,14.0,-1.6,33.84,,,,,,,,,,
13.11.08.119,400.0,100.0,0,,,82576.4,12.11,-0.36,-0.1,-0.01,7.0,18.2,0.9,34.07,,,,,,,,,,
13.11.08.129,382.5,95.6,0,,,82576.4,12.11,-0.63,-0.53,-0.31,-15.2,19.4,7.0,33.97,,,,,,,,,,
13.11.08.138,355.8,89.0,0,,,82576.4,12.11,-0.71,-0.01,-0.06,-7.4,-11.6,-7.6,33.77,,,,,,,,,,
13.11.08.149,345.4,86.4,0,,,82576.4,12.11,-0.51,0.46,-0.21,11.9,-5.2,0.9,34.51,,,,,,,,,,
13.11.08.159,291.2,72.8,0,,,82576.4,12.11,-1.01,-0.12,-0.43,11.6,-18.6,-2.0,34.36,,,,,,,,,,
13.11.08.168,288.1,72.0,0,,,82576.4,12.11,-0.42,0.54,0.06,-8.2,-17.9,-12.9,34.82,,,,,,,,,,
13.11.08.179,219.4,54.8,0,,,82576.4,12.11,-0.8,-0.02,-0.69,-17.0,-4.6,6.8,34.36,,,,,,,,,,
13.11.08.187,234.2,58.6,0,,,82576.4,12.11,-0.73,0.23,-0.14,1.1,-9.4,26.9,34.43,,,,,,,,,,
13.11.08.197,181.8,45.4,0,,,82576.4,12.11,-0.46,-0.6,-0.09,7.2,1.9,-26.4,34.11,,,,,,,,,,
13.11.08.208,140.5,35.1,0,,,82576.4,12.11,-0.31,0.24,0.01,-19.1,-29.2,-13.0,34.85,,,,,,,,,,
13.11.08.219,82.6,20.6,0,,,82576.4,12.11,-0.23,0.36,-0.15,-1.7,9.2,-13.6,33.97,,,,,,,,,,
13.11.08.231,54.5,13.6,0,,,82576.4,12.11,-0.85,-0.73,-0.46,-24.4,-15.9,-1.1,34.31,,,,,,,,,,
13.11.08.240,39.5,9.9,0,,,82576.4,12.11,-0.58,0.12,-0.34,15.3,24.6,6.9,34.04,,,,,,,,,,
13.11.08.249,36.2,9.0,0,,,82576.4,12.11,-0.53,-0.17,-0.55,-0.5,-4.5,-14.3,34.47,,,,,,,,,,
13.11.08.262,25.7,6.4,0,,,82576.4,12.11,-0.86,-0.15,-0.22,17.9,-23.7,9.2,34.85,,,,,,,,,,
13.11.08.272,57.8,14.4,0,,,82576.4,12.11,-0.56,0.15,-0.36,30.0,9.4,-0.1,34.05,,,,,,,,,,
13.11.08.283,39.0,9.8,0,,,82576.4,12.11,-0.64,0.53,-0.74,16.0,-9.0,32.9,34.35,,,,,,,,,,
13.11.08.292,58.4,14.6,0,,,82576.4,12.11,-0.88,-0.32,-0.61,9.9,-12.1,14.5,34.42,,,,,,,,,,
13.11.08.305,90.0,22.5,0,,,82576.4,12.11,-0.51,0.21,-0.33,8.2,19.2,-0.2,34.38,,,,,,,,,,
13.11.08.314,75.8,19.0,0,,,82576.4,12.11,-0.58,-0.69,-0.05,-23.2,6.2,-7.2,34.3,,,,,,,,,,
13.11.08.323,43.3,10.8,0,,,82576.4,12.11,-0.82,0.37,-0.32,-14.6,22.0,0.5,34.23,,,,,,,,,,
13.11.08.331,58.3,14.6,0,,,82576.4,12.11,-0.48,-0.18,-0.68,-17.4,-10.4,-5.4,34.29,,,,,,,,,,
13.11.08.339,49.9,12.5,0,,,82576.4,12.11,-0.54,-0.09,-0.56,-20.7,3.4,22.7,35.03,,,,,,,,,,
13.11.08.349,45.0,11.2,0,,,82576.4,12.11,-0.44,-0.13,-0.64,-12.5,-5.9,11.5,34.31,,,,,,,,,,
13.11.08.358,16.8,4.2,0,,,82576.4,12.11,-0.78,0.1,-0.87,-6.2,-1.2,-9.6,34.12,,,,,,,,,,
13.11.08.368,37.0,9.2,0,,,82576.4,12.11,-1.15,-0.17,-0.15,6.9,10.8,5.9,33.97,,,,,,,,,,
13.11.08.379,-7.8,2.0,0,,,82576.4,12.11,-0.56,-0.54,-0.24,-1.7,2.7,10.7,34.41,,,,,,,,,,
13.11.08.390,0.8,0.2,0,,,82576.4,12.11,-0.75,-0.42,-0.61,5.9,-11.0,-11.2,34.39,,,,,,,,,,
13.11.08.398,-3.2,0.8,0,,,82576.4,12.11,-0.76,0.02,-0.64,-19.2,9.3,-11.9,34.4,,,,,,,,,,
13.11.08.408,-42.3,10.6,0,,,82576.4,12.11,-0.77,-0.44,-0.6,-5.6,-20.1,3.2,34.04,,,,,,,,,,
13.11.08.417,-61.7,15.4,0,,,82576.4,12.11,-0.65,-0.55,-0.29,48.9,-23.9,-34.5,34.36,,,,,,,,,,
13.11.08.426,-43.6,10.9,0,,,82576.4,12.11,-1.02,-0.69,-0.15,2.8,-27.7,-26.9,34.52,,,,,,,,,,
13.11.08.435,-14.0,3.5,0,,,82576.4,12.11,-0.58,-0.13,-0.15,-17.4,-2.2,14.5,34.58,,,,,,,,,,
13.11.08.444,-40.3,10.1,0,,,82576.4,12.11,-0.57,-0.46,0.06,37.6,-12.9,31.0,34.71,,,,,,,,,,
13.11.08.452,-30.6,7.6,0,,,82576.4,12.11,-0.72,-0.03,-0.08,-38.3,39.0,14.9,34.18,,,,,,,,,,
13.11.08.463,-42.8,10.7,1,12.0,87.0,82576.4,12.11,-1.19,-0.15,-0.28,-23.1,3.4,-2.3,34.64,,,,,,,,,,
13.11.08.473,-63.6,15.9,0,,,82576.4,12.11,-1.03,-0.28,-0.04,19.2,26.6,-9.2,34.05,,,,,,,,,,
13.11.08.483,-63.6,15.9,0,,,82576.4,12.11,-0.87,-0.48,-0.12,29.8,5.3,-7.7,34.99,,,,,,,,,,
13.11.08.492,-26.9,6.7,0,,,82576.4,12.11,-0.86,-0.28,0.13,5.0,15.2,9.8,33.97,,,,,,,,,,
13.11.08.503,-79.1,19.8,0,,,82576.4,12.11,-0.9,0.0,-0.03,10.2,-7.5,4.4,33.64,,,,,,,,,,
13.11.08.512,-40.8,10.2,0,,,82576.4,12.11,-1.14,-0.59,-0.26,2.4,9.0,-2.2,34.83,,,,,,,,,,
13.11.08.521,-67.5,16.9,0,,,82576.4,12.11,-0.65,-0.13,-0.55,6.9,-1.9,20.4,34.32,,,,,,,,,,
13.11.08.530,-81.0,20.2,0,,,82576.4,12.11,-1.03,0.34,0.44,12.0,13.0,-17.6,34.25,,,,,,,,,,
13.11.08.538,-57.1,14.3,0,,,82576.4,12.11,-0.93,-0.11,0.26,4.0,-5.7,-15.4,33.92,,,,,,,,,,
13.11.08.550,-96.2,24.0,0,,,82576.4,12.11,-0.86,-0.05,0.21,-14.3,-10.2,0.7,34.32,,,,,,,,,,
13.11.08.559,-102.2,25.6,0,,,82576.4,12.11,-0.69,-0.19,0.06,-14.5,35.7,-6.1,34.34,,,,,,,,,,
13.11.08.567,-96.5,24.1,0,,,82576.4,12.11,-0.89,0.12,-0.54,-30.4,-1.4,-21.0,33.94,,,,,,,,,,
13.11.08.575,-62.2,15.6,0,,,82576.4,12.11,-0.85,0.08,-0.1,-43.3,10.7,-35.8,34.0,,,,,,,,,,
13.11.08.584,-85.6,21.4,0,,,82576.4,12.11,-0.89,-0.57,-0.52,-29.0,9.7,-5.0,34.47,,,,,,,,,,
13.11.08.594,-95.2,23.8,0,,,82576.4,12.11,-0.86,-0.6,-0.18,-25.6,18.8,-8.7,33.8,,,,,,,,,,
13.11.08.602,-92.3,23.1,0,,,82576.4,12.11,-0.92,-0.51,-0.05,14.4,19.8,3.1,34.02,,,,,,,,,,
13.11.08.613,-129.0,32.2,0,,,82576.4,12.11,-0.87,0.03,0.25,5.9,9.2,-2.6,34.15,,,,,,,,,,
13.11.08.622,-123.0,30.8,0,,,82576.4,12.11,-1.02,0.24,-0.5,-5.2,20.1,-17.1,34.22,,,,,,,,,,
13.11.08.631,-148.1,37.0,0,,,82576.4,12.11,-0.82,-0.16,-0.71,16.6,16.6,6.6,34.39,,,,,,,,,,
13.11.08.641,-129.4,32.4,0,,,82576.4,12.11,-1.14,-0.44,-0.56,-2.5,28.5,-0.9,34.58,,,,,,,,,,
13.11.08.652,-139.3,34.8,0,,,82576.4,12.11,-0.78,-0.09,-0.23,25.9,-8.0,-3.7,33.98,,,,,,,,,,
13.11.08.661,-152.8,38.2,0,,,82576.4,12.11,-1.09,0.24,-0.25,3.8,-16.9,-7.2,34.16,,,,,,,,,,
13.11.08.670,-125.9,31.5,0,,,82576.4,12.11,-0.8,0.51,-0.42,5.2,9.5,-2.3,34.24,,,,,,,,,,
13.11.08.681,-150.9,37.7,0,,,82576.4,12.11,-0.54,-0.09,-0.33,-21.4,26.5,4.6,34.37,,,,,,,,,,
13.11.08.692,-135.8,34.0,0,,,82576.4,12.11,-1.11,0.45,-0.16,-5.4,22.0,18.4,34.88,,,,,,,,,,
13.11.08.702,-209.2,52.3,0,,,82576.4,12.11,-1.09,0.39,0.12,-29.8,15.6,-10.9,34.49,,,,,,,,,,
13.11.08.710,36.6,9.2,0,,,82508.3,12.12,-0.92,0.07,-0.51,28.6,11.2,-9.0,34.1,,,,,,,,,,
13.11.08.719,59.0,14.8,0,,,82508.3,12.12,-0.71,0.36,-0.57,5.2,-4.2,-8.2,34.28,,,,,,,,,,
13.11.08.730,154.2,38.6,0,,,82508.3,12.12,-0.68,0.14,-0.51,-14.5,23.5,10.0,34.83,,,,,,,,,,
13.11.08.740,162.9,40.7,0,,,82508.3,12.12,-0.81,0.1,-0.65,9.0,7.1,-14.8,34.44,,,,,,,,,,
13.11.08.750,206.5,51.6,0,,,82508.3,12.12,-0.62,0.92,-0.39,18.2,-3.8,-8.3,34.39,,,,,,,,,,
13.11.08.758,259.2,64.8,0,,,82508.3,12.12,-0.56,0.25,-0.52,19.9,-9.7,38.7,34.33,,,,,,,,,,
13.11.08.769,332.4,83.1,0,,,82508.3,12.12,-0.8,0.25,-0.39,30.2,17.7,20.6,34.37,,,,,,,,,,
13.11.08.778,312.6,78.2,0,,,82508.3,12.12,-0.68,0.6,-1.18,-26.0,11.5,-31.0,34.1,,,,,,,,,,
13.11.08.788,339.5,84.9,0,,,82508.3,12.12,-0.99,0.21,-0.57,13.8,-2.9,5.0,34.58,,,,,,,,,,
13.11.08.796,391.6,97.9,0,,,82508.3,12.12,-0.78,0.33,-0.91,10.5,7.3,-3.1,34.69,,,,,,,,,,
13.11.08.805,423.1,105.8,0,,,82508.3,12.12,-0.83,-0.25,-0.3,2.7,-5.9,-5.3,34.12,,,,,,,,,,
13.11.08.815,405.0,101.2,0,,,82508.3,12.12,-1.09,0.03,-0.68,-6.9,11.6,20.1,34.24,,,,,,,,,,
13.11.08.824,404.4,101.1,0,,,82508.3,12.12,-0.87,0.01,-0.72,11.8,21.1,-7.8,33.66,,,,,,,,,,
13.11.08.834,368.0,92.0,0,,,82508.3,12.12,-0.31,-0.16,-0.03,0.9,15.7,-11.2,34.48,,,,,,,,,,
13.11.08.844,381.7,95.4,0,,,82508.3,12.12,-0.41,-0.21,-0.26,-24.6,22.4,-2.9,34.24,,,,,,,,,,
13.11.08.856,384.3,96.1,0,,,82508.3,12.12,-0.82,0.21,-0.53,-40.8,2.7,-19.1,34.16,,,,,,,,,,
13.11.08.866,385.4,96.4,0,,,82508.3,12.12,-0.86,0.42,0.07,24.5,23.3,-17.5,34.37,,,,,,,,,,
13.11.08.873,373.6,93.4,0,,,82508.3,12.12,-0.39,0.34,0.17,5.1,-0.4,-5.4,34.21,,,,,,,,,,
13.11.08.883,301.9,75.5,0,,,82508.3,12.12,-0.89,-0.16,-0.13,-24.9,8.7,-6.3,34.29,,,,,,,,,,
13.11.08.894,267.4,66.8,0,,,82508.3,12.12,-0.65,-0.21,0.05,0.1,5.4,22.3,33.97,,,,,,,,,,
13.11.08.903,272.9,68.2,0,,,82508.3,12.12,-0.59,0.2,-0.81,-0.8,23.8,7.6,33.97,,,,,,,,,,
13.11.08.914,212.6,53.2,0,,,82508.3,12.12,-0.86,0.08,-0.33,-12.0,-0.9,-16.4,34.24,,,,,,,,,,
13.11.08.922,146.7,36.7,0,,,82508.3,12.12,-0.69,-0.19,-0.23,-5.6,0.1,-9.1,34.26,,,,,,,,,,
13.11.08.932,121.0,30.2,0,,,82508.3,12.12,-0.38,0.14,0.16,6.9,27.3,-1.5,34.28,,,,,,,,,,
13.11.08.939,99.6,24.9,0,,,82508.3,12.12,-0.78,0.22,0.15,2.0,12.1,15.5,34.39,,,,,,,,,,
13.11.08.949,40.5,10.1,0,,,82508.3,12.12,-0.77,0.16,-0.36,12.3,35.8,3.3,34.15,,,,,,,,,,
13.11.08.960,35.1,8.8,0,,,82508.3,12.12,-0.53,0.13,0.06,4.6,5.4,-13.6,34.24,,34.3,,,,,,,,
13.11.08.969,-6.2,1.6,0,,,82508.3,12.12,-1.21,0.04,-0.14,8.1,-2.2,4.7,34.15,,,,,,,,,,
13.11.08.980,49.1,12.3,0,,,82508.3,12.12,-0.71,0.36,0.1,18.1,-19.0,24.1,34.34,,,,,,,,,,
13.11.08.990,65.4,16.4,0,,,82508.3,12.12,-0.93,0.01,-0.09,-27.7,1.7,-10.4,34.06,,,,,,,,,,
13.11.09.000,65.5,16.4,0,,,82508.3,12.12,-0.65,-0.21,-0.7,22.2,-0.1,9.6,34.51,,,,,,,,,,
13.11.09.008,40.5,10.1,0,,,82508.3,12.12,-0.68,-0.53,-0.01,-24.1,-1.7,-9.0,34.66,,,,,,,,,,
13.11.09.019,87.8,22.0,0,,,82508.3,12.12,-0.75,0.45,-0.07,41.8,5.2,4.4,34.65,,,,,,,,,,
13.11.09.028,69.7,17.4,0,,,82508.3,12.12,-0.74,-0.37,-0.07,27.9,-8.5,-10.5,34.02,,,,,,,,,,
13.11.09.039,86.1,21.5,0,,,82508.3,12.12,-0.73,0.06,0.2,-14.6,5.8,1.9,33.9,,,,,,,,,,
13.11.09.049,83.6,20.9,0,,,82508.3,12.12,-0.44,-0.04,-0.59,41.8,33.0,-4.8,34.55,,,,,,,,,,
13.11.09.057,57.3,14.3,0,,,82508.3,12.12,-0.76,-0.28,-0.03,1.0,18.8,3.1,34.53,,,,,,,,,,
13.11.09.066,33.7,8.4,0,,,82508.3,12.12,-0.27,0.14,-0.31,5.1,19.9,-17.7,34.59,,,,,,,,,,
13.11.09.076,30.2,7.6,0,,,82508.3,12.12,-0.87,-0.52,-0.68,34.1,-1.7,8.4,33.67,,,,,,,,,,
13.11.09.084,27.7,6.9,0,,,82508.3,12.12,-0.78,-0.18,-0.2,-8.3,21.7,-15.0,34.02,,,,,,,,,,
13.11.09.094,-6.2,1.6,0,,,82508.3,12.12,-0.62,0.09,-0.19,-3.8,-5.6,7.7,34.29,,,,,,,,,,
13.11.09.102,-10.2,2.6,1,13.0,93.9,82508.3,12.12,-0.52,0.22,-0.57,4.8,10.7,-7.6,34.36,,,,,,,,,,
13.11.09.111,-38.2,9.6,0,,,82508.3,12.12,-0.44,-0.51,-0.87,22.7,27.1,3.5,34.15,,,,,,,,,,
13.11.09.119,16.1,4.0,0,,,82508.3,12.12,-0.68,-0.19,-0.12,-20.2,-7.0,-17.5,34.48,,,,,,,,,,
13.11.09.132,-20.9,5.2,0,,,82508.3,12.12,-0.67,0.11,-0.56,-33.6,-7.4,-12.5,34.28,,,,,,,,,,
13.11.09.141,-22.9,5.7,0,,,82508.3,12.12,-0.55,0.18,-0.58,-16.7,1.9,-3.0,34.25,,,,,,,,,,
13.11.09.151,-67.1,16.8,0,,,82508.3,12.12,-0.73,-0.27,-0.48,-5.5,18.3,14.9,34.37,,,,,,,,,,
13.11.09.162,-1.7,0.4,0,,,82508.3,12.12,-0.98,-0.47,-0.67,20.7,-0.8,4.0,34.28,,,,,,,,,,
13.11.09.173,-55.2,13.8,0,,,82508.3,12.12,-0.58,-0.07,-0.78,31.8,6.3,31.6,34.55,,,,,,,,,,
13.11.09.183,-42.0,10.5,0,,,82508.3,12.12,-0.45,-0.41,-0.22,-0.5,-8.4,-9.0,34.55,,,,,,,,,,
13.11.09.193,-42.7,10.7,0,,,82508.3,12.12,-0.69,0.14,-0.39,10.7,11.1,-7.4,34.28,,,,,,,,,,
13.11.09.203,-30.6,7.6,0,,,82508.3,12.12,-0.61,-0.19,-0.15,17.2,7.7,-1.7,34.25,,,,,,,,,,
13.11.09.212,-50.5,12.6,0,,,82508.3,12.12,-0.55,0.11,-0.36,-13.1,-5.9,23.5,34.72,,,,,,,,,,
13.11.09.220,-70.9,17.7,0,,,82508.3,12.12,-0.54,-0.28,-0.22,-8.2,-2.9,13.0,34.39,,,,,,,,,,
13.11.09.229,-97.8,24.4,0,,,82508.3,12.12,-1.23,-0.45,0.13,30.3,10.5,11.5,34.05,,,,,,,,,,
13.11.09.238,-75.4,18.8,0,,,82508.3,12.12,-0.75,0.09,-0.16,21.6,35.4,9.3,34.13,,,,,,,,,,
13.11.09.248,-52.0,13.0,0,,,82508.3,12.12,-0.38,-0.49,-0.07,-4.3,20.7,-18.7,34.1,,,,,,,,,,
13.11.09.257,-73.7,18.4,0,,,82508.3,12.12,-0.93,-0.16,-0.78,20.6,-1.3,-20.6,34.38,,,,,,,,,,
13.11.09.267,-40.2,10.0,0,,,82508.3,12.12,-0.42,-0.35,0.04,-11.4,8.6,0.6,34.72,,,,,,,,,,
13.11.09.276,-63.4,15.8,0,,,82440.2,12.13,-0.9,-0.04,-0.84,4.0,-2.1,-23.1,33.98,,,,,,,,,,
13.11.09.285,-100.0,25.0,0,,,82440.2,12.13,-0.71,0.31,-0.61,16.9,4.2,29.9,34.32,,,,,,,,,,
13.11.09.295,-101.6,25.4,0,,,82440.2,12.13,-0.69,-0.68,-0.19,-5.2,1.7,-5.0,34.36,,,,,,,,,,
13.11.09.305,-86.7,21.7,0,,,82440.2,12.13,-0.88,-0.3,-0.52,-7.6,22.1,2.3,34.3,,,,,,,,,,
13.11.09.316,-105.6,26.4,0,,,82440.2,12.13,-0.64,-0.52,-0.4,-2.5,13.5,5.1,34.29,,,,,,,,,,
13.11.09.326,-95.6,23.9,0,,,82440.2,12.13,-0.95,-0.24,-0.07,6.5,-4.1,-10.2,34.4,,,,,,,,,,
13.11.09.337,-119.2,29.8,0,,,82440.2,12.13,-1.01,0.28,0.17,-44.0,24.1,14.6,34.22,,,,,,,,,,
13.11.09.345,-93.8,23.4,0,,,82440.2,12.13,-0.75,-0.09,-0.46,-27.7,-7.2,5.9,34.56,,,,,,,,,,
13.11.09.354,-126.5,31.6,0,,,82440.2,12.13,-1.08,-0.36,-0.73,32.2,15.5,-6.2,34.21,,,,,,,,,,
13.11.09.366,-112.8,28.2,0,,,82440.2,12.13,-0.66,-0.01,0.28,24.1,38.1,-6.3,34.54,,,,,,,,,,
13.11.09.376,-153.3,38.3,0,,,82440.2,12.13,-0.68,0.12,-0.49,28.6,-16.2,10.2,34.21,,,,,,,,,,
13.11.09.385,-145.3,36.3,0,,,82440.2,12.13,-0.81,0.48,0.11,16.6,25.2,-14.9,33.77,,,,,,,,,,
13.11.09.396,-158.4,39.6,0,,,82440.2,12.13,-1.01,-0.04,-0.05,-5.1,50.8,-7.0,34.56,,,,,,,,,,
13.11.09.406,-133.1,33.3,0,,,82440.2,12.13,-1.12,-0.17,-0.05,-11.4,-11.7,-19.1,34.22,,,,,,,,,,
13.11.09.415,-185.6,46.4,0,,,82440.2,12.13,-0.96,0.05,0.3,-21.9,-26.2,2.3,34.49,,,,,,,,,,
13.11.09.425,31.0,7.8,0,,,82440.2,12.13,-0.9,-0.15,0.03,-36.2,10.4,10.6,33.86,,,,,,,,,,
13.11.09.434,75.6,18.9,0,,,82440.2,12.13,-0.61,0.26,0.26,12.9,21.0,-11.0,34.35,,,,,,,,,,
13.11.09.444,125.6,31.4,0,,,82440.2,12.13,-0.48,0.19,0.28,-32.3,-8.4,9.2,34.02,,,,,,,,,,
13.11.09.454,166.1,41.5,0,,,82440.2,12.13,-1.09,0.43,-0.34,21.9,-0.0,-6.7,34.05,,,,,,,,,,
13.11.09.465,206.2,51.6,0,,,82440.2,12.13,-0.91,-0.37,-0.08,15.6,15.9,-12.8,34.51,,,,,,,,,,
13.11.09.476,251.0,62.8,0,,,82440.2,12.13,-0.74,0.16,-0.4,-11.2,0.1,11.3,34.61,,,,,,,,,,
13.11.09.486,342.7,85.7,0,,,82440.2,12.13,-0.73,-0.02,0.17,-11.4,-15.9,-6.0,34.22,,,,,,,,,,
13.11.09.496,349.7,87.4,0,,,82440.2,12.13,-1.27,0.16,-0.6,-17.9,19.7,-17.5,34.36,,,,,,,,,,
13.11.09.505,335.9,84.0,0,,,82440.2,12.13,-0.92,-0.47,-0.42,0.9,3.9,8.4,34.37,,,,,,,,,,
13.11.09.515,401.0,100.2,0,,,82440.2,12.13,-0.96,0.25,0.33,7.8,6.9,8.2,34.72,,,,,,,,,,
13.11.09.524,397.7,99.4,0,,,82440.2,12.13,-0.82,0.0,-0.86,14.8,19.0,5.9,34.76,,,,,,,,,,
13.11.09.534,406.1,101.5,0,,,82440.2,12.13,-0.72,0.04,-0.26,-25.0,27.1,-34.1,34.7,,,,,,,,,,
13.11.09.543,465.4,116.4,0,,,82440.2,12.13,-0.62,0.08,-0.45,-45.0,-8.8,5.6,34.49,,,,,,,,,,
13.11.09.553,455.3,113.8,0,,,82440.2,12.13,-0.94,-0.33,-0.65,28.2,-3.2,12.0,34.49,,,,,,,,,,
13.11.09.562,408.0,102.0,0,,,82440.2,12.13,-0.9,-0.3,-0.7,-15.3,13.1,1.8,33.84,,,,,,,,,,
13.11.09.575,367.8,92.0,0,,,82440.2,12.13,-0.56,-0.1,-0.48,5.2,1.0,-2.5,34.48,,,,,,,,,,
13.11.09.584,334.8,83.7,0,,,82440.2,12.13,-0.87,0.58,-0.28,-19.1,8.5,-12.4,33.89,,,,,,,,,,
13.11.09.597,365.3,91.3,0,,,82440.2,12.13,-0.91,0.39,-0.27,0.2,9.7,29.8,34.36,,,,,,,,,,
13.11.09.607,323.2,80.8,0,,,82440.2,12.13,-0.86,0.15,-1.01,19.8,25.2,-31.0,34.37,,,,,,,,,,
13.11.09.619,233.5,58.4,0,,,82440.2,12.13,-1.2,-0.13,-0.51,6.6,20.0,5.7,34.42,,,,,,,,,,
13.11.09.627,217.6,54.4,0,,,82440.2,12.13,-0.76,0.13,-0.47,-2.1,3.1,-27.7,34.1,,,,,,,,,,
13.11.09.638,185.9,46.5,0,,,82440.2,12.13,-0.92,0.25,-0.62,-40.0,26.5,0.2,34.13,,,,,,,,,,
13.11.09.648,147.6,36.9,0,,,82440.2,12.13,-0.78,-0.19,0.11,-63.0,4.7,-10.7,33.99,,,,,,,,,,
13.11.09.658,62.3,15.6,0,,,82440.2,12.13,-1.03,0.17,-0.95,-7.1,17.4,1.5,33.82,,,,,,,,,,
13.11.09.669,-14.9,3.7,0,,,82440.2,12.13,-0.89,0.58,-0.87,13.3,7.1,1.9,34.15,,,,,,,,,,
13.11.09.678,-14.3,3.6,0,,,82440.2,12.13,-0.66,0.53,-0.4,-6.3,-2.3,7.3,34.5,,,,,,,,,,
13.11.09.687,15.4,3.8,0,,,82440.2,12.13,-0.57,0.21,-0.4,-12.4,10.3,15.2,34.58,,,,,,,,,,
13.11.09.696,43.6,10.9,0,,,82372.3,12.14,-0.71,0.08,-0.51,7.3,19.3,-15.2,34.52,,,,,,,,,,
13.11.09.707,63.8,16.0,0,,,82372.3,12.14,-0.67,0.19,-0.4,8.5,-1.9,-5.8,33.94,,,,,,,,,,
13.11.09.720,80.6,20.2,0,,,82372.3,12.14,-0.67,-0.25,-0.16,17.1,-1.1,-2.1,34.08,,,,,,,,,,
13.11.09.730,46.3,11.6,0,,,82372.3,12.14,-1.24,0.9,0.1,-41.4,8.7,-2.8,34.52,,,,,,,,,,
13.11.09.740,89.7,22.4,0,,,82372.3,12.14,-0.89,-0.23,-0.14,-13.7,25.9,-9.1,34.68,,,,,,,,,,
13.11.09.752,76.0,19.0,0,,,82372.3,12.14,-0.68,0.44,-0.07,-24.2,24.7,-9.8,34.3,,,,,,,,,,
13.11.09.760,90.1,22.5,0,,,82372.3,12.14,-0.8,-0.06,-0.19,-10.9,13.0,6.5,34.21,,,,,,,,,,
13.11.09.769,39.6,9.9,0,,,82372.3,12.14,-0.66,0.23,-0.11,-5.3,13.7,3.9,34.56,,,,,,,,,,
13.11.09.777,65.7,16.4,0,,,82372.3,12.14,-0.6,0.42,-0.28,5.9,-7.5,9.7,33.95,,,,,,,,,,
13.11.09.788,29.7,7.4,0,,,82372.3,12.14,-0.76,0.39,0.17,40.1,-0.9,-17.1,34.09,,,,,,,,,,
13.11.09.798,15.8,4.0,0,,,82372.3,12.14,-0.83,0.22,-0.38,4.7,-27.2,-13.9,34.45,,,,,,,,,,
13.11.09.807,4.6,1.2,1,14.0,85.1,82372.3,12.14,-0.92,0.46,-0.12,-32.0,2.8,-2.8,34.33,,,,,,,,,,
13.11.09.815,9.7,2.4,0,,,82372.3,12.14,-0.57,-0.1,0.08,21.0,-4.7,6.5,34.66,,,,,,,,,,
13.11.09.825,-37.3,9.3,0,,,82372.3,12.14,-0.82,0.04,-0.37,20.1,-13.0,-22.0,34.27,,,,,,,,,,
13.11.09.835,11.2,2.8,0,,,82372.3,12.14,-0.82,0.41,-0.07,-15.1,-2.1,-15.6,34.45,,,,,,,,,,
13.11.09.845,16.2,4.0,0,,,82372.3,12.14,-0.93,0.31,0.16,15.9,10.4,-0.6,34.02,,,,,,,,,,
13.11.09.856,-15.6,3.9,0,,,82372.3,12.14,-0.53,-0.04,-0.09,-24.8,-26.3,-4.9,33.9,,,,,,,,,,
13.11.09.867,-37.5,9.4,0,,,82372.3,12.14,-0.78,0.3,0.27,-13.7,-17.1,-11.4,33.98,,,,,,,,,,
13.11.09.876,-40.1,10.0,0,,,82372.3,12.14,-0.77,0.22,-0.14,4.2,10.5,15.3,34.36,,,,,,,,,,
13.11.09.887,-31.6,7.9,0,,,82372.3,12.14,-0.63,0.61,-0.53,5.9,11.8,-4.0,33.7,,,,,,,,,,
13.11.09.898,-16.7,4.2,0,,,82372.3,12.14,-0.69,0.28,-0.47,3.0,-20.3,-12.6,34.02,,,,,,,,,,
13.11.09.908,-36.6,9.2,0,,,82372.3,12.14,-0.98,0.01,0.41,14.8,-2.5,-19.2,34.44,,,,,,,,,,
13.11.09.918,-69.4,17.4,0,,,82372.3,12.14,-0.61,0.11,-0.11,-6.8,5.1,0.5,34.23,,,,,,,,,,
13.11.09.927,-80.2,20.0,0,,,82372.3,12.14,-0.75,0.1,-0.16,12.1,-8.7,0.3,35.02,,,,,,,,,,
13.11.09.936,-38.3,9.6,0,,,82372.3,12.14,-0.54,0.16,0.23,10.5,-5.1,8.8,34.99,,,,,,,,,,
13.11.09.945,-63.3,15.8,0,,,82372.3,12.14,-0.6,-0.42,-0.12,1.5,-10.4,4.0,34.36,,,,,,,,,,
13.11.09.957,-61.6,15.4,0,,,82372.3,12.14,-0.44,0.4,-0.36,26.7,7.8,5.5,34.44,,,,,,,,,,
13.11.09.967,-88.3,22.1,0,,,82372.3,12.14,-0.82,0.16,-0.22,12.9,11.0,-3.6,34.1,,,,,,,,,,
13.11.09.977,-101.4,25.4,0,,,82372.3,12.14,-0.48,0.28,-0.83,39.1,-30.0,-4.3,34.29,,,,,,,,,,
13.11.09.986,-103.5,25.9,0,,,82372.3,12.14,-0.81,0.15,-0.17,5.5,7.4,27.0,34.2,,,,,,,,,,
13.11.09.997,-91.7,22.9,0,,,82372.3,12.14,-1.06,0.31,-0.01,30.3,18.0,4.6,34.45,,,,,,,,,,
13.11.10.006,-135.9,34.0,0,,,82372.3,12.14,-0.72,-0.3,-0.48,29.5,-4.3,-3.8,34.4,81.4,,,,,,,,,
13.11.10.015,-99.0,24.8,0,,,82372.3,12.14,-1.01,-0.14,-0.48,36.3,18.4,-29.3,34.26,,,,,,,,,,
13.11.10.024,-97.2,24.3,0,,,82372.3,12.14,-0.52,-0.14,-0.36,22.3,11.3,-16.9,33.89,,,,,,,,,,
13.11.10.032,-85.4,21.4,0,,,82372.3,12.14,-0.97,0.26,0.03,2.9,2.9,17.2,34.34,,,,,,,,,,
13.11.10.044,-118.6,29.6,0,,,82372.3,12.14,-0.69,-0.3,0.0,-38.3,38.8,-10.6,34.35,,,,,,,,,,
13.11.10.052,-127.6,31.9,0,,,82372.3,12.14,-0.38,0.05,-0.42,-7.1,2.8,23.1,34.44,,,,,,,,,,
13.11.10.061,-86.2,21.6,0,,,82372.3,12.14,-0.69,-0.01,-0.33,7.8,35.6,-12.2,34.54,,,,,,,,,,
13.11.10.068,-151.3,37.8,0,,,82372.3,12.14,-0.65,-0.5,-0.36,32.8,6.7,10.3,34.19,,,,,,,,,,
13.11.10.079,-118.4,29.6,0,,,82372.3,12.14,-0.44,-0.04,-1.21,-15.8,26.3,3.2,34.61,,,,,,,,,,
13.11.10.086,-152.1,38.0,0,,,82372.3,12.14,-0.23,-0.62,-0.85,3.0,16.6,-12.2,34.61,,,,,,,,,,
13.11.10.096,-111.2,27.8,0,,,82372.3,12.14,-0.84,-0.15,-0.49,3.1,7.3,4.6,33.6,,,,,,,,,,
13.11.10.108,-137.1,34.3,0,,,82372.3,12.14,-0.35,-0.32,-0.13,39.2,25.5,-16.4,34.53,,,,,,,,,,
13.11.10.116,-131.6,32.9,0,,,82372.3,12.14,-1.12,-0.3,-0.43,-5.6,29.3,-2.7,34.48,,,,,,,,,,
13.11.10.128,-176.0,44.0,0,,,82372.3,12.14,-0.5,-0.07,-0.48,-9.7,9.3,2.6,34.61,,,,,,,,,,
13.11.10.139,-181.5,45.4,0,,,82372.3,12.14,-0.88,-0.24,-0.19,5.3,-3.9,-16.3,34.27,,,,,,,,,,
13.11.10.150,106.8,26.7,0,,,82372.3,12.14,-0.67,-0.35,-0.55,-22.2,-5.8,18.5,34.42,,,,,,,,,,
13.11.10.156,60.8,15.2,0,,,82372.3,12.14,-0.59,-0.23,-0.6,16.3,12.7,-6.6,34.19,,,,,,,,,,
13.11.10.166,163.2,40.8,0,,,82372.3,12.14,-0.91,-0.22,-0.62,-8.6,-19.3,-1.5,34.48,,,,,,,,,,
13.11.10.177,180.9,45.2,0,,,82372.3,12.14,-1.2,-0.06,-0.51,67.0,38.7,-22.9,34.15,,,,,,,,,,
13.11.10.186,244.6,61.2,0,,,82372.3,12.14,-0.83,0.03,-0.15,-21.9,5.8,-8.4,34.32,,,,,,,,,,
13.11.10.198,260.2,65.0,0,,,82372.3,12.14,-0.87,-0.24,-0.17,-27.4,3.1,-4.7,34.62,,,,,,,,,,
13.11.10.206,327.5,81.9,0,,,82372.3,12.14,-0.86,-0.73,-0.18,18.3,-7.3,-25.9,34.46,,,,,,,,,,
13.11.10.217,336.2,84.0,0,,,82372.3,12.14,-0.91,0.06,0.2,-2.5,8.9,24.7,34.29,,,,,,,,,,
13.11.10.226,399.5,99.9,0,,,82372.3,12.14,-0.43,-0.24,-0.63,0.1,30.4,-15.8,34.21,,,,,,,,,,
13.11.10.233,399.7,99.9,0,,,82372.3,12.14,-0.78,-0.74,-0.08,-12.1,11.1,9.1,34.62,,,,,,,,,,
13.11.10.241,433.0,108.2,0,,,82372.3,12.14,-0.82,-0.72,-0.15,43.6,1.4,7.7,34.05,,,,,,,,,,
13.11.10.254,366.9,91.7,0,,,82372.3,12.14,-0.99,-0.32,0.37,14.5,21.7,-16.4,34.51,,,,,,,,,,
13.11.10.264,373.2,93.3,0,,,82372.3,12.14,-1.02,-0.36,-0.16,7.1,3.0,-3.8,34.65,,,,,,,,,,
13.11.10.274,426.2,106.6,0,,,82372.3,12.14,-1.09,-0.29,-0.28,9.2,-7.1,-40.3,33.93,,,,,,,,,,
13.11.10.283,364.0,91.0,0,,,82372.3,12.14,-1.04,-0.4,-0.14,-33.4,43.2,-15.0,34.41,,,,,,,,,,
13.11.10.292,388.1,97.0,0,,,82372.3,12.14,-0.84,-0.37,-0.34,24.3,5.6,-35.9,34.01,,,,,,,,,,
13.11.10.301,357.9,89.5,0,,,82372.3,12.14,-0.85,0.04,-0.37,38.3,21.0,1.9,34.12,,,,,,,,,,
13.11.10.312,320.3,80.1,0,,,82372.3,12.14,-1.35,-0.29,-0.13,-2.5,-14.3,-2.6,34.16,,,,,,,,,,
13.11.10.321,329.8,82.4,0,,,82372.3,12.14,-0.57,-0.64,0.06,17.1,22.4,-36.6,33.85,,,,,,,,,,
13.11.10.329,273.5,68.4,0,,,82372.3,12.14,-0.79,0.4,-0.08,-37.7,0.8,-7.2,34.9,,,,,,,,,,
13.11.10.339,242.6,60.6,0,,,82372.3,12.14,-0.87,-0.32,-0.03,-8.3,9.7,5.1,34.53,,,,,,,,,,
13.11.10.347,201.0,50.2,0,,,82304.5,12.15,-0.79,-0.19,0.03,-53.5,28.4,2.3,34.03,,,,,,,,,,
13.11.10.355,181.2,45.3,0,,,82304.5,12.15,-0.68,-0.31,-0.35,25.9,-16.8,-20.2,34.44,,,,,,,,,,
13.11.10.364,109.2,27.3,0,,,82304.5,12.15,-0.73,-0.2,-0.23,-5.2,1.9,-0.9,34.34,,,,,,,,,,
13.11.10.373,,,0,,,,,,,,,,,,,,,,,,,,,
13.11.10.381,65.0,16.2,0,,,82304.5,12.15,-0.97,-0.02,-0.28,-15.9,32.0,-10.6,34.39,,,,,,,,,,
13.11.10.391,9.6,2.4,0,,,82304.5,12.15,-0.9,0.14,-0.17,3.9,-30.7,-6.4,34.19,,,,,,,,,,
13.11.10.404,37.5,9.4,0,,,82304.5,12.15,-0.84,0.39,-0.29,16.0,5.4,25.9,33.88,,,,,,,,,,
13.11.10.414,32.0,8.0,0,,,82304.5,12.15,-0.47,0.08,-0.26,-3.9,11.3,2.6,34.04,,,,,,,,,,
13.11.10.423,52.5,13.1,0,,,82304.5,12.15,-0.76,0.39,-0.75,29.3,-8.4,21.4,34.56,,,,,,,,,,
13.11.10.433,28.3,7.1,0,,,82304.5,12.15,-1.21,-0.22,-0.32,13.3,10.1,0.8,34.35,,,,,,,,,,
13.11.10.443,73.5,18.4,0,,,82304.5,12.15,-0.8,0.28,0.13,-22.2,6.5,-3.3,34.07,,,,,,,,,,
13.11.10.452,62.9,15.7,0,,,82304.5,12.15,-0.89,-0.12,-0.74,-14.1,-7.8,-1.4,34.07,,,,,,,,,,
13.11.10.461,88.1,22.0,0,,,82304.5,12.15,-0.42,0.17,-0.46,-6.1,21.3,5.7,34.69,,,,,,,,,,
13.11.10.469,63.6,15.9,1,15.0,90.6,82304.5,12.15,-0.85,-0.24,-0.66,6.8,7.2,-32.8,33.88,,,,,,,,,,
13.11.10.477,53.1,13.3,0,,,82304.5,12.15,-0.67,-0.22,-0.22,-18.8,-13.9,-7.1,34.46,,,,,,,,,,
13.11.10.489,87.1,21.8,0,,,82304.5,12.15,-1.09,-0.07,0.03,-28.2,0.9,-20.2,34.36,,,,,,,,,,
13.11.10.500,57.0,14.2,0,,,82304.5,12.15,-0.83,-0.23,-0.55,5.0,-9.5,-9.9,34.12,,,,,,,,,,
13.11.10.511,30.5,7.6,0,,,82304.5,12.15,-0.84,-0.27,-0.27,11.0,16.1,-6.3,34.53,,,,,,,,,,
13.11.10.521,18.2,4.6,0,,,82304.5,12.15,-0.5,0.34,-0.52,-32.9,-19.1,-14.9,34.81,,,,,,,,,,
13.11.10.531,4.1,1.0,0,,,82304.5,12.15,-0.49,-0.08,-0.21,70.5,27.0,-18.4,34.15,,,,,,,,,,
13.11.10.543,31.8,8.0,0,,,82304.5,12.15,-0.87,0.14,-0.08,-42.5,38.9,-18.5,34.4,,,,,,,,,,
13.11.10.552,-11.7,2.9,0,,,82304.5,12.15,-0.53,0.47,-0.7,-17.2,42.1,26.0,34.81,,,,,,,,,,
13.11.10.564,-23.0,5.8,0,,,82304.5,12.15,-0.78,-0.16,-0.45,-5.1,-0.6,-6.2,34.11,,,,,,,,,,
13.11.10.574,-0.6,0.2,0,,,82304.5,12.15,-0.74,-0.25,-0.15,10.0,3.8,-3.8,34.31,,,,,,,,,,
13.11.10.584,-24.7,6.2,0,,,82304.5,12.15,-0.77,0.29,-0.29,-5.3,28.4,7.6,34.6,,,,,,,,,,
13.11.10.593,-26.0,6.5,0,,,82304.5,12.15,-0.28,0.38,-0.94,-7.6,-16.2,-24.8,34.62,,,,,,,,,,
13.11.10.604,,,0,,,,,,,,,,,,,,,,,,,,,
13.11.10.615,-30.5,7.6,0,,,82304.5,12.15,-0.59,0.27,-0.46,9.1,18.0,-6.0,34.34,,,,,,,,,,
13.11.10.624,-36.2,9.0,0,,,82304.5,12.15,-0.56,-0.26,-0.3,-10.2,15.9,1.8,34.38,,,,,,,,,,
13.11.10.635,-45.3,11.3,0,,,82304.5,12.15,-0.69,0.15,0.3,-24.5,13.6,-6.8,34.69,,,,,,,,,,
13.11.10.645,-74.6,18.6,0,,,82304.5,12.15,-0.51,0.34,-0.64,3.0,42.5,-25.9,34.5,,,,,,,,,,
13.11.10.653,-66.8,16.7,0,,,82304.5,12.15,-0.73,0.07,0.05,30.9,-2.4,-7.4,34.14,,,,,,,,,,
13.11.10.663,-64.4,16.1,0,,,82304.5,12.15,-0.62,0.14,-0.15,-16.6,-0.9,1.0,34.24,,,,,,,,,,
13.11.10.673,-68.9,17.2,0,,,82304.5,12.15,-0.48,0.07,-0.26,6.3,-3.5,12.5,34.07,,,,,,,,,,
13.11.10.682,-49.1,12.3,0,,,82304.5,12.15,-0.55,0.2,-0.05,-2.5,-14.0,-12.6,34.4,,,,,,,,,,
13.11.10.690,-84.3,21.1,0,,,82304.5,12.15,-0.82,0.35,-0.16,3.4,-29.3,-25.4,34.83,,,,,,,,,,
13.11.10.701,-99.6,24.9,0,,,82304.5,12.15,-0.9,0.71,-0.45,33.9,-3.5,7.9,33.87,,,,,,,,,,
13.11.10.710,-83.2,20.8,0,,,82304.5,12.15,-0.85,-0.05,-0.52,22.9,10.7,7.4,34.33,,,,,,,,,,
13.11.10.719,-74.5,18.6,0,,,82304.5,12.15,-0.53,0.24,0.17,-24.2,-1.3,-25.5,34.41,,,,,,,,,,
13.11.10.729,-120.4,30.1,0,,,82304.5,12.15,-0.68,-0.01,0.01,17.7,33.7,9.6,34.57,,,,,,,,,,
13.11.10.738,-72.4,18.1,0,,,82304.5,12.15,-0.5,0.55,0.08,26.6,4.9,6.6,34.08,,,,,,,,,,
13.11.10.747,-123.6,30.9,0,,,82304.5,12.15,-0.68,-0.13,0.03,6.0,10.8,9.3,34.12,,,,,,,,,,
13.11.10.758,-100.6,25.2,0,,,82304.5,12.15,-0.6,0.36,-0.76,-4.8,7.3,13.7,34.29,,,,,,,,,,
13.11.10.768,-95.2,23.8,0,,,82304.5,12.15,-0.72,-1.05,0.07,-0.4,-16.7,-8.1,34.39,,,,,,,,,,
13.11.10.780,-148.2,37.0,0,,,82304.5,12.15,-0.73,-0.01,0.08,-33.4,40.3,8.3,34.48,,,,,,,,,,
13.11.10.790,-121.5,30.4,0,,,82304.5,12.15,-0.53,0.5,-0.39,15.9,-12.8,-4.6,34.54,,,,,,,,,,
13.11.10.799,-138.7,34.7,0,,,82304.5,12.15,-0.35,0.11,0.01,8.6,14.1,-11.9,34.38,,,,,,,,,,
13.11.10.810,-140.5,35.1,0,,,82304.5,12.15,-0.49,0.42,0.16,-25.6,4.9,6.3,34.6,,,,,,,,,,
13.11.10.821,-152.9,38.2,0,,,82304.5,12.15,-0.66,0.09,-0.1,4.5,29.8,-15.9,34.63,,,,,,,,,,
13.11.10.830,-150.1,37.5,0,,,82304.5,12.15,-0.74,0.4,-0.43,45.8,18.9,-4.1,34.09,,,,,,,,,,
13.11.10.841,-154.6,38.6,0,,,82304.5,12.15,-0.84,-0.28,-0.49,-9.6,9.8,-1.7,34.29,,,,,,,,,,
13.11.10.849,-163.3,40.8,0,,,82304.5,12.15,-0.74,0.2,-0.69,36.9,21.6,18.1,34.39,,,,,,,,,,
13.11.10.859,14.2,3.6,0,,,82304.5,12.15,-0.96,0.14,-0.29,4.5,20.9,3.6,34.44,,,,,,,,,,
13.11.10.870,51.7,12.9,0,,,82304.5,12.15,-0.7,0.38,-0.29,39.2,-3.5,-6.1,34.15,,,,,,,,,,
13.11.10.878,134.4,33.6,0,,,82304.5,12.15,-0.54,-0.17,0.21,21.8,8.2,-11.2,33.97,,,,,,,,,,
13.11.10.887,137.2,34.3,0,,,82304.5,12.15,-0.83,0.14,-0.01,-32.0,18.3,-10.4,34.72,,,,,,,,,,
13.11.10.897,183.5,45.9,0,,,82304.5,12.15,-0.3,0.13,-0.02,-3.6,10.2,5.1,34.35,,,,,,,,,,
13.11.10.907,264.4,66.1,0,,,82304.5,12.15,-0.76,-0.08,-0.68,-3.3,17.3,15.0,34.6,,,,,,,,,,
13.11.10.917,257.3,64.3,0,,,82304.5,12.15,-0.76,-0.35,-0.23,29.0,13.7,-6.8,34.49,,,,,,,,,,
13.11.10.926,267.5,66.9,0,,,82304.5,12.15,-0.45,-0.24,-0.17,3.9,18.2,7.8,33.92,,,,,,,,,,
13.11.10.934,364.2,91.0,0,,,82304.5,12.15,-0.62,-0.29,0.04,-19.9,-1.0,7.5,34.36,,,,,,,,,,
13.11.10.944,423.2,105.8,0,,,82304.5,12.15,-0.54,-0.02,-0.2,1.7,1.9,16.7,34.23,,,,,,,,,,
13.11.10.954,396.0,99.0,0,,,82304.5,12.15,-0.98,0.15,-0.45,36.6,0.7,7.9,34.56,,,,,,,,,,
13.11.10.961,402.0,100.5,0,,,82304.5,12.15,-0.6,-0.03,-0.51,2.1,26.8,5.5,34.41,,,,,,,,,,
13.11.10.970,380.2,95.0,0,,,82304.5,12.15,-0.6,0.03,-0.18,-59.5,-16.0,-2.4,34.21,,,,,,,,,,
13.11.10.979,394.6,98.6,0,,,82304.5,12.15,-0.52,-0.12,-0.68,-18.4,-8.0,-1.8,34.4,,,,,,,,,,
13.11.10.988,420.7,105.2,0,,,82304.5,12.15,-0.7,-0.04,-0.59,9.4,20.6,1.7,34.35,,,,,,,,,,
13.11.10.997,398.5,99.6,0,,,82304.5,12.15,-0.5,0.17,-0.36,33.0,10.2,-0.1,34.2,,,,,,,,,,
13.11.11.008,339.7,84.9,0,,,82304.5,12.15,-0.78,-0.11,-0.07,6.7,19.3,-14.9,33.94,,,,,,,,,,
13.11.11.016,307.6,76.9,0,,,82304.5,12.15,-0.73,-0.22,-0.32,11.8,16.1,-11.2,34.46,,,,,,,,,,
13.11.11.027,354.4,88.6,0,,,82304.5,12.15,-0.44,0.06,-0.05,15.1,17.9,2.2,34.08,,,,,,,,,,
13.11.11.037,306.5,76.6,0,,,82304.5,12.15,-0.76,-0.03,0.25,-7.3,9.6,-19.9,34.7,,,,,,,,,,
13.11.11.047,290.8,72.7,0,,,82304.5,12.15,-0.77,-0.83,-0.49,2.6,-23.1,-19.0,34.06,,,,,,,,,,
13.11.11.058,240.0,60.0,0,,,82304.5,12.15,-1.14,0.23,-0.71,-21.9,2.9,9.0,34.28,,,,,,,,,,
13.11.11.068,193.5,48.4,0,,,82304.5,12.15,-1.12,0.08,-0.52,-39.0,19.2,29.1,34.34,,,,,,,,,,
13.11.11.076,139.5,34.9,0,,,82304.5,12.15,-0.8,-0.35,-0.45,7.5,11.2,3.4,34.22,,,,,,,,,,
13.11.11.086,106.0,26.5,0,,,82304.5,12.15,-0.69,-0.09,-0.65,-33.7,29.3,-1.6,34.48,,,,,,,,,,
13.11.11.095,53.4,13.4,0,,,82304.5,12.15,-0.63,-0.14,0.07,-2.5,22.9,-13.5,34.09,,,,,,,,,,
13.11.11.105,-15.2,3.8,0,,,82304.5,12.15,-0.95,-0.29,-0.42,-13.9,17.9,-12.7,34.1,,,,,,,,,,
13.11.11.113,5.7,1.4,0,,,82304.5,12.15,-0.71,-0.22,-0.29,11.0,28.2,4.6,33.54,,,,,,,,,,
13.11.11.124,7.2,1.8,0,,,82304.5,12.15,-1.13,-0.37,-0.49,13.7,26.3,12.2,34.44,,,,,,,,,,
13.11.11.134,15.4,3.8,0,,,82304.5,12.15,-0.41,-0.06,-0.13,32.5,35.4,21.7,34.19,,,,,,,,,,
13.11.11.143,40.6,10.2,0,,,82304.5,12.15,-0.81,-0.2,-0.15,19.3,-0.1,8.6,34.33,,,,,,,,,,
13.11.11.153,57.0,14.2,0,,,82304.5,12.15,-0.81,-0.9,-0.59,10.1,1.1,12.5,34.27,,,,,,,,,,
13.11.11.164,70.6,17.6,0,,,82304.5,12.15,-0.72,-0.28,-0.46,12.2,20.0,-3.8,34.52,,,,,,,,,,
13.11.11.174,53.8,13.4,0,,,82304.5,12.15,-0.83,0.11,0.07,-16.1,1.9,12.5,33.85,,,,,,,,,,
13.11.11.183,86.1,21.5,0,,,82304.5,12.15,-0.87,-0.2,-0.13,42.1,7.1,-19.5,34.37,,,,,,,,,,
13.11.11.191,75.8,19.0,0,,,82304.5,12.15,-0.83,-0.61,-0.43,-6.7,-10.6,11.2,34.14,,,,,,,,,,
13.11.11.198,36.6,9.2,1,16.0,82.3,82304.5,12.15,-1.0,-0.01,-0.67,-12.3,13.2,33.4,33.92,,,,,,,,,,
13.11.11.207,72.5,18.1,0,,,82304.5,12.15,-0.76,-0.14,0.4,-19.2,1.3,-5.3,34.54,,,,,,,,,,
13.11.11.218,10.7,2.7,0,,,82304.5,12.15,-0.49,0.38,-0.01,-14.3,38.1,8.5,33.98,,,,,,,,,,
13.11.11.226,35.9,9.0,0,,,82304.5,12.15,-0.78,0.3,0.11,25.6,-10.3,-12.5,34.53,,,,,,,,,,
13.11.11.236,20.8,5.2,0,,,82304.5,12.15,-0.94,0.11,-0.73,21.9,6.1,3.8,34.02,,,,,,,,,,
13.11.11.245,9.9,2.5,0,,,82304.5,12.15,-0.45,0.18,-0.53,30.0,11.7,10.0,34.56,,,,,,,,,,
13.11.11.254,-19.2,4.8,0,,,82304.5,12.15,-1.08,-0.34,-0.4,22.5,25.8,-3.0,33.92,,,,,,,,,,
13.11.11.264,3.3,0.8,0,,,82304.5,12.15,-0.44,-0.54,-0.18,-5.4,-0.2,39.7,34.03,,,,,,,,,,
13.11.11.273,-3.0,0.8,0,,,82304.5,12.15,-0.9,-0.15,-0.05,-7.5,9.9,-7.8,33.95,,,,,,,,,,
13.11.11.283,-18.4,4.6,0,,,82304.5,12.15,-0.67,0.5,-0.37,18.3,4.9,4.9,34.2,,,,,,,,,,
13.11.11.291,-50.0,12.5,0,,,82304.5,12.15,-0.8,-0.17,-0.54,4.4,10.5,-7.3,34.0,,,,,,,,,,
13.11.11.300,-26.6,6.6,0,,,82304.5,12.15,-1.01,0.07,-0.16,26.7,1.1,-26.3,34.4,,,,,,,,,,
13.11.11.309,-31.2,7.8,0,,,82304.5,12.15,-0.83,-0.25,-0.39,23.1,0.0,3.9,33.74,,,,,,,,,,
13.11.11.320,-2.4,0.6,0,,,82304.5,12.15,-0.91,-0.02,-0.65,19.8,2.9,-0.5,34.13,,,,,,,,,,
13.11.11.331,-25.2,6.3,0,,,82304.5,12.15,-0.89,-0.3,-0.27,-19.6,-12.5,8.4,34.36,,,,,,,,,,
13.11.11.342,-67.2,16.8,0,,,82304.5,12.15,-0.97,0.47,-0.38,4.3,3.7,4.8,34.23,,,,,,,,,,
13.11.11.352,-51.3,12.8,0,,,82304.5,12.15,-0.79,0.19,-0.56,14.1,-6.2,-5.9,34.29,,,,,,,,,,
13.11.11.363,-88.5,22.1,0,,,82304.5,12.15,-0.82,-0.25,-0.42,-2.2,-0.8,-1.2,34.09,,,,,,,,,,
13.11.11.370,-24.7,6.2,0,,,82304.5,12.15,-1.21,0.53,-0.29,23.6,-2.8,-4.1,34.11,,,,,,,,,,
13.11.11.380,-81.3,20.3,0,,,82304.5,12.15,-0.83,0.21,-0.7,3.0,25.6,15.8,34.94,,,,,,,,,,
13.11.11.390,-65.0,16.2,0,,,82304.5,12.15,-0.86,0.35,-1.07,-2.9,-5.2,16.2,34.12,,,,,,,,,,
13.11.11.399,-93.4,23.4,0,,,82304.5,12.15,-0.8,0.4,-0.23,3.7,2.8,1.6,34.4,,,,,,,,,,
13.11.11.409,-97.5,24.4,0,,,82304.5,12.15,-0.68,0.04,-0.29,14.4,27.4,-18.3,34.5,,,,,,,,,,
13.11.11.418,-115.4,28.8,0,,,82304.5,12.15,-0.51,-0.05,-0.21,-2.6,15.4,-12.2,34.44,,,,,,,,,,
13.11.11.428,-110.0,27.5,0,,,82304.5,12.15,-0.59,-0.09,-0.36,35.3,8.0,-6.6,34.39,,,,,,,,,,
13.11.11.438,-113.7,28.4,0,,,82304.5,12.15,-0.66,0.63,-0.43,13.0,-4.8,-14.3,34.08,,,,,,,,,,
13.11.11.448,-70.5,17.6,0,,,82304.5,12.15,-0.74,0.48,-0.12,24.2,8.9,-0.7,34.24,,,,,,,,,,
13.11.11.459,-90.1,22.5,0,,,82304.5,12.15,-0.54,0.35,-0.39,-11.6,23.1,-5.9,33.74,,,,,,,,,,
13.11.11.470,-103.8,26.0,0,,,82304.5,12.15,-1.09,0.36,-0.32,-30.0,27.6,0.3,34.59,,,,,,,,,,
13.11.11.480,-130.4,32.6,0,,,82304.5,12.15,-0.67,-0.03,-0.4,-13.6,22.1,-6.2,34.13,,,,,,,,,,
13.11.11.490,-117.3,29.3,0,,,82304.5,12.15,-0.49,0.38,-0.51,-39.5,10.0,-17.6,33.7,,,,,,,,,,
13.11.11.500,-155.5,38.9,0,,,82304.5,12.15,-0.95,0.02,-0.57,-3.9,39.7,-8.4,33.98,,,,,,,,,,
13.11.11.511,-123.1,30.8,0,,,82304.5,12.15,-0.91,-0.12,-0.36,31.5,-25.2,-3.1,34.26,,,,,,,,,,
13.11.11.521,-116.9,29.2,0,,,82304.5,12.15,-1.15,-0.16,-0.07,31.4,2.4,-7.7,33.93,,,,,,,,,,
13.11.11.531,-154.5,38.6,0,,,82304.5,12.15,-0.23,0.01,-0.19,-49.1,23.7,8.0,34.14,,,,,,,,,,
13.11.11.541,-201.1,50.3,0,,,82304.5,12.15,-0.92,-0.06,-0.47,-26.1,21.0,-18.9,34.59,,,,,,,,,,
13.11.11.553,-168.8,42.2,0,,,82304.5,12.15,-0.67,0.27,-0.06,-20.1,23.3,7.1,34.28,,,,,,,,,,
13.11.11.564,-115.3,28.8,0,,,82304.5,12.15,-0.79,0.27,0.19,-3.2,-0.2,6.1,34.64,,,,,,,,,,
13.11.11.575,32.2,8.0,0,,,82304.5,12.15,-0.52,0.07,0.05,-1.3,7.8,2.6,34.22,,,,,,,,,,
13.11.11.584,61.6,15.4,0,,,82304.5,12.15,-0.68,0.47,0.07,7.9,5.3,3.3,34.54,,,,,,,,,,
13.11.11.594,121.7,30.4,0,,,82304.5,12.15,-0.8,-0.21,-0.25,-20.6,17.7,7.3,34.47,,,,,,,,,,
13.11.11.604,179.6,44.9,0,,,82304.5,12.15,-0.57,-0.04,0.13,-12.4,-20.5,-0.5,34.74,,,,,,,,,,
13.11.11.613,247.1,61.8,0,,,82304.5,12.15,-0.58,0.14,0.58,-0.5,-10.8,-32.1,34.09,,,,,,,,,,
13.11.11.622,245.6,61.4,0,,,82304.5,12.15,-0.69,-0.24,-0.38,3.3,13.3,-17.0,34.01,,,,,,,,,,
13.11.11.631,239.6,59.9,0,,,82304.5,12.15,-0.75,0.16,0.09,3.2,-19.2,6.0,34.28,,,,,,,,,,
13.11.11.641,286.1,71.5,0,,,82304.5,12.15,-0.61,-0.27,-0.16,-26.3,6.9,7.8,34.1,,,,,,,,,,
13.11.11.651,328.8,82.2,0,,,82304.5,12.15,-0.72,-0.17,-0.14,-7.1,32.4,9.2,34.07,,,,,,,,,,
13.11.11.661,329.5,82.4,0,,,82304.5,12.15,-0.47,-0.06,-0.38,-11.2,25.3,17.2,34.33,,,,,,,,,,
13.11.11.668,378.8,94.7,0,,,82304.5,12.15,-0.76,0.66,0.02,13.8,-0.8,-10.2,33.81,,,,,,,,,,
13.11.11.678,369.8,92.4,0,,,82304.5,12.15,-0.59,0.39,-0.32,-18.9,-3.3,-2.2,34.66,,,,,,,,,,
13.11.11.688,482.6,120.6,0,,,82304.5,12.15,-0.71,-0.25,0.02,14.8,12.8,19.6,34.5,,,,,,,,,,
13.11.11.698,458.1,114.5,0,,,82304.5,12.15,-0.46,-0.12,-0.36,-16.2,-3.8,14.2,34.41,,,,,,,,,,
13.11.11.708,411.0,102.8,0,,,82304.5,12.15,-0.57,-0.08,-0.7,40.9,-1.5,-13.0,34.87,,,,,,,,,,
13.11.11.718,379.8,95.0,0,,,82304.5,12.15,-0.48,-0.57,-0.71,-32.9,-10.4,24.9,34.28,,,,,,,,,,
13.11.11.728,392.1,98.0,0,,,82304.5,12.15,-0.57,0.08,-0.48,-12.8,4.7,7.9,34.34,,,,,,,,,,
13.11.11.739,332.9,83.2,0,,,82304.5,12.15,-0.93,-0.31,-0.67,3.8,6.9,7.3,33.77,,,,,,,,,,
13.11.11.748,335.8,84.0,0,,,82304.5,12.15,-0.9,0.11,-0.25,-22.6,0.9,-4.6,34.68,,,,,,,,,,
13.11.11.757,282.6,70.6,0,,,82304.5,12.15,-0.78,0.18,-0.2,-20.4,-5.0,-3.2,33.6,,,,,,,,,,
13.11.11.764,249.4,62.4,0,,,82304.5,12.15,-0.5,-0.43,-0.08,-22.6,0.6,9.0,34.38,,,,,,,,,,
13.11.11.772,259.7,64.9,0,,,82304.5,12.15,-0.49,-0.08,-0.01,7.3,1.8,-13.3,34.43,,,,,,,,,,
13.11.11.783,185.9,46.5,0,,,82304.5,12.15,-0.69,0.01,0.24,-38.6,8.2,6.6,34.07,,,,,,,,,,
13.11.11.795,92.1,23.0,0,,,82304.5,12.15,-0.58,-0.33,-0.95,-33.1,-20.8,-6.8,34.2,,,,,,,,,,
13.11.11.805,64.9,16.2,0,,,82304.5,12.15,-0.74,-0.37,-0.08,-17.7,19.0,8.9,35.04,,,,,,,,,,
13.11.11.814,12.0,3.0,0,,,82304.5,12.15,-0.72,-0.54,-0.35,45.0,12.7,-10.3,34.06,,,,,,,,,,
13.11.11.823,5.8,1.4,0,,,82304.5,12.15,-0.71,-0.18,-0.13,2.1,0.6,4.7,33.8,,,,,,,,,,
13.11.11.834,24.7,6.2,0,,,82304.5,12.15,-0.27,-0.6,-0.62,-3.0,5.1,-4.9,34.07,,,,,,,,,,
13.11.11.845,22.8,5.7,0,,,82304.5,12.15,-0.69,-0.08,-0.24,15.2,19.8,20.5,34.05,,,,,,,,,,
13.11.11.856,63.7,15.9,0,,,82304.5,12.15,-0.6,-0.59,-0.07,8.9,-2.7,6.4,34.28,,,,,,,,,,
13.11.11.867,52.6,13.2,0,,,82304.5,12.15,-0.41,-0.04,-0.4,-54.1,0.8,-1.4,34.05,,,,,,,,,,
13.11.11.877,84.9,21.2,0,,,82304.5,12.15,-0.84,-0.91,-0.43,-31.5,12.3,8.3,34.8,,,,,,,,,,
13.11.11.888,105.9,26.5,1,17.0,87.0,82304.5,12.15,-0.66,-0.24,-0.96,-15.3,0.9,-2.7,34.44,,,,,,,,,,
13.11.11.898,68.8,17.2,0,,,82304.5,12.15,-0.44,-0.51,-0.35,-1.2,-25.9,-8.7,34.24,,,,,,,,,,
13.11.11.908,85.4,21.4,0,,,82304.5,12.15,-0.76,-0.58,0.02,56.8,14.9,-16.1,34.05,,,,,,,,,,
13.11.11.917,44.4,11.1,0,,,82304.5,12.15,-0.72,-0.1,-0.46,-22.2,-3.3,7.7,34.12,,,,,,,,,,
13.11.11.927,53.3,13.3,0,,,82304.5,12.15,-0.88,-0.17,-0.26,-8.0,-21.4,-20.0,34.69,,,,,,,,,,
13.11.11.938,23.2,5.8,0,,,82304.5,12.15,-0.8,-0.35,-0.18,23.0,-0.1,1.2,34.25,,,,,,,,,,
13.11.11.948,-2.8,0.7,0,,,82304.5,12.15,-0.79,-0.38,-0.47,-25.1,-8.6,-9.3,34.82,,,,,,,,,,
13.11.11.957,-5.0,1.2,0,,,82236.8,12.16,-0.86,-0.15,-0.1,-6.1,-15.3,-8.5,34.71,,,,,,,,,,
13.11.11.967,-12.2,3.0,0,,,82236.8,12.16,-0.61,-0.22,-0.71,15.5,24.4,17.9,34.13,,,,,,,,,,
13.11.11.977,29.1,7.3,0,,,82236.8,12.16,-0.76,-0.46,0.37,22.7,-39.0,-25.7,34.42,,,,,,,,,,
13.11.11.988,-6.5,1.6,0,,,82236.8,12.16,-0.83,-0.68,-0.8,-21.8,8.6,-14.9,34.32,,,,,,,,,,
13.11.11.997,-30.1,7.5,0,,,82236.8,12.16,-0.77,0.03,-0.41,-12.8,25.7,-13.2,34.04,,,,,,,,,,
13.11.12.007,-51.3,12.8,0,,,82236.8,12.16,-0.5,-0.51,0.03,17.8,-1.2,-11.1,34.06,,,,,,,,,,
13.11.12.017,-24.3,6.1,0,,,82236.8,12.16,-0.64,0.13,0.02,-6.6,2.7,18.2,34.18,,,,,,,,,,
13.11.12.024,-17.1,4.3,0,,,82236.8,12.16,-0.88,-0.49,-0.5,-7.3,17.7,14.0,34.4,,,,,,,,,,
13.11.12.033,-37.2,9.3,0,,,82236.8,12.16,-0.53,0.36,-0.41,22.7,7.0,12.5,34.38,,,,,,,,,,
13.11.12.045,-27.5,6.9,0,,,82236.8,12.16,-0.78,0.33,-0.26,-5.9,-4.7,-0.9,34.88,,,,,,,,,,
13.11.12.056,-23.3,5.8,0,,,82236.8,12.16,-0.75,0.24,0.21,-25.2,-12.5,0.1,33.75,,,,,,,,,,
13.11.12.066,-78.6,19.6,0,,,82236.8,12.16,-1.1,-0.19,0.03,-34.9,24.6,-0.6,33.93,,,,,,,,,,
13.11.12.076,-53.3,13.3,0,,,82236.8,12.16,-0.93,0.03,-0.02,-6.1,25.4,-17.3,34.46,,,,,,,,,,
13.11.12.086,-53.9,13.5,0,,,82236.8,12.16,-1.16,-0.04,0.08,11.2,-2.3,-14.1,34.24,,,,,,,,,,
13.11.12.098,-68.9,17.2,0,,,82236.8,12.16,-0.67,-0.39,-0.49,14.3,-9.2,0.7,34.39,,,,,,,,,,
13.11.12.106,-81.7,20.4,0,,,82236.8,12.16,-0.88,-0.18,0.2,-18.1,16.8,11.7,34.39,,,,,,,,,,
13.11.12.116,-85.1,21.3,0,,,82236.8,12.16,-0.64,0.08,-0.09,5.0,-12.0,23.2,34.35,,,,,,,,,,
13.11.12.125,-95.9,24.0,0,,,82236.8,12.16,-0.76,0.31,-0.22,-2.4,12.0,-22.6,34.04,,,,,,,,,,
13.11.12.133,-77.5,19.4,0,,,82236.8,12.16,-1.27,0.46,-0.26,-22.8,0.8,3.8,34.42,,,,,,,,,,
13.11.12.142,-103.1,25.8,0,,,82236.8,12.16,-0.48,0.17,-0.64,-33.8,-9.3,-9.8,34.14,,,,,,,,,,
13.11.12.150,-90.6,22.6,0,,,82236.8,12.16,-0.86,-0.25,-0.73,31.7,12.6,5.1,34.2,,,,,,,,,,
13.11.12.161,-94.3,23.6,0,,,82236.8,12.16,-0.96,0.09,-0.34,-16.7,-0.4,12.0,34.3,,,,,,,,,,
13.11.12.171,-97.6,24.4,0,,,82236.8,12.16,-0.93,0.82,-0.29,-15.3,43.7,-30.1,34.29,,,,,,,,,,
13.11.12.177,-92.4,23.1,0,,,82236.8,12.16,-0.45,0.13,-0.51,-0.5,22.4,-4.2,34.81,,,,,,,,,,
13.11.12.185,-103.3,25.8,0,,,82236.8,12.16,-0.88,0.59,-0.1,-1.5,30.6,5.8,33.87,,,,,,,,,,
13.11.12.195,-108.2,27.0,0,,,82236.8,12.16,-0.62,-0.24,-0.31,6.5,-18.8,14.6,34.41,,,,,,,,,,
13.11.12.206,-113.5,28.4,0,,,82236.8,12.16,-1.15,0.48,-0.16,-31.7,6.3,-6.2,34.58,,,,,,,,,,
13.11.12.215,-115.7,28.9,0,,,82236.8,12.16,-0.59,0.24,-0.63,6.8,-1.1,-4.3,34.37,,,,,,,,,,
13.11.12.223,-129.0,32.2,0,,,82236.8,12.16,-0.94,0.42,-0.61,7.1,-1.0,2.8,33.86,,,,,,,,,,
13.11.12.232,-122.4,30.6,0,,,82236.8,12.16,-0.71,-0.38,-0.27,25.4,-2.2,-20.7,34.4,,,,,,,,,,
13.11.12.241,-111.5,27.9,0,,,82236.8,12.16,-0.64,0.21,-0.23,-6.4,3.4,-0.4,34.54,,,,,,,,,,
13.11.12.252,-128.0,32.0,0,,,82236.8,12.16,-1.22,-0.1,-0.06,11.3,7.1,7.8,34.49,,,,,,,,,,
13.11.12.262,-108.8,27.2,0,,,82236.8,12.16,-0.53,-0.05,-0.38,2.0,0.1,2.7,34.31,,,,,,,,,,
13.11.12.270,-141.5,35.4,0,,,82236.8,12.16,-0.66,-0.28,-0.6,3.4,1.8,-18.5,34.29,,,,,,,,,,
13.11.12.281,-150.9,37.7,0,,,82236.8,12.16,-0.96,0.04,-0.65,-18.0,36.0,18.1,33.91,,,,,,,,,,
13.11.12.291,58.4,14.6,0,,,82236.8,12.16,-0.98,0.58,-0.57,-7.4,20.3,5.4,34.65,,,,,,,,,,
13.11.12.299,52.6,13.2,0,,,82236.8,12.16,-0.68,0.63,-0.93,16.4,7.3,-17.8,33.98,,,,,,,,,,
13.11.12.309,106.1,26.5,0,,,82236.8,12.16,-0.75,-0.31,-0.23,-13.9,27.6,-19.0,34.27,,,,,,,,,,
13.11.12.318,154.3,38.6,0,,,82236.8,12.16,-0.81,-0.01,-0.07,-20.1,-8.9,5.9,34.25,,,,,,,,,,
13.11.12.327,190.3,47.6,0,,,82236.8,12.16,-0.8,0.23,-0.17,11.5,-17.4,6.1,34.68,,,,,,,,,,
13.11.12.337,294.5,73.6,0,,,82236.8,12.16,-0.78,-0.1,-0.35,-26.6,20.3,3.2,33.67,,,,,,,,,,
13.11.12.347,272.0,68.0,0,,,82236.8,12.16,-0.75,0.33,-0.56,-7.1,1.7,6.6,34.13,,,,,,,,,,
13.11.12.357,312.4,78.1,0,,,82236.8,12.16,-0.41,0.08,-0.46,-38.9,23.6,-10.6,34.49,,,,,,,,,,
13.11.12.366,350.9,87.7,0,,,82236.8,12.16,-0.31,0.37,0.01,22.0,-1.7,4.4,34.14,,,,,,,,,,
13.11.12.377,391.4,97.8,0,,,82236.8,12.16,-0.74,0.13,-0.24,-31.0,2.2,-0.5,34.18,,,,,,,,,,
13.11.12.387,390.5,97.6,0,,,82236.8,12.16,-1.15,0.18,-0.07,-38.8,29.4,-14.2,34.78,,,,,,,,,,
13.11.12.397,413.1,103.3,0,,,82236.8,12.16,-0.72,0.33,-0.67,34.6,21.0,-5.7,34.64,,,,,,,,,,
13.11.12.406,401.2,100.3,0,,,82236.8,12.16,-0.81,-0.07,-0.72,29.3,5.0,19.3,34.12,,,,,,,,,,
13.11.12.415,409.3,102.3,0,,,82236.8,12.16,-0.52,-0.51,0.38,-4.6,-4.4,-10.8,34.32,,,,,,,,,,
13.11.12.426,398.8,99.7,0,,,82236.8,12.16,-0.83,-0.3,0.22,-7.2,17.0,-8.5,34.13,,,,,,,,,,
13.11.12.436,390.5,97.6,0,,,82236.8,12.16,-0.66,0.29,0.04,11.2,-11.9,1.2,34.24,,,,,,,,,,
13.11.12.445,368.7,92.2,0,,,82236.8,12.16,-0.75,-0.22,-0.12,35.3,15.4,1.2,34.17,,,,,,,,,,
13.11.12.455,344.9,86.2,0,,,82236.8,12.16,-0.5,0.01,-0.35,-3.7,-12.4,-19.8,34.19,,,,,,,,,,
13.11.12.465,336.5,84.1,0,,,82236.8,12.16,-0.64,0.27,0.35,21.1,6.8,-9.0,34.04,,,,,,,,,,
13.11.12.475,235.4,58.8,0,,,82236.8,12.16,-0.54,0.07,-0.31,30.4,-0.4,8.7,34.59,,,,,,,,,,
13.11.12.486,247.9,62.0,0,,,82236.8,12.16,-1.17,0.58,-0.61,-56.8,23.5,-24.9,34.11,,,,,,,,,,
13.11.12.496,205.7,51.4,0,,,82236.8,12.16,-0.85,0.17,0.04,-20.7,14.5,-17.2,33.89,,,,,,,,,,
13.11.12.506,138.8,34.7,0,,,82236.8,12.16,-0.83,0.18,0.06,6.5,6.9,19.1,33.94,,,,,,,,,,
13.11.12.517,130.7,32.7,0,,,82236.8,12.16,-0.94,-0.09,-0.08,-8.7,16.4,-18.2,34.12,,,,,,,,,,
13.11.12.527,51.0,12.8,0,,,82236.8,12.16,-0.85,-0.0,-0.27,8.7,25.7,31.0,34.39,,,,,,,,,,
13.11.12.536,33.7,8.4,0,,,82236.8,12.16,-0.78,-0.01,0.07,3.0,-3.0,8.1,33.77,,,,,,,,,,
13.11.12.547,27.2,6.8,0,,,82236.8,12.16,-0.4,-0.18,0.13,-9.1,31.5,-2.8,34.26,,,,,,,,,,
13.11.12.556,-3.3,0.8,0,,,82236.8,12.16,-0.42,0.09,-0.56,-11.7,1.9,-3.0,34.08,,,,,,,,,,
13.11.12.565,13.0,3.2,0,,,82236.8,12.16,-0.33,0.22,-0.67,38.1,6.1,-8.3,34.59,,,,,,,,,,
13.11.12.574,39.3,9.8,0,,,82236.8,12.16,-0.31,0.1,0.03,-25.6,31.5,-5.9,34.24,,,,,,,,,,
13.11.12.584,112.7,28.2,0,,,82236.8,12.16,-0.72,-0.04,-0.08,35.4,-4.0,-3.5,34.33,,,,,,,,,,
13.11.12.591,75.7,18.9,0,,,82236.8,12.16,-0.75,0.65,0.24,-45.6,-21.8,2.3,33.88,,,,,,,,,,
13.11.12.598,52.3,13.1,0,,,82236.8,12.16,-0.45,-0.22,-0.65,-15.2,14.6,-24.1,34.12,,,,,,,,,,
13.11.12.608,98.5,24.6,1,18.0,83.3,82236.8,12.16,-0.85,-0.21,-0.11,-23.8,14.4,-7.6,34.11,,,,,,,,,,
13.11.12.616,59.2,14.8,0,,,82236.8,12.16,-0.38,-0.68,-0.58,17.8,-5.8,-14.1,34.58,,,,,,,,,,
13.11.12.625,64.5,16.1,0,,,82236.8,12.16,-0.52,0.17,-0.31,-20.1,32.3,-28.5,34.41,,,,,,,,,,
13.11.12.635,27.0,6.8,0,,,82236.8,12.16,-0.77,-0.19,-0.67,-10.4,-15.6,-5.7,34.37,,,,,,,,,,
13.11.12.644,65.8,16.4,0,,,82236.8,12.16,-0.67,0.24,-0.42,-11.6,-6.6,-15.4,34.42,,,,,,,,,,
13.11.12.655,33.0,8.2,0,,,82236.8,12.16,-0.79,0.44,-0.16,-1.3,6.2,-26.3,34.41,,,,,,,,,,
13.11.12.665,36.3,9.1,0,,,82236.8,12.16,-0.59,0.24,-0.51,-13.5,24.3,-21.7,34.4,,,,,,,,,,
13.11.12.673,-8.0,2.0,0,,,82236.8,12.16,-0.65,0.1,-0.22,-5.2,1.7,-0.3,33.85,,,,,,,,,,
13.11.12.682,3.4,0.8,0,,,82236.8,12.16,-0.44,0.39,-1.25,-9.6,-7.2,2.4,34.84,,,,,,,,,,
13.11.12.691,-36.5,9.1,0,,,82236.8,12.16,-0.68,-0.37,-0.1,2.0,-9.2,-20.4,34.44,,,,,,,,,,
13.11.12.698,16.7,4.2,0,,,82236.8,12.16,-0.72,-0.33,-0.37,-31.9,-27.3,9.2,35.11,,,,,,,,,,
13.11.12.708,15.8,4.0,0,,,82236.8,12.16,-0.37,-0.14,-0.53,19.3,-15.5,35.3,34.62,,,,,,,,,,
13.11.12.718,-5.6,1.4,0,,,82236.8,12.16,-0.89,-0.18,-0.24,38.1,0.4,0.1,34.27,,,,,,,,,,
13.11.12.730,-35.3,8.8,0,,,82236.8,12.16,-0.47,0.22,-0.94,12.3,12.3,17.5,34.44,,,,,,,,,,
13.11.12.739,-60.0,15.0,0,,,82236.8,12.16,-0.69,-0.47,-0.74,-11.7,27.4,24.8,34.12,,,,,,,,,,
13.11.12.748,-56.6,14.2,0,,,82236.8,12.16,-0.67,-0.3,-0.67,3.9,0.4,-9.8,34.84,,,,,,,,,,
13.11.12.759,-33.5,8.4,0,,,82236.8,12.16,-0.95,-0.03,-0.33,-5.1,34.3,-18.0,34.4,,,,,,,,,,
13.11.12.768,-67.9,17.0,0,,,82236.8,12.16,-0.58,-0.06,-0.09,28.5,-10.0,12.5,34.33,,,,,,,,,,
13.11.12.779,-88.9,22.2,0,,,82236.8,12.16,-0.41,-0.02,-0.11,35.0,-8.3,11.6,34.0,,,,,,,,,,
13.11.12.788,-72.8,18.2,0,,,82236.8,12.16,-0.81,0.08,-0.18,-60.3,15.5,-13.1,34.58,,,,,,,,,,
13.11.12.799,-73.4,18.4,0,,,82236.8,12.16,-0.16,-0.17,-0.7,1.9,-20.1,-16.3,34.3,,,,,,,,,,
13.11.12.809,-73.5,18.4,0,,,82236.8,12.16,-0.88,-0.35,-0.52,2.8,6.4,-13.8,34.34,,,,,,,,,,
13.11.12.817,-80.8,20.2,0,,,82169.3,12.17,-0.93,-0.44,-0.1,1.0,-15.0,-4.1,34.19,,,,,,,,,,
13.11.12.828,-36.4,9.1,0,,,82169.3,12.17,-0.49,-0.28,-0.43,28.2,-2.8,5.6,34.24,,,,,,,,,,
13.11.12.840,-82.2,20.6,0,,,82169.3,12.17,-0.44,-0.7,-0.31,-18.2,29.9,9.6,34.44,,,,,,,,,,
13.11.12.852,-101.4,25.4,0,,,82169.3,12.17,-0.7,-0.65,0.05,-9.9,24.1,1.2,33.55,,,,,,,,,,
13.11.12.861,-61.6,15.4,0,,,82169.3,12.17,-0.9,-0.21,-0.1,-6.6,16.0,17.9,33.66,,,,,,,,,,
13.11.12.870,-107.8,27.0,0,,,82169.3,12.17,-0.51,-0.37,-0.28,32.7,2.6,-0.4,34.28,,,,,,,,,,
13.11.12.882,-94.8,23.7,0,,,82169.3,12.17,-0.75,-0.36,-0.02,-1.8,-15.1,8.8,34.66,,,,,,,,,,
13.11.12.893,-131.3,32.8,0,,,82169.3,12.17,-0.9,-0.62,0.05,2.8,-0.2,-0.8,34.64,,,,,,,,,,
13.11.12.903,-123.4,30.8,0,,,82169.3,12.17,-0.8,-0.05,-0.54,-16.7,-14.4,-4.4,34.31,,,,,,,,,,
13.11.12.913,-130.4,32.6,0,,,82169.3,12.17,-1.12,-0.39,0.27,20.9,20.5,12.5,33.97,,,,,,,,,,
13.11.12.921,-137.2,34.3,0,,,82169.3,12.17,-0.78,0.36,0.41,-3.5,-11.2,34.8,34.6,,,,,,,,,,
13.11.12.930,-92.3,23.1,0,,,82169.3,12.17,-0.74,-0.02,0.04,38.9,12.2,-1.1,34.3,,,,,,,,,,
13.11.12.940,-146.7,36.7,0,,,82169.3,12.17,-0.76,-0.39,-0.04,39.4,-6.2,8.1,34.58,,,,,,,,,,
13.11.12.950,-132.2,33.0,0,,,82169.3,12.17,-0.99,-0.36,0.14,22.7,14.5,28.6,34.66,,,,,,,,,,
13.11.12.960,-120.0,30.0,0,,,82169.3,12.17,-0.4,-0.15,-0.03,11.2,-11.4,11.9,34.14,,,,,,,,,,
13.11.12.969,-178.2,44.6,0,,,82169.3,12.17,-0.79,-0.15,-0.15,17.9,6.5,9.8,34.6,,,,,,,,,,
13.11.12.979,-113.1,28.3,0,,,82169.3,12.17,-0.94,0.16,0.07,16.5,-17.5,-8.4,34.46,,,,,,,,,,
13.11.12.990,-171.1,42.8,0,,,82169.3,12.17,-0.75,-0.05,-0.55,24.5,18.0,2.0,33.71,,,,,,,,,,
13.11.12.999,-24.3,6.1,0,,,82169.3,12.17,-1.1,-0.22,-0.41,-14.8,-18.7,4.2,34.4,,,,,,,,,,
