timestamp,ppg,threshold,beat,beat_count,inst_bpm,gsr_resistance_ohm,gsr_conductance_us,accel_x,accel_y,accel_z,gyro_x,gyro_y,gyro_z,temp_c,window_bpm,window_temp_c,status_message,SpO2,bmi,age,height,weight,env_temp_c,env_humidity_pct
14.06.53.000,0.0,0.0,0,,,101522.8,9.85,-0.27,0.65,0.53,-12.1,-0.2,8.7,34.11,70.4,,,96.0,20.6,21.0,167.64,58.0,31.44,45.0
14.06.53.009,,,0,,,,,,,,,,,,,,,,,,,,,
14.06.53.017,64.0,16.0,0,,,101522.8,9.85,-0.31,0.44,0.51,16.6,1.7,1.0,34.44,,,,,,,,,,
14.06.53.027,82.9,20.7,0,,,101522.8,9.85,-0.37,0.87,0.33,11.7,7.3,8.4,34.32,,,,,,,,,,
14.06.53.039,125.5,31.4,0,,,101522.8,9.85,-0.22,0.68,0.48,15.8,7.0,-12.0,33.59,,,,,,,,,,
14.06.53.050,173.9,43.5,0,,,101522.8,9.85,-0.33,0.66,0.47,3.0,1.9,-8.8,34.54,,,,,,,,,,
14.06.53.059,177.6,44.4,0,,,101522.8,9.85,-0.34,0.83,0.57,-2.5,7.0,1.7,34.44,,,,,,,,,,
14.06.53.070,218.5,54.6,0,,,101522.8,9.85,-0.35,0.69,0.52,-4.7,1.9,0.6,33.4,,,,,,,,,,
14.06.53.079,223.7,55.9,0,,,101522.8,9.85,-0.34,0.76,0.33,-2.0,-1.7,8.9,34.17,,,,,,,,,,
14.06.53.088,260.5,65.1,0,,,101522.8,9.85,-0.21,0.87,0.45,-1.0,26.5,-4.1,34.19,,,,,,,,,,
14.06.53.097,254.8,63.7,0,,,101522.8,9.85,-0.36,0.74,0.53,9.7,6.3,7.2,34.43,,,,,,,,,,
14.06.53.105,285.3,71.3,0,,,101522.8,9.85,-0.35,0.74,0.53,-8.4,-0.9,1.9,34.53,,,,,,,,,,
14.06.53.116,289.7,72.4,0,,,101522.8,9.85,-0.35,0.92,0.33,-10.6,0.9,3.0,34.24,,,,,,,,,,
14.06.53.127,,,0,,,,,,,,,,,,,,,,,,,,,
14.06.53.137,317.3,79.3,0,,,101522.8,9.85,-0.3,0.77,0.52,-7.2,27.3,-1.4,34.33,,,,,,,,,,
14.06.53.146,295.9,74.0,0,,,101522.8,9.85,-0.32,0.62,0.5,-1.0,4.2,13.0,34.36,,,,,,,,,,
14.06.53.156,293.4,73.4,0,,,101522.8,9.85,-0.22,0.8,0.45,8.9,-1.4,-5.4,34.42,,,,,,,,,,
14.06.53.165,328.2,82.0,0,,,101522.8,9.85,-0.27,0.63,0.47,0.6,-1.3,7.3,34.73,,,,,,,,,,
14.06.53.176,316.8,79.2,0,,,101522.8,9.85,-0.34,0.65,0.36,-4.2,7.3,3.1,34.62,,,,,,,,,,
14.06.53.184,301.8,75.4,0,,,101522.8,9.85,-0.39,0.81,0.44,17.2,9.8,-8.9,34.12,,,,,,,,,,
14.06.53.196,293.8,73.4,0,,,101522.8,9.85,-0.45,0.76,0.49,-2.9,-3.5,10.7,34.6,,,,,,,,,,
14.06.53.205,283.2,70.8,0,,,101522.8,9.85,-0.5,0.72,0.5,1.2,17.4,4.3,34.67,,,,,,,,,,
14.06.53.216,246.7,61.7,0,,,101522.8,9.85,-0.43,0.66,0.43,3.0,12.8,-16.5,33.79,,,,,,,,,,
14.06.53.225,260.9,65.2,0,,,101522.8,9.85,-0.39,0.73,0.68,8.0,-1.3,-8.0,34.29,,,,,,,,,,
14.06.53.233,215.8,54.0,0,,,101522.8,9.85,-0.29,0.8,0.57,14.7,4.9,1.5,34.17,,,,,,,,,,
14.06.53.244,194.4,48.6,0,,,101522.8,9.85,-0.36,0.56,0.58,10.2,14.1,4.7,34.37,,,,,,,,,,
14.06.53.254,156.3,39.1,0,,,101522.8,9.85,-0.41,0.77,0.35,6.9,-12.2,-8.8,34.66,,,,,,,,,,
14.06.53.262,142.9,35.7,0,,,101522.8,9.85,-0.4,0.66,0.46,7.5,11.5,-5.2,34.28,,,,,,,,,,
14.06.53.270,116.3,29.1,0,,,101522.8,9.85,-0.44,0.87,0.43,-10.4,7.9,0.1,34.09,,,,,,,,,,
14.06.53.278,93.7,23.4,0,,,101522.8,9.85,-0.43,0.64,0.78,-2.4,-4.3,-8.6,34.01,,,,,,,,,,
14.06.53.287,62.1,15.5,0,,,101522.8,9.85,-0.31,0.7,0.49,2.7,-10.1,-9.2,34.62,,,,,,,,,,
14.06.53.295,35.2,8.8,0,,,101522.8,9.85,-0.42,0.68,0.55,2.3,13.2,-2.2,33.98,,,,,,,,,,
14.06.53.305,5.7,1.4,0,,,101522.8,9.85,-0.42,0.86,0.58,-27.1,6.6,14.4,34.79,,,,,,,,,,
14.06.53.315,16.3,4.1,0,,,101522.8,9.85,-0.43,0.64,0.5,-4.4,8.7,-4.7,34.42,,,,,,,,,,
14.06.53.324,22.2,5.6,0,,,101522.8,9.85,-0.21,0.76,0.5,17.0,7.9,15.8,34.47,,,,,,,,,,
14.06.53.335,33.9,8.5,0,,,101522.8,9.85,-0.37,0.89,0.64,-17.1,7.3,0.6,33.94,,,,,,,,,,
14.06.53.347,36.7,9.2,0,,,101522.8,9.85,-0.32,0.83,0.46,8.6,18.9,0.5,34.5,,,,,,,,,,
14.06.53.356,49.0,12.2,0,,,101522.8,9.85,-0.31,0.91,0.57,-11.3,2.1,3.7,34.44,,,,,,,,,,
14.06.53.366,55.5,13.9,0,,,101522.8,9.85,-0.4,0.73,0.42,2.9,5.4,-3.6,34.24,,,,,,,,,,
14.06.53.374,53.7,13.4,0,,,101522.8,9.85,-0.57,0.77,0.51,-0.1,-3.1,-1.5,34.52,,,,,,,,,,
14.06.53.382,50.8,12.7,0,,,101522.8,9.85,-0.24,0.61,0.49,-8.2,9.5,8.3,33.56,,,,,,,,,,
14.06.53.391,63.2,15.8,0,,,101522.8,9.85,-0.35,0.97,0.39,7.2,-0.6,-1.1,33.79,,,,,,,,,,
14.06.53.399,52.3,13.1,0,,,101522.8,9.85,-0.27,0.63,0.46,-10.7,2.1,7.8,34.22,,,,,,,,,,
14.06.53.407,48.4,12.1,0,,,101522.8,9.85,-0.33,0.8,0.39,2.9,4.6,11.0,34.26,,,,,,,,,,
14.06.53.419,51.4,12.8,0,,,101522.8,9.85,-0.42,0.86,0.46,-16.3,7.2,-6.8,34.37,,,,,,,,,,
14.06.53.430,50.1,12.5,0,,,101522.8,9.85,-0.5,0.65,0.33,0.4,7.5,-6.5,34.38,,,,,,,,,,
14.06.53.441,31.7,7.9,0,,,101522.8,9.85,-0.34,0.6,0.5,-3.8,-7.5,-15.7,34.46,,,,,,,,,,
14.06.53.451,36.0,9.0,0,,,101522.8,9.85,-0.35,0.74,0.44,-27.3,-6.3,-5.4,34.62,,,,,,,,,,
14.06.53.461,22.8,5.7,0,,,101522.8,9.85,-0.31,0.65,0.54,6.8,12.0,-9.9,34.63,,,,,,,,,,
14.06.53.472,7.5,1.9,0,,,101522.8,9.85,-0.56,0.72,0.54,21.4,-2.5,-5.5,34.03,,,,,,,,,,
14.06.53.482,-10.0,2.5,0,,,101522.8,9.85,-0.46,0.82,0.64,-9.1,-12.9,1.2,34.28,,,,,,,,,,
14.06.53.492,-6.6,1.6,0,,,101522.8,9.85,-0.34,0.74,0.52,1.7,15.2,1.4,34.55,,,,,,,,,,
14.06.53.503,-5.3,1.3,0,,,101522.8,9.85,-0.29,0.81,0.45,7.2,-4.5,-8.1,33.94,,,,,,,,,,
14.06.53.512,-15.3,3.8,0,,,101522.8,9.85,-0.52,0.77,0.39,-1.5,4.8,3.5,34.3,,,,,,,,,,
14.06.53.522,-19.9,5.0,0,,,101522.8,9.85,-0.43,0.76,0.55,2.8,14.1,3.8,34.59,,,,,,,,,,
14.06.53.532,-17.1,4.3,0,,,101522.8,9.85,-0.42,0.89,0.59,-19.6,7.1,0.4,34.16,,,,,,,,,,
14.06.53.541,-9.3,2.3,0,,,101522.8,9.85,-0.3,0.91,0.45,-17.0,-0.9,12.3,34.6,,,,,,,,,,
14.06.53.552,-29.8,7.4,0,,,101522.8,9.85,-0.27,0.85,0.53,-2.2,15.5,-5.8,34.44,,,,,,,,,,
14.06.53.561,-16.8,4.2,0,,,101522.8,9.85,-0.38,0.73,0.44,6.6,8.6,4.8,34.66,,,,,,,,,,
14.06.53.573,-33.0,8.2,0,,,101522.8,9.85,-0.37,0.79,0.45,-9.8,-7.4,-3.4,34.05,,,,,,,,,,
14.06.53.586,-21.7,5.4,0,,,101522.8,9.85,-0.31,0.76,0.48,1.0,-2.0,-11.1,34.73,,,,,,,,,,
14.06.53.596,-24.7,6.2,0,,,101522.8,9.85,-0.33,0.79,0.49,6.4,23.0,-4.1,34.36,,,,,,,,,,
14.06.53.608,-48.4,12.1,0,,,101522.8,9.85,-0.31,0.72,0.41,-6.0,2.3,-3.2,34.1,,,,,,,,,,
14.06.53.618,-36.4,9.1,0,,,101522.8,9.85,-0.34,0.76,0.6,11.8,14.6,-10.8,34.38,,,,,,,,,,
14.06.53.626,-47.5,11.9,0,,,101522.8,9.85,-0.33,0.78,0.55,-3.1,-0.4,4.6,33.88,,,,,,,,,,
14.06.53.635,-46.3,11.6,0,,,101522.8,9.85,-0.35,0.66,0.45,-3.5,16.4,-3.1,34.43,,,,,,,,,,
14.06.53.647,-57.1,14.3,0,,,101522.8,9.85,-0.33,0.71,0.55,-1.5,1.0,-4.0,34.1,,,,,,,,,,
14.06.53.657,-59.3,14.8,0,,,101522.8,9.85,-0.35,0.72,0.52,-19.3,21.5,-3.3,34.09,,,,,,,,,,
14.06.53.665,-70.7,17.7,0,,,101522.8,9.85,-0.34,0.93,0.61,13.6,16.2,2.2,34.17,,,,,,,,,,
14.06.53.674,-50.8,12.7,0,,,101522.8,9.85,-0.47,0.83,0.47,14.9,-6.1,4.5,34.06,,,,,,,,,,
14.06.53.681,-66.3,16.6,0,,,101522.8,9.85,-0.5,0.64,0.47,-3.3,25.1,-3.9,34.23,,,,,,,,,,
14.06.53.693,-67.9,17.0,0,,,101522.8,9.85,-0.45,0.65,0.56,10.5,-1.1,-7.0,34.12,,,,,,,,,,
14.06.53.703,-59.1,14.8,0,,,101522.8,9.85,-0.27,0.51,0.45,1.7,14.4,-0.9,34.03,,,,,,,,,,
14.06.53.712,-80.9,20.2,0,,,101522.8,9.85,-0.33,0.62,0.28,1.2,1.8,-2.2,34.52,,,,,,,,,,
14.06.53.722,-69.3,17.3,0,,,101522.8,9.85,-0.31,0.52,0.52,-0.9,8.8,-4.3,34.14,,,,,,,,,,
14.06.53.732,-77.1,19.3,0,,,101522.8,9.85,-0.53,0.75,0.47,-7.8,8.7,-3.7,34.36,,,,,,,,,,
14.06.53.742,-70.9,17.7,0,,,101522.8,9.85,-0.36,0.71,0.46,10.3,23.1,12.4,33.93,,,,,,,,,,
14.06.53.749,-85.7,21.4,0,,,101522.8,9.85,-0.34,0.61,0.48,-22.5,17.4,4.8,34.41,,,,,,,,,,
14.06.53.757,-80.7,20.2,0,,,101522.8,9.85,-0.34,0.78,0.57,-18.4,-1.6,14.4,34.3,,,,,,,,,,
14.06.53.766,-86.7,21.7,0,,,101522.8,9.85,-0.34,0.79,0.44,26.2,10.4,-10.6,34.53,,,,,,,,,,
14.06.53.775,-85.4,21.4,0,,,101522.8,9.85,-0.39,0.76,0.63,7.0,20.4,5.5,34.16,,,,,,,,,,
14.06.53.782,-106.6,26.6,0,,,101522.8,9.85,-0.42,0.66,0.49,8.8,7.8,-12.4,34.25,,,,,,,,,,
14.06.53.792,-102.2,25.6,0,,,101522.8,9.85,-0.26,0.73,0.55,12.5,9.1,14.7,34.61,,,,,,,,,,
14.06.53.802,-96.9,24.2,0,,,101522.8,9.85,-0.29,0.54,0.56,11.1,15.8,-12.7,34.57,,,,,,,,,,
14.06.53.811,-106.3,26.6,0,,,101522.8,9.85,-0.29,0.71,0.45,10.4,10.9,-7.0,34.12,,,,,,,,,,
14.06.53.823,-116.5,29.1,0,,,101522.8,9.85,-0.36,0.64,0.58,2.1,23.5,-10.1,34.51,,,,,,,,,,
14.06.53.833,-128.3,32.1,0,,,101522.8,9.85,-0.31,0.85,0.54,-1.7,-8.2,-2.3,34.33,,,,,,,,,,
14.06.53.843,-122.6,30.6,0,,,101522.8,9.85,-0.36,0.46,0.41,-9.5,8.9,10.3,34.58,,,,,,,,,,
14.06.53.851,-104.5,26.1,0,,,101522.8,9.85,-0.34,0.76,0.65,-6.0,2.1,-5.7,34.45,,,,,,,,,,
14.06.53.862,-123.8,31.0,0,,,101522.8,9.85,-0.28,0.71,0.43,4.4,9.1,-1.7,34.04,,,,,,,,,,
14.06.53.873,-119.6,29.9,0,,,101522.8,9.85,-0.44,0.72,0.65,-7.4,24.4,2.3,34.0,,,,,,,,,,
14.06.53.881,13.0,3.2,1,1.0,,101522.8,9.85,-0.35,0.86,0.58,11.7,6.1,-5.5,34.19,,,,,,,,,,
14.06.53.891,49.1,12.3,0,,,101522.8,9.85,-0.44,0.57,0.49,29.6,13.5,4.0,33.85,,,,,,,,,,
14.06.53.902,87.2,21.8,0,,,101522.8,9.85,-0.32,0.72,0.56,14.9,2.1,-0.7,34.11,,,,,,,,,,
14.06.53.912,124.8,31.2,0,,,101522.8,9.85,-0.47,0.84,0.47,18.4,-2.9,0.1,34.14,,,,,,,,,,
14.06.53.921,151.8,38.0,0,,,101522.8,9.85,-0.28,0.79,0.47,-5.9,16.1,-7.0,34.24,,,,,,,,,,
14.06.53.929,169.9,42.5,0,,,101522.8,9.85,-0.42,0.79,0.43,-3.1,5.4,-0.5,34.21,,,,,,,,,,
14.06.53.938,186.5,46.6,0,,,101522.8,9.85,-0.39,0.78,0.62,6.9,29.6,9.9,34.62,,,,,,,,,,
14.06.53.947,211.1,52.8,0,,,101522.8,9.85,-0.37,0.78,0.49,9.5,10.0,-5.2,34.23,,,,,,,,,,
14.06.53.957,236.7,59.2,0,,,101522.8,9.85,-0.55,0.82,0.4,-8.4,7.2,-4.1,34.81,,,,,,,,,,
14.06.53.965,257.7,64.4,0,,,101522.8,9.85,-0.36,0.61,0.44,13.6,5.4,-1.3,34.25,,,,,,,,,,
14.06.53.979,286.7,71.7,0,,,101522.8,9.85,-0.43,0.78,0.42,-21.7,12.8,-7.5,34.28,,,,,,,,,,
14.06.53.988,314.5,78.6,0,,,101522.8,9.85,-0.36,0.65,0.6,-17.2,5.9,2.3,34.35,,,,,,,,,,
14.06.53.998,305.7,76.4,0,,,101522.8,9.85,-0.38,0.75,0.44,-4.9,2.8,-8.5,34.34,,,,,,,,,,
14.06.54.008,313.1,78.3,0,,,101522.8,9.85,-0.37,0.77,0.36,5.5,5.0,12.5,34.24,,,,,,,,,,
14.06.54.017,342.8,85.7,0,,,101522.8,9.85,-0.23,0.64,0.48,13.6,-0.7,0.7,33.97,,,,,,,,,,
14.06.54.025,335.8,84.0,0,,,101522.8,9.85,-0.42,0.71,0.45,3.0,8.9,3.8,34.45,,,,,,,,,,
14.06.54.034,316.2,79.0,0,,,101522.8,9.85,-0.41,0.75,0.45,-5.6,11.5,-8.7,34.95,,,,,,,,,,
14.06.54.043,303.3,75.8,0,,,101522.8,9.85,-0.24,0.69,0.49,-9.9,19.0,-1.0,34.63,,,,,,,,,,
14.06.54.053,335.3,83.8,0,,,101522.8,9.85,-0.44,0.68,0.49,19.4,-0.2,-3.5,33.78,,,,,,,,,,
14.06.54.062,304.6,76.2,0,,,101522.8,9.85,-0.45,0.76,0.5,-2.7,16.5,-7.5,34.31,,,,,,,,,,
14.06.54.071,282.0,70.5,0,,,101522.8,9.85,-0.45,0.89,0.36,0.7,23.8,-8.4,33.87,,,,,,,,,,
14.06.54.082,272.6,68.2,0,,,101522.8,9.85,-0.39,0.62,0.52,15.8,9.6,-5.5,34.2,,,,,,,,,,
14.06.54.091,270.6,67.6,0,,,101522.8,9.85,-0.35,0.77,0.55,27.6,21.6,-10.8,33.75,,,,,,,,,,
14.06.54.099,257.3,64.3,0,,,101522.8,9.85,-0.36,0.63,0.53,22.6,2.6,-2.1,34.08,,,,,,,,,,
14.06.54.111,235.9,59.0,0,,,101522.8,9.85,-0.33,0.65,0.45,-8.2,2.6,8.2,34.14,,,,,,,,,,
14.06.54.122,160.4,40.1,0,,,101522.8,9.85,-0.34,0.67,0.39,-30.5,8.0,0.7,34.39,,,,,,,,,,
14.06.54.132,159.8,40.0,0,,,101522.8,9.85,-0.22,0.7,0.56,5.8,-0.1,3.5,33.77,,,,,,,,,,
14.06.54.142,133.8,33.4,0,,,101522.8,9.85,-0.39,0.82,0.58,-10.2,14.7,-6.9,34.64,,,,,,,,,,
14.06.54.154,88.6,22.2,0,,,101522.8,9.85,-0.27,0.62,0.47,11.8,11.2,1.7,34.17,,,,,,,,,,
14.06.54.164,56.0,14.0,0,,,101522.8,9.85,-0.36,0.64,0.51,-15.1,-15.2,-5.8,34.54,,,,,,,,,,
14.06.54.175,22.7,5.7,0,,,101522.8,9.85,-0.22,0.56,0.57,-2.9,10.3,3.0,34.17,,,,,,,,,,
14.06.54.183,-2.1,0.5,0,,,101522.8,9.85,-0.45,0.67,0.42,-11.7,13.4,-1.9,33.96,,,,,,,,,,
14.06.54.191,10.6,2.6,0,,,101522.8,9.85,-0.3,0.79,0.57,-2.9,18.8,4.4,34.42,,,,,,,,,,
14.06.54.202,15.5,3.9,0,,,101522.8,9.85,-0.35,0.78,0.71,4.5,14.9,-7.9,34.46,,,,,,,,,,
14.06.54.214,26.7,6.7,0,,,101522.8,9.85,-0.38,0.92,0.39,1.2,11.8,2.6,34.55,,,,,,,,,,
14.06.54.224,46.9,11.7,0,,,101522.8,9.85,-0.45,0.84,0.75,2.0,4.2,-3.9,34.4,,,,,,,,,,
14.06.54.235,44.5,11.1,0,,,101522.8,9.85,-0.28,0.76,0.56,15.6,-3.6,-5.1,34.45,,,,,,,,,,
14.06.54.245,43.6,10.9,0,,,101522.8,9.85,-0.52,0.59,0.57,4.6,1.3,9.4,34.7,,,,,,,,,,
14.06.54.255,53.1,13.3,0,,,101522.8,9.85,-0.25,0.72,0.44,-5.0,8.3,1.7,33.83,,,,,,,,,,
14.06.54.267,50.0,12.5,0,,,101522.8,9.85,-0.47,0.6,0.53,-11.0,-8.2,-6.3,34.79,,,,,,,,,,
14.06.54.276,49.4,12.4,0,,,101522.8,9.85,-0.54,0.75,0.59,-7.7,1.8,4.9,34.39,,,,,,,,,,
14.06.54.284,55.5,13.9,0,,,101522.8,9.85,-0.24,0.78,0.41,19.7,-0.9,-0.5,34.86,,,,,,,,,,
14.06.54.294,59.8,15.0,0,,,101522.8,9.85,-0.26,0.6,0.36,12.9,13.5,-7.1,34.44,,,,,,,,,,
14.06.54.306,44.3,11.1,0,,,101522.8,9.85,-0.42,0.58,0.58,-9.7,1.5,-2.7,34.41,,,,,,,,,,
14.06.54.315,35.0,8.8,0,,,101522.8,9.85,-0.43,0.69,0.4,6.3,-0.4,-13.0,34.33,,,,,,,,,,
14.06.54.323,34.8,8.7,0,,,101522.8,9.85,-0.35,0.77,0.48,-12.8,-8.7,-5.3,34.16,,,,,,,,,,
14.06.54.332,20.2,5.0,0,,,101522.8,9.85,-0.3,0.83,0.44,-7.7,5.6,5.3,34.23,,,,,,,,,,
14.06.54.342,20.4,5.1,0,,,101522.8,9.85,-0.35,0.89,0.52,1.8,12.4,-4.5,34.42,,,,,,,,,,
14.06.54.351,10.8,2.7,0,,,101522.8,9.85,-0.31,0.75,0.51,13.2,-11.7,-4.7,34.12,,,,,,,,,,
14.06.54.363,-4.1,1.0,0,,,101522.8,9.85,-0.31,0.69,0.36,-9.7,14.6,5.0,34.48,,,,,,,,,,
14.06.54.372,3.2,0.8,0,,,101522.8,9.85,-0.34,0.68,0.41,12.4,3.1,6.3,34.35,,,,,,,,,,
14.06.54.382,-0.8,0.2,0,,,101522.8,9.85,-0.34,0.73,0.33,9.7,26.1,1.0,34.56,,,,,,,,,,
14.06.54.392,-15.8,4.0,0,,,101522.8,9.85,-0.35,0.68,0.63,12.9,10.6,-4.3,34.25,,,,,,,,,,
14.06.54.401,-17.6,4.4,0,,,101522.8,9.85,-0.34,0.53,0.53,12.4,7.4,8.0,34.38,,,,,,,,,,
14.06.54.407,-16.0,4.0,0,,,101522.8,9.85,-0.27,0.67,0.58,-2.4,0.6,12.0,34.14,,,,,,,,,,
14.06.54.419,-25.9,6.5,0,,,101522.8,9.85,-0.37,0.89,0.46,10.4,13.8,-1.1,34.52,,,,,,,,,,
14.06.54.428,-24.4,6.1,0,,,101522.8,9.85,-0.33,0.77,0.5,-15.6,4.1,-4.8,34.28,,,,,,,,,,
14.06.54.438,-32.0,8.0,0,,,101522.8,9.85,-0.45,0.62,0.54,11.5,19.2,1.6,34.01,,,,,,,,,,
14.06.54.448,-39.5,9.9,0,,,101522.8,9.85,-0.34,0.71,0.42,11.9,4.6,-11.5,34.21,,,,,,,,,,
14.06.54.458,-31.3,7.8,0,,,101522.8,9.85,-0.5,0.8,0.44,-19.3,11.8,-8.6,34.15,,,,,,,,,,
14.06.54.468,-39.9,10.0,0,,,101522.8,9.85,-0.29,0.61,0.51,15.1,-5.4,8.6,34.54,,,,,,,,,,
14.06.54.477,-40.3,10.1,0,,,101522.8,9.85,-0.37,0.85,0.64,0.7,9.1,-2.4,34.45,,,,,,,,,,
14.06.54.487,-37.1,9.3,0,,,101522.8,9.85,-0.39,0.79,0.34,3.7,7.0,-7.3,34.46,,,,,,,,,,
14.06.54.497,-37.4,9.4,0,,,101522.8,9.85,-0.37,0.63,0.55,2.8,-0.8,-0.0,33.69,,,,,,,,,,
14.06.54.507,-47.1,11.8,0,,,101522.8,9.85,-0.37,0.63,0.55,18.2,6.4,-4.6,34.1,,,,,,,,,,
14.06.54.517,-53.0,13.2,0,,,101522.8,9.85,-0.34,0.65,0.44,-15.9,-6.9,-7.0,34.72,,,,,,,,,,
14.06.54.526,-53.2,13.3,0,,,101522.8,9.85,-0.33,0.68,0.44,3.0,13.6,25.0,34.26,,,,,,,,,,
14.06.54.535,-55.7,13.9,0,,,101522.8,9.85,-0.47,0.57,0.47,9.0,9.1,11.8,34.21,,,,,,,,,,
14.06.54.546,-51.5,12.9,0,,,101522.8,9.85,-0.13,0.72,0.45,6.2,15.3,7.8,34.19,,,,,,,,,,
14.06.54.555,-57.2,14.3,0,,,101522.8,9.85,-0.34,0.7,0.28,18.3,-4.0,-10.2,34.87,,,,,,,,,,
14.06.54.565,-59.9,15.0,0,,,101522.8,9.85,-0.43,0.66,0.54,-2.9,1.7,3.9,34.24,,,,,,,,,,
14.06.54.574,-73.1,18.3,0,,,101522.8,9.85,-0.35,0.86,0.44,25.2,-0.3,-10.0,34.21,,,,,,,,,,
14.06.54.583,-66.3,16.6,0,,,101522.8,9.85,-0.35,0.76,0.65,2.0,2.6,-8.1,34.06,,,,,,,,,,
14.06.54.593,-70.7,17.7,0,,,101522.8,9.85,-0.42,0.85,0.53,4.0,6.1,-7.7,34.03,,,,,,,,,,
14.06.54.603,-79.0,19.8,0,,,101522.8,9.85,-0.41,0.9,0.48,-2.2,26.7,1.3,34.41,,,,,,,,,,
14.06.54.612,-73.3,18.3,0,,,101522.8,9.85,-0.25,0.77,0.35,-9.8,12.1,-5.3,34.18,,,,,,,,,,
14.06.54.623,-77.6,19.4,0,,,101522.8,9.85,-0.33,0.77,0.51,-9.2,5.2,6.5,33.95,,,,,,,,,,
14.06.54.633,-82.4,20.6,0,,,101522.8,9.85,-0.32,0.61,0.5,-5.1,8.3,13.7,34.3,,,,,,,,,,
14.06.54.645,-97.4,24.4,0,,,101522.8,9.85,-0.39,0.77,0.48,10.5,19.5,-4.5,34.31,,,,,,,,,,
14.06.54.654,-101.1,25.3,0,,,101522.8,9.85,-0.34,0.64,0.53,-1.3,-2.1,-2.2,34.06,,,,,,,,,,
14.06.54.663,-106.5,26.6,0,,,101522.8,9.85,-0.34,0.71,0.49,9.5,0.4,-11.7,34.31,,,,,,,,,,
14.06.54.673,-87.7,21.9,0,,,101522.8,9.85,-0.4,0.79,0.44,-10.0,3.2,-17.9,34.37,,,,,,,,,,
14.06.54.683,-108.4,27.1,0,,,101522.8,9.85,-0.37,0.87,0.53,3.8,4.5,5.2,34.51,,,,,,,,,,
14.06.54.691,-109.2,27.3,0,,,101522.8,9.85,-0.39,0.82,0.5,-3.9,-2.3,-3.3,34.7,,,,,,,,,,
14.06.54.699,-100.4,25.1,0,,,101522.8,9.85,-0.33,0.61,0.51,1.1,-1.0,-11.7,34.87,,,,,,,,,,
14.06.54.708,-97.7,24.4,0,,,101522.8,9.85,-0.48,0.65,0.52,-8.0,13.3,-4.2,34.24,,,,,,,,,,
14.06.54.718,-103.6,25.9,0,,,101522.8,9.85,-0.28,0.64,0.4,-8.1,-0.7,-14.6,34.11,,,,,,,,,,
14.06.54.726,-120.1,30.0,1,2.0,71.0,101522.8,9.85,-0.36,0.65,0.57,-5.9,14.7,5.3,34.59,,,,,,,,,,
14.06.54.735,-119.5,29.9,0,,,101522.8,9.85,-0.52,0.73,0.49,-3.0,7.0,-0.0,34.43,,,,,,,,,,
14.06.54.746,-130.2,32.6,0,,,101522.8,9.85,-0.42,0.78,0.52,17.0,-1.8,2.6,34.57,,,,,,,,,,
14.06.54.756,6.0,1.5,0,,,101522.8,9.85,-0.46,0.69,0.53,1.7,0.2,0.8,34.17,,,,,,,,,,
14.06.54.766,27.0,6.8,0,,,101522.8,9.85,-0.34,0.61,0.37,-14.0,27.1,-4.3,34.39,,,,,,,,,,
14.06.54.777,75.0,18.8,0,,,101522.8,9.85,-0.41,0.71,0.46,-3.0,0.5,16.2,34.79,,,,,,,,,,
14.06.54.787,112.7,28.2,0,,,101522.8,9.85,-0.33,0.64,0.37,17.9,-0.4,9.2,34.26,,,,,,,,,,
14.06.54.796,140.1,35.0,0,,,101522.8,9.85,-0.44,0.67,0.37,-5.3,-9.4,-11.3,33.4,,,,,,,,,,
14.06.54.809,173.9,43.5,0,,,101522.8,9.85,-0.35,0.79,0.57,16.6,-2.5,2.7,34.91,,,,,,,,,,
14.06.54.818,195.1,48.8,0,,,101522.8,9.85,-0.36,0.6,0.6,14.2,19.3,15.9,34.56,,,,,,,,,,
14.06.54.828,195.7,48.9,0,,,101522.8,9.85,-0.36,0.69,0.37,-0.3,-0.9,13.0,34.24,,,,,,,,,,
14.06.54.838,255.5,63.9,0,,,101522.8,9.85,-0.25,0.64,0.58,9.8,-3.4,8.8,34.33,,,,,,,,,,
14.06.54.848,276.1,69.0,0,,,101522.8,9.85,-0.43,0.65,0.53,31.1,10.3,-5.4,34.33,,,,,,,,,,
14.06.54.859,282.6,70.6,0,,,101522.8,9.85,-0.37,0.78,0.5,-6.4,9.9,-6.5,34.66,,,,,,,,,,
14.06.54.870,294.6,73.6,0,,,101522.8,9.85,-0.31,0.62,0.62,12.7,9.8,6.6,34.31,,,,,,,,,,
14.06.54.881,289.3,72.3,0,,,101522.8,9.85,-0.33,0.76,0.6,-5.8,5.7,-4.2,34.77,,,,,,,,,,
14.06.54.891,310.3,77.6,0,,,101522.8,9.85,-0.47,0.75,0.3,5.3,21.2,-4.8,34.33,,,,,,,,,,
14.06.54.900,314.6,78.6,0,,,101522.8,9.85,-0.33,0.81,0.57,-10.1,0.4,4.3,34.52,,,,,,,,,,
14.06.54.909,319.9,80.0,0,,,101522.8,9.85,-0.36,0.69,0.54,-5.0,-4.2,-17.0,34.42,,,,,,,,,,
14.06.54.918,344.8,86.2,0,,,101522.8,9.85,-0.25,0.81,0.43,12.1,0.5,-7.8,33.9,,,,,,,,,,
14.06.54.927,312.2,78.0,0,,,101522.8,9.85,-0.4,0.7,0.69,4.5,11.5,-7.1,34.64,,,,,,,,,,
14.06.54.938,315.0,78.8,0,,,101522.8,9.85,-0.3,0.82,0.35,8.6,3.4,-4.0,34.31,,,,,,,,,,
14.06.54.946,275.4,68.8,0,,,101522.8,9.85,-0.4,0.68,0.52,8.0,10.9,-16.5,34.68,,,,,,,,,,
14.06.54.956,269.3,67.3,0,,,101522.8,9.85,-0.46,0.86,0.58,-16.6,-4.0,10.1,34.32,,,,,,,,,,
14.06.54.968,249.3,62.3,0,,,101522.8,9.85,-0.23,0.76,0.4,12.1,14.9,-14.1,34.24,,,,,,,,,,
14.06.54.978,252.8,63.2,0,,,101522.8,9.85,-0.36,0.55,0.52,3.5,16.0,-0.4,34.32,,,,,,,,,,
14.06.54.985,231.3,57.8,0,,,101522.8,9.85,-0.39,0.91,0.47,-10.7,0.5,-1.9,34.33,,,,,,,,,,
14.06.54.996,213.0,53.2,0,,,101522.8,9.85,-0.22,0.84,0.28,-6.1,5.7,-3.6,34.13,,,,,,,,,,
14.06.55.006,192.5,48.1,0,,,101522.8,9.85,-0.58,0.66,0.37,23.7,-9.2,11.4,34.51,,,,,,,,,,
14.06.55.017,135.5,33.9,0,,,101522.8,9.85,-0.37,0.69,0.52,9.0,-3.8,-0.6,34.35,,,,,,,,,,
14.06.55.026,114.4,28.6,0,,,101522.8,9.85,-0.33,0.59,0.65,37.4,-0.3,-2.9,34.53,,,,,,,,,,
14.06.55.037,66.2,16.6,0,,,101522.8,9.85,-0.35,0.71,0.51,20.1,5.6,3.1,34.39,,,,,,,,,,
14.06.55.047,53.0,13.2,0,,,101522.8,9.85,-0.34,0.77,0.43,2.3,6.3,-5.4,33.9,,,,,,,,,,
14.06.55.056,16.0,4.0,0,,,101522.8,9.85,-0.51,0.72,0.47,9.9,-22.0,4.7,34.41,,,,,,,,,,
14.06.55.066,11.8,3.0,0,,,101522.8,9.85,-0.3,0.76,0.45,-19.7,28.4,-15.0,34.86,,,,,,,,,,
14.06.55.073,-2.3,0.6,0,,,101522.8,9.85,-0.38,0.51,0.46,7.3,16.5,-10.2,34.58,,,,,,,,,,
14.06.55.083,29.6,7.4,0,,,101522.8,9.85,-0.37,0.7,0.46,-14.6,18.7,-1.0,34.41,,,,,,,,,,
14.06.55.093,32.3,8.1,0,,,101522.8,9.85,-0.41,1.0,0.41,-4.3,12.2,-5.2,34.35,,,,,,,,,,
14.06.55.103,36.6,9.2,0,,,101522.8,9.85,-0.51,0.62,0.59,-17.3,-1.4,4.1,34.53,,,,,,,,,,
14.06.55.111,47.6,11.9,0,,,101522.8,9.85,-0.18,0.64,0.43,7.6,1.0,4.5,34.5,,,,,,,,,,
14.06.55.118,57.4,14.4,0,,,101522.8,9.85,-0.33,0.57,0.65,-12.9,-3.7,4.2,34.25,,,,,,,,,,
14.06.55.129,57.9,14.5,0,,,101522.8,9.85,-0.3,0.61,0.55,1.5,19.4,-16.1,34.18,,,,,,,,,,
14.06.55.141,55.1,13.8,0,,,101522.8,9.85,-0.46,0.85,0.61,-10.2,-3.4,10.3,34.23,,,,,,,,,,
14.06.55.150,61.3,15.3,0,,,101522.8,9.85,-0.34,0.65,0.56,1.4,-4.9,-4.2,34.71,,,,,,,,,,
14.06.55.161,56.6,14.2,0,,,101522.8,9.85,-0.44,0.68,0.46,20.8,2.1,-8.2,34.54,,,,,,,,,,
14.06.55.170,57.7,14.4,0,,,101522.8,9.85,-0.41,0.71,0.45,-7.6,0.2,-9.0,34.19,,,,,,,,,,
14.06.55.179,46.2,11.6,0,,,101522.8,9.85,-0.36,0.7,0.48,-4.7,0.6,-0.3,34.53,,,,,,,,,,
14.06.55.191,50.8,12.7,0,,,101522.8,9.85,-0.46,0.93,0.44,25.8,-7.3,-6.1,34.01,,,,,,,,,,
14.06.55.200,27.2,6.8,0,,,101522.8,9.85,-0.41,0.74,0.69,0.7,13.2,12.7,34.22,,,,,,,,,,
14.06.55.209,32.3,8.1,0,,,101522.8,9.85,-0.41,0.79,0.58,-1.1,10.3,-1.3,33.97,,,,,,,,,,
14.06.55.218,14.5,3.6,0,,,101522.8,9.85,-0.4,0.81,0.37,-1.0,15.2,3.2,34.39,,,,,,,,,,
14.06.55.230,5.2,1.3,0,,,101522.8,9.85,-0.37,0.75,0.48,18.3,2.1,0.3,34.37,,,,,,,,,,
14.06.55.239,-0.9,0.2,0,,,101522.8,9.85,-0.29,0.7,0.51,13.4,-11.4,-0.9,34.06,,,,,,,,,,
14.06.55.249,-8.8,2.2,0,,,101522.8,9.85,-0.35,0.84,0.57,-5.7,14.5,6.6,34.43,,,,,,,,,,
14.06.55.260,-11.5,2.9,0,,,101522.8,9.85,-0.36,0.71,0.48,-2.0,-0.1,3.7,34.22,,,,,,,,,,
14.06.55.270,-15.6,3.9,0,,,101522.8,9.85,-0.5,0.93,0.44,16.6,16.2,2.3,34.32,,,,,,,,,,
14.06.55.280,-16.4,4.1,0,,,101522.8,9.85,-0.49,0.7,0.41,-6.8,2.5,5.8,34.5,,,,,,,,,,
14.06.55.291,-16.2,4.0,0,,,101522.8,9.85,-0.35,0.68,0.46,-1.5,4.2,7.0,34.27,,,,,,,,,,
14.06.55.300,-11.9,3.0,0,,,101522.8,9.85,-0.38,0.79,0.49,-24.1,7.7,-15.9,33.97,,,,,,,,,,
14.06.55.310,-20.3,5.1,0,,,101522.8,9.85,-0.34,0.88,0.53,7.4,-2.0,-12.9,34.17,,,,,,,,,,
14.06.55.320,-29.0,7.2,0,,,101522.8,9.85,-0.49,0.68,0.49,-2.6,0.8,8.0,34.38,,,,,,,,,,
14.06.55.330,-32.1,8.0,0,,,101522.8,9.85,-0.24,0.6,0.54,-13.7,17.7,-3.3,34.47,,,,,,,,,,
14.06.55.338,-35.1,8.8,0,,,101522.8,9.85,-0.27,0.61,0.63,-2.1,20.1,6.4,34.22,,,,,,,,,,
14.06.55.347,-40.8,10.2,0,,,101522.8,9.85,-0.21,0.73,0.59,8.2,-4.8,-10.2,33.85,,,,,,,,,,
14.06.55.356,-38.1,9.5,0,,,101522.8,9.85,-0.43,0.81,0.52,-15.7,10.6,-17.6,34.57,,,,,,,,,,
14.06.55.365,-39.8,10.0,0,,,101522.8,9.85,-0.37,0.74,0.58,7.7,7.1,-1.8,34.54,,,,,,,,,,
14.06.55.376,-49.7,12.4,0,,,101522.8,9.85,-0.47,0.77,0.49,-14.2,16.0,-0.9,34.27,,,,,,,,,,
14.06.55.386,-50.1,12.5,0,,,101522.8,9.85,-0.37,0.87,0.47,-2.3,11.1,-13.2,33.65,,,,,,,,,,
14.06.55.397,-54.6,13.6,0,,,101522.8,9.85,-0.43,0.92,0.38,2.3,22.2,-11.3,34.55,,,,,,,,,,
14.06.55.406,-64.2,16.0,0,,,101522.8,9.85,-0.4,0.72,0.52,1.7,8.4,-5.8,34.37,,,,,,,,,,
14.06.55.416,-59.6,14.9,0,,,101522.8,9.85,-0.39,0.49,0.55,-10.4,-17.4,-0.3,34.2,,,,,,,,,,
14.06.55.426,-56.9,14.2,0,,,101522.8,9.85,-0.41,0.85,0.53,-6.2,7.0,4.5,34.27,,,,,,,,,,
14.06.55.435,-63.9,16.0,0,,,101522.8,9.85,-0.21,0.77,0.64,1.8,9.9,-0.9,34.55,,,,,,,,,,
14.06.55.445,-68.6,17.2,0,,,101522.8,9.85,-0.43,0.67,0.51,15.6,7.8,1.2,34.39,,,,,,,,,,
14.06.55.455,-78.8,19.7,0,,,101522.8,9.85,-0.32,0.82,0.49,-6.0,27.0,-11.6,34.21,,,,,,,,,,
14.06.55.465,-75.8,19.0,0,,,101522.8,9.85,-0.26,0.72,0.42,1.4,-4.8,1.3,34.57,,,,,,,,,,
14.06.55.473,-63.7,15.9,0,,,101522.8,9.85,-0.3,0.85,0.58,10.9,0.7,14.1,34.52,,,,,,,,,,
14.06.55.484,-84.0,21.0,0,,,101522.8,9.85,-0.36,0.95,0.47,-12.5,13.6,-2.7,33.6,,,,,,,,,,
14.06.55.494,-92.6,23.2,0,,,101522.8,9.85,-0.25,0.69,0.4,-9.0,11.8,4.4,34.46,,,,,,,,,,
14.06.55.503,-80.0,20.0,0,,,101522.8,9.85,-0.27,0.78,0.56,-8.2,-8.7,-3.7,34.42,,,,,,,,,,
14.06.55.511,-88.5,22.1,0,,,101522.8,9.85,-0.36,0.78,0.51,7.5,5.1,-0.4,34.38,,,,,,,,,,
14.06.55.520,-97.9,24.5,0,,,101522.8,9.85,-0.39,0.72,0.59,24.3,-0.5,11.9,34.41,,,,,,,,,,
14.06.55.531,-95.3,23.8,0,,,101522.8,9.85,-0.33,0.81,0.55,3.5,12.6,9.2,34.16,,,,,,,,,,
14.06.55.540,-97.3,24.3,0,,,101522.8,9.85,-0.28,0.8,0.52,-0.8,9.7,-9.9,34.4,,,,,,,,,,
14.06.55.550,-103.3,25.8,0,,,101522.8,9.85,-0.31,0.84,0.5,-4.2,21.5,2.0,34.01,,,,,,,,,,
14.06.55.560,-103.0,25.8,0,,,101522.8,9.85,-0.37,0.85,0.52,-9.8,-22.9,-13.4,34.36,,,,,,,,,,
14.06.55.570,-110.7,27.7,0,,,101522.8,9.85,-0.33,0.82,0.49,1.9,-1.0,-3.6,34.4,,,,,,,,,,
14.06.55.583,-110.2,27.6,0,,,101522.8,9.85,-0.33,0.8,0.55,-11.7,-1.5,3.5,34.59,,,,,,,,,,
14.06.55.592,-130.8,32.7,0,,,101522.8,9.85,-0.32,0.69,0.43,1.7,8.9,-13.3,34.53,,,,,,,,,,
14.06.55.603,-113.0,28.2,0,,,101522.8,9.85,-0.34,0.69,0.54,16.6,4.4,1.5,34.33,,,,,,,,,,
14.06.55.613,-126.3,31.6,1,3.0,67.6,101522.8,9.85,-0.47,0.75,0.44,7.7,-6.5,-6.1,34.47,,,,,,,,,,
14.06.55.623,-119.0,29.8,0,,,101522.8,9.85,-0.43,0.75,0.33,3.1,17.4,-0.8,33.92,,,,,,,,,,
14.06.55.633,10.1,2.5,0,,,101522.8,9.85,-0.39,0.68,0.53,5.8,-0.1,6.3,34.43,,,,,,,,,,
14.06.55.643,41.4,10.4,0,,,101522.8,9.85,-0.37,0.83,0.5,-1.9,13.0,-6.6,34.04,,,,,,,,,,
14.06.55.651,70.8,17.7,0,,,101522.8,9.85,-0.39,0.8,0.44,-14.4,22.6,-5.3,34.51,,,,,,,,,,
14.06.55.661,100.4,25.1,0,,,101522.8,9.85,-0.25,0.72,0.51,4.7,11.8,3.9,33.81,,,,,,,,,,
14.06.55.672,134.1,33.5,0,,,101522.8,9.85,-0.31,0.73,0.52,-3.1,0.5,21.2,34.57,,,,,,,,,,
14.06.55.681,165.7,41.4,0,,,101522.8,9.85,-0.38,0.91,0.57,-5.1,16.9,9.1,34.33,,,,,,,,,,
14.06.55.689,172.7,43.2,0,,,101522.8,9.85,-0.31,0.85,0.62,-0.7,0.4,-3.9,34.04,,,,,,,,,,
14.06.55.698,208.9,52.2,0,,,101522.8,9.85,-0.29,0.69,0.41,0.5,3.0,7.6,34.36,,,,,,,,,,
14.06.55.706,218.7,54.7,0,,,101522.8,9.85,-0.39,0.61,0.62,-9.9,-8.8,-0.2,33.77,,,,,,,,,,
14.06.55.715,263.7,65.9,0,,,101522.8,9.85,-0.37,0.8,0.45,15.5,13.3,2.0,34.15,,,,,,,,,,
14.06.55.727,281.5,70.4,0,,,101522.8,9.85,-0.32,0.9,0.45,-12.8,-6.2,-6.9,34.21,,,,,,,,,,
14.06.55.737,276.3,69.1,0,,,101522.8,9.85,-0.36,0.55,0.64,4.0,-2.5,-6.8,34.25,,,,,,,,,,
14.06.55.746,284.8,71.2,0,,,101522.8,9.85,-0.26,0.69,0.54,20.1,10.5,1.4,34.28,,,,,,,,,,
14.06.55.758,287.2,71.8,0,,,101522.8,9.85,-0.4,0.81,0.54,7.6,-0.3,5.0,34.03,,,,,,,,,,
14.06.55.768,285.1,71.3,0,,,101522.8,9.85,-0.27,0.58,0.45,-14.2,2.6,-11.0,34.6,,,,,,,,,,
14.06.55.779,329.7,82.4,0,,,101522.8,9.85,-0.38,0.68,0.42,10.9,-0.8,-3.8,34.75,,,,,,,,,,
14.06.55.789,336.7,84.2,0,,,101522.8,9.85,-0.3,0.66,0.52,16.8,9.1,1.4,34.29,,,,,,,,,,
14.06.55.798,309.3,77.3,0,,,101522.8,9.85,-0.39,0.86,0.46,10.5,13.8,-13.5,34.11,,,,,,,,,,
14.06.55.806,337.5,84.4,0,,,101522.8,9.85,-0.48,0.63,0.51,1.6,9.7,8.6,34.26,,,,,,,,,,
14.06.55.815,290.3,72.6,0,,,101522.8,9.85,-0.38,0.74,0.49,-12.3,-4.6,2.9,34.59,,,,,,,,,,
14.06.55.826,307.9,77.0,0,,,101522.8,9.85,-0.41,0.69,0.45,-14.4,7.7,-8.1,34.52,,,,,,,,,,
14.06.55.835,268.1,67.0,0,,,101522.8,9.85,-0.27,0.77,0.49,17.4,5.1,-10.2,34.5,,,,,,,,,,
14.06.55.843,260.4,65.1,0,,,101522.8,9.85,-0.26,0.7,0.5,18.4,10.1,9.4,34.69,,,,,,,,,,
14.06.55.853,247.7,61.9,0,,,101522.8,9.85,-0.44,0.82,0.5,12.3,10.4,2.6,34.7,,,,,,,,,,
14.06.55.865,220.8,55.2,0,,,101522.8,9.85,-0.37,0.67,0.46,-5.1,-2.3,0.2,33.8,,,,,,,,,,
14.06.55.875,188.9,47.2,0,,,101522.8,9.85,-0.35,0.78,0.47,13.5,12.0,-6.9,34.65,,,,,,,,,,
14.06.55.885,126.2,31.6,0,,,101522.8,9.85,-0.47,0.77,0.54,-1.0,-5.9,-8.4,34.35,,,,,,,,,,
14.06.55.894,128.6,32.2,0,,,101522.8,9.85,-0.27,0.82,0.44,-0.9,8.5,-10.7,33.78,,,,,,,,,,
14.06.55.905,105.8,26.4,0,,,101522.8,9.85,-0.25,0.81,0.43,-2.4,9.8,-6.9,34.37,,,,,,,,,,
14.06.55.915,64.9,16.2,0,,,101522.8,9.85,-0.32,0.87,0.5,-0.9,13.2,2.2,33.99,,,,,,,,,,
14.06.55.926,32.5,8.1,0,,,101522.8,9.85,-0.34,0.6,0.29,-17.6,2.0,-11.2,34.34,,,,,,,,,,
14.06.55.937,9.3,2.3,0,,,101522.8,9.85,-0.37,0.8,0.42,6.9,-5.7,-1.2,34.77,,,,,,,,,,
14.06.55.948,13.5,3.4,0,,,101522.8,9.85,-0.36,0.76,0.56,-13.2,7.5,-6.5,34.38,,,,,,,,,,
14.06.55.959,22.9,5.7,0,,,101522.8,9.85,-0.29,0.59,0.41,2.4,9.9,-21.6,34.07,,,,,,,,,,
14.06.55.968,35.6,8.9,0,,,101522.8,9.85,-0.46,0.76,0.64,5.0,-0.4,-0.6,34.11,,,,,,,,,,
14.06.55.979,42.4,10.6,0,,,101522.8,9.85,-0.41,0.92,0.59,-4.1,3.2,-8.6,34.1,,,,,,,,,,
14.06.55.989,49.2,12.3,0,,,101522.8,9.85,-0.34,0.81,0.67,-13.7,11.2,1.5,34.15,,,,,,,,,,
14.06.55.998,47.8,12.0,0,,,101522.8,9.85,-0.35,0.75,0.6,-13.0,7.6,6.7,34.44,,,,,,,,,,
14.06.56.008,54.8,13.7,0,,,101522.8,9.85,-0.38,0.73,0.44,-3.5,34.8,8.6,34.42,,,,,,,,,,
14.06.56.018,60.5,15.1,0,,,101522.8,9.85,-0.37,0.74,0.48,28.1,-2.2,-2.7,34.03,,,,,,,,,,
14.06.56.029,,,0,,,,,,,,,,,,,,,,,,,,,
14.06.56.040,52.0,13.0,0,,,101522.8,9.85,-0.54,0.62,0.55,-10.7,-0.3,-4.4,34.2,,,,,,,,,,
14.06.56.050,41.7,10.4,0,,,101522.8,9.85,-0.36,0.52,0.52,-3.9,12.3,-0.1,34.54,,,,,,,,,,
14.06.56.061,43.4,10.8,0,,,101522.8,9.85,-0.4,0.68,0.62,-8.6,3.0,-8.6,34.08,,,,,,,,,,
14.06.56.071,25.8,6.4,0,,,101522.8,9.85,-0.34,0.81,0.56,-9.9,4.1,-1.3,34.1,,,,,,,,,,
14.06.56.082,26.8,6.7,0,,,101522.8,9.85,-0.39,0.76,0.52,11.1,17.3,-1.3,34.52,,,,,,,,,,
14.06.56.090,9.6,2.4,0,,,101522.8,9.85,-0.16,0.66,0.5,4.2,12.6,-10.1,34.4,,,,,,,,,,
14.06.56.100,20.4,5.1,0,,,101522.8,9.85,-0.24,0.73,0.45,-0.3,-6.1,-4.8,34.54,,,,,,,,,,
14.06.56.112,7.2,1.8,0,,,101522.8,9.85,-0.44,0.71,0.57,-16.0,-1.5,-2.5,34.69,,,,,,,,,,
14.06.56.123,-3.1,0.8,0,,,101522.8,9.85,-0.24,0.72,0.58,4.6,15.8,8.0,34.06,,,,,,,,,,
14.06.56.133,-2.9,0.7,0,,,101522.8,9.85,-0.45,0.82,0.47,-8.0,4.5,2.2,34.5,,,,,,,,,,
14.06.56.141,3.9,1.0,0,,,101522.8,9.85,-0.29,0.7,0.45,1.2,18.2,-6.3,34.19,,,,,,,,,,
14.06.56.149,-11.9,3.0,0,,,101522.8,9.85,-0.37,0.72,0.61,-14.9,-17.8,-3.3,33.8,,,,,,,,,,
14.06.56.159,-19.1,4.8,0,,,101522.8,9.85,-0.35,0.82,0.54,-16.2,1.7,-3.3,34.2,,,,,,,,,,
14.06.56.168,-10.5,2.6,0,,,101522.8,9.85,-0.45,0.64,0.49,3.7,-4.1,-7.0,34.37,,,,,,,,,,
14.06.56.177,-10.0,2.5,0,,,101522.8,9.85,-0.31,0.72,0.57,-5.7,11.8,7.5,34.27,,,,,,,,,,
14.06.56.186,-14.1,3.5,0,,,101522.8,9.85,-0.32,0.6,0.48,7.6,-6.4,5.2,34.03,,,,,,,,,,
14.06.56.196,-19.0,4.8,0,,,101522.8,9.85,-0.41,0.77,0.41,2.6,12.7,-1.5,34.0,,,,,,,,,,
14.06.56.207,-30.5,7.6,0,,,101522.8,9.85,-0.4,0.84,0.53,-8.2,-0.4,-4.0,34.27,,,,,,,,,,
14.06.56.215,-41.4,10.4,0,,,101522.8,9.85,-0.38,0.73,0.61,14.3,-4.4,-7.2,34.54,,,,,,,,,,
14.06.56.224,-22.5,5.6,0,,,101522.8,9.85,-0.3,0.66,0.58,-0.3,-0.2,-8.7,34.48,,,,,,,,,,
14.06.56.235,-34.9,8.7,0,,,101522.8,9.85,-0.35,0.64,0.48,3.5,16.5,10.5,33.99,,,,,,,,,,
14.06.56.247,-42.9,10.7,0,,,101522.8,9.85,-0.34,0.85,0.36,2.3,16.6,-0.5,34.78,,,,,,,,,,
14.06.56.256,-38.7,9.7,0,,,101522.8,9.85,-0.4,0.6,0.49,-21.4,3.9,3.4,34.69,,,,,,,,,,
14.06.56.266,-39.5,9.9,0,,,101522.8,9.85,-0.36,0.67,0.64,19.3,4.0,-8.5,34.27,,,,,,,,,,
14.06.56.277,-47.2,11.8,0,,,101522.8,9.85,-0.43,0.65,0.58,-1.6,9.6,-8.8,34.08,,,,,,,,,,
14.06.56.285,-54.3,13.6,0,,,101522.8,9.85,-0.42,0.62,0.43,-17.0,4.7,-9.3,34.76,,,,,,,,,,
14.06.56.292,-71.9,18.0,0,,,101522.8,9.85,-0.38,0.67,0.39,2.8,17.6,-3.3,34.4,,,,,,,,,,
14.06.56.302,-64.0,16.0,0,,,101522.8,9.85,-0.23,0.76,0.51,23.6,20.6,-3.4,34.98,,,,,,,,,,
14.06.56.311,-70.8,17.7,0,,,101522.8,9.85,-0.32,0.88,0.45,9.3,12.6,6.4,33.63,,,,,,,,,,
14.06.56.322,-60.7,15.2,0,,,101522.8,9.85,-0.43,0.67,0.49,-21.6,13.5,-9.0,34.51,,,,,,,,,,
14.06.56.331,-67.8,17.0,0,,,101522.8,9.85,-0.36,0.8,0.68,-10.3,-6.9,-7.2,34.69,,,,,,,,,,
14.06.56.341,-81.5,20.4,0,,,101522.8,9.85,-0.36,0.87,0.46,6.0,4.3,10.3,34.22,,,,,,,,,,
14.06.56.349,-74.1,18.5,0,,,101522.8,9.85,-0.39,0.63,0.46,-12.2,0.3,2.1,34.44,,,,,,,,,,
14.06.56.359,-87.3,21.8,0,,,101522.8,9.85,-0.32,0.85,0.51,0.5,11.9,8.9,34.49,,,,,,,,,,
14.06.56.369,-73.5,18.4,0,,,101522.8,9.85,-0.47,0.81,0.37,-10.8,-6.8,-9.2,34.5,,,,,,,,,,
14.06.56.378,-95.0,23.8,0,,,101522.8,9.85,-0.48,0.88,0.46,23.8,10.4,-6.4,33.46,,,,,,,,,,
14.06.56.387,-92.5,23.1,0,,,101522.8,9.85,-0.36,0.73,0.47,-2.5,-3.6,-7.8,34.46,,,,,,,,,,
14.06.56.396,-101.7,25.4,0,,,101522.8,9.85,-0.28,0.58,0.5,23.4,-7.2,-3.4,33.98,,,,,,,,,,
14.06.56.405,-87.0,21.8,0,,,101522.8,9.85,-0.43,0.65,0.49,9.3,4.1,-6.5,34.66,,,,,,,,,,
14.06.56.414,-95.1,23.8,0,,,101522.8,9.85,-0.41,0.69,0.48,-6.6,18.4,-6.2,34.05,,,,,,,,,,
14.06.56.422,-91.1,22.8,0,,,101522.8,9.85,-0.35,0.63,0.54,9.9,0.6,-2.3,33.97,,,,,,,,,,
14.06.56.432,-112.3,28.1,0,,,101522.8,9.85,-0.14,0.78,0.34,10.7,2.6,-2.0,34.52,,,,,,,,,,
14.06.56.440,-106.9,26.7,0,,,101522.8,9.85,-0.48,0.88,0.33,-10.4,-9.4,-0.1,34.27,,,,,,,,,,
14.06.56.450,-120.5,30.1,0,,,101522.8,9.85,-0.28,0.63,0.46,-19.7,-4.6,-10.8,34.58,,,,,,,,,,
14.06.56.458,-115.9,29.0,0,,,101522.8,9.85,-0.49,0.76,0.54,10.0,17.2,8.9,33.76,,,,,,,,,,
14.06.56.467,-110.6,27.6,0,,,101522.8,9.85,-0.34,0.7,0.43,-21.2,-12.7,2.2,34.56,,,,,,,,,,
14.06.56.478,-120.9,30.2,0,,,101522.8,9.85,-0.31,0.66,0.56,-28.9,15.3,-11.1,34.3,,,,,,,,,,
14.06.56.489,-117.3,29.3,0,,,101522.8,9.85,-0.19,0.91,0.59,2.0,-2.2,-4.7,34.14,,,,,,,,,,
14.06.56.499,-127.9,32.0,0,,,101522.8,9.85,-0.4,0.73,0.59,17.9,9.7,6.0,34.14,,,,,,,,,,
14.06.56.509,10.8,2.7,1,4.0,67.0,101522.8,9.85,-0.24,0.64,0.43,10.4,2.4,-7.7,33.61,,,,,,,,,,
14.06.56.518,40.0,10.0,0,,,101522.8,9.85,-0.22,0.81,0.4,11.5,4.5,2.9,33.81,,,,,,,,,,
14.06.56.530,78.2,19.6,0,,,101522.8,9.85,-0.43,0.78,0.52,13.5,15.4,-12.6,34.38,,,,,,,,,,
14.06.56.540,115.0,28.8,0,,,101522.8,9.85,-0.46,0.87,0.47,-2.4,7.1,4.9,34.28,,,,,,,,,,
14.06.56.548,131.7,32.9,0,,,101522.8,9.85,-0.43,0.81,0.54,8.8,1.9,-1.3,34.16,,,,,,,,,,
14.06.56.560,148.2,37.0,0,,,101522.8,9.85,-0.42,0.72,0.55,12.9,10.6,2.9,33.93,,,,,,,,,,
14.06.56.571,220.6,55.2,0,,,101522.8,9.85,-0.32,0.6,0.49,-10.5,12.8,5.2,34.11,,,,,,,,,,
14.06.56.580,213.0,53.2,0,,,101522.8,9.85,-0.34,0.77,0.56,-14.0,2.9,-0.4,34.75,,,,,,,,,,
14.06.56.590,261.5,65.4,0,,,101522.8,9.85,-0.32,0.71,0.48,17.1,-4.0,9.2,34.33,,,,,,,,,,
14.06.56.601,262.6,65.6,0,,,101522.8,9.85,-0.59,0.87,0.49,5.9,13.4,11.6,34.28,,,,,,,,,,
14.06.56.609,266.3,66.6,0,,,101522.8,9.85,-0.38,0.7,0.51,-13.1,-0.3,1.4,34.12,,,,,,,,,,
14.06.56.619,299.4,74.8,0,,,101522.8,9.85,-0.52,0.71,0.37,13.3,7.7,2.0,34.3,,,,,,,,,,
14.06.56.629,321.9,80.5,0,,,101522.8,9.85,-0.4,0.74,0.55,6.2,-5.8,3.1,34.36,,,,,,,,,,
14.06.56.639,338.4,84.6,0,,,101522.8,9.85,-0.27,0.71,0.55,5.0,6.1,-1.2,34.22,,,,,,,,,,
14.06.56.650,311.0,77.8,0,,,101522.8,9.85,-0.47,0.6,0.52,-20.9,6.8,-11.0,34.57,,,,,,,,,,
14.06.56.659,318.2,79.6,0,,,101522.8,9.85,-0.36,0.68,0.41,2.2,15.3,-11.8,34.5,,,,,,,,,,
14.06.56.669,308.2,77.0,0,,,101522.8,9.85,-0.47,0.7,0.46,21.8,31.8,-3.9,34.3,,,,,,,,,,
14.06.56.679,323.1,80.8,0,,,101522.8,9.85,-0.24,0.58,0.48,4.9,0.6,-0.4,34.35,,,,,,,,,,
14.06.56.688,331.7,82.9,0,,,101522.8,9.85,-0.52,0.6,0.51,-14.0,4.9,-6.4,34.29,,,,,,,,,,
14.06.56.699,309.6,77.4,0,,,101522.8,9.85,-0.31,0.72,0.43,-7.7,15.4,-2.8,34.3,,,,,,,,,,
14.06.56.709,257.9,64.5,0,,,101522.8,9.85,-0.27,0.87,0.47,3.1,12.0,-11.1,34.41,,,,,,,,,,
14.06.56.720,264.0,66.0,0,,,101522.8,9.85,-0.41,0.53,0.5,8.6,-1.6,0.1,34.73,,,,,,,,,,
14.06.56.729,228.6,57.2,0,,,101522.8,9.85,-0.36,0.91,0.5,-8.0,21.0,4.5,33.91,,,,,,,,,,
14.06.56.739,222.3,55.6,0,,,101522.8,9.85,-0.26,0.59,0.51,5.9,11.6,13.0,34.09,,,,,,,,,,
14.06.56.750,184.6,46.2,0,,,101522.8,9.85,-0.4,0.86,0.49,17.1,0.4,-2.0,34.45,,,,,,,,,,
14.06.56.761,153.2,38.3,0,,,101522.8,9.85,-0.45,0.64,0.38,-13.4,12.5,-1.1,34.33,,,,,,,,,,
14.06.56.772,129.1,32.3,0,,,101522.8,9.85,-0.16,0.85,0.42,18.8,3.6,-0.6,34.18,,,,,,,,,,
14.06.56.783,91.7,22.9,0,,,101522.8,9.85,-0.33,0.8,0.4,3.0,5.2,-0.7,34.09,,,,,,,,,,
14.06.56.791,59.4,14.8,0,,,101522.8,9.85,-0.39,0.6,0.47,7.6,15.4,6.6,34.31,,,,,,,,,,
14.06.56.802,33.6,8.4,0,,,101522.8,9.85,-0.24,0.81,0.5,7.4,-4.0,-1.9,34.49,,,,,,,,,,
14.06.56.812,1.1,0.3,0,,,101522.8,9.85,-0.42,0.78,0.47,6.4,1.6,-4.9,34.06,,,,,,,,,,
14.06.56.822,4.3,1.1,0,,,101522.8,9.85,-0.41,0.77,0.49,15.0,-3.8,-4.6,34.22,,,,,,,,,,
14.06.56.831,21.8,5.4,0,,,101522.8,9.85,-0.54,0.78,0.38,-5.6,10.3,-9.0,34.03,,,,,,,,,,
14.06.56.842,33.6,8.4,0,,,101522.8,9.85,-0.29,0.73,0.57,-0.6,18.3,-2.4,34.39,,,,,,,,,,
14.06.56.850,41.2,10.3,0,,,101522.8,9.85,-0.38,0.81,0.45,-12.9,2.7,-2.8,34.74,,,,,,,,,,
14.06.56.860,42.1,10.5,0,,,101522.8,9.85,-0.48,0.66,0.36,32.5,9.8,0.7,34.12,,,,,,,,,,
14.06.56.868,49.6,12.4,0,,,101522.8,9.85,-0.36,0.63,0.4,-5.4,6.9,-6.0,34.73,,,,,,,,,,
14.06.56.878,56.4,14.1,0,,,101522.8,9.85,-0.44,0.81,0.46,1.6,-4.8,2.9,34.31,,,,,,,,,,
14.06.56.887,54.9,13.7,0,,,101522.8,9.85,-0.35,0.74,0.41,-13.6,-3.8,3.7,34.11,,,,,,,,,,
14.06.56.897,65.8,16.4,0,,,101522.8,9.85,-0.33,0.83,0.55,-8.2,15.1,7.3,34.7,,,,,,,,,,
14.06.56.907,70.3,17.6,0,,,101522.8,9.85,-0.37,0.6,0.59,1.1,2.8,-2.4,34.45,,,,,,,,,,
14.06.56.915,58.0,14.5,0,,,101522.8,9.85,-0.33,0.68,0.39,-14.3,4.6,-18.0,33.99,,,,,,,,,,
14.06.56.924,64.4,16.1,0,,,101522.8,9.85,-0.3,0.72,0.5,-7.2,4.0,11.4,34.2,,,,,,,,,,
14.06.56.936,55.4,13.8,0,,,101522.8,9.85,-0.25,0.67,0.4,5.9,-9.4,-16.5,34.36,,,,,,,,,,
14.06.56.945,45.6,11.4,0,,,101522.8,9.85,-0.49,0.95,0.54,5.2,15.6,5.0,33.98,,,,,,,,,,
14.06.56.956,39.6,9.9,0,,,101522.8,9.85,-0.55,0.77,0.43,-10.0,6.1,2.6,34.61,,,,,,,,,,
14.06.56.967,21.2,5.3,0,,,101522.8,9.85,-0.2,0.7,0.56,-2.0,-8.6,-0.7,34.82,,,,,,,,,,
14.06.56.978,9.4,2.4,0,,,101522.8,9.85,-0.33,0.71,0.5,-1.3,-1.4,-8.4,34.49,,,,,,,,,,
14.06.56.987,-2.7,0.7,0,,,101522.8,9.85,-0.12,0.83,0.53,3.9,18.8,-5.9,34.75,,,,,,,,,,
14.06.56.998,3.3,0.8,0,,,101522.8,9.85,-0.38,0.74,0.42,-6.9,4.2,-4.1,34.49,,,,,,,,,,
14.06.57.007,-12.8,3.2,0,,,101522.8,9.85,-0.42,0.76,0.42,1.7,1.6,0.5,34.68,,,,,,,,,,
14.06.57.017,-9.0,2.2,0,,,101522.8,9.85,-0.23,0.82,0.53,-29.5,9.6,-11.6,33.98,,,,,,,,,,
14.06.57.028,-17.0,4.2,0,,,101522.8,9.85,-0.31,0.75,0.47,11.2,24.4,-5.9,34.18,,,,,,,,,,
14.06.57.039,-18.0,4.5,0,,,101522.8,9.85,-0.37,0.62,0.45,-16.7,20.1,-0.2,33.87,,,,,,,,,,
14.06.57.047,-24.2,6.0,0,,,101522.8,9.85,-0.33,0.7,0.44,-16.9,4.9,-3.2,34.48,,,,,,,,,,
14.06.57.056,-22.5,5.6,0,,,101522.8,9.85,-0.33,0.79,0.53,9.3,6.3,15.1,33.88,,,,,,,,,,
14.06.57.066,-27.0,6.8,0,,,101522.8,9.85,-0.39,0.68,0.29,-0.4,16.6,-6.7,34.36,,,,,,,,,,
14.06.57.077,-24.1,6.0,0,,,101522.8,9.85,-0.46,0.72,0.28,4.1,15.3,4.3,34.65,,,,,,,,,,
14.06.57.086,-26.5,6.6,0,,,101522.8,9.85,-0.24,0.67,0.39,-21.6,3.5,-8.9,34.35,,,,,,,,,,
14.06.57.095,-40.8,10.2,0,,,101522.8,9.85,-0.3,0.72,0.44,3.9,-0.5,-2.3,34.51,,,,,,,,,,
14.06.57.105,-30.8,7.7,0,,,101522.8,9.85,-0.36,0.85,0.48,-12.4,7.3,-3.1,34.54,,,,,,,,,,
14.06.57.113,-35.9,9.0,0,,,101522.8,9.85,-0.29,0.63,0.51,-15.4,-4.9,-2.1,34.52,,,,,,,,,,
14.06.57.123,-43.7,10.9,0,,,101522.8,9.85,-0.38,0.81,0.43,-13.5,9.9,2.8,34.61,,,,,,,,,,
14.06.57.132,-51.4,12.8,0,,,101522.8,9.85,-0.57,0.8,0.47,10.9,4.8,-1.8,33.96,,,,,,,,,,
14.06.57.141,-49.6,12.4,0,,,101522.8,9.85,-0.22,0.68,0.48,-7.7,2.7,3.8,34.46,,,,,,,,,,
14.06.57.150,-60.9,15.2,0,,,101522.8,9.85,-0.39,0.81,0.45,4.4,14.8,3.1,34.55,,,,,,,,,,
14.06.57.159,-49.9,12.5,0,,,101522.8,9.85,-0.46,0.73,0.55,-3.1,11.6,-13.2,34.3,,,,,,,,,,
14.06.57.166,-58.0,14.5,0,,,101522.8,9.85,-0.34,0.8,0.54,2.4,11.0,-12.4,34.11,,,,,,,,,,
14.06.57.176,-63.8,16.0,0,,,101522.8,9.85,-0.33,0.74,0.62,-19.7,10.6,5.0,34.36,,,,,,,,,,
14.06.57.185,-59.4,14.8,0,,,101522.8,9.85,-0.31,0.79,0.54,15.1,-11.7,4.1,33.79,,,,,,,,,,
14.06.57.196,-62.8,15.7,0,,,101522.8,9.85,-0.37,0.63,0.47,-14.1,13.1,6.2,34.67,,,,,,,,,,
14.06.57.206,-72.7,18.2,0,,,101522.8,9.85,-0.4,0.74,0.41,-2.8,18.1,-2.2,33.89,,,,,,,,,,
14.06.57.215,-74.4,18.6,0,,,101522.8,9.85,-0.35,0.68,0.52,7.0,14.0,17.2,34.15,,,,,,,,,,
14.06.57.226,-88.1,22.0,0,,,101522.8,9.85,-0.38,0.75,0.43,20.5,1.0,-0.2,34.04,,,,,,,,,,
14.06.57.235,-79.1,19.8,0,,,101522.8,9.85,-0.35,0.79,0.59,36.0,9.5,-5.3,33.85,,,,,,,,,,
14.06.57.242,-81.2,20.3,0,,,101522.8,9.85,-0.32,0.74,0.53,-4.2,1.9,17.6,34.23,,,,,,,,,,
14.06.57.253,-103.7,25.9,0,,,101522.8,9.85,-0.33,0.81,0.47,13.8,2.1,-8.6,34.71,,,,,,,,,,
14.06.57.262,-91.2,22.8,0,,,101522.8,9.85,-0.43,0.63,0.7,10.1,10.1,-4.2,34.2,,,,,,,,,,
14.06.57.272,-101.7,25.4,0,,,101522.8,9.85,-0.27,0.66,0.42,-19.2,18.4,0.2,33.79,,,,,,,,,,
14.06.57.281,-104.8,26.2,0,,,101522.8,9.85,-0.39,0.9,0.58,10.7,19.6,-2.6,34.4,,,,,,,,,,
14.06.57.293,-101.6,25.4,0,,,101522.8,9.85,-0.33,0.66,0.59,13.0,2.6,-1.1,34.66,,,,,,,,,,
14.06.57.302,-92.1,23.0,0,,,101522.8,9.85,-0.3,0.63,0.44,28.4,2.0,4.9,34.14,,,,,,,,,,
14.06.57.311,-110.0,27.5,0,,,101522.8,9.85,-0.3,0.53,0.44,2.8,15.0,-7.9,34.13,,,,,,,,,,
14.06.57.320,-123.1,30.8,0,,,101522.8,9.85,-0.29,0.73,0.5,14.3,7.4,-12.3,34.39,,,,,,,,,,
14.06.57.328,-92.2,23.0,0,,,101522.8,9.85,-0.44,0.82,0.43,-9.2,6.9,4.0,34.74,,,,,,,,,,
14.06.57.339,-114.7,28.7,0,,,101522.8,9.85,-0.32,0.97,0.54,-4.9,-1.9,-12.5,34.19,,,,,,,,,,
14.06.57.347,-120.4,30.1,0,,,101522.8,9.85,-0.37,0.67,0.41,15.4,8.3,3.2,34.16,,,,,,,,,,
14.06.57.354,-98.3,24.6,0,,,101522.8,9.85,-0.38,0.98,0.59,-17.9,4.6,-17.7,33.98,,,,,,,,,,
14.06.57.362,-134.6,33.6,0,,,101522.8,9.85,-0.31,0.8,0.43,8.7,-4.2,3.0,34.24,,,,,,,,,,
14.06.57.370,-130.6,32.6,1,5.0,69.7,101522.8,9.85,-0.43,0.48,0.42,0.2,4.3,10.0,34.11,,,,,,,,,,
14.06.57.381,-123.6,30.9,0,,,101522.8,9.85,-0.23,0.76,0.47,-2.8,-2.4,-4.0,34.83,,,,,,,,,,
14.06.57.390,19.9,5.0,0,,,101522.8,9.85,-0.4,0.91,0.54,27.5,3.0,2.3,34.17,,,,,,,,,,
14.06.57.398,48.6,12.2,0,,,101522.8,9.85,-0.32,0.7,0.49,21.9,8.8,-9.7,34.0,,,,,,,,,,
14.06.57.407,71.2,17.8,0,,,101522.8,9.85,-0.51,0.41,0.6,-10.7,-6.4,6.2,34.2,,,,,,,,,,
14.06.57.417,113.2,28.3,0,,,101419.9,9.86,-0.29,0.98,0.45,-1.2,-6.2,10.0,34.02,,,,,,,,,,
14.06.57.429,129.9,32.5,0,,,101419.9,9.86,-0.38,0.75,0.42,-4.2,21.4,-11.0,34.97,,,,,,,,,,
14.06.57.440,189.0,47.2,0,,,101419.9,9.86,-0.34,0.56,0.45,1.4,2.5,-6.9,34.76,,,,,,,,,,
14.06.57.451,200.3,50.1,0,,,101419.9,9.86,-0.38,0.72,0.4,2.7,20.2,-12.3,34.31,,,,,,,,,,
14.06.57.462,215.6,53.9,0,,,101419.9,9.86,-0.42,0.84,0.44,-8.4,10.6,-6.9,34.12,,,,,,,,,,
14.06.57.470,250.3,62.6,0,,,101419.9,9.86,-0.24,0.81,0.28,14.9,29.6,10.2,34.34,,,,,,,,,,
14.06.57.481,266.0,66.5,0,,,101419.9,9.86,-0.32,0.82,0.43,8.0,19.2,9.5,34.09,,,,,,,,,,
14.06.57.492,273.6,68.4,0,,,101419.9,9.86,-0.41,0.64,0.51,-5.9,-5.5,-15.6,34.35,,,,,,,,,,
14.06.57.503,304.0,76.0,0,,,101419.9,9.86,-0.5,0.76,0.39,-1.2,6.2,1.3,34.64,,,,,,,,,,
14.06.57.513,316.7,79.2,0,,,101419.9,9.86,-0.4,0.67,0.44,1.0,1.7,5.6,34.55,,,,,,,,,,
14.06.57.523,296.4,74.1,0,,,101419.9,9.86,-0.32,0.65,0.56,3.8,1.6,-6.9,34.58,,,,,,,,,,
14.06.57.531,323.5,80.9,0,,,101419.9,9.86,-0.38,0.77,0.54,5.1,3.9,-9.9,34.56,,,,,,,,,,
14.06.57.543,292.8,73.2,0,,,101419.9,9.86,-0.29,0.63,0.54,8.5,5.6,-11.3,34.0,,,,,,,,,,
14.06.57.553,294.7,73.7,0,,,101419.9,9.86,-0.31,0.79,0.55,-15.5,9.7,-12.5,34.26,,,,,,,,,,
14.06.57.564,304.3,76.1,0,,,101419.9,9.86,-0.48,0.85,0.47,17.1,4.9,-0.8,34.83,,,,,,,,,,
14.06.57.574,272.7,68.2,0,,,101419.9,9.86,-0.37,0.49,0.54,-7.1,10.4,12.4,34.41,,,,,,,,,,
14.06.57.583,287.4,71.8,0,,,101419.9,9.86,-0.38,0.64,0.42,11.3,8.3,-0.4,34.2,,,,,,,,,,
14.06.57.593,244.7,61.2,0,,,101419.9,9.86,-0.34,0.72,0.6,-4.8,5.7,5.5,34.63,,,,,,,,,,
14.06.57.605,237.2,59.3,0,,,101419.9,9.86,-0.35,0.73,0.58,5.3,1.7,4.8,34.43,,,,,,,,,,
14.06.57.612,233.0,58.2,0,,,101419.9,9.86,-0.27,0.83,0.45,-14.4,11.9,-4.9,33.79,,,,,,,,,,
14.06.57.622,218.1,54.5,0,,,101419.9,9.86,-0.37,0.93,0.55,11.6,1.8,2.2,34.39,,,,,,,,,,
14.06.57.633,175.1,43.8,0,,,101419.9,9.86,-0.39,0.6,0.54,-12.7,24.7,-6.2,33.98,,,,,,,,,,
14.06.57.645,146.5,36.6,0,,,101419.9,9.86,-0.37,0.53,0.71,-22.8,8.1,-0.7,34.68,,,,,,,,,,
14.06.57.656,101.8,25.4,0,,,101419.9,9.86,-0.35,0.99,0.63,10.7,-2.7,9.4,34.49,,,,,,,,,,
14.06.57.666,69.9,17.5,0,,,101419.9,9.86,-0.33,0.7,0.46,19.0,3.3,-12.4,33.87,,,,,,,,,,
14.06.57.675,43.6,10.9,0,,,101419.9,9.86,-0.36,0.55,0.64,9.7,9.0,-1.1,34.28,,,,,,,,,,
14.06.57.686,14.9,3.7,0,,,101419.9,9.86,-0.32,0.73,0.49,6.9,6.3,-13.4,34.33,,,,,,,,,,
14.06.57.695,7.4,1.8,0,,,101419.9,9.86,-0.36,0.58,0.44,-1.5,20.4,-14.4,34.03,,,,,,,,,,
14.06.57.704,23.9,6.0,0,,,101419.9,9.86,-0.49,0.77,0.52,2.2,-1.6,10.3,34.66,,,,,,,,,,
14.06.57.712,20.9,5.2,0,,,101419.9,9.86,-0.42,0.83,0.4,5.0,-5.3,1.7,34.2,,,,,,,,,,
14.06.57.722,32.3,8.1,0,,,101419.9,9.86,-0.4,0.79,0.43,15.6,-8.2,-1.1,35.09,,,,,,,,,,
14.06.57.732,41.0,10.2,0,,,101419.9,9.86,-0.33,0.91,0.61,13.4,12.3,-0.6,34.77,,,,,,,,,,
14.06.57.740,46.8,11.7,0,,,101419.9,9.86,-0.45,0.87,0.42,8.5,10.6,-2.0,34.01,,,,,,,,,,
14.06.57.749,51.9,13.0,0,,,101419.9,9.86,-0.37,0.83,0.66,-7.7,8.7,-7.7,33.94,,,,,,,,,,
14.06.57.759,54.2,13.6,0,,,101419.9,9.86,-0.35,0.78,0.48,16.6,3.3,-5.7,34.02,,,,,,,,,,
14.06.57.769,67.3,16.8,0,,,101419.9,9.86,-0.43,0.64,0.46,-10.5,11.4,15.0,34.21,,,,,,,,,,
14.06.57.778,57.2,14.3,0,,,101419.9,9.86,-0.33,0.68,0.69,-2.7,14.0,3.3,34.74,,,,,,,,,,
14.06.57.789,61.4,15.4,0,,,101419.9,9.86,-0.35,0.94,0.56,11.9,3.3,-6.4,34.41,,,,,,,,,,
14.06.57.799,43.9,11.0,0,,,101419.9,9.86,-0.46,0.6,0.39,4.4,21.6,-9.9,34.45,,,,,,,,,,
14.06.57.809,45.5,11.4,0,,,101419.9,9.86,-0.36,0.86,0.53,3.6,16.9,-16.4,33.95,,,,,,,,,,
14.06.57.817,45.7,11.4,0,,,101419.9,9.86,-0.35,0.76,0.66,6.6,2.9,8.2,34.39,,,,,,,,,,
14.06.57.826,31.4,7.8,0,,,101419.9,9.86,-0.49,0.69,0.45,10.6,4.2,2.9,33.93,,,,,,,,,,
14.06.57.833,35.7,8.9,0,,,101419.9,9.86,-0.26,0.74,0.48,-3.6,9.8,5.0,34.31,,,,,,,,,,
14.06.57.844,10.4,2.6,0,,,101419.9,9.86,-0.18,0.79,0.47,-4.1,-8.0,-10.4,34.24,,,,,,,,,,
14.06.57.853,5.4,1.4,0,,,101419.9,9.86,-0.29,0.77,0.47,14.9,22.6,9.9,34.37,,,,,,,,,,
14.06.57.864,-2.3,0.6,0,,,101419.9,9.86,-0.29,0.75,0.58,-9.6,3.1,-3.8,34.41,,,,,,,,,,
14.06.57.873,-1.2,0.3,0,,,101419.9,9.86,-0.14,0.69,0.59,-3.2,15.7,-15.3,33.92,,,,,,,,,,
14.06.57.883,-8.5,2.1,0,,,101419.9,9.86,-0.33,0.96,0.63,8.5,-11.0,2.8,34.13,,,,,,,,,,
14.06.57.892,-3.4,0.8,0,,,101419.9,9.86,-0.31,0.79,0.48,-14.9,8.1,22.1,34.7,,,,,,,,,,
14.06.57.903,-4.1,1.0,0,,,101419.9,9.86,-0.3,0.73,0.5,-10.5,2.6,-2.5,34.57,,,,,,,,,,
14.06.57.914,-15.9,4.0,0,,,101419.9,9.86,-0.41,0.74,0.57,-2.4,3.2,0.2,34.03,,,,,,,,,,
14.06.57.922,-22.3,5.6,0,,,101419.9,9.86,-0.45,0.61,0.44,-7.3,8.6,-0.1,34.73,,,,,,,,,,
14.06.57.930,-21.0,5.2,0,,,101419.9,9.86,-0.42,0.7,0.49,-17.5,6.7,3.5,34.09,,,,,,,,,,
14.06.57.941,-32.2,8.0,0,,,101419.9,9.86,-0.3,0.62,0.58,-14.8,4.5,10.6,34.38,,,,,,,,,,
14.06.57.954,-32.4,8.1,0,,,101419.9,9.86,-0.37,0.61,0.54,-0.8,15.9,8.9,34.07,,,,,,,,,,
14.06.57.963,-35.3,8.8,0,,,101419.9,9.86,-0.27,0.75,0.59,14.3,-7.0,10.8,34.49,,,,,,,,,,
14.06.57.974,-33.0,8.2,0,,,101419.9,9.86,-0.31,0.7,0.47,-13.4,-5.8,3.4,34.37,,,,,,,,,,
14.06.57.982,-35.7,8.9,0,,,101419.9,9.86,-0.34,0.89,0.53,-9.4,14.2,-4.1,33.85,,,,,,,,,,
14.06.57.991,-43.5,10.9,0,,,101419.9,9.86,-0.31,0.74,0.48,16.7,15.5,0.3,34.86,,,,,,,,,,
14.06.58.002,-47.2,11.8,0,,,101419.9,9.86,-0.31,0.81,0.44,-11.2,18.6,0.4,34.35,66.5,,,,,,,,,
14.06.58.013,-34.9,8.7,0,,,101419.9,9.86,-0.47,0.7,0.36,9.4,-8.0,5.8,34.15,,,,,,,,,,
14.06.58.022,-44.6,11.2,0,,,101419.9,9.86,-0.27,0.77,0.46,-19.4,17.3,5.0,34.48,,,,,,,,,,
14.06.58.032,-55.3,13.8,0,,,101419.9,9.86,-0.29,0.62,0.58,16.7,9.3,-14.3,34.34,,,,,,,,,,
14.06.58.041,-59.2,14.8,0,,,101419.9,9.86,-0.19,0.78,0.38,9.3,2.1,-0.3,34.11,,,,,,,,,,
14.06.58.051,-54.5,13.6,0,,,101419.9,9.86,-0.32,0.79,0.59,-11.2,-14.7,4.9,34.86,,,,,,,,,,
14.06.58.061,-67.4,16.8,0,,,101419.9,9.86,-0.35,0.63,0.57,-11.0,-8.0,3.4,34.02,,,,,,,,,,
14.06.58.072,-81.6,20.4,0,,,101419.9,9.86,-0.31,0.88,0.44,11.3,5.4,-14.5,34.04,,,,,,,,,,
14.06.58.084,-83.2,20.8,0,,,101419.9,9.86,-0.34,0.65,0.67,14.7,2.1,5.1,34.21,,,,,,,,,,
14.06.58.096,-72.1,18.0,0,,,101419.9,9.86,-0.53,0.62,0.48,9.0,0.2,-2.5,33.91,,,,,,,,,,
14.06.58.106,-71.3,17.8,0,,,101419.9,9.86,-0.32,0.74,0.52,13.2,13.3,-6.2,34.57,,,,,,,,,,
14.06.58.117,-78.5,19.6,0,,,101419.9,9.86,-0.24,0.85,0.49,5.4,-0.2,12.7,34.51,,,,,,,,,,
14.06.58.126,-88.8,22.2,0,,,101419.9,9.86,-0.27,0.67,0.46,-1.0,0.6,20.4,33.87,,,,,,,,,,
14.06.58.136,-95.5,23.9,0,,,101419.9,9.86,-0.29,0.72,0.54,-2.6,0.3,2.1,34.7,,,,,,,,,,
14.06.58.146,-96.4,24.1,0,,,101419.9,9.86,-0.51,0.61,0.43,27.2,16.0,-3.3,34.45,,,,,,,,,,
14.06.58.156,-93.0,23.2,0,,,101419.9,9.86,-0.28,0.75,0.58,-9.3,5.4,0.6,34.76,,,,,,,,,,
14.06.58.167,-97.0,24.2,0,,,101419.9,9.86,-0.46,0.7,0.54,-5.5,-4.7,3.0,34.3,,,,,,,,,,
14.06.58.177,-108.4,27.1,0,,,101419.9,9.86,-0.32,0.88,0.58,15.7,0.8,-4.0,34.18,,,,,,,,,,
14.06.58.185,-89.9,22.5,0,,,101419.9,9.86,-0.32,0.74,0.51,-5.4,15.2,6.3,34.6,,,,,,,,,,
14.06.58.195,-108.2,27.0,0,,,101419.9,9.86,-0.41,0.9,0.52,0.8,-3.5,-5.4,34.08,,,,,,,,,,
14.06.58.202,-104.8,26.2,0,,,101419.9,9.86,-0.48,0.81,0.54,-21.9,0.7,12.1,34.15,,,,,,,,,,
14.06.58.212,-113.9,28.5,0,,,101419.9,9.86,-0.24,0.62,0.47,-10.6,7.9,-8.4,34.46,,,,,,,,,,
14.06.58.221,-118.1,29.5,0,,,101419.9,9.86,-0.38,0.84,0.54,0.5,-1.1,2.8,34.39,,,,,,,,,,
14.06.58.230,-117.1,29.3,0,,,101419.9,9.86,-0.49,0.83,0.61,-32.4,0.2,-1.8,34.42,,,,,,,,,,
14.06.58.240,-119.7,29.9,0,,,101419.9,9.86,-0.34,0.86,0.54,-6.0,-9.4,-4.6,34.19,,,,,,,,,,
14.06.58.249,-129.2,32.3,0,,,101419.9,9.86,-0.39,0.57,0.6,22.1,12.6,0.5,34.27,,,,,,,,,,
14.06.58.260,6.2,1.6,1,6.0,67.4,101419.9,9.86,-0.52,0.88,0.46,-0.2,4.0,-3.2,34.26,,,,,,,,,,
14.06.58.268,24.4,6.1,0,,,101419.9,9.86,-0.35,0.83,0.44,-13.4,31.4,-7.7,34.28,,,,,,,,,,
14.06.58.278,61.1,15.3,0,,,101419.9,9.86,-0.32,0.74,0.4,-4.6,12.8,4.2,34.29,,,,,,,,,,
14.06.58.289,115.3,28.8,0,,,101419.9,9.86,-0.28,0.55,0.64,15.2,13.1,-4.9,34.37,,,,,,,,,,
14.06.58.298,131.9,33.0,0,,,101419.9,9.86,-0.36,0.78,0.39,1.6,-2.6,3.7,34.14,,,,,,,,,,
14.06.58.304,141.3,35.3,0,,,101419.9,9.86,-0.42,0.74,0.6,-16.9,6.4,-15.7,34.87,,,,,,,,,,
14.06.58.314,168.1,42.0,0,,,101419.9,9.86,-0.39,0.79,0.73,7.0,3.1,-0.1,34.08,,,,,,,,,,
14.06.58.325,203.0,50.8,0,,,101419.9,9.86,-0.34,0.66,0.48,7.7,4.8,-4.2,34.3,,,,,,,,,,
14.06.58.335,225.0,56.2,0,,,101419.9,9.86,-0.31,0.76,0.39,-15.4,12.9,3.0,34.23,,,,,,,,,,
14.06.58.344,238.5,59.6,0,,,101419.9,9.86,-0.24,0.75,0.53,-10.2,0.5,2.9,34.05,,,,,,,,,,
14.06.58.354,262.2,65.6,0,,,101419.9,9.86,-0.42,0.76,0.61,-1.8,4.9,-8.3,34.53,,,,,,,,,,
14.06.58.362,276.7,69.2,0,,,101419.9,9.86,-0.35,0.78,0.57,-6.7,0.9,-8.0,34.03,,,,,,,,,,
14.06.58.373,297.0,74.2,0,,,101419.9,9.86,-0.3,0.8,0.34,-9.7,18.2,2.9,34.31,,,,,,,,,,
14.06.58.384,293.0,73.2,0,,,101419.9,9.86,-0.47,0.81,0.64,12.6,21.6,-8.8,34.11,,,,,,,,,,
14.06.58.394,298.2,74.6,0,,,101419.9,9.86,-0.45,0.72,0.41,-5.5,21.3,5.8,33.93,,,,,,,,,,
14.06.58.402,330.9,82.7,0,,,101419.9,9.86,-0.34,0.7,0.35,-23.9,8.8,5.1,34.51,,,,,,,,,,
14.06.58.412,330.0,82.5,0,,,101419.9,9.86,-0.36,0.71,0.46,1.0,11.1,-27.8,33.95,,,,,,,,,,
14.06.58.423,329.2,82.3,0,,,101419.9,9.86,-0.36,0.57,0.42,0.1,19.2,9.5,33.94,,,,,,,,,,
14.06.58.430,348.3,87.1,0,,,101419.9,9.86,-0.36,0.84,0.34,-2.2,10.1,3.3,33.66,,,,,,,,,,
14.06.58.440,296.9,74.2,0,,,101419.9,9.86,-0.21,0.8,0.4,-6.5,3.7,-5.1,34.0,,,,,,,,,,
14.06.58.450,260.6,65.2,0,,,101419.9,9.86,-0.26,0.68,0.4,-9.4,15.5,15.5,34.61,,,,,,,,,,
14.06.58.461,281.3,70.3,0,,,101419.9,9.86,-0.38,0.67,0.41,-2.7,17.5,-7.8,34.14,,,,,,,,,,
14.06.58.470,259.2,64.8,0,,,101419.9,9.86,-0.36,0.68,0.54,-23.3,8.3,8.9,34.42,,,,,,,,,,
14.06.58.481,273.3,68.3,0,,,101419.9,9.86,-0.36,0.6,0.53,-2.3,11.9,16.3,34.46,,,,,,,,,,
14.06.58.494,187.7,46.9,0,,,101419.9,9.86,-0.42,0.8,0.56,1.8,4.4,-8.0,34.15,,,,,,,,,,
14.06.58.504,182.5,45.6,0,,,101419.9,9.86,-0.35,0.74,0.45,0.4,20.0,5.2,34.68,,,,,,,,,,
14.06.58.513,165.9,41.5,0,,,101419.9,9.86,-0.29,0.81,0.51,1.2,-0.6,1.1,34.68,,,,,,,,,,
14.06.58.522,131.9,33.0,0,,,101419.9,9.86,-0.38,0.67,0.58,-9.7,5.8,0.4,34.62,,,,,,,,,,
14.06.58.534,103.4,25.8,0,,,101419.9,9.86,-0.33,0.78,0.57,12.8,13.8,4.0,34.04,,,,,,,,,,
14.06.58.544,61.1,15.3,0,,,101419.9,9.86,-0.35,0.76,0.48,4.1,22.9,-1.8,34.55,,,,,,,,,,
14.06.58.554,33.9,8.5,0,,,101419.9,9.86,-0.27,0.67,0.61,6.7,-7.0,-5.2,34.3,,,,,,,,,,
14.06.58.564,4.7,1.2,0,,,101419.9,9.86,-0.41,0.73,0.4,-9.9,-1.3,-6.8,34.4,,,,,,,,,,
14.06.58.575,5.8,1.4,0,,,101419.9,9.86,-0.35,0.64,0.42,-11.5,6.5,-10.5,34.84,,,,,,,,,,
14.06.58.587,27.3,6.8,0,,,101419.9,9.86,-0.41,0.73,0.42,-3.6,11.7,20.1,34.44,,,,,,,,,,
14.06.58.599,37.4,9.4,0,,,101419.9,9.86,-0.45,0.76,0.6,13.6,9.3,-1.9,33.64,,,,,,,,,,
14.06.58.608,39.7,9.9,0,,,101419.9,9.86,-0.34,0.71,0.47,-12.5,8.9,11.0,33.99,,,,,,,,,,
14.06.58.619,49.7,12.4,0,,,101419.9,9.86,-0.42,0.68,0.36,11.3,-3.3,-7.8,34.18,,,,,,,,,,
14.06.58.629,60.1,15.0,0,,,101419.9,9.86,-0.45,0.69,0.64,2.5,-9.5,-0.8,34.37,,,,,,,,,,
14.06.58.638,53.0,13.2,0,,,101419.9,9.86,-0.34,0.8,0.52,1.6,-2.3,-3.3,34.79,,,,,,,,,,
14.06.58.650,63.4,15.8,0,,,101419.9,9.86,-0.54,0.78,0.26,1.7,-7.7,-9.8,34.1,,,,,,,,,,
14.06.58.660,62.3,15.6,0,,,101419.9,9.86,-0.2,0.85,0.56,5.4,-3.3,1.6,34.28,,,,,,,,,,
14.06.58.669,58.0,14.5,0,,,101419.9,9.86,-0.41,0.82,0.41,-13.8,1.7,-4.1,34.32,,,,,,,,,,
14.06.58.680,53.5,13.4,0,,,101419.9,9.86,-0.26,0.63,0.57,12.3,5.9,11.6,34.73,,,,,,,,,,
14.06.58.691,45.8,11.4,0,,,101419.9,9.86,-0.51,0.6,0.64,0.9,5.3,-5.4,34.95,,,,,,,,,,
14.06.58.700,47.4,11.8,0,,,101419.9,9.86,-0.4,0.85,0.62,-8.5,2.7,3.3,34.29,,,,,,,,,,
14.06.58.708,29.9,7.5,0,,,101419.9,9.86,-0.29,0.66,0.73,-17.3,4.9,8.6,34.17,,,,,,,,,,
14.06.58.716,20.7,5.2,0,,,101419.9,9.86,-0.42,0.88,0.54,6.0,13.9,-2.2,34.2,,,,,,,,,,
14.06.58.724,14.2,3.6,0,,,101419.9,9.86,-0.42,0.87,0.41,-5.3,26.2,-3.1,34.12,,,,,,,,,,
14.06.58.734,6.3,1.6,0,,,101419.9,9.86,-0.32,0.74,0.53,-6.4,0.9,-6.9,34.24,,,,,,,,,,
14.06.58.744,0.5,0.1,0,,,101419.9,9.86,-0.42,0.69,0.53,-16.4,-6.0,-9.2,33.56,,,,,,,,,,
14.06.58.753,-2.1,0.5,0,,,101419.9,9.86,-0.29,0.78,0.44,6.0,-7.2,-2.7,34.46,,,,,,,,,,
14.06.58.763,-8.0,2.0,0,,,101419.9,9.86,-0.41,0.73,0.39,-2.2,1.8,12.4,34.67,,,,,,,,,,
14.06.58.771,-12.5,3.1,0,,,101419.9,9.86,-0.37,0.71,0.44,-4.4,18.6,0.3,34.5,,,,,,,,,,
14.06.58.781,-8.7,2.2,0,,,101419.9,9.86,-0.43,0.86,0.63,17.4,11.7,7.0,34.6,,,,,,,,,,
14.06.58.790,-9.3,2.3,0,,,101419.9,9.86,-0.5,0.88,0.62,1.8,2.6,5.2,34.79,,,,,,,,,,
14.06.58.800,-27.2,6.8,0,,,101419.9,9.86,-0.45,0.81,0.46,-12.8,9.6,5.1,34.2,,,,,,,,,,
14.06.58.810,-20.7,5.2,0,,,101419.9,9.86,-0.15,0.66,0.53,-9.5,2.4,-9.2,34.51,,,,,,,,,,
14.06.58.820,-30.6,7.6,0,,,101419.9,9.86,-0.24,0.61,0.47,-10.3,1.3,9.8,34.13,,,,,,,,,,
14.06.58.830,-28.9,7.2,0,,,101419.9,9.86,-0.34,0.71,0.5,0.2,6.0,-1.4,34.31,,,,,,,,,,
14.06.58.841,-27.7,6.9,0,,,101419.9,9.86,-0.31,0.75,0.48,6.8,-5.1,4.8,34.24,,,,,,,,,,
14.06.58.851,-37.2,9.3,0,,,101419.9,9.86,-0.28,0.72,0.53,20.3,11.4,-1.9,34.49,,,,,,,,,,
14.06.58.862,-31.7,7.9,0,,,101419.9,9.86,-0.32,0.53,0.6,-7.6,4.2,-4.7,34.55,,,,,,,,,,
14.06.58.875,-55.7,13.9,0,,,101419.9,9.86,-0.35,0.87,0.49,-16.6,2.8,5.5,34.15,,,,,,,,,,
14.06.58.884,-30.2,7.6,0,,,101419.9,9.86,-0.28,0.77,0.49,2.0,9.7,8.9,34.27,,,,,,,,,,
14.06.58.894,-48.1,12.0,0,,,101419.9,9.86,-0.39,0.68,0.46,-11.5,0.7,-0.1,34.45,,,,,,,,,,
14.06.58.903,-49.5,12.4,0,,,101419.9,9.86,-0.43,0.67,0.55,2.0,24.6,-3.6,34.55,,,,,,,,,,
14.06.58.915,-54.4,13.6,0,,,101419.9,9.86,-0.54,0.77,0.5,-32.1,22.3,-8.1,34.36,,,,,,,,,,
14.06.58.924,-51.9,13.0,0,,,101419.9,9.86,-0.38,0.84,0.69,9.0,9.5,7.5,34.17,,,,,,,,,,
14.06.58.933,-54.6,13.6,0,,,101419.9,9.86,-0.27,0.75,0.44,15.9,7.4,-5.8,33.83,,,,,,,,,,
14.06.58.941,-64.0,16.0,0,,,101419.9,9.86,-0.35,0.8,0.53,-8.6,6.3,-10.6,34.41,,,,,,,,,,
14.06.58.951,-60.2,15.0,0,,,101419.9,9.86,-0.21,0.72,0.49,4.8,-4.2,-4.2,34.69,,,,,,,,,,
14.06.58.961,-69.4,17.4,0,,,101419.9,9.86,-0.28,0.77,0.42,4.5,13.0,-10.7,33.82,,,,,,,,,,
14.06.58.972,-74.6,18.6,0,,,101419.9,9.86,-0.3,0.67,0.67,25.8,-3.3,-10.9,34.58,,,,,,,,,,
14.06.58.982,-85.2,21.3,0,,,101419.9,9.86,-0.35,0.56,0.67,6.4,10.9,-9.7,34.01,,,,,,,,,,
14.06.58.992,-74.7,18.7,0,,,101419.9,9.86,-0.33,0.63,0.49,-25.5,0.3,-15.0,34.61,,,,,,,,,,
14.06.59.002,-96.6,24.2,0,,,101419.9,9.86,-0.26,0.81,0.5,21.0,3.6,-3.4,34.66,,,,,,,,,,
14.06.59.011,-88.9,22.2,0,,,101419.9,9.86,-0.42,0.78,0.52,1.5,8.4,11.5,33.91,,,,,,,,,,
14.06.59.022,-87.2,21.8,0,,,101419.9,9.86,-0.34,0.7,0.38,-12.2,-0.6,-15.1,33.98,,,,,,,,,,
14.06.59.032,-103.0,25.8,0,,,101317.1,9.87,-0.3,0.87,0.58,14.0,-0.4,4.0,34.69,,,,,,,,,,
14.06.59.042,-95.6,23.9,0,,,101317.1,9.87,-0.26,0.81,0.51,-20.2,6.5,-0.4,34.28,,,,,,,,,,
14.06.59.050,-109.9,27.5,0,,,101317.1,9.87,-0.48,0.85,0.45,11.1,23.2,-4.9,34.17,,,,,,,,,,
14.06.59.057,-100.9,25.2,0,,,101317.1,9.87,-0.34,0.7,0.43,0.5,9.4,5.0,34.03,,,,,,,,,,
14.06.59.064,-95.3,23.8,0,,,101317.1,9.87,-0.19,0.76,0.56,-0.1,-3.7,-4.1,34.53,,,,,,,,,,
14.06.59.074,-100.2,25.0,0,,,101317.1,9.87,-0.18,0.57,0.43,0.6,1.7,-7.0,34.84,,,,,,,,,,
14.06.59.085,-112.7,28.2,0,,,101317.1,9.87,-0.43,0.86,0.56,-11.4,1.2,12.6,33.92,,,,,,,,,,
14.06.59.094,-111.4,27.8,0,,,101317.1,9.87,-0.31,0.82,0.61,-2.3,9.3,-3.6,34.2,,,,,,,,,,
14.06.59.104,-117.3,29.3,0,,,101317.1,9.87,-0.46,0.82,0.35,-6.7,6.5,-0.2,34.19,,,,,,,,,,
14.06.59.115,-126.7,31.7,0,,,101317.1,9.87,-0.33,0.82,0.55,-9.3,-10.7,-6.0,34.21,,,,,,,,,,
14.06.59.127,-122.2,30.6,0,,,101317.1,9.87,-0.42,0.66,0.53,12.2,8.4,2.3,34.55,,,,,,,,,,
14.06.59.137,7.5,1.9,0,,,101317.1,9.87,-0.29,0.65,0.53,-11.8,2.3,-5.5,34.2,,,,,,,,,,
14.06.59.145,45.2,11.3,1,7.0,67.8,101317.1,9.87,-0.32,0.63,0.58,-22.2,-3.7,-4.4,34.4,,,,,,,,,,
14.06.59.156,68.7,17.2,0,,,101317.1,9.87,-0.42,0.85,0.37,10.3,17.1,0.5,34.11,,,,,,,,,,
14.06.59.166,105.9,26.5,0,,,101317.1,9.87,-0.38,0.78,0.46,0.9,16.3,10.0,34.47,,,,,,,,,,
14.06.59.175,133.7,33.4,0,,,101317.1,9.87,-0.29,0.58,0.41,-13.1,17.0,1.1,34.27,,,,,,,,,,
14.06.59.185,156.9,39.2,0,,,101317.1,9.87,-0.43,0.47,0.68,-4.3,-0.4,3.1,33.99,,,,,,,,,,
14.06.59.195,193.7,48.4,0,,,101317.1,9.87,-0.47,0.72,0.45,18.7,23.8,1.7,33.7,,,,,,,,,,
14.06.59.203,210.9,52.7,0,,,101317.1,9.87,-0.41,0.92,0.4,7.5,0.4,-11.8,34.31,,,,,,,,,,
14.06.59.211,224.3,56.1,0,,,101317.1,9.87,-0.32,0.64,0.41,6.9,5.3,-3.4,34.51,,,,,,,,,,
14.06.59.222,265.7,66.4,0,,,101317.1,9.87,-0.24,0.69,0.44,-17.3,4.3,-7.7,34.44,,,,,,,,,,
14.06.59.230,253.9,63.5,0,,,101317.1,9.87,-0.42,0.79,0.39,-6.4,12.8,5.9,34.14,,,,,,,,,,
14.06.59.239,299.8,75.0,0,,,101317.1,9.87,-0.52,0.83,0.6,1.2,19.8,-5.5,34.31,,,,,,,,,,
14.06.59.248,313.2,78.3,0,,,101317.1,9.87,-0.36,0.72,0.51,2.3,7.0,0.7,34.2,,,,,,,,,,
14.06.59.258,325.6,81.4,0,,,101317.1,9.87,-0.52,0.89,0.5,-5.2,14.9,-4.5,34.43,,,,,,,,,,
14.06.59.269,303.9,76.0,0,,,101317.1,9.87,-0.45,0.73,0.5,14.2,3.7,7.7,34.16,,,,,,,,,,
14.06.59.278,337.3,84.3,0,,,101317.1,9.87,-0.29,0.58,0.54,-2.7,-12.4,-3.8,34.28,,,,,,,,,,
14.06.59.288,337.4,84.4,0,,,101317.1,9.87,-0.44,0.7,0.4,2.8,4.2,2.7,33.87,,,,,,,,,,
14.06.59.297,323.7,80.9,0,,,101317.1,9.87,-0.21,0.77,0.65,-1.6,7.6,-3.4,33.97,,,,,,,,,,
14.06.59.306,331.7,82.9,0,,,101317.1,9.87,-0.42,0.69,0.55,-1.7,24.4,-17.3,34.53,,,,,,,,,,
14.06.59.314,327.4,81.8,0,,,101317.1,9.87,-0.27,0.65,0.42,-2.2,9.4,6.0,34.02,,,,,,,,,,
14.06.59.325,304.7,76.2,0,,,101317.1,9.87,-0.19,0.61,0.44,-8.4,7.0,0.9,34.31,,,,,,,,,,
14.06.59.336,286.5,71.6,0,,,101317.1,9.87,-0.29,0.72,0.39,3.3,-12.4,1.7,34.59,,,,,,,,,,
14.06.59.345,269.7,67.4,0,,,101317.1,9.87,-0.4,0.8,0.45,10.1,15.1,-0.2,34.34,,,,,,,,,,
14.06.59.353,247.7,61.9,0,,,101317.1,9.87,-0.28,0.63,0.59,3.9,3.9,0.6,34.45,,,,,,,,,,
14.06.59.364,201.2,50.3,0,,,101317.1,9.87,-0.29,0.76,0.5,4.5,9.4,3.5,33.83,,,,,,,,,,
14.06.59.373,204.3,51.1,0,,,101317.1,9.87,-0.41,0.8,0.54,1.0,10.2,-3.7,34.24,,,,,,,,,,
14.06.59.383,173.2,43.3,0,,,101317.1,9.87,-0.48,0.88,0.48,2.8,6.5,-6.9,34.88,,,,,,,,,,
14.06.59.392,157.7,39.4,0,,,101317.1,9.87,-0.3,0.55,0.6,-12.1,17.2,1.9,33.94,,,,,,,,,,
14.06.59.401,136.4,34.1,0,,,101317.1,9.87,-0.36,0.56,0.55,-2.5,-11.1,-3.0,34.65,,,,,,,,,,
14.06.59.412,90.2,22.6,0,,,101317.1,9.87,-0.29,0.8,0.46,-0.1,6.6,8.5,34.51,,,,,,,,,,
14.06.59.421,64.0,16.0,0,,,101317.1,9.87,-0.37,0.7,0.33,-6.1,7.0,0.4,34.14,,,,,,,,,,
14.06.59.432,24.3,6.1,0,,,101317.1,9.87,-0.38,0.76,0.6,11.2,6.1,-13.3,34.78,,,,,,,,,,
14.06.59.444,13.1,3.3,0,,,101317.1,9.87,-0.33,0.78,0.5,-7.0,15.6,-2.6,34.63,,,,,,,,,,
14.06.59.456,10.2,2.6,0,,,101317.1,9.87,-0.34,0.56,0.47,36.1,-2.2,-7.4,34.35,,,,,,,,,,
14.06.59.467,23.6,5.9,0,,,101317.1,9.87,-0.48,0.88,0.59,11.8,17.3,7.5,34.23,,,,,,,,,,
14.06.59.475,37.3,9.3,0,,,101317.1,9.87,-0.33,0.82,0.5,-3.6,10.7,6.9,34.46,,,,,,,,,,
14.06.59.485,59.1,14.8,0,,,101317.1,9.87,-0.36,0.73,0.57,13.4,1.9,7.9,34.65,,,,,,,,,,
14.06.59.493,52.5,13.1,0,,,101317.1,9.87,-0.37,0.8,0.52,4.4,0.8,-13.7,34.91,,,,,,,,,,
14.06.59.503,51.8,13.0,0,,,101317.1,9.87,-0.46,0.53,0.43,35.6,1.4,2.1,34.06,,,,,,,,,,
14.06.59.512,62.4,15.6,0,,,101317.1,9.87,-0.44,0.58,0.53,0.2,28.6,1.3,34.08,,,,,,,,,,
14.06.59.522,64.3,16.1,0,,,101317.1,9.87,-0.42,0.79,0.46,5.9,-0.4,1.7,34.34,,,,,,,,,,
14.06.59.534,51.8,13.0,0,,,101317.1,9.87,-0.31,0.68,0.56,6.2,4.1,11.1,34.41,,,,,,,,,,
14.06.59.540,68.2,17.0,0,,,101317.1,9.87,-0.34,0.68,0.57,13.2,7.0,-4.9,34.32,,,,,,,,,,
14.06.59.549,52.3,13.1,0,,,101317.1,9.87,-0.45,0.76,0.64,1.5,8.9,-12.9,34.17,,,,,,,,,,
14.06.59.557,43.7,10.9,0,,,101317.1,9.87,-0.53,0.63,0.52,-4.6,7.2,10.8,34.34,,,,,,,,,,
14.06.59.569,47.8,12.0,0,,,101317.1,9.87,-0.23,0.88,0.48,-18.4,0.2,-3.0,33.8,,,,,,,,,,
14.06.59.577,27.6,6.9,0,,,101317.1,9.87,-0.39,0.97,0.37,7.6,3.4,-6.9,34.53,,,,,,,,,,
14.06.59.586,35.9,9.0,0,,,101317.1,9.87,-0.47,0.84,0.44,-10.4,9.1,-5.2,34.25,,,,,,,,,,
14.06.59.595,20.6,5.2,0,,,101317.1,9.87,-0.34,0.85,0.57,1.8,0.6,-15.4,33.69,,,,,,,,,,
14.06.59.605,12.9,3.2,0,,,101317.1,9.87,-0.37,0.58,0.37,-5.4,14.6,0.4,34.15,,,,,,,,,,
14.06.59.616,-2.6,0.6,0,,,101317.1,9.87,-0.37,0.77,0.52,5.4,4.4,-7.1,34.47,,,,,,,,,,
14.06.59.627,-6.8,1.7,0,,,101317.1,9.87,-0.38,0.89,0.46,-13.4,6.0,5.8,34.92,,,,,,,,,,
14.06.59.636,-3.7,0.9,0,,,101317.1,9.87,-0.35,0.88,0.45,-5.1,-1.9,-3.8,34.4,,,,,,,,,,
14.06.59.644,-7.4,1.8,0,,,101317.1,9.87,-0.26,0.88,0.64,-2.7,1.5,-4.5,34.74,,,,,,,,,,
14.06.59.652,-8.7,2.2,0,,,101317.1,9.87,-0.23,0.72,0.54,1.7,13.5,-18.3,34.74,,,,,,,,,,
14.06.59.660,-9.6,2.4,0,,,101317.1,9.87,-0.32,0.78,0.5,4.7,6.4,4.1,34.62,,,,,,,,,,
14.06.59.670,-13.5,3.4,0,,,101317.1,9.87,-0.36,0.81,0.46,3.2,7.1,-6.0,34.42,,,,,,,,,,
14.06.59.679,-14.6,3.6,0,,,101317.1,9.87,-0.35,0.69,0.42,3.4,1.5,4.1,34.58,,,,,,,,,,
14.06.59.688,-19.8,5.0,0,,,101317.1,9.87,-0.36,0.62,0.44,10.3,15.7,-7.9,34.25,,,,,,,,,,
14.06.59.701,-19.2,4.8,0,,,101317.1,9.87,-0.33,0.74,0.49,0.9,11.9,-14.9,34.26,,,,,,,,,,
14.06.59.710,-28.9,7.2,0,,,101317.1,9.87,-0.32,0.65,0.62,9.0,0.0,2.4,34.49,,,,,,,,,,
14.06.59.719,-40.0,10.0,0,,,101317.1,9.87,-0.38,0.57,0.5,-6.8,6.1,-14.3,33.88,,,,,,,,,,
14.06.59.728,-39.5,9.9,0,,,101317.1,9.87,-0.35,0.78,0.51,11.9,5.0,2.0,33.78,,,,,,,,,,
14.06.59.736,-35.7,8.9,0,,,101317.1,9.87,-0.32,0.71,0.55,-4.9,7.5,-7.0,34.39,,,,,,,,,,
14.06.59.746,-46.0,11.5,0,,,101317.1,9.87,-0.26,0.76,0.52,-0.8,-7.4,-0.2,34.49,,,,,,,,,,
14.06.59.752,-47.5,11.9,0,,,101317.1,9.87,-0.31,0.78,0.47,-30.0,-2.0,5.1,34.53,,,,,,,,,,
14.06.59.761,-37.6,9.4,0,,,101317.1,9.87,-0.46,0.66,0.51,8.1,-7.7,4.6,34.08,,,,,,,,,,
14.06.59.772,-58.9,14.7,0,,,101317.1,9.87,-0.5,0.76,0.53,4.7,3.2,2.2,34.39,,,,,,,,,,
14.06.59.783,-58.8,14.7,0,,,101317.1,9.87,-0.28,0.76,0.47,14.0,2.2,-2.5,33.81,,,,,,,,,,
14.06.59.793,-53.8,13.4,0,,,101317.1,9.87,-0.45,0.77,0.53,6.2,9.8,13.5,34.31,,,,,,,,,,
14.06.59.801,-59.5,14.9,0,,,101317.1,9.87,-0.55,0.37,0.59,4.1,3.3,-9.8,34.15,,,,,,,,,,
14.06.59.809,-71.3,17.8,0,,,101317.1,9.87,-0.37,0.68,0.46,-16.7,17.8,-8.2,34.66,,,,,,,,,,
14.06.59.818,-74.4,18.6,0,,,101317.1,9.87,-0.49,0.58,0.63,15.4,5.9,11.8,34.71,,,,,,,,,,
14.06.59.829,-65.2,16.3,0,,,101317.1,9.87,-0.44,0.91,0.62,-7.7,12.9,-2.7,34.22,,,,,,,,,,
14.06.59.838,-76.4,19.1,0,,,101317.1,9.87,-0.55,0.58,0.37,4.7,9.1,-0.6,34.57,,,,,,,,,,
14.06.59.847,-71.0,17.8,0,,,101317.1,9.87,-0.43,0.7,0.51,-4.8,8.4,5.5,33.9,,,,,,,,,,
14.06.59.857,-72.5,18.1,0,,,101317.1,9.87,-0.48,0.72,0.57,15.2,5.8,-8.5,34.46,,,,,,,,,,
14.06.59.868,-84.9,21.2,0,,,101317.1,9.87,-0.29,0.56,0.49,-1.0,2.2,3.6,34.05,,,,,,,,,,
14.06.59.880,-83.1,20.8,0,,,101317.1,9.87,-0.34,0.81,0.48,1.9,12.0,5.0,33.88,,,,,,,,,,
14.06.59.890,-94.9,23.7,0,,,101317.1,9.87,-0.38,0.61,0.4,6.1,11.2,12.7,34.28,,,,,,,,,,
14.06.59.899,-97.2,24.3,0,,,101317.1,9.87,-0.32,0.81,0.57,-2.0,0.1,-5.5,34.3,,,,,,,,,,
14.06.59.910,-97.7,24.4,0,,,101317.1,9.87,-0.34,0.84,0.49,-14.1,-5.4,7.0,33.91,,,,,,,,,,
14.06.59.919,-91.3,22.8,0,,,101317.1,9.87,-0.42,0.82,0.61,14.8,-3.3,-7.2,34.23,,,,,,,,,,
14.06.59.928,-104.8,26.2,0,,,101317.1,9.87,-0.28,0.77,0.54,-3.8,-3.8,-9.1,34.71,,,,,,,,,,
14.06.59.939,-102.1,25.5,0,,,101317.1,9.87,-0.44,0.7,0.41,-5.6,-1.2,1.3,34.86,,,,,,,,,,
14.06.59.949,-113.4,28.4,0,,,101317.1,9.87,-0.33,0.67,0.48,-13.4,1.3,-5.9,34.16,,,,,,,,,,
14.06.59.961,-108.9,27.2,0,,,101317.1,9.87,-0.32,0.75,0.31,-1.7,11.6,7.3,34.33,,,,,,,,,,
14.06.59.970,-112.5,28.1,0,,,101317.1,9.87,-0.54,0.74,0.62,-13.5,15.2,5.7,33.76,,,,,,,,,,
14.06.59.981,-120.5,30.1,0,,,101317.1,9.87,-0.23,0.85,0.35,7.9,16.8,4.1,34.39,,,,,,,,,,
14.06.59.991,-117.3,29.3,0,,,101317.1,9.87,-0.3,0.84,0.59,26.5,1.0,-1.0,33.96,,,,,,,,,,
14.07.00.001,-107.8,27.0,0,,,101317.1,9.87,-0.3,0.8,0.57,-13.1,10.8,-5.4,34.55,,,,,,,,,,
14.07.00.009,-137.4,34.4,0,,,101317.1,9.87,-0.43,0.82,0.6,5.5,-3.0,-2.2,34.18,,,,,,,,,,
14.07.00.017,21.4,5.4,0,,,101317.1,9.87,-0.4,0.43,0.45,2.6,3.6,-2.9,34.34,,,,,,,,,,
14.07.00.026,44.9,11.2,0,,,101317.1,9.87,-0.35,0.75,0.38,22.4,17.3,-1.4,34.57,,,,,,,,,,
14.07.00.035,81.8,20.4,1,8.0,67.4,101317.1,9.87,-0.38,0.83,0.61,0.3,11.2,-5.1,34.81,,,,,,,,,,
14.07.00.046,114.9,28.7,0,,,101317.1,9.87,-0.5,0.55,0.51,7.5,-4.6,1.3,34.93,,,,,,,,,,
14.07.00.055,141.7,35.4,0,,,101317.1,9.87,-0.45,0.91,0.57,-14.2,14.6,-8.3,34.68,,,,,,,,,,
14.07.00.067,165.4,41.4,0,,,101317.1,9.87,-0.48,0.76,0.35,16.6,-6.8,-1.2,34.2,,,,,,,,,,
14.07.00.076,197.2,49.3,0,,,101317.1,9.87,-0.25,0.57,0.56,2.5,7.8,-6.9,34.12,,,,,,,,,,
14.07.00.085,224.4,56.1,0,,,101317.1,9.87,-0.35,0.84,0.46,-3.4,-7.5,8.5,34.62,,,,,,,,,,
14.07.00.095,247.3,61.8,0,,,101317.1,9.87,-0.37,0.85,0.6,-21.4,0.5,-8.6,34.85,,,,,,,,,,
14.07.00.105,287.4,71.8,0,,,101317.1,9.87,-0.36,0.77,0.52,-1.2,3.1,-6.8,34.29,,,,,,,,,,
14.07.00.112,276.8,69.2,0,,,101317.1,9.87,-0.33,0.63,0.48,0.1,-3.7,0.2,34.58,,,,,,,,,,
14.07.00.122,310.4,77.6,0,,,101317.1,9.87,-0.31,0.76,0.54,19.8,-11.7,4.6,34.27,,,,,,,,,,
14.07.00.134,284.5,71.1,0,,,101317.1,9.87,-0.41,0.7,0.54,13.8,4.0,-9.5,33.67,,,,,,,,,,
14.07.00.144,306.3,76.6,0,,,101317.1,9.87,-0.27,0.78,0.53,6.2,12.4,-8.9,34.16,,,,,,,,,,
14.07.00.152,325.8,81.4,0,,,101317.1,9.87,-0.14,0.65,0.3,-5.1,2.7,-5.5,34.6,,,,,,,,,,
14.07.00.161,333.6,83.4,0,,,101317.1,9.87,-0.42,0.88,0.47,-4.7,-1.4,-4.2,34.25,,,,,,,,,,
14.07.00.170,331.1,82.8,0,,,101317.1,9.87,-0.35,0.77,0.53,13.8,-16.8,-2.6,34.8,,,,,,,,,,
14.07.00.179,320.6,80.2,0,,,101317.1,9.87,-0.43,0.89,0.34,0.7,-1.8,-0.0,34.23,,,,,,,,,,
14.07.00.189,329.9,82.5,0,,,101317.1,9.87,-0.49,0.73,0.58,-12.9,8.0,-16.5,34.86,,,,,,,,,,
14.07.00.199,293.1,73.3,0,,,101317.1,9.87,-0.27,0.83,0.47,-4.5,-13.3,0.0,34.52,,,,,,,,,,
14.07.00.209,302.1,75.5,0,,,101317.1,9.87,-0.36,0.6,0.6,4.2,6.1,4.2,34.51,,,,,,,,,,
14.07.00.219,265.9,66.5,0,,,101317.1,9.87,-0.45,0.76,0.49,30.0,8.8,3.4,34.33,,,,,,,,,,
14.07.00.229,276.5,69.1,0,,,101317.1,9.87,-0.51,0.68,0.45,2.0,-0.3,7.0,34.26,,,,,,,,,,
14.07.00.237,221.6,55.4,0,,,101317.1,9.87,-0.43,0.75,0.53,19.2,6.8,-6.1,34.49,,,,,,,,,,
14.07.00.247,218.3,54.6,0,,,101317.1,9.87,-0.41,0.88,0.48,19.8,14.0,-11.0,34.07,,,,,,,,,,
14.07.00.257,179.6,44.9,0,,,101317.1,9.87,-0.29,0.92,0.57,7.5,8.4,4.8,34.4,,,,,,,,,,
14.07.00.266,170.9,42.7,0,,,101317.1,9.87,-0.24,0.6,0.55,16.5,15.4,14.6,34.09,,,,,,,,,,
14.07.00.277,116.4,29.1,0,,,101317.1,9.87,-0.39,0.85,0.38,0.3,-8.2,-14.8,34.5,,,,,,,,,,
14.07.00.288,92.5,23.1,0,,,101317.1,9.87,-0.48,0.52,0.38,13.8,-1.2,6.7,34.09,,,,,,,,,,
14.07.00.297,74.4,18.6,0,,,101317.1,9.87,-0.32,0.69,0.48,11.1,13.6,1.6,34.52,,,,,,,,,,
14.07.00.306,43.1,10.8,0,,,101317.1,9.87,-0.3,0.69,0.42,10.3,-6.0,18.2,34.57,,,,,,,,,,
14.07.00.316,6.0,1.5,0,,,101317.1,9.87,-0.41,0.65,0.71,-14.0,0.5,6.6,34.1,,,,,,,,,,
14.07.00.326,5.0,1.2,0,,,101317.1,9.87,-0.31,0.83,0.46,-2.6,-3.1,-6.8,34.37,,,,,,,,,,
14.07.00.337,14.0,3.5,0,,,101317.1,9.87,-0.38,0.65,0.52,6.3,1.3,-5.9,34.81,,,,,,,,,,
14.07.00.350,32.8,8.2,0,,,101317.1,9.87,-0.31,0.7,0.47,-3.5,4.8,5.5,34.29,,,,,,,,,,
14.07.00.361,41.5,10.4,0,,,101317.1,9.87,-0.34,0.97,0.44,0.4,3.2,-5.0,34.55,,,,,,,,,,
14.07.00.370,43.6,10.9,0,,,101317.1,9.87,-0.19,0.84,0.4,15.0,8.3,-2.2,34.71,,,,,,,,,,
14.07.00.379,57.5,14.4,0,,,101317.1,9.87,-0.48,0.73,0.6,8.0,7.4,1.2,34.3,,,,,,,,,,
14.07.00.390,57.0,14.2,0,,,101317.1,9.87,-0.43,0.77,0.57,12.5,2.1,3.5,34.1,,,,,,,,,,
14.07.00.399,56.4,14.1,0,,,101317.1,9.87,-0.37,0.73,0.61,-3.4,-3.5,1.2,34.56,,,,,,,,,,
14.07.00.405,60.8,15.2,0,,,101317.1,9.87,-0.35,0.6,0.46,-1.6,7.7,0.0,34.26,,,,,,,,,,
14.07.00.415,67.4,16.8,0,,,101317.1,9.87,-0.38,0.58,0.55,-8.0,2.6,-21.9,34.03,,,,,,,,,,
14.07.00.425,53.8,13.4,0,,,101317.1,9.87,-0.29,0.72,0.6,-7.0,16.5,23.3,34.02,,,,,,,,,,
14.07.00.435,35.7,8.9,0,,,101317.1,9.87,-0.28,0.73,0.44,11.6,8.4,-0.2,34.57,,,,,,,,,,
14.07.00.446,40.1,10.0,0,,,101317.1,9.87,-0.3,0.79,0.4,-1.7,12.3,-3.1,34.22,,,,,,,,,,
14.07.00.456,27.1,6.8,0,,,101317.1,9.87,-0.37,0.73,0.42,-13.1,11.4,7.3,34.15,,,,,,,,,,
14.07.00.465,37.9,9.5,0,,,101317.1,9.87,-0.4,0.64,0.46,6.9,-0.6,-4.0,34.39,,,,,,,,,,
14.07.00.473,23.0,5.8,0,,,101317.1,9.87,-0.31,0.62,0.39,-15.0,11.3,7.4,34.21,,,,,,,,,,
14.07.00.485,4.6,1.2,0,,,101317.1,9.87,-0.29,0.74,0.46,10.8,7.0,-8.0,33.97,,,,,,,,,,
14.07.00.493,4.4,1.1,0,,,101317.1,9.87,-0.33,0.59,0.55,-2.8,-1.1,-21.2,34.72,,,,,,,,,,
14.07.00.503,-2.9,0.7,0,,,101317.1,9.87,-0.35,0.68,0.44,-9.0,-5.8,-0.5,34.24,,,,,,,,,,
14.07.00.512,-0.0,0.0,0,,,101317.1,9.87,-0.32,0.88,0.29,-10.9,14.6,-5.9,34.47,,,,,,,,,,
14.07.00.522,-16.3,4.1,0,,,101317.1,9.87,-0.3,0.83,0.68,0.9,-7.0,9.4,34.54,,,,,,,,,,
14.07.00.530,-5.1,1.3,0,,,101317.1,9.87,-0.33,0.66,0.54,-4.8,-2.1,-0.8,34.13,,,,,,,,,,
14.07.00.542,-4.7,1.2,0,,,101317.1,9.87,-0.47,0.77,0.63,-10.5,11.9,0.5,34.33,,,,,,,,,,
14.07.00.555,-19.9,5.0,0,,,101317.1,9.87,-0.45,0.77,0.54,6.0,11.1,4.2,34.49,,,,,,,,,,
14.07.00.565,-26.1,6.5,0,,,101317.1,9.87,-0.3,0.72,0.53,-5.7,4.0,5.4,34.36,,,,,,,,,,
14.07.00.574,-30.4,7.6,0,,,101317.1,9.87,-0.15,0.8,0.59,-12.8,-16.8,6.2,34.08,,,,,,,,,,
14.07.00.583,-34.5,8.6,0,,,101317.1,9.87,-0.3,0.87,0.52,-1.5,13.7,-13.2,34.49,,,,,,,,,,
14.07.00.594,-33.6,8.4,0,,,101317.1,9.87,-0.45,0.59,0.42,14.2,15.8,-12.2,34.2,,,,,,,,,,
14.07.00.605,-45.2,11.3,0,,,101317.1,9.87,-0.32,0.69,0.59,-5.0,14.7,-2.3,33.98,,,,,,,,,,
14.07.00.616,-38.8,9.7,0,,,101317.1,9.87,-0.45,0.66,0.41,7.5,-5.9,2.7,33.9,,,,,,,,,,
14.07.00.626,-50.4,12.6,0,,,101317.1,9.87,-0.26,0.69,0.44,-17.7,8.8,0.6,34.39,,,,,,,,,,
14.07.00.637,-44.1,11.0,0,,,101317.1,9.87,-0.28,0.81,0.42,-3.9,4.2,6.1,34.26,,,,,,,,,,
14.07.00.647,-44.4,11.1,0,,,101317.1,9.87,-0.27,0.82,0.47,5.4,-5.9,-1.7,34.07,,,,,,,,,,
14.07.00.656,-54.2,13.6,0,,,101317.1,9.87,-0.32,0.82,0.45,-6.1,4.8,-14.9,34.06,,,,,,,,,,
14.07.00.664,-58.8,14.7,0,,,101317.1,9.87,-0.38,0.69,0.55,8.8,20.2,6.4,34.25,,,,,,,,,,
14.07.00.674,-57.7,14.4,0,,,101317.1,9.87,-0.3,0.86,0.58,3.6,12.5,-2.8,33.9,,,,,,,,,,
14.07.00.685,-55.1,13.8,0,,,101317.1,9.87,-0.26,0.7,0.49,-1.7,5.8,-5.3,34.35,,,,,,,,,,
14.07.00.694,-74.0,18.5,0,,,101317.1,9.87,-0.32,0.54,0.57,-3.6,7.8,4.1,34.72,,,,,,,,,,
14.07.00.704,-68.6,17.2,0,,,101317.1,9.87,-0.35,0.85,0.46,14.7,8.4,0.8,34.5,,,,,,,,,,
14.07.00.712,-74.2,18.6,0,,,101317.1,9.87,-0.32,0.7,0.52,24.2,1.0,-4.7,34.01,,,,,,,,,,
14.07.00.722,-76.9,19.2,0,,,101317.1,9.87,-0.32,0.69,0.52,-4.4,15.5,5.1,34.0,,,,,,,,,,
14.07.00.731,-79.7,19.9,0,,,101317.1,9.87,-0.38,0.73,0.62,-7.8,12.0,10.3,34.17,,,,,,,,,,
14.07.00.739,-80.7,20.2,0,,,101317.1,9.87,-0.35,0.62,0.4,9.6,1.4,-2.4,33.99,,,,,,,,,,
14.07.00.749,-83.7,20.9,0,,,101317.1,9.87,-0.54,0.65,0.64,0.9,3.7,15.6,34.62,,,,,,,,,,
14.07.00.759,-91.9,23.0,0,,,101317.1,9.87,-0.27,0.63,0.5,-4.8,0.2,-14.1,33.99,,,,,,,,,,
14.07.00.768,-85.9,21.5,0,,,101317.1,9.87,-0.3,0.6,0.46,-12.0,20.5,3.7,34.39,,,,,,,,,,
14.07.00.777,-105.6,26.4,0,,,101317.1,9.87,-0.33,0.63,0.56,4.0,15.4,-4.5,34.76,,,,,,,,,,
14.07.00.788,-103.8,26.0,0,,,101317.1,9.87,-0.29,0.59,0.43,18.4,-1.9,8.0,34.41,,,,,,,,,,
14.07.00.796,-109.5,27.4,0,,,101317.1,9.87,-0.36,0.57,0.39,-14.0,9.0,11.6,34.6,,,,,,,,,,
14.07.00.805,-95.2,23.8,0,,,101317.1,9.87,-0.3,0.78,0.43,0.9,5.0,-21.4,34.58,,,,,,,,,,
14.07.00.813,-106.6,26.6,0,,,101317.1,9.87,-0.29,0.76,0.61,1.2,8.7,5.1,34.22,,,,,,,,,,
14.07.00.824,-112.2,28.0,0,,,101317.1,9.87,-0.28,0.64,0.41,-19.6,-6.5,-10.6,34.18,,,,,,,,,,
14.07.00.836,-119.0,29.8,0,,,101317.1,9.87,-0.33,0.68,0.53,14.4,21.2,3.6,34.22,,,,,,,,,,
14.07.00.846,-116.3,29.1,0,,,101317.1,9.87,-0.33,0.78,0.64,1.1,15.9,2.3,34.7,,,,,,,,,,
14.07.00.855,-120.1,30.0,0,,,101317.1,9.87,-0.13,0.87,0.61,-4.4,19.4,1.4,33.95,,,,,,,,,,
14.07.00.863,-110.9,27.7,0,,,101317.1,9.87,-0.42,0.76,0.44,-4.4,17.5,-1.9,34.3,,,,,,,,,,
14.07.00.873,-132.7,33.2,0,,,101317.1,9.87,-0.31,0.75,0.44,26.4,10.7,4.1,34.03,,,,,,,,,,
14.07.00.885,-119.6,29.9,0,,,101317.1,9.87,-0.3,0.78,0.51,6.2,5.3,-4.1,34.01,,,,,,,,,,
14.07.00.893,29.0,7.2,0,,,101317.1,9.87,-0.53,0.86,0.47,1.4,4.1,11.1,34.29,,,,,,,,,,
14.07.00.902,53.7,13.4,0,,,101317.1,9.87,-0.48,0.78,0.32,26.4,3.4,-6.0,33.58,,,,,,,,,,
14.07.00.911,76.0,19.0,0,,,101317.1,9.87,-0.35,0.74,0.51,0.9,20.8,-12.3,34.19,,,,,,,,,,
14.07.00.922,116.4,29.1,1,9.0,67.6,101317.1,9.87,-0.36,0.69,0.53,9.2,-3.4,-13.0,34.41,,,,,,,,,,
14.07.00.932,152.8,38.2,0,,,101317.1,9.87,-0.44,0.77,0.5,-5.2,16.8,-0.6,34.95,,,,,,,,,,
14.07.00.942,163.7,40.9,0,,,101317.1,9.87,-0.35,0.74,0.43,23.4,9.9,-3.0,34.0,,,,,,,,,,
14.07.00.950,187.3,46.8,0,,,101317.1,9.87,-0.36,0.95,0.39,-8.2,-7.3,4.5,33.73,,,,,,,,,,
14.07.00.958,213.0,53.2,0,,,101317.1,9.87,-0.38,0.62,0.41,-13.4,23.5,13.0,34.3,,,,,,,,,,
14.07.00.969,228.8,57.2,0,,,101317.1,9.87,-0.4,0.6,0.5,-5.2,-6.6,0.1,34.13,,,,,,,,,,
14.07.00.978,264.9,66.2,0,,,101317.1,9.87,-0.32,0.82,0.55,-19.7,3.2,-6.7,34.61,,,,,,,,,,
14.07.00.986,250.0,62.5,0,,,101317.1,9.87,-0.49,0.66,0.58,2.7,22.5,5.8,34.21,,,,,,,,,,
14.07.00.997,306.9,76.7,0,,,101317.1,9.87,-0.35,0.78,0.42,-21.5,14.3,-24.8,34.01,,,,,,,,,,
14.07.01.007,292.2,73.0,0,,,101317.1,9.87,-0.45,0.67,0.51,0.5,-2.3,4.8,34.14,,,,,,,,,,
14.07.01.015,337.9,84.5,0,,,101317.1,9.87,-0.28,0.73,0.38,-5.4,4.1,0.7,34.4,,,,,,,,,,
14.07.01.024,299.6,74.9,0,,,101317.1,9.87,-0.34,0.76,0.5,-7.5,5.7,6.2,33.74,,,,,,,,,,
14.07.01.034,304.7,76.2,0,,,101317.1,9.87,-0.48,0.72,0.47,2.3,-2.1,2.1,34.7,,,,,,,,,,
14.07.01.045,305.7,76.4,0,,,101317.1,9.87,-0.45,0.73,0.5,15.8,15.0,3.3,34.16,,,,,,,,,,
14.07.01.056,339.4,84.8,0,,,101317.1,9.87,-0.37,0.71,0.52,-8.4,5.2,6.1,34.46,,,,,,,,,,
14.07.01.063,325.3,81.3,0,,,101317.1,9.87,-0.46,0.72,0.62,-1.1,6.1,6.5,33.94,,,,,,,,,,
14.07.01.074,289.6,72.4,0,,,101317.1,9.87,-0.35,0.78,0.53,2.5,4.5,-1.5,34.49,,,,,,,,,,
14.07.01.084,285.5,71.4,0,,,101317.1,9.87,-0.2,0.77,0.44,-9.2,16.9,9.6,34.57,,,,,,,,,,
14.07.01.096,261.3,65.3,0,,,101317.1,9.87,-0.35,0.85,0.54,-4.6,22.6,-10.2,34.03,,,,,,,,,,
14.07.01.106,251.7,62.9,0,,,101317.1,9.87,-0.24,0.75,0.51,-0.9,9.5,-21.8,34.7,,,,,,,,,,
14.07.01.114,245.2,61.3,0,,,101317.1,9.87,-0.48,0.72,0.56,14.6,-5.8,7.2,34.8,,,,,,,,,,
14.07.01.126,199.1,49.8,0,,,101317.1,9.87,-0.38,0.66,0.52,-13.1,8.1,-5.4,34.58,,,,,,,,,,
14.07.01.137,157.9,39.5,0,,,101317.1,9.87,-0.33,0.87,0.49,13.3,7.0,-14.9,33.92,,,,,,,,,,
14.07.01.147,129.9,32.5,0,,,101317.1,9.87,-0.34,0.76,0.62,28.7,1.8,-6.2,34.57,,,,,,,,,,
14.07.01.157,110.9,27.7,0,,,101317.1,9.87,-0.35,0.62,0.39,17.6,-3.4,-9.7,34.1,,,,,,,,,,
14.07.01.167,83.9,21.0,0,,,101317.1,9.87,-0.4,0.81,0.43,0.2,11.3,-3.0,34.7,,,,,,,,,,
14.07.01.178,46.9,11.7,0,,,101317.1,9.87,-0.38,0.9,0.48,3.4,15.8,-4.6,34.53,,,,,,,,,,
14.07.01.187,14.2,3.6,0,,,101317.1,9.87,-0.36,0.84,0.62,1.1,-13.7,3.2,34.26,,,,,,,,,,
14.07.01.197,15.8,4.0,0,,,101317.1,9.87,-0.41,0.61,0.54,-10.6,10.7,1.2,34.37,,,,,,,,,,
14.07.01.208,8.7,2.2,0,,,101317.1,9.87,-0.47,0.94,0.66,3.8,7.5,-12.9,34.11,,,,,,,,,,
14.07.01.217,24.6,6.2,0,,,101317.1,9.87,-0.28,0.71,0.7,6.4,-0.0,-4.7,34.22,,,,,,,,,,
14.07.01.226,28.8,7.2,0,,,101317.1,9.87,-0.3,0.84,0.41,3.9,3.7,1.2,34.03,,,,,,,,,,
14.07.01.235,33.0,8.2,0,,,101317.1,9.87,-0.39,0.83,0.55,-12.6,13.0,-10.7,34.53,,,,,,,,,,
14.07.01.247,42.8,10.7,0,,,101317.1,9.87,-0.33,0.84,0.46,-5.9,7.6,7.8,34.44,,,,,,,,,,
14.07.01.256,50.1,12.5,0,,,101317.1,9.87,-0.19,0.73,0.51,-3.1,5.1,-12.4,34.12,,,,,,,,,,
14.07.01.264,53.0,13.2,0,,,101317.1,9.87,-0.41,0.89,0.56,-13.2,-1.5,11.7,34.5,,,,,,,,,,
14.07.01.274,53.9,13.5,0,,,101317.1,9.87,-0.37,0.71,0.43,5.1,1.4,3.8,34.48,,,,,,,,,,
14.07.01.283,60.6,15.2,0,,,101317.1,9.87,-0.25,0.81,0.59,9.5,13.6,8.1,34.5,,,,,,,,,,
14.07.01.293,63.9,16.0,0,,,101317.1,9.87,-0.42,0.72,0.58,4.5,4.5,-3.9,34.88,,,,,,,,,,
14.07.01.304,44.9,11.2,0,,,101317.1,9.87,-0.38,0.74,0.54,-7.5,9.0,-7.8,33.73,,,,,,,,,,
14.07.01.314,45.6,11.4,0,,,101317.1,9.87,-0.35,0.66,0.45,-18.6,13.3,8.2,34.63,,,,,,,,,,
14.07.01.322,37.2,9.3,0,,,101317.1,9.87,-0.35,0.71,0.56,0.5,20.2,16.0,34.12,,,,,,,,,,
14.07.01.331,38.2,9.6,0,,,101317.1,9.87,-0.4,0.49,0.51,11.6,2.6,10.3,34.76,,,,,,,,,,
14.07.01.341,19.6,4.9,0,,,101317.1,9.87,-0.48,0.67,0.46,-13.8,9.1,-4.8,34.0,,,,,,,,,,
14.07.01.352,23.0,5.8,0,,,101317.1,9.87,-0.49,0.76,0.58,8.3,3.7,0.7,34.6,,,,,,,,,,
14.07.01.363,1.7,0.4,0,,,101317.1,9.87,-0.27,0.67,0.48,-2.4,11.4,-0.8,34.45,,,,,,,,,,
14.07.01.372,2.9,0.7,0,,,101317.1,9.87,-0.26,0.62,0.48,14.8,6.4,9.0,34.6,,,,,,,,,,
14.07.01.380,2.2,0.6,0,,,101317.1,9.87,-0.33,0.65,0.5,-3.6,6.0,-2.4,33.85,,,,,,,,,,
14.07.01.391,-12.4,3.1,0,,,101317.1,9.87,-0.31,0.8,0.39,-13.6,23.4,-11.5,33.98,,,,,,,,,,
14.07.01.401,-12.6,3.2,0,,,101317.1,9.87,-0.32,0.64,0.51,0.3,-4.9,11.2,34.45,,,,,,,,,,
14.07.01.410,-9.0,2.2,0,,,101317.1,9.87,-0.45,0.85,0.5,7.7,4.5,-13.6,34.5,,,,,,,,,,
14.07.01.421,-12.8,3.2,0,,,101317.1,9.87,-0.27,0.88,0.42,2.5,-8.6,3.2,34.31,,,,,,,,,,
14.07.01.430,-16.8,4.2,0,,,101317.1,9.87,-0.43,0.79,0.58,-13.6,17.1,-10.9,34.59,,,,,,,,,,
14.07.01.440,-20.6,5.2,0,,,101317.1,9.87,-0.35,0.87,0.61,-4.4,12.1,-5.5,34.57,,,,,,,,,,
14.07.01.449,-21.9,5.5,0,,,101317.1,9.87,-0.23,0.73,0.58,4.4,9.1,4.3,33.85,,,,,,,,,,
14.07.01.459,-26.7,6.7,0,,,101317.1,9.87,-0.32,0.74,0.57,17.3,0.4,-6.7,34.4,,,,,,,,,,
14.07.01.469,-33.8,8.4,0,,,101317.1,9.87,-0.4,0.95,0.48,-8.9,11.8,3.1,34.32,,,,,,,,,,
14.07.01.478,-27.9,7.0,0,,,101317.1,9.87,-0.27,0.66,0.58,5.0,5.6,-4.2,34.32,,,,,,,,,,
14.07.01.486,-33.2,8.3,0,,,101214.6,9.88,-0.3,0.84,0.42,-5.0,-7.5,1.3,34.52,,,,,,,,,,
14.07.01.495,-49.4,12.4,0,,,101214.6,9.88,-0.39,0.57,0.52,10.5,1.8,14.5,34.37,,,,,,,,,,
14.07.01.505,-40.6,10.2,0,,,101214.6,9.88,-0.36,0.71,0.44,29.5,2.4,-3.9,34.35,,,,,,,,,,
14.07.01.514,-41.7,10.4,0,,,101214.6,9.88,-0.32,0.66,0.57,10.6,19.6,-4.9,34.33,,,,,,,,,,
14.07.01.524,-49.2,12.3,0,,,101214.6,9.88,-0.22,0.76,0.6,-8.4,15.6,-0.2,33.96,,,,,,,,,,
14.07.01.533,-45.7,11.4,0,,,101214.6,9.88,-0.26,0.7,0.38,-12.7,10.9,-5.5,34.18,,,,,,,,,,
14.07.01.543,-70.4,17.6,0,,,101214.6,9.88,-0.36,0.66,0.59,-17.7,-9.7,-2.3,34.67,,,,,,,,,,
14.07.01.554,-59.5,14.9,0,,,101214.6,9.88,-0.44,0.8,0.46,7.9,15.1,3.0,34.17,,,,,,,,,,
14.07.01.563,-55.2,13.8,0,,,101214.6,9.88,-0.31,0.87,0.53,-3.2,17.4,3.9,34.52,,,,,,,,,,
14.07.01.572,-73.8,18.4,0,,,101214.6,9.88,-0.18,0.68,0.43,-13.5,0.9,-14.4,34.36,,,,,,,,,,
14.07.01.582,-70.7,17.7,0,,,101214.6,9.88,-0.38,0.77,0.49,-15.0,20.7,7.6,34.44,,,,,,,,,,
14.07.01.594,-67.8,17.0,0,,,101214.6,9.88,-0.43,0.63,0.5,12.8,9.6,4.9,34.04,,,,,,,,,,
14.07.01.604,-69.5,17.4,0,,,101214.6,9.88,-0.38,0.76,0.48,11.1,16.7,-1.3,34.02,,,,,,,,,,
14.07.01.614,-77.2,19.3,0,,,101214.6,9.88,-0.33,0.8,0.54,-4.9,5.2,12.3,34.09,,,,,,,,,,
14.07.01.625,-88.0,22.0,0,,,101214.6,9.88,-0.17,0.74,0.58,3.5,21.2,-4.7,34.17,,,,,,,,,,
14.07.01.634,-93.2,23.3,0,,,101214.6,9.88,-0.43,0.59,0.43,-7.1,-2.1,-0.9,34.59,,,,,,,,,,
14.07.01.644,-85.9,21.5,0,,,101214.6,9.88,-0.43,0.71,0.52,0.5,15.8,-4.0,34.14,,,,,,,,,,
14.07.01.652,-82.2,20.6,0,,,101214.6,9.88,-0.52,0.67,0.42,-5.4,-7.4,-11.9,34.85,,,,,,,,,,
14.07.01.663,-100.6,25.2,0,,,101214.6,9.88,-0.41,0.85,0.45,-6.6,-7.5,6.0,34.06,,,,,,,,,,
14.07.01.673,-100.3,25.1,0,,,101214.6,9.88,-0.2,0.64,0.43,12.1,3.6,-9.1,34.19,,,,,,,,,,
14.07.01.685,-97.8,24.4,0,,,101214.6,9.88,-0.34,0.68,0.38,2.2,2.3,-6.6,34.15,,,,,,,,,,
14.07.01.696,-108.2,27.0,0,,,101214.6,9.88,-0.45,0.85,0.51,-6.5,7.5,4.0,34.42,,,,,,,,,,
14.07.01.705,-128.8,32.2,0,,,101214.6,9.88,-0.35,0.71,0.47,1.4,12.5,-4.0,34.69,,,,,,,,,,
14.07.01.716,-123.7,30.9,0,,,101214.6,9.88,-0.43,0.62,0.54,-0.0,9.0,2.5,34.27,,,,,,,,,,
14.07.01.726,-111.7,27.9,0,,,101214.6,9.88,-0.3,0.72,0.67,-20.0,10.4,11.7,34.1,,,,,,,,,,
14.07.01.735,-120.3,30.1,0,,,101214.6,9.88,-0.38,0.6,0.45,17.0,5.3,-5.4,34.47,,,,,,,,,,
14.07.01.748,-118.9,29.7,0,,,101214.6,9.88,-0.42,0.83,0.44,-0.8,6.1,14.3,33.99,,,,,,,,,,
14.07.01.756,-96.1,24.0,0,,,101214.6,9.88,-0.29,0.81,0.57,-3.4,16.7,3.4,34.16,,,,,,,,,,
14.07.01.763,3.5,0.9,0,,,101214.6,9.88,-0.31,0.72,0.34,-5.8,3.4,-2.8,34.07,,,,,,,,,,
14.07.01.773,39.5,9.9,0,,,101214.6,9.88,-0.28,0.9,0.55,11.5,16.5,-6.1,34.1,,,,,,,,,,
14.07.01.783,69.2,17.3,0,,,101214.6,9.88,-0.31,0.72,0.55,-5.2,10.2,-6.9,34.22,,,,,,,,,,
14.07.01.795,118.9,29.7,0,,,101214.6,9.88,-0.34,0.64,0.65,0.9,1.6,-6.7,34.39,,,,,,,,,,
14.07.01.803,122.7,30.7,0,,,101214.6,9.88,-0.48,0.62,0.47,3.5,-17.4,-4.8,34.17,,,,,,,,,,
14.07.01.814,165.8,41.4,0,,,101214.6,9.88,-0.12,0.67,0.44,0.1,-11.6,11.4,34.51,,,,,,,,,,
14.07.01.823,188.4,47.1,1,10.0,66.6,101214.6,9.88,-0.36,0.92,0.55,0.1,16.6,-7.8,34.27,,,,,,,,,,
14.07.01.832,200.9,50.2,0,,,101214.6,9.88,-0.31,0.64,0.56,-8.9,14.4,-10.8,34.39,,,,,,,,,,
14.07.01.839,231.0,57.8,0,,,101214.6,9.88,-0.47,0.75,0.57,16.8,-3.8,-14.7,34.0,,,,,,,,,,
14.07.01.849,249.9,62.5,0,,,101214.6,9.88,-0.52,0.64,0.5,-5.0,11.8,5.9,34.28,,,,,,,,,,
14.07.01.859,272.4,68.1,0,,,101214.6,9.88,-0.34,0.72,0.49,11.8,4.7,-21.2,34.56,,,,,,,,,,
14.07.01.869,278.2,69.6,0,,,101214.6,9.88,-0.36,0.87,0.51,-5.3,23.5,2.5,33.96,,,,,,,,,,
14.07.01.879,306.5,76.6,0,,,101214.6,9.88,-0.38,0.7,0.42,-3.6,19.5,4.4,33.88,,,,,,,,,,
14.07.01.888,300.0,75.0,0,,,101214.6,9.88,-0.31,0.77,0.46,-10.5,14.2,4.3,34.44,,,,,,,,,,
14.07.01.899,317.7,79.4,0,,,101214.6,9.88,-0.32,0.76,0.55,-0.3,13.2,2.4,33.88,,,,,,,,,,
14.07.01.910,295.9,74.0,0,,,101214.6,9.88,-0.35,0.7,0.48,-24.6,22.7,-9.1,33.99,,,,,,,,,,
14.07.01.919,321.1,80.3,0,,,101214.6,9.88,-0.45,0.83,0.53,-0.0,-0.9,-4.9,34.48,,,,,,,,,,
14.07.01.929,328.2,82.0,0,,,101214.6,9.88,-0.53,0.8,0.55,2.3,8.4,-5.9,33.92,,,,,,,,,,
14.07.01.939,311.0,77.8,0,,,101214.6,9.88,-0.37,0.66,0.55,7.6,21.1,0.9,34.02,,,,,,,,,,
14.07.01.949,283.5,70.9,0,,,101214.6,9.88,-0.39,0.69,0.51,9.2,0.6,3.6,34.04,,,,,,,,,,
14.07.01.959,279.4,69.8,0,,,101214.6,9.88,-0.3,0.76,0.55,0.7,9.5,-12.4,34.14,,,,,,,,,,
14.07.01.968,306.3,76.6,0,,,101214.6,9.88,-0.28,0.78,0.51,11.8,3.7,15.4,34.62,,34.31,,,,,,,,
14.07.01.976,268.6,67.2,0,,,101214.6,9.88,-0.35,0.73,0.67,-0.5,15.7,-9.0,34.08,,,,,,,,,,
14.07.01.984,234.6,58.6,0,,,101214.6,9.88,-0.34,0.65,0.45,15.7,16.7,-16.2,34.39,,,,,,,,,,
14.07.01.994,232.3,58.1,0,,,101214.6,9.88,-0.38,0.78,0.41,-15.7,3.5,-7.7,34.41,,,,,,,,,,
14.07.02.004,187.2,46.8,0,,,101214.6,9.88,-0.38,0.72,0.59,-9.7,9.0,-0.4,34.27,,,,,,,,,,
14.07.02.013,178.9,44.7,0,,,101214.6,9.88,-0.43,0.84,0.59,-24.9,13.9,-17.9,34.09,,,,,,,,,,
14.07.02.023,162.3,40.6,0,,,101214.6,9.88,-0.38,0.8,0.36,-11.3,10.8,-0.1,34.93,,,,,,,,,,
14.07.02.031,126.7,31.7,0,,,101214.6,9.88,-0.37,0.62,0.53,-5.0,9.7,-8.5,34.45,,,,,,,,,,
14.07.02.043,84.0,21.0,0,,,101214.6,9.88,-0.37,0.84,0.43,-6.5,-3.7,11.0,34.28,,,,,,,,,,
14.07.02.055,43.1,10.8,0,,,101214.6,9.88,-0.51,0.8,0.49,-12.5,2.7,5.0,34.13,,,,,,,,,,
14.07.02.064,5.6,1.4,0,,,101214.6,9.88,-0.35,0.72,0.47,-0.3,-4.0,-1.9,34.02,,,,,,,,,,
14.07.02.074,6.4,1.6,0,,,101214.6,9.88,-0.28,0.6,0.54,12.6,20.6,-1.4,34.25,,,,,,,,,,
14.07.02.083,17.4,4.4,0,,,101214.6,9.88,-0.27,0.67,0.61,1.5,7.8,-12.1,34.02,,,,,,,,,,
14.07.02.094,16.2,4.0,0,,,101214.6,9.88,-0.45,0.64,0.51,-11.9,-12.7,-8.1,34.51,,,,,,,,,,
14.07.02.104,34.1,8.5,0,,,101214.6,9.88,-0.33,0.88,0.55,-1.7,2.8,8.9,33.77,,,,,,,,,,
14.07.02.114,37.3,9.3,0,,,101214.6,9.88,-0.26,0.77,0.42,-4.0,11.5,14.0,33.97,,,,,,,,,,
14.07.02.123,50.9,12.7,0,,,101214.6,9.88,-0.3,0.7,0.34,6.9,-7.0,0.1,34.42,,,,,,,,,,
14.07.02.134,47.5,11.9,0,,,101214.6,9.88,-0.34,0.74,0.65,2.4,-7.4,-6.7,34.35,,,,,,,,,,
14.07.02.143,63.3,15.8,0,,,101214.6,9.88,-0.35,0.79,0.59,-0.2,10.0,7.5,34.55,,,,,,,,,,
14.07.02.152,61.8,15.4,0,,,101214.6,9.88,-0.28,0.64,0.53,-8.4,11.9,-1.0,34.49,,,,,,,,,,
14.07.02.163,58.9,14.7,0,,,101214.6,9.88,-0.4,0.81,0.44,5.8,5.4,-2.1,34.56,,,,,,,,,,
14.07.02.174,60.3,15.1,0,,,101214.6,9.88,-0.31,0.72,0.39,4.4,6.4,7.9,34.63,,,,,,,,,,
14.07.02.182,58.5,14.6,0,,,101214.6,9.88,-0.39,0.73,0.53,15.0,2.4,14.6,34.54,,,,,,,,,,
14.07.02.192,55.7,13.9,0,,,101214.6,9.88,-0.44,0.74,0.64,1.2,10.7,-1.8,34.45,,,,,,,,,,
14.07.02.201,36.0,9.0,0,,,101214.6,9.88,-0.4,0.72,0.5,18.0,-1.6,5.0,34.3,,,,,,,,,,
14.07.02.212,30.9,7.7,0,,,101214.6,9.88,-0.32,0.83,0.44,14.4,3.1,-5.9,34.28,,,,,,,,,,
14.07.02.222,11.8,3.0,0,,,101214.6,9.88,-0.35,0.68,0.55,8.1,9.8,-2.4,34.26,,,,,,,,,,
14.07.02.233,8.9,2.2,0,,,101214.6,9.88,-0.33,0.63,0.47,5.2,-0.6,-10.0,34.24,,,,,,,,,,
14.07.02.244,-3.0,0.8,0,,,101214.6,9.88,-0.42,0.83,0.55,-4.0,-1.7,-4.2,34.12,,,,,,,,,,
14.07.02.254,11.4,2.8,0,,,101214.6,9.88,-0.33,0.76,0.51,-4.0,-9.3,0.3,34.81,,,,,,,,,,
14.07.02.264,-4.4,1.1,0,,,101214.6,9.88,-0.41,0.84,0.56,14.5,1.4,-2.8,34.0,,,,,,,,,,
14.07.02.273,-14.5,3.6,0,,,101214.6,9.88,-0.48,0.8,0.54,1.0,8.4,3.7,34.16,,,,,,,,,,
14.07.02.283,-10.6,2.6,0,,,101214.6,9.88,-0.39,0.73,0.56,22.0,1.1,7.5,34.44,,,,,,,,,,
14.07.02.294,-16.7,4.2,0,,,101214.6,9.88,-0.3,0.8,0.36,-8.1,5.9,10.9,34.36,,,,,,,,,,
14.07.02.304,-16.9,4.2,0,,,101214.6,9.88,-0.23,0.53,0.56,-19.0,9.5,-10.9,34.25,,,,,,,,,,
14.07.02.314,-20.3,5.1,0,,,101214.6,9.88,-0.37,0.83,0.5,4.8,11.3,6.5,34.58,,,,,,,,,,
14.07.02.322,-24.7,6.2,0,,,101214.6,9.88,-0.36,0.6,0.48,-22.0,-5.3,1.9,34.56,,,,,,,,,,
14.07.02.331,-30.2,7.6,0,,,101214.6,9.88,-0.28,0.73,0.45,-6.1,7.6,-2.9,34.31,,,,,,,,,,
14.07.02.343,-32.1,8.0,0,,,101214.6,9.88,-0.43,0.83,0.47,-7.4,5.0,-0.6,33.97,,,,,,,,,,
14.07.02.352,-35.5,8.9,0,,,101214.6,9.88,-0.49,0.7,0.45,12.8,4.4,-2.1,34.53,,,,,,,,,,
14.07.02.362,-37.9,9.5,0,,,101214.6,9.88,-0.34,0.75,0.34,1.0,12.6,-5.1,34.07,,,,,,,,,,
14.07.02.370,-37.3,9.3,0,,,101214.6,9.88,-0.48,0.81,0.62,-1.7,9.0,-9.2,34.55,,,,,,,,,,
14.07.02.378,-41.4,10.4,0,,,101214.6,9.88,-0.38,0.86,0.55,-12.7,18.4,10.5,34.49,,,,,,,,,,
14.07.02.385,-38.6,9.6,0,,,101214.6,9.88,-0.56,0.78,0.42,13.5,12.0,4.2,34.45,,,,,,,,,,
14.07.02.397,-50.1,12.5,0,,,101214.6,9.88,-0.44,0.67,0.63,9.4,15.2,5.5,34.2,,,,,,,,,,
14.07.02.408,-57.3,14.3,0,,,101214.6,9.88,-0.28,0.68,0.45,-0.4,-7.0,-14.8,33.64,,,,,,,,,,
14.07.02.418,-54.9,13.7,0,,,101214.6,9.88,-0.32,0.84,0.5,23.2,14.3,7.1,34.22,,,,,,,,,,
14.07.02.429,-69.8,17.4,0,,,101214.6,9.88,-0.36,0.82,0.51,-1.8,7.7,5.7,34.15,,,,,,,,,,
14.07.02.439,-61.4,15.4,0,,,101214.6,9.88,-0.29,0.85,0.43,3.0,3.1,0.7,34.18,,,,,,,,,,
14.07.02.450,-68.0,17.0,0,,,101214.6,9.88,-0.29,0.85,0.54,-14.0,10.5,0.8,34.91,,,,,,,,,,
14.07.02.460,-72.5,18.1,0,,,101214.6,9.88,-0.29,0.9,0.68,9.9,15.6,-0.1,34.4,,,,,,,,,,
14.07.02.471,-73.5,18.4,0,,,101214.6,9.88,-0.58,0.85,0.5,-1.3,7.8,6.4,34.21,,,,,,,,,,
14.07.02.478,-63.5,15.9,0,,,101214.6,9.88,-0.49,0.74,0.52,-23.0,-12.9,-0.8,34.33,,,,,,,,,,
14.07.02.488,-78.0,19.5,0,,,101214.6,9.88,-0.38,0.75,0.49,-9.1,-1.7,-7.0,34.28,,,,,,,,,,
14.07.02.498,-83.1,20.8,0,,,101214.6,9.88,-0.38,0.71,0.46,-25.6,4.0,-6.0,34.83,,,,,,,,,,
14.07.02.507,-80.4,20.1,0,,,101214.6,9.88,-0.4,0.51,0.49,-9.1,7.2,3.2,34.13,,,,,,,,,,
14.07.02.516,-86.8,21.7,0,,,101214.6,9.88,-0.33,0.54,0.49,-5.0,5.8,2.3,34.44,,,,,,,,,,
14.07.02.526,-87.0,21.8,0,,,101214.6,9.88,-0.33,0.78,0.55,0.1,-2.3,-12.9,34.3,,,,,,,,,,
14.07.02.537,-88.0,22.0,0,,,101214.6,9.88,-0.26,0.79,0.53,-9.4,5.9,4.8,33.87,,,,,,,,,,
14.07.02.547,-98.7,24.7,0,,,101214.6,9.88,-0.31,0.66,0.49,-10.0,-3.7,-0.4,34.62,,,,,,,,,,
14.07.02.557,-89.0,22.2,0,,,101214.6,9.88,-0.42,0.83,0.51,-5.3,12.4,6.3,34.36,,,,,,,,,,
14.07.02.567,-98.3,24.6,0,,,101214.6,9.88,-0.38,0.88,0.51,2.6,5.9,-2.4,34.94,,,,,,,,,,
14.07.02.577,-100.6,25.2,0,,,101214.6,9.88,-0.3,0.64,0.53,-5.3,15.5,-2.1,34.74,,,,,,,,,,
14.07.02.587,-99.5,24.9,0,,,101214.6,9.88,-0.25,0.75,0.46,-23.4,-1.8,-0.7,34.28,,,,,,,,,,
14.07.02.597,-122.3,30.6,0,,,101214.6,9.88,-0.43,0.76,0.53,-8.6,-16.5,-0.8,34.32,,,,,,,,,,
14.07.02.607,-121.7,30.4,0,,,101214.6,9.88,-0.42,0.73,0.45,9.7,-0.1,2.1,34.36,,,,,,,,,,
14.07.02.615,-130.5,32.6,0,,,101214.6,9.88,-0.45,0.79,0.44,-5.2,10.5,4.4,34.59,,,,,,,,,,
14.07.02.624,-104.0,26.0,0,,,101214.6,9.88,-0.27,0.76,0.26,18.6,8.4,5.5,34.22,,,,,,,,,,
14.07.02.632,-130.9,32.7,0,,,101214.6,9.88,-0.41,0.76,0.51,6.0,2.4,0.0,34.21,,,,,,,,,,
14.07.02.641,9.5,2.4,0,,,101214.6,9.88,-0.49,0.62,0.56,36.5,22.6,4.9,33.82,,,,,,,,,,
14.07.02.650,46.9,11.7,0,,,101214.6,9.88,-0.33,0.64,0.59,13.1,1.9,-3.7,34.67,,,,,,,,,,
14.07.02.661,76.6,19.2,0,,,101214.6,9.88,-0.54,0.67,0.55,-11.5,1.9,6.2,34.28,,,,,,,,,,
14.07.02.671,104.4,26.1,0,,,101214.6,9.88,-0.37,0.9,0.39,9.9,22.7,-13.4,34.27,,,,,,,,,,
14.07.02.681,153.8,38.4,0,,,101214.6,9.88,-0.54,0.67,0.4,8.6,5.4,-7.8,34.3,,,,,,,,,,
14.07.02.691,159.9,40.0,1,11.0,69.1,101214.6,9.88,-0.27,0.78,0.35,-10.3,0.9,-1.5,35.06,,,,,,,,,,
14.07.02.700,190.2,47.6,0,,,101214.6,9.88,-0.25,0.71,0.44,-21.0,2.3,1.1,34.62,,,,,,,,,,
14.07.02.712,210.7,52.7,0,,,101214.6,9.88,-0.35,0.79,0.54,-3.8,-5.4,6.8,34.32,,,,,,,,,,
14.07.02.719,235.9,59.0,0,,,101214.6,9.88,-0.31,0.78,0.63,-3.6,-6.6,3.6,34.24,,,,,,,,,,
14.07.02.728,275.5,68.9,0,,,101214.6,9.88,-0.39,0.45,0.68,27.5,8.3,0.7,33.93,,,,,,,,,,
14.07.02.738,268.3,67.1,0,,,101214.6,9.88,-0.49,0.8,0.41,-3.4,10.9,1.9,34.31,,,,,,,,,,
14.07.02.747,289.1,72.3,0,,,101214.6,9.88,-0.34,0.65,0.41,-5.1,6.4,-2.6,34.73,,,,,,,,,,
14.07.02.757,326.4,81.6,0,,,101214.6,9.88,-0.32,0.71,0.39,5.7,8.5,-7.4,34.28,,,,,,,,,,
14.07.02.771,355.8,89.0,0,,,101214.6,9.88,-0.22,0.65,0.54,-9.5,0.1,-5.9,34.29,,,,,,,,,,
14.07.02.783,314.6,78.6,0,,,101214.6,9.88,-0.33,0.88,0.48,-24.4,5.1,-19.8,34.26,,,,,,,,,,
14.07.02.792,318.0,79.5,0,,,101214.6,9.88,-0.26,0.77,0.57,4.5,-10.8,-7.0,34.45,,,,,,,,,,
14.07.02.804,339.7,84.9,0,,,101214.6,9.88,-0.41,0.81,0.56,13.2,11.9,-6.2,34.31,,,,,,,,,,
14.07.02.814,325.3,81.3,0,,,101214.6,9.88,-0.25,0.66,0.52,-18.8,3.1,13.6,34.76,,,,,,,,,,
14.07.02.825,300.5,75.1,0,,,101214.6,9.88,-0.34,0.58,0.49,-13.4,14.9,-2.6,34.3,,,,,,,,,,
14.07.02.833,289.2,72.3,0,,,101214.6,9.88,-0.46,0.64,0.53,-6.5,-3.3,1.0,34.39,,,,,,,,,,
14.07.02.842,292.9,73.2,0,,,101214.6,9.88,-0.51,0.6,0.44,9.8,3.7,-23.6,33.94,,,,,,,,,,
14.07.02.852,249.8,62.4,0,,,101214.6,9.88,-0.35,0.92,0.47,-16.1,7.0,-10.9,34.31,,,,,,,,,,
14.07.02.859,249.5,62.4,0,,,101214.6,9.88,-0.37,0.62,0.45,4.6,20.1,-5.8,34.43,,,,,,,,,,
14.07.02.871,212.6,53.2,0,,,101214.6,9.88,-0.36,0.59,0.56,13.8,10.2,-8.3,34.89,,,,,,,,,,
14.07.02.880,194.3,48.6,0,,,101214.6,9.88,-0.31,0.89,0.44,-0.6,1.2,15.4,33.84,,,,,,,,,,
14.07.02.891,167.5,41.9,0,,,101214.6,9.88,-0.37,0.75,0.43,-9.1,8.1,-11.2,34.37,,,,,,,,,,
14.07.02.902,154.6,38.6,0,,,101214.6,9.88,-0.5,0.68,0.48,23.3,-21.9,-1.9,33.99,,,,,,,,,,
14.07.02.911,107.4,26.8,0,,,101214.6,9.88,-0.31,0.64,0.54,5.4,-6.7,-3.2,34.63,,,,,,,,,,
14.07.02.921,87.3,21.8,0,,,101214.6,9.88,-0.35,0.62,0.47,-6.1,2.1,1.8,34.52,,,,,,,,,,
14.07.02.930,38.4,9.6,0,,,101214.6,9.88,-0.4,0.77,0.54,28.1,12.0,14.8,34.2,,,,,,,,,,
14.07.02.939,21.5,5.4,0,,,101214.6,9.88,-0.35,0.69,0.55,34.6,4.2,12.9,34.46,,,,,,,,,,
14.07.02.953,-1.0,0.2,0,,,101214.6,9.88,-0.26,0.72,0.4,0.8,10.7,-19.9,34.18,,,,,,,,,,
14.07.02.964,27.5,6.9,0,,,101214.6,9.88,-0.43,0.58,0.43,-12.6,15.8,-5.4,33.6,,,,,,,,,,
14.07.02.975,32.3,8.1,0,,,101214.6,9.88,-0.31,0.9,0.36,-1.6,-0.1,-0.8,34.52,,,,,,,,,,
14.07.02.984,41.1,10.3,0,,,101214.6,9.88,-0.38,0.6,0.49,0.5,8.4,16.3,34.0,,,,,,,,,,
14.07.02.995,47.1,11.8,0,,,101214.6,9.88,-0.33,0.78,0.51,-17.4,10.8,-2.7,33.97,,,,,,,,,,
14.07.03.003,47.9,12.0,0,,,101214.6,9.88,-0.45,0.57,0.5,23.7,10.2,1.3,34.22,64.7,,,,,,,,,
14.07.03.012,50.6,12.6,0,,,101214.6,9.88,-0.44,0.71,0.66,8.0,2.1,3.2,34.76,,,,,,,,,,
14.07.03.023,53.9,13.5,0,,,101214.6,9.88,-0.47,0.53,0.51,-5.2,-3.9,-24.0,34.58,,,,,,,,,,
14.07.03.031,54.0,13.5,0,,,101214.6,9.88,-0.29,0.95,0.44,-5.0,10.7,8.4,34.22,,,,,,,,,,
14.07.03.041,51.9,13.0,0,,,101214.6,9.88,-0.44,0.76,0.56,7.6,-1.9,-4.1,34.15,,,,,,,,,,
14.07.03.050,58.4,14.6,0,,,101214.6,9.88,-0.45,0.84,0.61,-5.0,13.8,-4.8,34.44,,,,,,,,,,
14.07.03.062,45.9,11.5,0,,,101214.6,9.88,-0.31,0.58,0.45,-5.2,5.3,0.2,34.44,,,,,,,,,,
14.07.03.071,32.1,8.0,0,,,101214.6,9.88,-0.37,0.84,0.31,8.1,7.9,-3.1,34.36,,,,,,,,,,
14.07.03.082,34.4,8.6,0,,,101214.6,9.88,-0.25,0.82,0.51,3.8,0.2,-7.5,34.36,,,,,,,,,,
14.07.03.092,21.9,5.5,0,,,101214.6,9.88,-0.4,0.73,0.46,-9.6,-6.1,6.1,34.72,,,,,,,,,,
14.07.03.103,13.6,3.4,0,,,101214.6,9.88,-0.42,0.71,0.46,-10.6,15.0,-7.6,34.44,,,,,,,,,,
14.07.03.112,-6.3,1.6,0,,,101214.6,9.88,-0.21,0.59,0.58,-4.5,10.3,-4.4,34.15,,,,,,,,,,
14.07.03.123,-5.7,1.4,0,,,101214.6,9.88,-0.41,0.85,0.48,-4.2,-11.0,-0.6,34.01,,,,,,,,,,
14.07.03.131,1.5,0.4,0,,,101214.6,9.88,-0.53,0.61,0.49,-4.5,13.5,8.1,34.21,,,,,,,,,,
14.07.03.138,-3.4,0.8,0,,,101214.6,9.88,-0.29,0.72,0.68,-14.3,2.6,5.4,33.73,,,,,,,,,,
14.07.03.146,-1.4,0.4,0,,,101214.6,9.88,-0.37,0.79,0.42,-20.2,-6.6,-5.2,34.08,,,,,,,,,,
14.07.03.157,-9.3,2.3,0,,,101214.6,9.88,-0.31,0.7,0.49,5.9,-3.7,-14.2,34.15,,,,,,,,,,
14.07.03.167,-16.5,4.1,0,,,101214.6,9.88,-0.26,0.43,0.6,12.9,12.1,7.5,34.25,,,,,,,,,,
14.07.03.177,-13.5,3.4,0,,,101214.6,9.88,-0.22,0.83,0.67,-23.8,25.2,0.4,33.77,,,,,,,,,,
14.07.03.185,-20.2,5.0,0,,,101214.6,9.88,-0.53,0.75,0.34,11.7,1.4,-4.0,34.23,,,,,,,,,,
14.07.03.192,-28.0,7.0,0,,,101214.6,9.88,-0.36,0.62,0.49,-3.3,4.9,-3.2,34.27,,,,,,,,,,
14.07.03.203,-27.6,6.9,0,,,101214.6,9.88,-0.32,0.72,0.37,6.3,3.3,-9.1,34.49,,,,,,,,,,
14.07.03.215,-30.4,7.6,0,,,101214.6,9.88,-0.26,0.44,0.42,-29.1,-4.4,1.7,34.55,,,,,,,,,,
14.07.03.223,-33.6,8.4,0,,,101214.6,9.88,-0.42,0.58,0.4,32.2,9.7,-2.9,34.76,,,,,,,,,,
14.07.03.233,-40.6,10.2,0,,,101214.6,9.88,-0.35,0.92,0.44,7.8,24.3,1.5,33.93,,,,,,,,,,
14.07.03.243,-36.0,9.0,0,,,101214.6,9.88,-0.37,0.85,0.62,-7.5,12.5,-1.1,34.32,,,,,,,,,,
14.07.03.253,-44.7,11.2,0,,,101214.6,9.88,-0.48,0.77,0.53,-2.5,15.1,2.6,34.31,,,,,,,,,,
14.07.03.264,-39.9,10.0,0,,,101214.6,9.88,-0.34,0.67,0.58,-5.0,3.3,-9.9,34.12,,,,,,,,,,
14.07.03.274,-50.0,12.5,0,,,101214.6,9.88,-0.39,0.69,0.54,11.1,-2.6,-2.9,34.32,,,,,,,,,,
14.07.03.283,-55.6,13.9,0,,,101214.6,9.88,-0.36,0.69,0.55,-1.0,-17.0,-18.6,34.34,,,,,,,,,,
14.07.03.292,-51.8,13.0,0,,,101214.6,9.88,-0.31,0.7,0.52,16.4,9.7,-17.6,34.61,,,,,,,,,,
14.07.03.300,-64.5,16.1,0,,,101214.6,9.88,-0.39,0.84,0.48,-6.9,23.3,-15.1,33.94,,,,,,,,,,
14.07.03.310,-62.6,15.6,0,,,101214.6,9.88,-0.27,0.73,0.43,-0.9,13.8,-8.8,34.46,,,,,,,,,,
14.07.03.322,-75.0,18.8,0,,,101214.6,9.88,-0.45,0.91,0.48,6.9,4.5,-1.1,34.73,,,,,,,,,,
14.07.03.333,-66.3,16.6,0,,,101214.6,9.88,-0.39,0.82,0.52,12.7,10.3,-4.9,34.31,,,,,,,,,,
14.07.03.341,-82.2,20.6,0,,,101214.6,9.88,-0.13,0.76,0.55,13.9,3.1,2.9,34.12,,,,,,,,,,
14.07.03.351,-62.8,15.7,0,,,101214.6,9.88,-0.49,0.68,0.51,22.5,3.8,-13.9,34.17,,,,,,,,,,
14.07.03.363,-77.7,19.4,0,,,101214.6,9.88,-0.45,0.54,0.46,0.9,14.3,0.2,34.04,,,,,,,,,,
14.07.03.372,-83.9,21.0,0,,,101214.6,9.88,-0.33,0.55,0.47,-1.0,-6.5,4.5,34.56,,,,,,,,,,
14.07.03.382,-86.5,21.6,0,,,101214.6,9.88,-0.31,0.68,0.55,-5.0,-4.5,6.9,34.33,,,,,,,,,,
14.07.03.393,-88.1,22.0,0,,,101214.6,9.88,-0.33,0.8,0.38,-5.7,-5.4,-10.5,34.29,,,,,,,,,,
14.07.03.402,-96.7,24.2,0,,,101214.6,9.88,-0.26,0.55,0.52,8.1,2.4,-7.8,34.38,,,,,,,,,,
14.07.03.411,-89.9,22.5,0,,,101214.6,9.88,-0.21,0.72,0.53,-8.5,6.5,-14.9,34.23,,,,,,,,,,
14.07.03.420,-87.9,22.0,0,,,101214.6,9.88,-0.37,0.74,0.4,-10.3,20.7,8.9,34.39,,,,,,,,,,
14.07.03.429,-103.2,25.8,0,,,101214.6,9.88,-0.3,0.74,0.44,-8.4,11.7,-9.3,34.8,,,,,,,,,,
14.07.03.440,-102.5,25.6,0,,,101214.6,9.88,-0.27,0.57,0.52,-11.6,-6.7,0.5,34.02,,,,,,,,,,
14.07.03.450,-114.2,28.6,0,,,101214.6,9.88,-0.34,0.88,0.5,-9.5,10.7,-13.2,34.39,,,,,,,,,,
14.07.03.464,-106.4,26.6,0,,,101214.6,9.88,-0.37,0.83,0.48,-9.8,2.2,-4.3,34.41,,,,,,,,,,
14.07.03.476,-117.3,29.3,0,,,101214.6,9.88,-0.39,0.74,0.64,18.2,19.1,-1.6,34.32,,,,,,,,,,
14.07.03.484,-118.5,29.6,0,,,101214.6,9.88,-0.27,0.77,0.57,5.7,7.8,-13.0,34.17,,,,,,,,,,
14.07.03.494,-130.8,32.7,0,,,101214.6,9.88,-0.47,0.67,0.52,1.9,4.0,-2.4,34.51,,,,,,,,,,
14.07.03.504,-114.5,28.6,0,,,101214.6,9.88,-0.39,0.79,0.58,9.1,-2.9,-5.4,34.77,,,,,,,,,,
14.07.03.515,2.8,0.7,0,,,101214.6,9.88,-0.28,0.62,0.38,-11.2,15.1,9.9,33.73,,,,,,,,,,
14.07.03.524,39.0,9.8,0,,,101214.6,9.88,-0.47,0.72,0.59,14.8,5.3,-3.8,34.41,,,,,,,,,,
14.07.03.533,53.9,13.5,0,,,101214.6,9.88,-0.42,0.77,0.49,2.2,11.2,13.6,34.91,,,,,,,,,,
14.07.03.543,96.4,24.1,0,,,101214.6,9.88,-0.49,0.8,0.45,-16.3,-12.5,2.7,34.52,,,,,,,,,,
14.07.03.551,120.5,30.1,0,,,101214.6,9.88,-0.43,0.75,0.42,-8.3,11.8,2.3,34.51,,,,,,,,,,
14.07.03.561,147.3,36.8,0,,,101214.6,9.88,-0.44,0.94,0.34,-12.0,1.0,-13.3,34.14,,,,,,,,,,
14.07.03.569,166.7,41.7,1,12.0,68.3,101214.6,9.88,-0.34,0.84,0.61,5.2,-6.0,7.4,33.9,,,,,,,,,,
14.07.03.576,208.4,52.1,0,,,101214.6,9.88,-0.34,0.67,0.58,-12.8,7.1,-9.4,34.01,,,,,,,,,,
14.07.03.586,209.5,52.4,0,,,101214.6,9.88,-0.25,0.88,0.61,2.6,16.8,3.2,34.34,,,,,,,,,,
14.07.03.595,246.6,61.6,0,,,101214.6,9.88,-0.27,0.77,0.56,1.1,4.4,-2.6,33.96,,,,,,,,,,
14.07.03.607,270.5,67.6,0,,,101214.6,9.88,-0.39,0.79,0.4,-5.7,6.3,-10.1,34.32,,,,,,,,,,
14.07.03.615,297.7,74.4,0,,,101214.6,9.88,-0.2,0.69,0.45,6.1,13.7,2.7,34.15,,,,,,,,,,
14.07.03.626,312.3,78.1,0,,,101214.6,9.88,-0.46,0.6,0.54,-3.5,19.6,9.5,34.83,,,,,,,,,,
14.07.03.635,318.0,79.5,0,,,101214.6,9.88,-0.24,0.77,0.5,-13.7,13.6,-5.2,34.28,,,,,,,,,,
14.07.03.646,325.8,81.4,0,,,101214.6,9.88,-0.3,0.54,0.5,20.4,-1.9,1.6,33.9,,,,,,,,,,
14.07.03.658,332.0,83.0,0,,,101214.6,9.88,-0.32,0.68,0.47,9.7,-0.7,14.5,34.08,,,,,,,,,,
14.07.03.668,309.2,77.3,0,,,101214.6,9.88,-0.36,0.78,0.42,-17.4,2.7,-13.2,33.63,,,,,,,,,,
14.07.03.678,313.1,78.3,0,,,101214.6,9.88,-0.32,0.78,0.36,13.2,-2.9,-4.9,33.87,,,,,,,,,,
14.07.03.688,309.1,77.3,0,,,101214.6,9.88,-0.3,0.75,0.53,-7.0,9.5,11.0,35.08,,,,,,,,,,
14.07.03.698,307.1,76.8,0,,,101214.6,9.88,-0.24,0.8,0.46,6.4,1.9,-3.6,34.44,,,,,,,,,,
14.07.03.708,277.0,69.2,0,,,101214.6,9.88,-0.32,0.58,0.55,6.2,3.5,1.6,34.32,,,,,,,,,,
14.07.03.715,288.1,72.0,0,,,101214.6,9.88,-0.36,0.65,0.48,-23.1,16.2,13.9,34.09,,,,,,,,,,
14.07.03.722,266.8,66.7,0,,,101214.6,9.88,-0.27,0.54,0.48,-15.5,20.6,5.0,33.55,,,,,,,,,,
14.07.03.733,224.5,56.1,0,,,101214.6,9.88,-0.47,0.81,0.63,34.7,2.9,-1.0,34.65,,,,,,,,,,
14.07.03.744,226.3,56.6,0,,,101214.6,9.88,-0.37,0.67,0.51,18.8,9.7,5.2,34.41,,,,,,,,,,
14.07.03.752,190.9,47.7,0,,,101214.6,9.88,-0.34,0.87,0.71,-16.0,8.5,1.4,33.94,,,,,,,,,,
14.07.03.761,177.5,44.4,0,,,101214.6,9.88,-0.22,0.89,0.41,4.8,-3.2,-7.1,34.41,,,,,,,,,,
14.07.03.769,162.6,40.6,0,,,101214.6,9.88,-0.4,0.87,0.61,-22.7,8.4,-5.3,34.32,,,,,,,,,,
14.07.03.779,124.9,31.2,0,,,101214.6,9.88,-0.37,0.57,0.57,8.6,12.6,-8.9,34.22,,,,,,,,,,
14.07.03.786,109.0,27.2,0,,,101214.6,9.88,-0.59,0.52,0.43,6.0,-7.0,-0.4,34.65,,,,,,,,,,
14.07.03.798,74.6,18.6,0,,,101214.6,9.88,-0.45,0.8,0.48,-17.0,2.7,-2.7,34.17,,,,,,,,,,
14.07.03.807,42.2,10.6,0,,,101112.2,9.89,-0.21,0.59,0.53,2.3,7.2,-17.1,33.97,,,,,,,,,,
14.07.03.815,18.8,4.7,0,,,101112.2,9.89,-0.31,0.72,0.42,1.2,1.6,-2.3,34.27,,,,,,,,,,
14.07.03.826,12.1,3.0,0,,,101112.2,9.89,-0.3,0.76,0.59,14.8,9.5,9.1,34.45,,,,,,,,,,
14.07.03.836,16.5,4.1,0,,,101112.2,9.89,-0.31,0.87,0.66,23.5,10.2,14.6,34.69,,,,,,,,,,
14.07.03.847,28.6,7.2,0,,,101112.2,9.89,-0.34,0.71,0.55,-12.9,14.3,-3.3,34.12,,,,,,,,,,
14.07.03.857,32.9,8.2,0,,,101112.2,9.89,-0.42,0.83,0.58,8.1,12.0,-2.4,34.56,,,,,,,,,,
14.07.03.865,45.7,11.4,0,,,101112.2,9.89,-0.4,0.62,0.6,0.8,17.6,-2.2,33.79,,,,,,,,,,
14.07.03.875,43.9,11.0,0,,,101112.2,9.89,-0.33,0.82,0.37,2.2,-18.2,-7.2,34.12,,,,,,,,,,
14.07.03.886,55.1,13.8,0,,,101112.2,9.89,-0.34,0.69,0.49,-5.1,1.0,-16.3,34.57,,,,,,,,,,
14.07.03.895,53.5,13.4,0,,,101112.2,9.89,-0.27,0.75,0.6,-6.0,-8.7,-9.4,34.1,,,,,,,,,,
14.07.03.907,53.2,13.3,0,,,101112.2,9.89,-0.42,0.73,0.58,5.4,7.8,8.1,34.14,,,,,,,,,,
14.07.03.918,64.0,16.0,0,,,101112.2,9.89,-0.45,0.84,0.45,10.2,-2.3,7.7,34.5,,,,,,,,,,
14.07.03.929,52.4,13.1,0,,,101112.2,9.89,-0.33,0.7,0.54,10.6,21.0,-14.4,34.29,,,,,,,,,,
14.07.03.938,48.0,12.0,0,,,101112.2,9.89,-0.42,0.85,0.64,6.2,8.1,6.0,34.52,,,,,,,,,,
14.07.03.947,41.1,10.3,0,,,101112.2,9.89,-0.35,0.59,0.44,7.5,12.9,-11.2,34.49,,,,,,,,,,
14.07.03.957,36.2,9.0,0,,,101112.2,9.89,-0.26,0.72,0.58,-11.7,-0.4,-11.4,33.85,,,,,,,,,,
14.07.03.967,30.1,7.5,0,,,101112.2,9.89,-0.39,0.75,0.42,16.9,13.0,1.5,34.52,,,,,,,,,,
14.07.03.977,22.5,5.6,0,,,101112.2,9.89,-0.25,0.63,0.48,24.8,-2.9,-0.8,34.34,,,,,,,,,,
14.07.03.985,10.8,2.7,0,,,101112.2,9.89,-0.34,0.59,0.54,17.7,-1.6,-3.4,34.42,,,,,,,,,,
14.07.03.995,0.6,0.2,0,,,101112.2,9.89,-0.25,0.6,0.53,13.5,-8.1,-5.5,34.25,,,,,,,,,,
14.07.04.006,-1.7,0.4,0,,,101112.2,9.89,-0.29,0.88,0.55,-18.4,15.7,3.7,34.46,,,,,,,,,,
14.07.04.017,-11.3,2.8,0,,,101112.2,9.89,-0.44,0.68,0.43,-2.3,-1.5,-8.1,34.61,,,,,,,,,,
14.07.04.026,-14.7,3.7,0,,,101112.2,9.89,-0.25,0.63,0.58,-1.9,10.7,-3.5,34.46,,,,,,,,,,
14.07.04.035,-18.0,4.5,0,,,101112.2,9.89,-0.34,0.77,0.43,6.3,-1.4,-5.0,34.39,,,,,,,,,,
14.07.04.045,-15.4,3.8,0,,,101112.2,9.89,-0.26,0.8,0.54,0.7,9.5,0.2,33.81,,,,,,,,,,
14.07.04.055,-13.9,3.5,0,,,101112.2,9.89,-0.25,0.76,0.49,-5.3,11.0,4.1,34.68,,,,,,,,,,
14.07.04.068,-23.6,5.9,0,,,101112.2,9.89,-0.34,0.83,0.51,-4.0,9.8,5.7,34.46,,,,,,,,,,
14.07.04.077,-32.7,8.2,0,,,101112.2,9.89,-0.41,0.69,0.66,3.6,-4.8,0.1,34.31,,,,,,,,,,
14.07.04.086,-36.1,9.0,0,,,101112.2,9.89,-0.37,0.71,0.52,4.2,-2.0,-11.8,33.91,,,,,,,,,,
14.07.04.095,-40.5,10.1,0,,,101112.2,9.89,-0.39,0.77,0.41,-11.6,13.3,-8.3,34.61,,,,,,,,,,
14.07.04.105,-33.0,8.2,0,,,101112.2,9.89,-0.35,0.76,0.48,-14.9,15.1,11.4,34.27,,,,,,,,,,
14.07.04.114,-42.5,10.6,0,,,101112.2,9.89,-0.54,0.7,0.48,13.1,-24.3,-9.1,34.23,,,,,,,,,,
14.07.04.124,-42.0,10.5,0,,,101112.2,9.89,-0.33,0.87,0.49,4.0,-5.6,4.9,34.56,,,,,,,,,,
14.07.04.137,-43.8,11.0,0,,,101112.2,9.89,-0.33,0.71,0.61,-6.6,16.5,-15.9,33.83,,,,,,,,,,
14.07.04.147,-58.4,14.6,0,,,101112.2,9.89,-0.31,0.7,0.52,-10.1,2.6,0.4,34.35,,,,,,,,,,
14.07.04.156,-51.3,12.8,0,,,101112.2,9.89,-0.52,0.66,0.46,7.2,25.0,-13.7,34.5,,,,,,,,,,
14.07.04.167,-50.4,12.6,0,,,101112.2,9.89,-0.39,0.8,0.51,25.5,2.3,-6.9,34.21,,,,,,,,,,
14.07.04.177,-56.9,14.2,0,,,101112.2,9.89,-0.45,0.69,0.49,-12.2,15.5,-15.2,34.67,,,,,,,,,,
14.07.04.187,-54.8,13.7,0,,,101112.2,9.89,-0.33,0.85,0.59,-8.8,6.9,-9.2,34.43,,,,,,,,,,
14.07.04.197,-62.5,15.6,0,,,101112.2,9.89,-0.47,0.64,0.56,5.2,7.7,-1.8,34.01,,,,,,,,,,
14.07.04.208,-70.2,17.6,0,,,101112.2,9.89,-0.28,0.74,0.51,5.5,-11.5,-22.1,34.22,,,,,,,,,,
14.07.04.217,-67.6,16.9,0,,,101112.2,9.89,-0.28,0.72,0.52,5.8,10.3,1.1,34.11,,,,,,,,,,
14.07.04.226,-70.2,17.6,0,,,101112.2,9.89,-0.25,0.68,0.59,-6.3,2.7,-7.1,34.66,,,,,,,,,,
14.07.04.236,-79.7,19.9,0,,,101112.2,9.89,-0.31,0.81,0.39,-8.2,16.2,-12.0,34.33,,,,,,,,,,
14.07.04.246,-75.8,19.0,0,,,101112.2,9.89,-0.48,0.66,0.57,6.9,0.2,4.6,34.49,,,,,,,,,,
14.07.04.254,-89.2,22.3,0,,,101112.2,9.89,-0.41,0.84,0.43,7.7,0.3,16.2,34.36,,,,,,,,,,
14.07.04.263,-90.9,22.7,0,,,101112.2,9.89,-0.32,0.74,0.5,-20.2,14.8,0.5,34.15,,,,,,,,,,
14.07.04.273,-82.8,20.7,0,,,101112.2,9.89,-0.35,0.65,0.51,5.3,20.0,1.8,34.02,,,,,,,,,,
14.07.04.282,-104.5,26.1,0,,,101112.2,9.89,-0.35,0.71,0.44,-6.3,2.9,11.0,34.41,,,,,,,,,,
14.07.04.294,-101.2,25.3,0,,,101112.2,9.89,-0.41,0.68,0.7,-6.1,1.6,-4.1,34.91,,,,,,,,,,
14.07.04.306,-97.9,24.5,0,,,101112.2,9.89,-0.34,0.78,0.54,5.9,17.7,0.7,34.49,,,,,,,,,,
14.07.04.318,-99.2,24.8,0,,,101112.2,9.89,-0.24,0.77,0.54,9.0,4.7,5.4,34.29,,,,,,,,,,
14.07.04.329,-108.3,27.1,0,,,101112.2,9.89,-0.38,0.68,0.41,-14.1,18.3,-14.3,34.05,,,,,,,,,,
14.07.04.339,-108.9,27.2,0,,,101112.2,9.89,-0.4,0.61,0.52,-11.0,20.5,-3.4,34.82,,,,,,,,,,
14.07.04.346,-106.8,26.7,0,,,101112.2,9.89,-0.3,0.7,0.41,-11.0,12.1,-13.2,34.5,,,,,,,,,,
14.07.04.356,-115.9,29.0,0,,,101112.2,9.89,-0.45,0.76,0.56,3.6,12.8,5.1,34.72,,,,,,,,,,
14.07.04.366,-126.8,31.7,0,,,101112.2,9.89,-0.33,0.71,0.62,16.1,-19.5,8.3,34.18,,,,,,,,,,
14.07.04.374,-126.6,31.6,0,,,101112.2,9.89,-0.38,0.54,0.48,-13.2,-9.3,11.4,33.99,,,,,,,,,,
14.07.04.384,-130.2,32.6,0,,,101112.2,9.89,-0.26,0.58,0.47,-21.1,5.2,-6.3,34.44,,,,,,,,,,
14.07.04.393,10.0,2.5,0,,,101112.2,9.89,-0.33,0.71,0.49,-9.4,-7.5,-11.2,34.38,,,,,,,,,,
14.07.04.403,48.2,12.0,0,,,101112.2,9.89,-0.47,0.69,0.47,4.2,8.4,-7.7,33.84,,,,,,,,,,
14.07.04.413,65.3,16.3,0,,,101112.2,9.89,-0.42,0.79,0.46,14.6,-11.4,-0.4,33.91,,,,,,,,,,
14.07.04.422,98.4,24.6,0,,,101112.2,9.89,-0.28,0.88,0.49,7.6,21.5,-6.0,34.56,,,,,,,,,,
14.07.04.431,137.4,34.4,0,,,101112.2,9.89,-0.42,0.65,0.4,-3.6,7.4,-14.0,33.75,,,,,,,,,,
14.07.04.440,173.0,43.2,0,,,101112.2,9.89,-0.3,0.72,0.59,6.6,15.4,3.6,33.99,,,,,,,,,,
14.07.04.451,205.0,51.2,0,,,101112.2,9.89,-0.41,0.64,0.42,19.8,-7.2,6.9,34.09,,,,,,,,,,
14.07.04.460,207.7,51.9,0,,,101112.2,9.89,-0.4,0.67,0.57,-26.8,-2.0,-0.7,34.5,,,,,,,,,,
14.07.04.468,238.8,59.7,0,,,101112.2,9.89,-0.18,0.74,0.42,-1.7,12.1,10.9,34.75,,,,,,,,,,
14.07.04.476,232.6,58.2,1,13.0,66.2,101112.2,9.89,-0.24,0.75,0.51,18.7,1.4,3.9,34.39,,,,,,,,,,
14.07.04.487,273.1,68.3,0,,,101112.2,9.89,-0.35,0.71,0.47,15.1,11.0,8.7,33.83,,,,,,,,,,
14.07.04.496,263.0,65.8,0,,,101112.2,9.89,-0.34,0.79,0.55,-15.6,6.0,-6.8,34.56,,,,,,,,,,
14.07.04.505,292.1,73.0,0,,,101112.2,9.89,-0.34,0.75,0.51,7.3,6.1,0.3,34.45,,,,,,,,,,
14.07.04.514,330.8,82.7,0,,,101112.2,9.89,-0.26,0.66,0.32,3.9,-0.1,-2.7,34.6,,,,,,,,,,
14.07.04.526,305.8,76.4,0,,,101112.2,9.89,-0.35,0.89,0.53,5.2,-5.3,1.4,34.83,,,,,,,,,,
14.07.04.536,289.9,72.5,0,,,101112.2,9.89,-0.39,0.67,0.55,-10.2,13.8,-0.7,34.47,,,,,,,,,,
14.07.04.545,312.1,78.0,0,,,101112.2,9.89,-0.28,0.59,0.49,-11.1,-16.0,-7.1,33.85,,,,,,,,,,
14.07.04.553,321.3,80.3,0,,,101112.2,9.89,-0.39,0.68,0.53,-18.3,5.6,-1.2,34.05,,,,,,,,,,
14.07.04.561,327.1,81.8,0,,,101112.2,9.89,-0.22,0.85,0.56,-6.5,-1.0,3.8,34.86,,,,,,,,,,
14.07.04.571,290.6,72.6,0,,,101112.2,9.89,-0.32,0.7,0.42,27.1,10.0,-14.2,33.79,,,,,,,,,,
14.07.04.579,301.5,75.4,0,,,101112.2,9.89,-0.39,0.64,0.6,24.9,6.4,0.6,34.38,,,,,,,,,,
14.07.04.589,287.7,71.9,0,,,101112.2,9.89,-0.36,0.76,0.56,3.8,7.8,15.1,34.08,,,,,,,,,,
14.07.04.597,270.6,67.6,0,,,101112.2,9.89,-0.42,0.71,0.47,-12.1,2.9,-4.7,34.35,,,,,,,,,,
14.07.04.609,250.6,62.6,0,,,101112.2,9.89,-0.35,0.77,0.47,7.5,12.0,-14.0,34.34,,,,,,,,,,
14.07.04.619,232.3,58.1,0,,,101112.2,9.89,-0.28,0.67,0.52,-8.5,14.7,11.8,33.94,,,,,,,,,,
14.07.04.630,205.7,51.4,0,,,101112.2,9.89,-0.43,0.68,0.33,3.4,19.3,-0.3,34.47,,,,,,,,,,
14.07.04.639,177.9,44.5,0,,,101112.2,9.89,-0.43,0.69,0.62,-14.2,9.9,8.0,34.43,,,,,,,,,,
14.07.04.648,145.6,36.4,0,,,101112.2,9.89,-0.42,0.79,0.46,2.6,-1.7,9.7,34.45,,,,,,,,,,
14.07.04.658,117.1,29.3,0,,,101112.2,9.89,-0.42,0.68,0.41,-25.4,13.3,-1.6,34.32,,,,,,,,,,
14.07.04.667,90.6,22.6,0,,,101112.2,9.89,-0.3,0.72,0.56,-18.1,8.4,-3.8,34.09,,,,,,,,,,
14.07.04.676,69.5,17.4,0,,,101112.2,9.89,-0.39,0.87,0.53,-12.1,-0.3,-1.9,34.18,,,,,,,,,,
14.07.04.687,32.3,8.1,0,,,101112.2,9.89,-0.31,0.61,0.55,-9.9,-6.7,6.8,33.87,,,,,,,,,,
14.07.04.697,5.7,1.4,0,,,101112.2,9.89,-0.27,0.75,0.57,-5.3,10.7,-0.6,34.38,,,,,,,,,,
14.07.04.707,20.6,5.2,0,,,101112.2,9.89,-0.42,0.72,0.49,-16.3,8.2,-3.9,34.43,,,,,,,,,,
14.07.04.715,13.9,3.5,0,,,101112.2,9.89,-0.33,0.71,0.66,-19.4,2.6,-10.9,34.28,,,,,,,,,,
14.07.04.723,31.7,7.9,0,,,101112.2,9.89,-0.39,0.72,0.46,9.7,9.9,-7.8,34.32,,,,,,,,,,
14.07.04.732,40.7,10.2,0,,,101112.2,9.89,-0.44,0.65,0.46,-1.6,-7.8,8.3,34.38,,,,,,,,,,
14.07.04.741,32.2,8.0,0,,,101112.2,9.89,-0.34,0.8,0.46,-10.3,19.4,-13.6,34.36,,,,,,,,,,
14.07.04.750,49.4,12.4,0,,,101112.2,9.89,-0.36,0.49,0.46,-16.9,8.4,5.6,34.15,,,,,,,,,,
14.07.04.759,46.5,11.6,0,,,101112.2,9.89,-0.3,0.84,0.64,7.6,3.0,-3.3,34.2,,,,,,,,,,
14.07.04.770,56.2,14.0,0,,,101112.2,9.89,-0.37,0.74,0.62,16.6,10.7,3.6,34.28,,,,,,,,,,
14.07.04.781,60.9,15.2,0,,,101112.2,9.89,-0.34,0.66,0.37,-6.1,16.0,-7.2,34.27,,,,,,,,,,
14.07.04.792,55.7,13.9,0,,,101112.2,9.89,-0.29,0.84,0.48,-13.0,-5.3,-3.1,34.53,,,,,,,,,,
14.07.04.803,55.4,13.8,0,,,101112.2,9.89,-0.37,0.7,0.4,4.9,13.6,-1.6,34.8,,,,,,,,,,
14.07.04.813,53.9,13.5,0,,,101112.2,9.89,-0.42,0.82,0.54,-12.5,9.2,3.7,34.64,,,,,,,,,,
14.07.04.823,37.0,9.2,0,,,101112.2,9.89,-0.44,0.84,0.54,0.8,-2.0,-10.9,34.24,,,,,,,,,,
14.07.04.832,32.4,8.1,0,,,101112.2,9.89,-0.34,0.74,0.37,11.7,9.1,-5.9,34.67,,,,,,,,,,
14.07.04.844,29.6,7.4,0,,,101112.2,9.89,-0.34,0.67,0.54,-17.0,12.1,-10.0,34.68,,,,,,,,,,
14.07.04.854,21.1,5.3,0,,,101112.2,9.89,-0.28,0.77,0.49,5.4,0.7,-3.6,34.55,,,,,,,,,,
14.07.04.862,7.3,1.8,0,,,101112.2,9.89,-0.47,0.56,0.48,8.5,-15.7,3.0,34.26,,,,,,,,,,
14.07.04.869,-0.9,0.2,0,,,101112.2,9.89,-0.46,0.54,0.46,7.8,-5.9,-9.1,33.86,,,,,,,,,,
14.07.04.880,-4.0,1.0,0,,,101112.2,9.89,-0.32,0.75,0.68,14.0,-0.9,-7.5,34.15,,,,,,,,,,
14.07.04.890,-8.7,2.2,0,,,101112.2,9.89,-0.44,0.73,0.42,-1.9,-11.5,-6.0,34.31,,,,,,,,,,
14.07.04.899,-3.6,0.9,0,,,101112.2,9.89,-0.41,0.74,0.65,4.0,3.1,5.6,34.48,,,,,,,,,,
14.07.04.909,-14.3,3.6,0,,,101112.2,9.89,-0.38,0.81,0.49,-1.4,-0.2,-5.1,34.3,,,,,,,,,,
14.07.04.921,-25.3,6.3,0,,,101112.2,9.89,-0.45,0.65,0.4,12.8,13.2,-13.1,34.21,,,,,,,,,,
14.07.04.930,-30.8,7.7,0,,,101112.2,9.89,-0.35,0.76,0.54,12.4,2.3,-4.4,34.31,,,,,,,,,,
14.07.04.938,-14.3,3.6,0,,,101112.2,9.89,-0.44,0.76,0.63,-3.7,12.0,1.9,34.54,,,,,,,,,,
14.07.04.947,-21.1,5.3,0,,,101112.2,9.89,-0.39,0.69,0.47,4.7,8.0,2.8,34.55,,,,,,,,,,
14.07.04.956,-19.2,4.8,0,,,101112.2,9.89,-0.42,0.73,0.42,-19.1,15.4,-3.2,34.35,,,,,,,,,,
14.07.04.967,-28.9,7.2,0,,,101112.2,9.89,-0.42,0.8,0.36,12.9,15.2,3.0,33.96,,,,,,,,,,
14.07.04.978,-37.1,9.3,0,,,101112.2,9.89,-0.32,0.72,0.59,6.1,6.8,-1.6,34.29,,,,,,,,,,
14.07.04.989,-40.1,10.0,0,,,101112.2,9.89,-0.42,0.68,0.63,6.2,11.6,11.2,34.41,,,,,,,,,,
14.07.04.999,-40.9,10.2,0,,,101112.2,9.89,-0.48,0.74,0.5,-3.1,1.1,2.0,33.98,,,,,,,,,,
14.07.05.007,-38.7,9.7,0,,,101112.2,9.89,-0.46,0.89,0.44,16.7,7.0,-9.2,34.46,,,,,,,,,,
14.07.05.017,-43.2,10.8,0,,,101112.2,9.89,-0.38,0.75,0.46,6.4,-7.7,-2.8,34.31,,,,,,,,,,
14.07.05.029,-50.6,12.6,0,,,101112.2,9.89,-0.3,0.77,0.58,-16.7,-1.8,-4.9,34.61,,,,,,,,,,
14.07.05.040,-55.2,13.8,0,,,101112.2,9.89,-0.38,0.79,0.49,22.0,7.9,-4.8,34.12,,,,,,,,,,
14.07.05.051,-52.9,13.2,0,,,101112.2,9.89,-0.39,0.77,0.47,3.4,1.7,17.0,33.74,,,,,,,,,,
14.07.05.060,-51.7,12.9,0,,,101112.2,9.89,-0.43,0.69,0.53,-27.1,-4.3,-13.0,34.11,,,,,,,,,,
14.07.05.069,-59.8,15.0,0,,,101112.2,9.89,-0.41,0.71,0.43,6.7,13.2,-6.6,34.26,,,,,,,,,,
14.07.05.076,-63.7,15.9,0,,,101112.2,9.89,-0.39,0.77,0.6,9.7,3.6,8.9,34.49,,,,,,,,,,
14.07.05.085,-71.9,18.0,0,,,101112.2,9.89,-0.46,0.87,0.46,8.9,13.7,-0.7,34.09,,,,,,,,,,
14.07.05.094,-76.9,19.2,0,,,101112.2,9.89,-0.28,0.74,0.56,18.0,10.7,-8.8,34.08,,,,,,,,,,
14.07.05.103,-69.4,17.4,0,,,101112.2,9.89,-0.32,0.7,0.38,-11.0,11.3,1.1,34.27,,,,,,,,,,
14.07.05.114,-81.8,20.4,0,,,101112.2,9.89,-0.23,0.75,0.47,-0.7,-1.0,-12.3,33.7,,,,,,,,,,
14.07.05.124,-83.4,20.8,0,,,101112.2,9.89,-0.39,0.54,0.46,-13.8,15.8,1.7,34.54,,,,,,,,,,
14.07.05.135,-80.1,20.0,0,,,101112.2,9.89,-0.39,0.67,0.44,11.2,17.0,-4.5,34.22,,,,,,,,,,
14.07.05.146,-89.9,22.5,0,,,101112.2,9.89,-0.34,0.79,0.47,19.6,7.6,-0.1,33.87,,,,,,,,,,
14.07.05.156,-84.5,21.1,0,,,101112.2,9.89,-0.28,0.65,0.55,13.2,5.7,1.2,33.97,,,,,,,,,,
14.07.05.165,-104.1,26.0,0,,,101112.2,9.89,-0.32,0.51,0.56,-15.4,-2.3,2.8,34.43,,,,,,,,,,
14.07.05.174,-88.6,22.2,0,,,101112.2,9.89,-0.32,0.69,0.55,-6.5,4.2,-0.6,34.49,,,,,,,,,,
14.07.05.184,-107.3,26.8,0,,,101112.2,9.89,-0.33,0.84,0.49,-3.2,14.5,-8.1,34.59,,,,,,,,,,
14.07.05.194,-102.4,25.6,0,,,101112.2,9.89,-0.4,0.81,0.54,-11.8,-2.1,-17.5,34.35,,,,,,,,,,
14.07.05.204,-113.6,28.4,0,,,101112.2,9.89,-0.34,0.68,0.57,-14.8,4.2,-7.0,34.47,,,,,,,,,,
14.07.05.215,-109.0,27.2,0,,,101112.2,9.89,-0.27,0.68,0.45,-1.6,17.4,-9.3,34.21,,,,,,,,,,
14.07.05.225,-113.9,28.5,0,,,101112.2,9.89,-0.32,0.82,0.47,-5.2,2.9,4.5,33.96,,,,,,,,,,
14.07.05.234,-105.6,26.4,0,,,101112.2,9.89,-0.41,0.7,0.38,6.2,26.5,-11.8,34.46,,,,,,,,,,
14.07.05.244,-133.9,33.5,0,,,101112.2,9.89,-0.4,0.85,0.37,7.0,13.6,-6.1,34.16,,,,,,,,,,
14.07.05.255,-119.4,29.8,0,,,101112.2,9.89,-0.34,0.73,0.46,-4.7,5.9,7.4,34.15,,,,,,,,,,
14.07.05.265,5.8,1.4,0,,,101112.2,9.89,-0.26,0.81,0.51,-21.2,0.6,-15.4,34.09,,,,,,,,,,
14.07.05.273,30.5,7.6,0,,,101112.2,9.89,-0.41,0.83,0.38,6.6,-1.1,-1.9,34.11,,,,,,,,,,
14.07.05.283,54.6,13.6,0,,,101112.2,9.89,-0.4,0.62,0.53,4.7,1.2,9.7,33.13,,,,,,,,,,
14.07.05.292,96.0,24.0,0,,,101112.2,9.89,-0.42,0.63,0.56,-18.3,19.2,-6.9,34.56,,,,,,,,,,
14.07.05.303,129.9,32.5,0,,,101112.2,9.89,-0.43,0.66,0.4,2.1,15.6,7.0,34.45,,,,,,,,,,
14.07.05.311,137.5,34.4,0,,,101112.2,9.89,-0.3,0.75,0.47,-15.1,6.1,-12.7,34.24,,,,,,,,,,
14.07.05.319,175.0,43.8,0,,,101112.2,9.89,-0.52,0.66,0.49,14.9,-1.8,-6.0,34.2,,,,,,,,,,
14.07.05.330,210.3,52.6,0,,,101112.2,9.89,-0.28,0.79,0.4,1.2,-1.8,-13.3,34.26,,,,,,,,,,
14.07.05.341,228.2,57.0,0,,,101112.2,9.89,-0.37,0.79,0.41,5.4,12.1,1.9,34.74,,,,,,,,,,
14.07.05.351,251.3,62.8,0,,,101112.2,9.89,-0.28,0.69,0.44,-12.2,0.8,-15.4,33.74,,,,,,,,,,
14.07.05.362,269.0,67.2,1,14.0,67.7,101112.2,9.89,-0.39,0.65,0.63,-7.1,2.1,0.3,34.31,,,,,,,,,,
14.07.05.371,302.3,75.6,0,,,101112.2,9.89,-0.29,1.09,0.49,10.4,10.9,-0.4,33.96,,,,,,,,,,
14.07.05.377,285.6,71.4,0,,,101112.2,9.89,-0.37,0.82,0.4,-0.5,14.9,6.4,34.63,,,,,,,,,,
14.07.05.385,303.6,75.9,0,,,101112.2,9.89,-0.46,0.72,0.5,-7.9,23.8,-2.9,34.34,,,,,,,,,,
14.07.05.396,299.3,74.8,0,,,101112.2,9.89,-0.27,0.78,0.45,14.5,4.5,4.0,34.72,,,,,,,,,,
14.07.05.407,341.7,85.4,0,,,101112.2,9.89,-0.44,0.87,0.48,-2.5,7.8,-5.4,34.51,,,,,,,,,,
14.07.05.417,336.0,84.0,0,,,101112.2,9.89,-0.4,0.63,0.47,12.3,3.7,-4.4,34.23,,,,,,,,,,
14.07.05.425,311.4,77.8,0,,,101112.2,9.89,-0.4,0.63,0.58,13.6,5.0,-4.4,33.93,,,,,,,,,,
14.07.05.434,312.4,78.1,0,,,101112.2,9.89,-0.3,0.87,0.43,4.0,6.5,-4.0,34.18,,,,,,,,,,
14.07.05.444,310.9,77.7,0,,,101112.2,9.89,-0.22,0.86,0.56,17.5,10.5,0.9,34.31,,,,,,,,,,
14.07.05.454,308.8,77.2,0,,,101112.2,9.89,-0.35,0.93,0.53,-2.9,7.9,-7.0,34.56,,,,,,,,,,
14.07.05.464,272.1,68.0,0,,,101112.2,9.89,-0.32,0.7,0.47,-13.7,2.5,-4.4,34.0,,,,,,,,,,
14.07.05.474,267.7,66.9,0,,,101010.1,9.9,-0.61,0.77,0.5,1.0,2.9,-7.3,34.3,,,,,,,,,,
14.07.05.483,250.5,62.6,0,,,101010.1,9.9,-0.33,0.88,0.47,-8.4,9.4,-19.8,34.01,,,,,,,,,,
14.07.05.494,222.5,55.6,0,,,101010.1,9.9,-0.34,0.78,0.46,9.1,-1.2,1.3,34.18,,,,,,,,,,
14.07.05.502,202.1,50.5,0,,,101010.1,9.9,-0.33,0.66,0.54,18.2,-4.1,-4.3,34.83,,,,,,,,,,
14.07.05.512,186.1,46.5,0,,,101010.1,9.9,-0.42,0.72,0.44,5.1,1.0,-9.4,33.95,,,,,,,,,,
14.07.05.522,142.4,35.6,0,,,101010.1,9.9,-0.43,0.95,0.55,6.6,12.3,-1.0,34.36,,,,,,,,,,
14.07.05.532,121.3,30.3,0,,,101010.1,9.9,-0.33,0.6,0.39,8.6,13.7,5.1,34.01,,,,,,,,,,
14.07.05.541,98.3,24.6,0,,,101010.1,9.9,-0.5,0.61,0.56,0.1,8.0,-13.4,34.48,,,,,,,,,,
14.07.05.549,69.9,17.5,0,,,101010.1,9.9,-0.41,0.72,0.55,-31.8,1.6,-7.6,33.99,,,,,,,,,,
14.07.05.557,44.5,11.1,0,,,101010.1,9.9,-0.36,0.66,0.51,-16.0,8.2,-10.9,34.42,,,,,,,,,,
14.07.05.564,24.3,6.1,0,,,101010.1,9.9,-0.34,0.67,0.45,-1.6,14.8,-0.2,33.85,,,,,,,,,,
14.07.05.578,10.7,2.7,0,,,101010.1,9.9,-0.4,0.82,0.31,4.5,-1.0,-10.6,33.3,,,,,,,,,,
14.07.05.587,12.7,3.2,0,,,101010.1,9.9,-0.38,0.7,0.6,-8.6,-2.4,-9.9,34.04,,,,,,,,,,
14.07.05.598,26.6,6.6,0,,,101010.1,9.9,-0.52,0.66,0.44,5.2,2.6,-13.1,34.82,,,,,,,,,,
14.07.05.608,42.8,10.7,0,,,101010.1,9.9,-0.34,0.58,0.47,1.7,18.9,1.7,34.82,,,,,,,,,,
14.07.05.618,44.7,11.2,0,,,101010.1,9.9,-0.37,0.79,0.53,-7.6,29.2,4.4,34.19,,,,,,,,,,
14.07.05.627,42.2,10.6,0,,,101010.1,9.9,-0.28,0.69,0.44,-5.3,8.1,-8.3,34.53,,,,,,,,,,
14.07.05.637,52.1,13.0,0,,,101010.1,9.9,-0.41,0.92,0.51,8.2,21.1,-2.9,34.66,,,,,,,,,,
14.07.05.646,56.6,14.2,0,,,101010.1,9.9,-0.46,0.8,0.52,8.6,7.2,15.8,34.39,,,,,,,,,,
14.07.05.655,56.8,14.2,0,,,101010.1,9.9,-0.43,0.61,0.46,8.1,14.2,-3.8,34.25,,,,,,,,,,
14.07.05.664,47.1,11.8,0,,,101010.1,9.9,-0.43,0.69,0.5,6.6,14.5,-3.8,34.04,,,,,,,,,,
14.07.05.675,60.4,15.1,0,,,101010.1,9.9,-0.46,0.65,0.46,-0.4,14.0,0.1,34.91,,,,,,,,,,
14.07.05.685,31.9,8.0,0,,,101010.1,9.9,-0.5,0.69,0.65,-21.9,-1.1,-1.0,34.3,,,,,,,,,,
14.07.05.693,47.0,11.8,0,,,101010.1,9.9,-0.24,0.8,0.32,5.1,8.4,-13.1,34.32,,,,,,,,,,
14.07.05.702,39.5,9.9,0,,,101010.1,9.9,-0.3,0.43,0.53,-30.7,22.0,3.9,34.78,,,,,,,,,,
14.07.05.712,32.6,8.2,0,,,101010.1,9.9,-0.32,0.78,0.66,31.2,11.2,21.2,34.46,,,,,,,,,,
14.07.05.722,23.1,5.8,0,,,101010.1,9.9,-0.4,0.74,0.58,7.4,-10.2,4.4,33.79,,,,,,,,,,
14.07.05.731,11.2,2.8,0,,,101010.1,9.9,-0.34,0.54,0.45,15.8,26.9,-1.5,34.6,,,,,,,,,,
14.07.05.742,1.6,0.4,0,,,101010.1,9.9,-0.33,0.72,0.41,0.8,15.6,-6.4,34.37,,,,,,,,,,
14.07.05.753,-6.4,1.6,0,,,101010.1,9.9,-0.29,0.73,0.47,16.6,16.3,-4.7,34.01,,,,,,,,,,
14.07.05.764,-2.2,0.6,0,,,101010.1,9.9,-0.31,0.72,0.59,-9.4,5.4,-0.8,34.47,,,,,,,,,,
14.07.05.775,-9.9,2.5,0,,,101010.1,9.9,-0.25,0.8,0.53,-10.1,3.0,-8.4,34.25,,,,,,,,,,
14.07.05.785,-11.8,3.0,0,,,101010.1,9.9,-0.3,0.89,0.48,7.3,-5.4,1.8,34.09,,,,,,,,,,
14.07.05.795,-18.3,4.6,0,,,101010.1,9.9,-0.33,0.83,0.52,-20.5,1.2,-21.1,33.89,,,,,,,,,,
14.07.05.805,-23.3,5.8,0,,,101010.1,9.9,-0.31,0.75,0.58,-7.1,-4.7,1.5,33.6,,,,,,,,,,
14.07.05.815,-15.6,3.9,0,,,101010.1,9.9,-0.44,0.82,0.57,-10.1,19.4,-5.9,34.01,,,,,,,,,,
14.07.05.824,-24.0,6.0,0,,,101010.1,9.9,-0.33,0.72,0.6,6.5,1.2,-6.4,34.19,,,,,,,,,,
14.07.05.834,-28.8,7.2,0,,,101010.1,9.9,-0.31,0.74,0.51,2.4,6.9,11.4,34.49,,,,,,,,,,
14.07.05.843,-41.6,10.4,0,,,101010.1,9.9,-0.34,0.74,0.47,-21.8,-2.7,4.9,34.24,,,,,,,,,,
14.07.05.856,-31.4,7.8,0,,,101010.1,9.9,-0.16,0.78,0.57,-2.0,-1.8,-5.3,34.51,,,,,,,,,,
14.07.05.866,-40.7,10.2,0,,,101010.1,9.9,-0.37,0.8,0.53,0.8,0.8,26.8,34.38,,,,,,,,,,
14.07.05.876,-42.5,10.6,0,,,101010.1,9.9,-0.43,0.58,0.56,31.9,14.2,4.8,35.03,,,,,,,,,,
14.07.05.886,-41.4,10.4,0,,,101010.1,9.9,-0.4,0.7,0.44,6.1,14.4,-16.6,34.62,,,,,,,,,,
14.07.05.894,-43.3,10.8,0,,,101010.1,9.9,-0.38,0.66,0.58,-5.5,6.0,-12.8,34.24,,,,,,,,,,
14.07.05.904,-43.1,10.8,0,,,101010.1,9.9,-0.33,0.76,0.45,17.1,3.8,-6.8,34.78,,,,,,,,,,
14.07.05.911,-52.9,13.2,0,,,101010.1,9.9,-0.37,0.61,0.44,10.1,-5.7,2.4,34.17,,,,,,,,,,
14.07.05.921,-47.7,11.9,0,,,101010.1,9.9,-0.5,0.87,0.6,5.6,8.1,-3.3,34.45,,,,,,,,,,
14.07.05.930,-63.7,15.9,0,,,101010.1,9.9,-0.27,0.63,0.48,2.4,-8.5,-16.2,34.07,,,,,,,,,,
14.07.05.939,-67.1,16.8,0,,,101010.1,9.9,-0.34,0.75,0.65,10.4,3.6,6.8,34.11,,,,,,,,,,
14.07.05.948,-75.9,19.0,0,,,101010.1,9.9,-0.5,0.69,0.45,-11.8,-6.0,-1.1,33.96,,,,,,,,,,
14.07.05.959,-71.3,17.8,0,,,101010.1,9.9,-0.37,0.85,0.47,27.8,5.5,7.9,33.91,,,,,,,,,,
14.07.05.969,-76.0,19.0,0,,,101010.1,9.9,-0.32,0.84,0.36,2.4,8.8,3.7,34.04,,,,,,,,,,
14.07.05.982,-70.7,17.7,0,,,101010.1,9.9,-0.3,0.91,0.53,18.7,-0.1,-4.4,34.09,,,,,,,,,,
14.07.05.994,-84.9,21.2,0,,,101010.1,9.9,-0.34,0.69,0.46,-15.6,4.1,-3.6,34.55,,,,,,,,,,
14.07.06.006,-90.9,22.7,0,,,101010.1,9.9,-0.45,0.81,0.43,-10.6,1.5,3.0,34.62,,,,,,,,,,
14.07.06.016,-78.7,19.7,0,,,101010.1,9.9,-0.43,0.78,0.45,-3.7,-1.9,-13.8,34.21,,,,,,,,,,
14.07.06.023,-78.9,19.7,0,,,101010.1,9.9,-0.36,0.74,0.54,9.2,6.3,-17.4,34.18,,,,,,,,,,
14.07.06.032,-81.8,20.4,0,,,101010.1,9.9,-0.33,0.78,0.57,-1.3,-6.7,-6.9,34.59,,,,,,,,,,
14.07.06.039,-94.7,23.7,0,,,101010.1,9.9,-0.46,0.8,0.39,-5.7,-2.7,3.2,34.04,,,,,,,,,,
14.07.06.049,-87.1,21.8,0,,,101010.1,9.9,-0.38,0.89,0.53,3.0,-4.6,7.7,34.11,,,,,,,,,,
14.07.06.056,-95.4,23.8,0,,,101010.1,9.9,-0.32,0.82,0.57,8.7,8.3,-4.8,33.7,,,,,,,,,,
14.07.06.068,-98.4,24.6,0,,,101010.1,9.9,-0.41,0.82,0.55,2.9,15.2,-0.9,33.96,,,,,,,,,,
14.07.06.076,-107.4,26.8,0,,,101010.1,9.9,-0.5,0.72,0.48,-10.1,4.5,-2.1,34.5,,,,,,,,,,
14.07.06.085,-114.8,28.7,0,,,101010.1,9.9,-0.33,0.61,0.43,-23.1,24.0,-5.7,34.39,,,,,,,,,,
14.07.06.095,-109.3,27.3,0,,,101010.1,9.9,-0.48,0.67,0.44,2.7,18.6,-5.4,34.39,,,,,,,,,,
14.07.06.105,-119.5,29.9,0,,,101010.1,9.9,-0.35,0.82,0.36,2.7,13.7,-3.0,34.29,,,,,,,,,,
14.07.06.115,-119.8,30.0,0,,,101010.1,9.9,-0.4,0.76,0.55,19.1,-5.5,-3.6,34.27,,,,,,,,,,
14.07.06.123,-122.0,30.5,0,,,101010.1,9.9,-0.39,0.74,0.57,12.7,17.8,-5.7,34.9,,,,,,,,,,
14.07.06.134,-139.9,35.0,0,,,101010.1,9.9,-0.32,0.63,0.59,3.0,18.3,7.9,34.1,,,,,,,,,,
14.07.06.144,15.0,3.8,0,,,101010.1,9.9,-0.45,0.55,0.53,5.5,-14.5,3.3,34.11,,,,,,,,,,
14.07.06.154,53.7,13.4,0,,,101010.1,9.9,-0.34,0.86,0.56,-28.3,-2.6,-3.2,34.32,,,,,,,,,,
14.07.06.163,76.9,19.2,0,,,101010.1,9.9,-0.35,0.54,0.46,7.6,24.7,-14.3,34.83,,,,,,,,,,
14.07.06.173,109.1,27.3,0,,,101010.1,9.9,-0.3,0.77,0.55,9.8,-3.6,-12.0,35.03,,,,,,,,,,
14.07.06.183,124.5,31.1,0,,,101010.1,9.9,-0.31,0.73,0.45,2.9,8.1,6.8,34.69,,,,,,,,,,
14.07.06.194,173.4,43.4,0,,,101010.1,9.9,-0.46,0.69,0.54,11.4,-7.6,14.7,34.69,,,,,,,,,,
14.07.06.203,193.0,48.2,0,,,101010.1,9.9,-0.39,0.72,0.54,-4.8,14.9,-10.8,34.72,,,,,,,,,,
14.07.06.212,225.0,56.2,0,,,101010.1,9.9,-0.46,0.6,0.66,7.3,12.7,16.1,34.34,,,,,,,,,,
14.07.06.220,245.7,61.4,0,,,101010.1,9.9,-0.29,0.44,0.39,-2.4,7.5,7.9,34.26,,,,,,,,,,
14.07.06.229,270.0,67.5,0,,,101010.1,9.9,-0.37,0.86,0.47,-2.0,14.7,-4.6,34.24,,,,,,,,,,
14.07.06.237,309.3,77.3,1,15.0,68.6,101010.1,9.9,-0.34,0.63,0.54,4.2,-2.0,-12.5,34.48,,,,,,,,,,
14.07.06.247,282.4,70.6,0,,,101010.1,9.9,-0.17,0.73,0.64,-7.4,1.5,-12.8,33.93,,,,,,,,,,
14.07.06.256,268.8,67.2,0,,,101010.1,9.9,-0.39,0.59,0.55,-0.2,-6.1,-13.4,34.62,,,,,,,,,,
14.07.06.264,294.6,73.6,0,,,101010.1,9.9,-0.36,0.73,0.61,7.3,13.3,5.4,34.14,,,,,,,,,,
14.07.06.274,324.4,81.1,0,,,101010.1,9.9,-0.3,0.85,0.37,-0.9,-1.7,12.0,34.43,,,,,,,,,,
14.07.06.281,314.1,78.5,0,,,101010.1,9.9,-0.27,0.57,0.54,18.8,-4.4,16.6,33.87,,,,,,,,,,
14.07.06.290,287.0,71.8,0,,,101010.1,9.9,-0.3,0.73,0.49,-15.3,6.0,1.9,34.14,,,,,,,,,,
14.07.06.301,337.1,84.3,0,,,101010.1,9.9,-0.39,0.74,0.55,21.7,16.2,-14.2,34.52,,,,,,,,,,
14.07.06.311,312.8,78.2,0,,,101010.1,9.9,-0.37,0.71,0.58,7.2,0.8,6.4,33.95,,,,,,,,,,
14.07.06.318,320.7,80.2,0,,,101010.1,9.9,-0.32,0.71,0.52,18.6,7.3,-12.6,33.99,,,,,,,,,,
14.07.06.330,281.7,70.4,0,,,101010.1,9.9,-0.35,0.68,0.54,5.0,14.8,-14.1,34.4,,,,,,,,,,
14.07.06.339,249.6,62.4,0,,,101010.1,9.9,-0.44,0.66,0.42,18.3,14.9,2.7,34.28,,,,,,,,,,
14.07.06.349,274.9,68.7,0,,,101010.1,9.9,-0.3,0.82,0.51,-1.0,8.3,-10.2,34.51,,,,,,,,,,
